time,seconds_elapsed,z,y,x
1633782296526553900,0.026553955078125,30.839385986328125,-2.492979049682617,-37.09244155883789
1633782296546433000,0.04643310546875,30.75030517578125,-2.5978527069091797,-37.27010726928711
1633782296566312200,0.066312255859375,30.4779052734375,-2.519235610961914,-37.32877731323242
1633782296586190800,0.08619091796875,30.488616943359375,-2.3410282135009766,-37.616695404052734
1633782296606071000,0.106071044921875,30.184326171875,-2.129283905029297,-37.58828353881836
1633782296625950000,0.125949951171875,29.60760498046875,-2.3851547241210938,-37.914981842041016
1633782296645828900,0.145828857421875,29.693023681640625,-2.173177719116211,-37.96540451049805
1633782296665708000,0.1657080078125,29.98553466796875,-2.1942405700683594,-37.89716720581055
1633782296685587000,0.1855869140625,30.147705078125,-2.393827438354492,-37.61904525756836
1633782296705466000,0.205466064453125,30.172393798828125,-2.132843017578125,-37.7226448059082
1633782296725345000,0.225344970703125,30.15838623046875,-2.2399463653564453,-37.780513763427734
1633782296745224000,0.245223876953125,30.052520751953125,-2.0762100219726562,-37.683780670166016
1633782296765102800,0.265102783203125,30.354522705078125,-2.1782798767089844,-37.70578384399414
1633782296784982000,0.28498193359375,30.5699462890625,-2.3448257446289062,-37.51686477661133
1633782296804861200,0.304861083984375,30.220367431640625,-2.243743896484375,-37.769527435302734
1633782296824740900,0.324740966796875,29.825225830078125,-2.0000572204589844,-37.87128829956055
1633782296844620000,0.3446201171875,30.217681884765625,-2.059110641479492,-37.79988479614258
1633782296864499200,0.364499267578125,29.992462158203125,-2.1029796600341797,-37.90764236450195
1633782296884377900,0.3843779296875,30.362213134765625,-2.368928909301758,-37.7916374206543
1633782296904257000,0.404257080078125,30.46240234375,-2.407184600830078,-37.53910446166992
1633782296924136000,0.424135986328125,30.207977294921875,-2.2976932525634766,-37.36691665649414
1633782296944015000,0.44401513671875,30.335601806640625,-2.317678451538086,-37.526790618896484
1633782296963894000,0.46389404296875,30.341033935546875,-2.8386459350585938,-37.548885345458984
1633782296983773000,0.48377294921875,30.1546630859375,-3.2012290954589844,-37.65353775024414
1633782297003653000,0.503653076171875,30.327423095703125,-3.221170425415039,-37.64139175415039
1633782297023532000,0.523531982421875,30.14227294921875,-3.4810447692871094,-37.84955978393555
1633782297043411000,0.543410888671875,30.303466796875,-3.809814453125,-37.50265121459961
1633782297063289900,0.563289794921875,30.209503173828125,-4.561796188354492,-37.93894577026367
1633782297083169000,0.5831689453125,29.9625244140625,-4.729167938232422,-37.98756790161133
1633782297103048200,0.603048095703125,29.620147705078125,-5.110048294067383,-38.13127517700195
1633782297122926800,0.6229267578125,29.124725341796875,-5.367742538452148,-38.36369705200195
1633782297142806000,0.642805908203125,29.0537109375,-5.437604904174805,-38.11220932006836
1633782297162685000,0.662684814453125,29.627838134765625,-5.817108154296875,-37.908443450927734
1633782297182564000,0.682564208984375,29.756805419921875,-6.182981491088867,-37.96126174926758
1633782297202444000,0.702444091796875,30.4407958984375,-6.360116958618164,-37.232723236083984
1633782297222323000,0.722322998046875,30.265625,-6.628684997558594,-37.262813568115234
1633782297242202000,0.7422021484375,30.87677001953125,-6.798555374145508,-36.71842575073242
1633782297262081000,0.7620810546875,31.5845947265625,-6.883081436157227,-36.12491989135742
1633782297281960000,0.7819599609375,32.34759521484375,-7.108469009399414,-35.37045669555664
1633782297301838800,0.8018388671875,32.8082275390625,-7.517419815063477,-34.65055465698242
1633782297321718000,0.821718017578125,33.16107177734375,-7.956579208374023,-34.7432746887207
1633782297341597200,0.84159716796875,32.853668212890625,-8.324167251586914,-34.364925384521484
1633782297361475800,0.861475830078125,33.042388916015625,-8.866983413696289,-33.831844329833984
1633782297381356000,0.88135595703125,33.17041015625,-9.069787979125977,-33.65388870239258
1633782297401235000,0.90123486328125,33.474212646484375,-9.510587692260742,-33.28737258911133
1633782297421113900,0.92111376953125,33.99462890625,-9.801462173461914,-33.15583419799805
1633782297440993000,0.940992919921875,34.239776611328125,-10.551752090454102,-32.8906135559082
1633782297460872000,0.960871826171875,34.47589111328125,-10.574087142944336,-32.67641067504883
1633782297480751000,0.980751220703125,34.40447998046875,-11.166086196899414,-32.390140533447266
1633782297500630800,1.000630859375,33.746490478515625,-11.470746994018555,-32.66765213012695
1633782297520510000,1.020510009765625,33.68402099609375,-11.678621292114258,-33.03483200073242
1633782297540389000,1.04038916015625,33.913360595703125,-12.00617790222168,-33.16164779663086
1633782297560268000,1.06026806640625,33.154510498046875,-12.054830551147461,-33.41402053833008
1633782297580148000,1.08014794921875,33.01202392578125,-12.179021835327148,-33.5836067199707
1633782297600027100,1.100027099609375,32.271270751953125,-12.443391799926758,-34.08260726928711
1633782297619906000,1.119906005859375,31.54437255859375,-12.112695693969727,-34.49000930786133
1633782297639785000,1.139784912109375,31.012176513671875,-12.34074592590332,-34.93110275268555
1633782297659664000,1.159663818359375,30.905670166015625,-12.201089859008789,-35.4242057800293
1633782297679543000,1.17954296875,30.377410888671875,-12.414793014526367,-35.56527328491211
1633782297699422000,1.199421875,29.75775146484375,-12.593873977661133,-35.72690963745117
1633782297719300900,1.21930078125,29.54998779296875,-12.997804641723633,-35.572261810302734
1633782297739180000,1.239179931640625,29.726043701171875,-13.553037643432617,-35.2564811706543
1633782297759060000,1.25906005859375,29.772613525390625,-14.626958847045898,-34.64274215698242
1633782297778939100,1.278939208984375,30.438995361328125,-15.415224075317383,-33.78911209106445
1633782297798817800,1.29881787109375,30.863800048828125,-16.95442008972168,-32.802425384521484
1633782297818697000,1.318697021484375,31.388153076171875,-17.38014793395996,-31.801647186279297
1633782297838576000,1.338576171875,31.994842529296875,-18.422414779663086,-30.601192474365234
1633782297858455000,1.358455078125,32.608154296875,-18.614015579223633,-29.60843276977539
1633782297878334000,1.378333984375,33.238250732421875,-19.501054763793945,-28.180110931396484
1633782297898212900,1.398212890625,33.99969482421875,-20.5391788482666,-27.43356704711914
1633782297918092000,1.418092041015625,34.283660888671875,-20.976247787475586,-25.914478302001953
1633782297937971000,1.437970947265625,34.821624755859375,-21.71598243713379,-24.51778793334961
1633782297957851000,1.457850830078125,35.884246826171875,-22.113508224487305,-23.03231430053711
1633782297977730000,1.47772998046875,36.439483642578125,-22.83101463317871,-21.40549087524414
1633782297997609000,1.49760888671875,37.05450439453125,-23.0637149810791,-19.815326690673828
1633782298017488100,1.517488037109375,37.79963684082031,-23.576555252075195,-17.98556900024414
1633782298037366800,1.53736669921875,37.952667236328125,-24.24498176574707,-16.21872329711914
1633782298057246000,1.557245849609375,38.46641540527344,-24.407426834106445,-14.423053741455078
1633782298077125000,1.577125,38.90745544433594,-25.108972549438477,-12.645343780517578
1633782298097004000,1.597004150390625,39.05677795410156,-25.121030807495117,-11.107227325439453
1633782298116883000,1.616883056640625,39.345001220703125,-25.319414138793945,-9.320301055908203
1633782298136763000,1.636762939453125,39.57102966308594,-25.417173385620117,-7.6002197265625
1633782298156642000,1.65664208984375,39.758636474609375,-25.4814510345459,-6.3912200927734375
1633782298176521000,1.67652099609375,40.50224304199219,-25.352842330932617,-5.4486236572265625
1633782298196399900,1.69639990234375,40.342132568359375,-25.17631721496582,-4.2542724609375
1633782298216279000,1.716279052734375,40.93516540527344,-24.80070686340332,-3.2809906005859375
1633782298236158000,1.736157958984375,41.005279541015625,-24.61512565612793,-2.1309738159179688
1633782298256037000,1.756037109375,41.5048828125,-24.3299617767334,-0.8607139587402344
1633782298275915800,1.775915771484375,41.956573486328125,-23.640047073364258,0.30052947998046875
1633782298295795000,1.795794921875,41.843963623046875,-23.409894943237305,1.2342529296875
1633782298315675100,1.815675048828125,41.925506591796875,-22.675600051879883,2.3768043518066406
1633782298335553800,1.8355537109375,42.27970886230469,-22.172964096069336,3.3690528869628906
1633782298355433000,1.855432861328125,42.284759521484375,-21.90253257751465,4.120922088623047
1633782298375312100,1.87531201171875,42.68608093261719,-21.306730270385742,5.0725250244140625
1633782298395191000,1.89519091796875,42.94117736816406,-20.971216201782227,5.875911712646484
1633782298415070000,1.915070068359375,43.11610412597656,-20.978235244750977,6.605915069580078
1633782298434948900,1.934948974609375,42.80973815917969,-20.917455673217773,7.4503326416015625
1633782298454828000,1.954828125,42.35017395019531,-21.013200759887695,8.110397338867188
1633782298474707000,1.97470703125,42.368896484375,-21.386220932006836,8.907028198242188
1633782298494586400,1.99458642578125,41.7001953125,-21.643022537231445,9.686016082763672
1633782298514465500,2.014465576171875,41.83592224121094,-22.082551956176758,9.895561218261719
1633782298534344400,2.034344482421875,41.46052551269531,-22.73234748840332,10.336692810058594
1633782298554223600,2.0542236328125,41.32066345214844,-22.99485206604004,10.721664428710938
1633782298574102500,2.0741025390625,40.86625671386719,-23.387434005737305,10.9447021484375
1633782298593981400,2.0939814453125,40.50532531738281,-23.96150016784668,11.251117706298828
1633782298613860400,2.1138603515625,39.854278564453125,-24.19510841369629,11.880916595458984
1633782298633739500,2.133739501953125,39.881011962890625,-24.687814712524414,12.207168579101562
1633782298653618700,2.15361865234375,39.4713134765625,-24.89088249206543,12.696155548095703
1633782298673498400,2.173498291015625,39.05548095703125,-24.802412033081055,13.282257080078125
1633782298693377500,2.19337744140625,39.04689025878906,-25.03782844543457,14.004501342773438
1633782298713256400,2.21325634765625,38.15232849121094,-25.100526809692383,14.63051986694336
1633782298733135400,2.23313525390625,38.23771667480469,-25.29524040222168,15.420028686523438
1633782298753014500,2.2530146484375,38.078399658203125,-25.360002517700195,16.05884552001953
1633782298772893400,2.2728935546875,37.98193359375,-25.341154098510742,16.35163116455078
1633782298792772600,2.292772705078125,37.966644287109375,-25.064268112182617,16.88345718383789
1633782298812651500,2.312651611328125,37.86143493652344,-24.811124801635742,17.401695251464844
1633782298832530400,2.332530517578125,37.653289794921875,-24.68477439880371,18.06436538696289
1633782298852410600,2.35241064453125,37.77813720703125,-24.338743209838867,18.51755142211914
1633782298872289500,2.37228955078125,37.649017333984375,-23.60697364807129,19.07382583618164
1633782298892168400,2.39216845703125,37.67491149902344,-22.945894241333008,19.513813018798828
1633782298912047400,2.41204736328125,37.83021545410156,-22.907461166381836,19.843048095703125
1633782298931926500,2.431926513671875,38.153472900390625,-22.765153884887695,20.043106079101562
1633782298951805700,2.4518056640625,38.19538879394531,-22.190759658813477,19.883499145507812
1633782298971684400,2.471684326171875,38.30949401855469,-22.079252243041992,20.12476348876953
1633782298991563500,2.4915634765625,38.621337890625,-21.826059341430664,20.07909393310547
1633782299011442400,2.5114423828125,38.56385803222656,-21.227407455444336,20.575511932373047
1633782299031322400,2.531322265625,38.51396179199219,-21.17274284362793,20.901809692382812
1633782299051201500,2.551201416015625,37.99455261230469,-20.840211868286133,22.242572784423828
1633782299071080400,2.57108056640625,37.66780090332031,-20.507837295532227,23.165456771850586
1633782299090959600,2.590959716796875,37.28428649902344,-20.073915481567383,24.16316795349121
1633782299110838500,2.610838623046875,37.42256164550781,-19.584169387817383,24.38956642150879
1633782299130717400,2.630717529296875,38.16578674316406,-19.390180587768555,24.08969497680664
1633782299150596400,2.650596435546875,38.72132873535156,-18.378145217895508,23.794090270996094
1633782299170475500,2.6704755859375,39.680694580078125,-17.276357650756836,23.355392456054688
1633782299190354700,2.690354736328125,39.76167297363281,-16.311368942260742,23.52269744873047
1633782299210234400,2.710234375,39.881805419921875,-14.958856582641602,23.73126220703125
1633782299230113500,2.730113525390625,39.75807189941406,-14.024785995483398,24.78428077697754
1633782299249992400,2.749992431640625,39.57305908203125,-12.846616744995117,25.548280715942383
1633782299269871400,2.769871337890625,39.15753173828125,-11.85304069519043,26.78080940246582
1633782299289750500,2.78975048828125,38.91511535644531,-11.231260299682617,27.513103485107422
1633782299309629400,2.80962939453125,38.06327819824219,-11.111169815063477,28.56737518310547
1633782299329508600,2.829508544921875,37.15986633300781,-11.172708511352539,29.120840072631836
1633782299349387500,2.849387451171875,36.93586730957031,-11.812528610229492,29.635770797729492
1633782299369266400,2.869266357421875,36.638092041015625,-12.060144424438477,29.60505485534668
1633782299389146600,2.889146728515625,36.99855041503906,-12.359010696411133,29.296714782714844
1633782299409025500,2.909025634765625,36.606292724609375,-12.302011489868164,29.00088882446289
1633782299428904400,2.928904541015625,36.81614685058594,-12.298608779907227,28.98749351501465
1633782299448783400,2.948783447265625,36.98942565917969,-12.431512832641602,28.67588996887207
1633782299468662500,2.96866259765625,36.588287353515625,-12.606542587280273,28.821651458740234
1633782299488541400,2.98854150390625,36.58015441894531,-12.444692611694336,29.366554260253906
1633782299508420400,3.00842041015625,36.390594482421875,-12.59837532043457,29.493255615234375
1633782299528299300,3.02829931640625,36.965789794921875,-12.632307052612305,29.42423439025879
1633782299548178200,3.04817822265625,36.90660095214844,-12.47776985168457,29.337879180908203
1633782299568058400,3.068058349609375,36.91790771484375,-12.792016983032227,29.05120086669922
1633782299587937000,3.08793701171875,37.08013916015625,-13.124139785766602,28.851194381713867
1633782299607816200,3.107816162109375,37.485321044921875,-13.730398178100586,28.30596160888672
1633782299627695400,3.1276953125,37.52494812011719,-14.56141471862793,27.403554916381836
1633782299647574300,3.14757421875,37.85517883300781,-15.268335342407227,26.525548934936523
1633782299667453200,3.167453125,38.24461364746094,-15.98060417175293,25.879899978637695
1633782299687332000,3.18733203125,38.38755798339844,-16.649381637573242,25.301666259765625
1633782299707211300,3.207211181640625,38.51850891113281,-17.176767349243164,24.3319149017334
1633782299727091200,3.22709130859375,38.371490478515625,-18.226247787475586,24.153268814086914
1633782299746970000,3.24697021484375,38.31294250488281,-19.359647750854492,23.706573486328125
1633782299766849300,3.266849365234375,37.73521423339844,-20.055761337280273,23.32613182067871
1633782299786728200,3.286728271484375,37.718963623046875,-20.277231216430664,22.939414978027344
1633782299806607400,3.306607421875,37.731414794921875,-21.059598922729492,22.282432556152344
1633782299826486000,3.326486083984375,37.88951110839844,-21.556886672973633,21.006328582763672
1633782299846365200,3.346365234375,38.20445251464844,-21.871850967407227,19.42840576171875
1633782299866244400,3.366244384765625,39.188934326171875,-21.98005485534668,17.683486938476562
1633782299886123300,3.386123291015625,40.09832763671875,-21.847257614135742,15.489849090576172
1633782299906003200,3.406003173828125,40.70079040527344,-21.575647354125977,13.697891235351562
1633782299925882400,3.42588232421875,41.62638854980469,-21.333703994750977,11.982959747314453
1633782299945761300,3.44576123046875,41.929595947265625,-21.1315860748291,10.423255920410156
1633782299965640200,3.46564013671875,42.4893798828125,-21.390180587768555,8.720817565917969
1633782299985519000,3.48551904296875,42.40074157714844,-21.82954978942871,6.897926330566406
1633782300005398300,3.505398193359375,42.62846374511719,-21.88593101501465,4.769245147705078
1633782300025277200,3.525277099609375,42.660491943359375,-21.998689651489258,2.2222938537597656
1633782300045156400,3.54515625,43.076873779296875,-21.370878219604492,-0.053264617919921875
1633782300065035300,3.56503515625,42.9901123046875,-20.5169734954834,-2.017047882080078
1633782300084915200,3.584915283203125,43.610595703125,-19.57679557800293,-3.4329261779785156
1633782300104794400,3.60479443359375,43.90806579589844,-19.01194953918457,-4.044441223144531
1633782300124673000,3.624673095703125,43.925506591796875,-18.815107345581055,-4.765735626220703
1633782300144552200,3.64455224609375,43.69664001464844,-19.033052444458008,-5.481510162353516
1633782300164431400,3.664431396484375,43.78990173339844,-19.11163902282715,-6.615745544433594
1633782300184310300,3.684310302734375,42.88221740722656,-19.262964248657227,-8.160079956054688
1633782300204189200,3.704189208984375,42.26554870605469,-19.754480361938477,-10.218570709228516
1633782300224068000,3.724068115234375,41.74232482910156,-20.069368362426758,-11.93411636352539
1633782300243947300,3.743947265625,41.46940612792969,-20.15736198425293,-13.237781524658203
1633782300263827200,3.7638271484375,41.687744140625,-20.225618362426758,-14.307308197021484
1633782300283706000,3.7837060546875,41.27655029296875,-20.014680862426758,-15.224018096923828
1633782300303585300,3.803585205078125,41.028656005859375,-19.570566177368164,-15.88992691040039
1633782300323464200,3.823464111328125,40.6732177734375,-19.55350685119629,-17.30208969116211
1633782300343343400,3.84334326171875,40.53215026855469,-19.1763858795166,-18.56838607788086
1633782300363222000,3.863221923828125,40.0653076171875,-17.915449142456055,-19.957897186279297
1633782300383101200,3.88310107421875,39.67799377441406,-17.2037296295166,-21.412220001220703
1633782300402980400,3.90298046875,39.194671630859375,-16.421903610229492,-22.527477264404297
1633782300422859300,3.922859375,39.62103271484375,-15.702886581420898,-23.709842681884766
1633782300442739200,3.9427392578125,39.11622619628906,-15.093267440795898,-24.953929901123047
1633782300462618000,3.9626181640625,38.807098388671875,-14.595682144165039,-26.078235626220703
1633782300482497300,3.982497314453125,38.54075622558594,-14.027158737182617,-26.738910675048828
1633782300502376400,4.00237646484375,38.29505920410156,-13.338945388793945,-27.564517974853516
1633782300522255600,4.022255615234375,38.16131591796875,-12.819814682006836,-28.243968963623047
1633782300542134500,4.042134521484375,37.72938537597656,-12.222101211547852,-28.775737762451172
1633782300562013700,4.062013671875,37.8670654296875,-11.96159553527832,-29.287364959716797
1633782300581892600,4.081892578125,37.879425048828125,-11.341329574584961,-29.767574310302734
1633782300601771500,4.101771484375,37.37434387207031,-11.258806228637695,-30.48575210571289
1633782300621651700,4.121651611328125,37.27870178222656,-11.078119277954102,-31.18375015258789
1633782300641530600,4.141530517578125,36.85755920410156,-10.630868911743164,-31.521610260009766
1633782300661409500,4.161409423828125,36.382537841796875,-10.296655654907227,-31.87917709350586
1633782300681288400,4.181288330078125,35.870697021484375,-10.099573135375977,-32.5120964050293
1633782300701167600,4.201167724609375,35.82794189453125,-9.921869277954102,-32.90517044067383
1633782300721046800,4.221046875,35.774017333984375,-9.792505264282227,-33.35757827758789
1633782300740925400,4.240925537109375,35.18243408203125,-9.457815170288086,-33.76992416381836
1633782300760804600,4.2608046875,34.648895263671875,-8.844167709350586,-34.664302825927734
1633782300780683500,4.28068359375,34.730926513671875,-7.654447555541992,-35.11894607543945
1633782300800562700,4.300562744140625,34.17584228515625,-7.188726425170898,-35.431705474853516
1633782300820442600,4.320442626953125,35.671112060546875,-7.026304244995117,-34.98166275024414
1633782300840321500,4.340321533203125,36.66033935546875,-6.867498397827148,-33.674739837646484
1633782300860200700,4.36020068359375,37.755706787109375,-8.203695297241211,-32.84462356567383
1633782300880079600,4.38007958984375,37.43479919433594,-9.059865951538086,-32.68404006958008
1633782300899958500,4.39995849609375,35.76275634765625,-9.679304122924805,-34.54874801635742
1633782300919837700,4.419837646484375,33.86138916015625,-9.078821182250977,-36.978939056396484
1633782300939716600,4.439716552734375,30.559539794921875,-7.965536117553711,-39.606197357177734
1633782300959595800,4.459595703125,28.282806396484375,-6.708045959472656,-42.07381820678711
1633782300979474400,4.479474365234375,25.70416259765625,-5.767337799072266,-43.7382926940918
1633782300999353600,4.499353515625,23.892547607421875,-4.806713104248047,-44.98024368286133
1633782301019233800,4.51923388671875,23.100311279296875,-4.25572395324707,-45.29404830932617
1633782301039112400,4.539112548828125,22.44940185546875,-3.2405033111572266,-45.83159255981445
1633782301058991600,4.55899169921875,22.474639892578125,-2.857921600341797,-45.8561897277832
1633782301078870500,4.57887060546875,22.264373779296875,-2.0877208709716797,-46.08241653442383
1633782301098749700,4.598749755859375,22.294036865234375,-0.9117412567138672,-46.23036575317383
1633782301118628600,4.618628662109375,22.17364501953125,-0.2561759948730469,-46.35734176635742
1633782301138507500,4.638507568359375,21.666778564453125,0.9938297271728516,-46.75961685180664
1633782301158386700,4.65838671875,21.11224365234375,1.9267597198486328,-46.81638717651367
1633782301178265600,4.678265625,20.738311767578125,2.9382495880126953,-47.1772346496582
1633782301198145500,4.6981455078125,19.974029541015625,4.090251922607422,-47.55995559692383
1633782301218024400,4.7180244140625,19.643341064453125,5.722414016723633,-47.19486618041992
1633782301237903600,4.737903564453125,19.85357666015625,7.463445663452148,-47.083927154541016
1633782301257782800,4.75778271484375,20.04205322265625,8.686788558959961,-46.706050872802734
1633782301277661400,4.777661376953125,20.420501708984375,9.438443183898926,-46.33420181274414
1633782301297540600,4.79754052734375,20.90087890625,9.762202262878418,-45.77756881713867
1633782301317419500,4.81741943359375,21.390655517578125,10.052361488342285,-45.51114273071289
1633782301337298700,4.837298583984375,21.55718994140625,10.697310447692871,-45.35611343383789
1633782301357177600,4.857177490234375,21.914154052734375,10.741067886352539,-45.210689544677734
1633782301377056500,4.877056396484375,21.809326171875,10.853352546691895,-45.24344253540039
1633782301396935700,4.896935791015625,21.370269775390625,11.195361137390137,-45.03163528442383
1633782301416815600,4.916815673828125,21.127960205078125,10.705020904541016,-45.0069465637207
1633782301436694500,4.936694580078125,21.1854248046875,10.517756462097168,-45.25040054321289
1633782301456573400,4.956573486328125,21.44476318359375,10.337054252624512,-44.95881271362305
1633782301476452600,4.97645263671875,21.658721923828125,10.287498474121094,-45.230342864990234
1633782301496331800,4.996331787109375,21.3616943359375,10.492731094360352,-45.08281326293945
1633782301516210200,5.016210205078125,21.212554931640625,10.560565948486328,-45.091854095458984
1633782301536088800,5.0360888671875,21.282501220703125,10.515059471130371,-44.98653793334961
1633782301555968000,5.055968017578125,21.27703857421875,10.265215873718262,-44.982784271240234
1633782301575847000,5.075846923828125,20.602325439453125,10.147626876831055,-45.29214096069336
1633782301595726800,5.095726806640625,20.186004638671875,10.089839935302734,-45.743778228759766
1633782301615606000,5.11560595703125,19.424346923828125,10.171265602111816,-46.095760345458984
1633782301635485000,5.13548486328125,18.687957763671875,10.308887481689453,-46.190608978271484
1633782301655364000,5.155364013671875,17.91351318359375,10.315568923950195,-46.20737075805664
1633782301675243000,5.175242919921875,17.560699462890625,10.57506275177002,-46.41245651245117
1633782301695122000,5.195121826171875,17.201171875,10.467191696166992,-46.33256149291992
1633782301715000800,5.215000732421875,17.54498291015625,10.548808097839355,-46.33671951293945
1633782301734880000,5.2348798828125,17.86761474609375,10.505873680114746,-46.35508346557617
1633782301754759200,5.25475927734375,18.191619873046875,10.55627155303955,-46.33774185180664
1633782301774637800,5.274637939453125,18.06549072265625,10.313714981079102,-46.28054428100586
1633782301794517000,5.29451708984375,17.987945556640625,10.65689754486084,-46.49264144897461
1633782301814397000,5.31439697265625,17.561065673828125,10.635676383972168,-46.22696304321289
1633782301834275800,5.33427587890625,17.203643798828125,10.77934455871582,-46.4854850769043
1633782301854155000,5.354155029296875,16.94195556640625,11.612305641174316,-46.32316207885742
1633782301874034000,5.374033935546875,16.41864013671875,11.772174835205078,-46.56166458129883
1633782301893913000,5.3939130859375,15.8409423828125,11.870457649230957,-46.69675827026367
1633782301913792000,5.4137919921875,15.9290771484375,12.03642463684082,-46.4897575378418
1633782301933671000,5.4336708984375,15.760772705078125,12.209461212158203,-46.71049118041992
1633782301953549800,5.4535498046875,16.0548095703125,11.886905670166016,-46.658145904541016
1633782301973429000,5.473428955078125,15.965667724609375,12.093494415283203,-46.64877700805664
1633782301993308200,5.49330810546875,16.1771240234375,12.019737243652344,-46.41276168823242
1633782302013186800,5.513186767578125,16.36053466796875,11.6012544631958,-46.46529769897461
1633782302033067000,5.53306689453125,16.336700439453125,11.74487018585205,-46.639102935791016
1633782302052946200,5.5529462890625,16.654052734375,11.74593734741211,-46.65797805786133
1633782302072824800,5.572824951171875,16.586151123046875,11.583898544311523,-46.604671478271484
1633782302092704000,5.5927041015625,16.360137939453125,11.580191612243652,-46.8197135925293
1633782302112583000,5.6125830078125,16.22735595703125,11.321145057678223,-46.93900680541992
1633782302132462000,5.632462158203125,15.786712646484375,10.854840278625488,-47.05229568481445
1633782302152341000,5.652341064453125,15.7845458984375,10.786686897277832,-47.25129318237305
1633782302172220000,5.672219970703125,15.861114501953125,10.698101043701172,-47.14799880981445
1633782302192098800,5.692098876953125,16.025634765625,10.485316276550293,-47.008731842041016
1633782302211978000,5.71197802734375,16.111907958984375,10.352398872375488,-47.04524612426758
1633782302231858000,5.73185791015625,16.664459228515625,10.114250183105469,-47.06486129760742
1633782302251736800,5.75173681640625,16.4871826171875,10.282816886901855,-47.0309944152832
1633782302271616000,5.771615966796875,17.040863037109375,10.372727394104004,-46.88539505004883
1633782302291495200,5.7914951171875,16.957244873046875,10.378690719604492,-46.99088668823242
1633782302311373800,5.811373779296875,17.41705322265625,10.453917503356934,-46.843265533447266
1633782302331253000,5.8312529296875,17.6806640625,10.261879920959473,-46.67898941040039
1633782302351132000,5.8511318359375,17.796173095703125,10.210089683532715,-46.88193893432617
1633782302371011000,5.871010986328125,17.551177978515625,10.263578414916992,-46.79387283325195
1633782302390890000,5.890889892578125,17.360748291015625,10.411574363708496,-47.00352096557617
1633782302410769000,5.910768798828125,17.769927978515625,10.521951675415039,-46.9509391784668
1633782302430648000,5.93064794921875,17.945281982421875,10.412711143493652,-46.6861686706543
1633782302450528000,5.950528076171875,17.80450439453125,10.265083312988281,-46.984004974365234
1633782302470407000,5.970406982421875,17.988128662109375,10.34870719909668,-46.59763717651367
1633782302490285800,5.990285888671875,17.577972412109375,10.550433158874512,-46.58999252319336
1633782302510165200,6.010165283203125,17.612030029296875,10.662636756896973,-46.68929672241211
1633782302530044200,6.030044189453125,17.788909912109375,10.32931137084961,-46.88386917114258
1633782302549923000,6.049923095703125,17.535400390625,10.375136375427246,-46.812931060791016
1633782302569802000,6.069802001953125,17.52227783203125,10.423711776733398,-46.91044235229492
1633782302589681200,6.08968115234375,17.00213623046875,10.258068084716797,-46.63248825073242
1633782302609560000,6.10956005859375,17.01739501953125,10.511002540588379,-46.90275955200195
1633782302629439200,6.129439208984375,17.323150634765625,10.615716934204102,-46.50101852416992
1633782302649318100,6.149318115234375,17.10089111328125,10.55043888092041,-46.442256927490234
1633782302669198000,6.169197998046875,17.069976806640625,10.72304916381836,-46.58114242553711
1633782302689077200,6.1890771484375,16.975372314453125,10.870159149169922,-46.7227897644043
1633782302708956000,6.208955810546875,16.637237548828125,10.633454322814941,-46.571292877197266
1633782302728835000,6.2288349609375,16.421295166015625,10.592924118041992,-46.99619674682617
1633782302748714200,6.24871435546875,15.688018798828125,10.80905532836914,-46.865177154541016
1633782302768593200,6.26859326171875,15.24774169921875,11.031425476074219,-47.1092414855957
1633782302788472000,6.28847216796875,15.151397705078125,11.10845947265625,-47.01810073852539
1633782302808351000,6.30835107421875,14.473175048828125,11.23961353302002,-47.404117584228516
1633782302828230100,6.328230224609375,14.83355712890625,10.942243576049805,-47.14094924926758
1633782302848109000,6.348109130859375,15.125946044921875,11.001164436340332,-47.125667572021484
1633782302867988200,6.36798828125,15.17962646484375,10.690347671508789,-47.15634536743164
1633782302887868200,6.3878681640625,15.9180908203125,10.533879280090332,-47.121219635009766
1633782302907747000,6.4077470703125,15.597930908203125,10.879262924194336,-47.17038345336914
1633782302927626200,6.427626220703125,15.4783935546875,10.837156295776367,-47.06599044799805
1633782302947505000,6.4475048828125,16.066680908203125,11.281109809875488,-46.9311408996582
1633782302967384000,6.467384033203125,15.6131591796875,11.866673469543457,-46.71391677856445
1633782302987263200,6.48726318359375,15.531646728515625,12.172759056091309,-46.88991928100586
1633782303007142100,6.50714208984375,15.728271484375,12.572303771972656,-46.930301666259766
1633782303027021000,6.52702099609375,16.257781982421875,12.992226600646973,-46.76552200317383
1633782303046900000,6.54689990234375,16.2100830078125,13.00814151763916,-46.68496322631836
1633782303066779100,6.566779052734375,16.316497802734375,13.125141143798828,-46.4478645324707
1633782303086658000,6.586657958984375,16.662750244140625,13.311652183532715,-46.52921676635742
1633782303106537200,6.606537109375,16.38336181640625,13.64480209350586,-46.6661262512207
1633782303126417200,6.626417236328125,16.21063232421875,13.940298080444336,-46.45094680786133
1633782303146296000,6.646296142578125,16.5440673828125,14.004940032958984,-46.00979232788086
1633782303166175200,6.66617529296875,16.49456787109375,13.992108345031738,-46.38283157348633
1633782303186054000,6.686053955078125,16.727783203125,13.768167495727539,-46.35360336303711
1633782303205933000,6.70593310546875,16.402679443359375,14.09386157989502,-46.16866683959961
1633782303225812200,6.725812255859375,16.239654541015625,14.079818725585938,-46.22819900512695
1633782303245691100,6.745691162109375,16.4595947265625,14.195576667785645,-46.05411148071289
1633782303265570000,6.765570068359375,16.455291748046875,14.44575309753418,-46.15877914428711
1633782303285449000,6.785448974609375,16.396759033203125,14.813827514648438,-46.012393951416016
1633782303305328000,6.805328125,16.16473388671875,14.300466537475586,-46.060916900634766
1633782303325207000,6.82520703125,16.120758056640625,14.25424861907959,-46.27878952026367
1633782303345087000,6.8450869140625,15.8314208984375,14.691941261291504,-46.5201530456543
1633782303364966100,6.864966064453125,15.621368408203125,14.437713623046875,-46.356868743896484
1633782303384845000,6.884844970703125,15.714569091796875,14.365212440490723,-46.66566848754883
1633782303404724200,6.90472412109375,15.06463623046875,14.7781400680542,-46.57828903198242
1633782303424603000,6.924602783203125,14.951019287109375,14.830229759216309,-46.66923904418945
1633782303444482000,6.94448193359375,14.687896728515625,14.505276679992676,-46.73897171020508
1633782303464361200,6.964361328125,14.81536865234375,14.759925842285156,-46.605342864990234
1633782303484240100,6.984240234375,14.679962158203125,14.56682014465332,-47.08991622924805
1633782303504119600,7.00411962890625,15.014739990234375,14.488922119140625,-46.81559371948242
1633782303523998500,7.02399853515625,14.93927001953125,14.373132705688477,-46.636592864990234
1633782303543877600,7.043877685546875,15.450531005859375,14.357138633728027,-46.4200325012207
1633782303563756800,7.0637568359375,15.5767822265625,14.04574966430664,-46.64729690551758
1633782303583636500,7.083636474609375,15.272308349609375,14.114487648010254,-46.69121170043945
1633782303603515600,7.103515625,15.3238525390625,13.7760648727417,-46.638736724853516
1633782303623394600,7.12339453125,15.519287109375,13.784621238708496,-46.6280632019043
1633782303643273500,7.1432734375,15.69146728515625,13.753829002380371,-46.631595611572266
1633782303663152600,7.163152587890625,15.74200439453125,13.672968864440918,-46.64402389526367
1633782303683031600,7.183031494140625,15.620574951171875,13.882576942443848,-46.65988540649414
1633782303702910700,7.20291064453125,15.573486328125,13.933415412902832,-46.65168380737305
1633782303722789600,7.22278955078125,15.53436279296875,13.895466804504395,-46.8082160949707
1633782303742668500,7.24266845703125,15.411163330078125,13.979028701782227,-46.946720123291016
1633782303762547500,7.26254736328125,15.115203857421875,14.196709632873535,-46.778804779052734
1633782303782426600,7.282426513671875,15.2486572265625,14.213699340820312,-46.62339401245117
1633782303802306600,7.302306640625,15.222442626953125,14.410124778747559,-46.5074577331543
1633782303822185500,7.322185546875,15.4791259765625,14.41727066040039,-46.495418548583984
1633782303842064600,7.342064697265625,15.522674560546875,14.27546215057373,-46.83286666870117
1633782303861943600,7.361943603515625,15.581085205078125,14.130595207214355,-46.710514068603516
1633782303881822500,7.381822509765625,15.207763671875,13.983940124511719,-46.708621978759766
1633782303901701600,7.40170166015625,15.44549560546875,14.014533042907715,-46.946712493896484
1633782303921580500,7.42158056640625,15.82257080078125,14.124749183654785,-46.5974006652832
1633782303941459700,7.441459716796875,15.581024169921875,13.855182647705078,-46.86025619506836
1633782303961338600,7.461338623046875,15.572906494140625,14.03717041015625,-46.77778244018555
1633782303981217500,7.481217529296875,15.36199951171875,13.923144340515137,-46.7811393737793
1633782304001096400,7.501096435546875,15.386199951171875,13.967839241027832,-46.62492752075195
1633782304020976600,7.5209765625,15.2972412109375,13.463118553161621,-46.70634078979492
1633782304040855600,7.54085546875,15.435272216796875,13.656258583068848,-46.70352554321289
1633782304060734500,7.560734375,14.986114501953125,13.346372604370117,-46.73770523071289
1633782304080613600,7.580613525390625,15.535980224609375,13.440945625305176,-46.57585525512695
1633782304100492800,7.600492919921875,15.3284912109375,13.43602180480957,-46.67081832885742
1633782304120371500,7.620371337890625,15.713958740234375,13.195673942565918,-46.608707427978516
1633782304140250600,7.640250732421875,15.99774169921875,13.15566349029541,-46.76102828979492
1633782304160129500,7.660129638671875,16.197601318359375,13.373080253601074,-46.48521041870117
1633782304180008700,7.6800087890625,16.576202392578125,13.163774490356445,-46.61970138549805
1633782304199887600,7.6998876953125,16.780731201171875,13.170174598693848,-46.47348403930664
1633782304219766500,7.7197666015625,16.02783203125,13.030667304992676,-46.40511703491211
1633782304239646700,7.739646728515625,16.269500732421875,13.11800479888916,-46.60197067260742
1633782304259525600,7.759525634765625,16.57049560546875,13.154397964477539,-46.52938461303711
1633782304279404500,7.779404541015625,16.54486083984375,13.478641510009766,-46.18523025512695
1633782304299283500,7.799283447265625,16.3809814453125,13.220812797546387,-46.2481803894043
1633782304319162600,7.81916259765625,16.77508544921875,12.90819263458252,-46.190547943115234
1633782304339041800,7.839041748046875,16.426971435546875,13.140026092529297,-46.34650802612305
1633782304358920400,7.85892041015625,16.542755126953125,12.887269973754883,-46.289791107177734
1633782304378799600,7.878799560546875,16.601287841796875,12.859246253967285,-46.359615325927734
1633782304398678500,7.898678466796875,16.847137451171875,13.194401741027832,-46.179752349853516
1633782304418557700,7.9185576171875,16.80633544921875,12.8605375289917,-46.50271224975586
1633782304438436600,7.9384365234375,16.474456787109375,13.199002265930176,-46.36825942993164
1633782304458315500,7.9583154296875,16.5179443359375,13.090044975280762,-46.34364700317383
1633782304478194700,7.978194580078125,16.62872314453125,13.253772735595703,-46.14548110961914
1633782304498074600,7.99807470703125,16.498931884765625,13.289562225341797,-46.18302536010742
1633782304517954000,8.0179541015625,16.657989501953125,13.11192798614502,-46.25664138793945
1633782304537833200,8.037833251953124,16.8497314453125,12.986138343811035,-46.330509185791016
1633782304557712400,8.05771240234375,16.927734375,13.29687786102295,-46.43938064575195
1633782304577591300,8.07759130859375,16.916259765625,13.019817352294922,-46.41166305541992
1633782304597470200,8.09747021484375,16.73248291015625,12.983481407165527,-46.165584564208984
1633782304617349000,8.11734912109375,16.6590576171875,13.277688026428223,-46.44919967651367
1633782304637228300,8.137228271484375,16.847625732421875,13.058813095092773,-46.5800666809082
1633782304657107200,8.157107177734375,16.958953857421875,13.184700965881348,-46.57664108276367
1633782304676986000,8.176986083984374,16.215484619140625,13.144427299499512,-46.8156852722168
1633782304696865300,8.196865234375,16.78997802734375,13.170116424560547,-46.57932662963867
1633782304716745200,8.2167451171875,16.604156494140625,13.552932739257812,-46.783077239990234
1633782304736624000,8.2366240234375,16.684417724609375,13.500240325927734,-46.71770095825195
1633782304756503300,8.25650341796875,16.695709228515625,13.519476890563965,-46.5510368347168
1633782304776382200,8.27638232421875,16.747650146484375,13.45843505859375,-46.39328384399414
1633782304796261400,8.296261474609375,16.278594970703125,13.461740493774414,-46.294315338134766
1633782304816140300,8.316140380859375,16.475494384765625,13.608810424804688,-46.6534538269043
1633782304836019200,8.336019287109375,16.0052490234375,13.661717414855957,-46.73477554321289
1633782304855898000,8.355898193359375,15.82464599609375,13.654667854309082,-46.664852142333984
1633782304875777300,8.37577734375,16.06988525390625,13.49827766418457,-46.631351470947266
1633782304895656200,8.39565625,16.06048583984375,13.643031120300293,-46.67995071411133
1633782304915536100,8.4155361328125,15.582794189453125,13.75517463684082,-46.665828704833984
1633782304935415300,8.435415283203126,16.0166015625,13.771341323852539,-46.65286636352539
1633782304955294200,8.455294189453125,15.6007080078125,14.039612770080566,-46.59922409057617
1633782304975173000,8.475173095703125,15.66058349609375,14.020794868469238,-46.74423599243164
1633782304995052300,8.49505224609375,15.623748779296875,13.981450080871582,-46.919376373291016
1633782305014931200,8.51493115234375,15.696624755859375,14.046189308166504,-46.69119644165039
1633782305034810400,8.534810302734375,15.674163818359375,14.147625923156738,-46.50080490112305
1633782305054689300,8.554689208984374,16.105316162109375,14.442530632019043,-46.54946517944336
1633782305074568200,8.574568115234374,15.7230224609375,14.195043563842773,-46.81830978393555
1633782305094447000,8.594447021484376,15.834320068359375,14.454257011413574,-46.889827728271484
1633782305114326300,8.614326171875,15.838531494140625,14.641342163085938,-46.746952056884766
1633782305134206200,8.634206298828126,15.740753173828125,14.803099632263184,-46.56459426879883
1633782305154085000,8.654085205078125,15.694091796875,14.630813598632812,-46.42056655883789
1633782305173964300,8.67396435546875,15.632049560546875,14.791935920715332,-46.362369537353516
1633782305193843200,8.69384326171875,15.493499755859375,14.888354301452637,-46.53097915649414
1633782305213722000,8.71372216796875,15.120208740234375,14.964056968688965,-46.5876579284668
1633782305233601300,8.733601318359375,15.2435302734375,15.322928428649902,-46.46555709838867
1633782305253480200,8.753480224609374,15.292816162109375,15.20206069946289,-46.5821647644043
1633782305273359400,8.773359375,15.323089599609375,15.057583808898926,-46.56098556518555
1633782305293238300,8.79323828125,15.41741943359375,15.271421432495117,-46.354190826416016
1633782305313117200,8.8131171875,15.834747314453125,15.229938507080078,-46.498050689697266
1633782305332997400,8.832997314453126,16.024200439453125,14.945354461669922,-46.086177825927734
1633782305352876300,8.852876220703125,16.070770263671875,15.019119262695312,-45.88840866088867
1633782305372755200,8.872755126953125,16.847320556640625,15.430047035217285,-46.11239242553711
1633782305392634000,8.892634033203125,16.514801025390625,15.663775444030762,-46.0571174621582
1633782305412513300,8.91251318359375,16.7462158203125,15.762341499328613,-45.66092300415039
1633782305432392200,8.93239208984375,16.386810302734375,15.694222450256348,-45.70366287231445
1633782305452271000,8.95227099609375,16.572021484375,15.799884796142578,-45.969905853271484
1633782305472150300,8.972150390625,16.803009033203125,15.626211166381836,-45.69655990600586
1633782305492029200,8.992029296875,16.573486328125,15.592665672302246,-45.935184478759766
1633782305511907000,9.011906982421875,16.373199462890625,15.656930923461914,-46.15065383911133
1633782305531787000,9.031787109375,15.94183349609375,15.429817199707031,-46.22903060913086
1633782305551666000,9.051666015625,15.42132568359375,15.500717163085938,-46.057491302490234
1633782305571545000,9.071545166015625,15.892913818359375,15.63424015045166,-46.239688873291016
1633782305591424000,9.091424072265625,15.527099609375,15.688067436218262,-46.224300384521484
1633782305611303200,9.11130322265625,15.71087646484375,15.428327560424805,-46.3575553894043
1633782305631182000,9.13118212890625,15.87493896484375,15.453800201416016,-46.13326644897461
1633782305651061000,9.15106103515625,15.725311279296875,15.325345993041992,-46.40390396118164
1633782305670940000,9.17093994140625,15.8421630859375,15.333681106567383,-46.29440689086914
1633782305690819000,9.190819091796875,15.56427001953125,15.419877052307129,-46.20541763305664
1633782305710698200,9.2106982421875,15.82568359375,15.356258392333984,-46.407047271728516
1633782305730577000,9.230576904296875,15.838165283203125,15.32972240447998,-46.42111587524414
1633782305750457000,9.25045703125,15.723480224609375,15.383588790893555,-46.48573684692383
1633782305770336000,9.2703359375,15.4332275390625,15.261115074157715,-46.275150299072266
1633782305790215000,9.29021484375,15.436676025390625,15.383651733398438,-46.41166305541992
1633782305810094000,9.310093994140624,15.32830810546875,15.268592834472656,-46.591304779052734
1633782305829973000,9.329972900390626,15.165618896484375,15.287797927856445,-46.8328971862793
1633782305849852200,9.34985205078125,15.436431884765625,15.291960716247559,-46.54874801635742
1633782305869731000,9.36973095703125,15.470672607421875,15.133729934692383,-46.28317642211914
1633782305889610000,9.38960986328125,15.306640625,14.94749927520752,-46.49330520629883
1633782305909489000,9.409489013671875,15.238250732421875,15.17790699005127,-46.44123458862305
1633782305929368000,9.4293681640625,15.25384521484375,15.000433921813965,-46.326786041259766
1633782305949248000,9.449248046875,15.547393798828125,14.954082489013672,-46.279117584228516
1633782305969127000,9.469126953125,15.460418701171875,15.160141944885254,-46.4126091003418
1633782305989006000,9.489006103515624,15.127410888671875,15.062393188476562,-46.289119720458984
1633782306008885000,9.508885009765624,15.389862060546875,15.102890968322754,-45.98781967163086
1633782306028764000,9.528763916015626,15.196929931640625,15.155130386352539,-46.15909957885742
1633782306048643000,9.54864306640625,15.406280517578125,15.245576858520508,-46.3099479675293
1633782306068522000,9.56852197265625,15.337921142578125,15.343231201171875,-46.22042465209961
1633782306088401200,9.588401123046875,15.2091064453125,15.34194278717041,-46.437496185302734
1633782306108280000,9.608280029296875,15.3206787109375,15.179941177368164,-46.1964225769043
1633782306128160000,9.628159912109375,15.325103759765625,15.1748046875,-46.25071334838867
1633782306148039200,9.6480390625,15.479095458984375,15.14410400390625,-46.2081184387207
1633782306167918000,9.66791796875,15.546539306640625,15.132512092590332,-46.51426315307617
1633782306187797000,9.687796875,15.30078125,15.031618118286133,-46.40975570678711
1633782306207676000,9.707676025390626,15.6007080078125,14.837523460388184,-46.5954475402832
1633782306227555000,9.72755517578125,15.5465087890625,14.669157028198242,-46.582950592041016
1633782306247434000,9.74743408203125,15.460601806640625,14.739554405212402,-46.38615798950195
1633782306267313000,9.76731298828125,15.108428955078125,14.552706718444824,-46.50381851196289
1633782306287192000,9.787192138671875,15.255340576171875,14.599919319152832,-46.2877082824707
1633782306307071000,9.807071044921875,15.272552490234375,14.51931095123291,-46.32365036010742
1633782306326951000,9.826950927734375,14.9300537109375,14.232658386230469,-46.53007888793945
1633782306346830000,9.846830078125,15.571807861328125,13.93365478515625,-46.8405647277832
1633782306366709000,9.866708984375,15.33489990234375,14.066425323486328,-46.51933670043945
1633782306386588200,9.886588134765624,15.37896728515625,14.123763084411621,-46.58548355102539
1633782306406467000,9.906467041015626,15.110137939453125,13.969520568847656,-46.43864059448242
1633782306426346000,9.926345947265625,15.57275390625,13.930773735046387,-46.57649612426758
1633782306446225000,9.946224853515625,15.178802490234375,13.74090576171875,-46.687435150146484
1633782306466104000,9.96610400390625,15.423675537109375,13.686732292175293,-46.624507904052734
1633782306485983200,9.985983154296875,15.082000732421875,13.746511459350586,-46.77737045288086
1633782306505862700,10.005862548828125,15.273773193359375,13.550674438476562,-46.664974212646484
1633782306525741800,10.025741943359375,15.29913330078125,13.797245979309082,-46.9591178894043
1633782306545620700,10.045620849609374,14.76458740234375,13.736433029174805,-46.828304290771484
1633782306565500000,10.0655,14.793670654296875,13.669363021850586,-46.92756271362305
1633782306585378800,10.08537890625,14.68896484375,13.728341102600098,-46.95645523071289
1633782306605257700,10.1052578125,14.625823974609375,13.897798538208008,-47.09226608276367
1633782306625137000,10.125136962890625,14.347076416015625,13.844206809997559,-47.14509201049805
1633782306645015800,10.145015869140625,14.88580322265625,13.515002250671387,-47.06338119506836
1633782306664894700,10.164894775390625,14.869171142578125,13.676511764526367,-46.714176177978516
1633782306684773600,10.184773681640625,14.61016845703125,13.226971626281738,-47.02531814575195
1633782306704653800,10.20465380859375,14.437164306640625,13.426733016967773,-46.87302780151367
1633782306724532700,10.22453271484375,14.2874755859375,13.401788711547852,-46.685489654541016
1633782306744411600,10.24441162109375,14.230133056640625,13.517351150512695,-46.94358444213867
1633782306764290800,10.264290771484376,14.4912109375,13.645099639892578,-46.69032669067383
1633782306784169700,10.284169677734376,14.715850830078125,13.528480529785156,-46.78767776489258
1633782306804049000,10.304048828125,14.571533203125,13.189950942993164,-46.99003982543945
1633782306823927800,10.323927734375,14.515899658203125,13.266281127929688,-47.05533218383789
1633782306843806700,10.343806640625,14.72882080078125,13.228437423706055,-47.135799407958984
1633782306863686000,10.363685791015625,14.522552490234375,13.160860061645508,-47.0888557434082
1633782306883565600,10.383565673828125,14.339691162109375,13.09465217590332,-47.05300521850586
1633782306903444700,10.40344482421875,14.340087890625,13.528217315673828,-47.092533111572266
1633782306923324000,10.423323974609374,14.653900146484375,13.569823265075684,-46.90768051147461
1633782306943202800,10.443202880859374,14.310272216796875,13.473946571350098,-47.04216384887695
1633782306963081700,10.463081787109376,14.376007080078125,13.214268684387207,-47.18941116333008
1633782306982960600,10.482960693359376,14.761566162109375,13.39438247680664,-47.05936050415039
1633782307002839800,10.50283984375,14.4259033203125,13.321418762207031,-47.007076263427734
1633782307022718700,10.52271875,14.478118896484375,13.15280818939209,-47.0525016784668
1633782307042598000,10.542597900390625,14.0233154296875,13.37540054321289,-46.96271896362305
1633782307062477800,10.562477783203125,14.23345947265625,13.472100257873535,-46.98257827758789
1633782307082356700,10.582356689453125,14.251434326171875,13.356599807739258,-46.87155532836914
1633782307102236000,10.60223583984375,13.937835693359375,13.492502212524414,-47.1625862121582
1633782307122114600,10.622114501953124,14.483856201171875,13.229100227355957,-47.150264739990234
1633782307141993700,10.64199365234375,14.28607177734375,13.267916679382324,-46.9748649597168
1633782307161873000,10.661872802734376,14.1590576171875,13.05416488647461,-47.37688064575195
1633782307181751800,10.681751708984375,13.600341796875,13.283164024353027,-47.47957992553711
1633782307201630700,10.701630615234375,13.840087890625,13.03827953338623,-47.42109298706055
1633782307221509600,10.721509521484375,13.670806884765625,13.195545196533203,-47.31232833862305
1633782307241388800,10.741388916015625,13.970703125,13.229272842407227,-47.49007797241211
1633782307261268700,10.761268798828125,13.825408935546875,13.247201919555664,-47.29416275024414
1633782307281147600,10.781147705078125,13.73809814453125,13.28709602355957,-47.42758560180664
1633782307301026800,10.80102685546875,13.8079833984375,13.370344161987305,-47.40469741821289
1633782307320905700,10.82090576171875,14.0570068359375,13.492562294006348,-47.40877151489258
1633782307340785000,10.840784912109376,13.82220458984375,13.614872932434082,-47.02090072631836
1633782307360663600,10.86066357421875,13.511566162109375,13.71658706665039,-47.436222076416016
1633782307380542700,10.880542724609375,13.4881591796875,13.520060539245605,-47.19636917114258
1633782307400422000,10.900421875,13.477691650390625,14.002906799316406,-47.128780364990234
1633782307420300800,10.92030078125,13.552337646484375,14.183902740478516,-46.97890090942383
1633782307440180700,10.9401806640625,13.733673095703125,14.130708694458008,-47.01871871948242
1633782307460060000,10.960059814453125,13.396087646484375,14.13879680633545,-47.07997512817383
1633782307479938800,10.979938720703124,13.40142822265625,14.131078720092773,-47.052371978759766
1633782307499817700,10.999817626953124,13.731689453125,14.27112102508545,-47.07603073120117
1633782307519697700,11.01969775390625,13.4320068359375,14.594266891479492,-47.123592376708984
1633782307539576600,11.03957666015625,13.455963134765625,14.829229354858398,-46.8156852722168
1633782307559455700,11.059455810546876,13.36175537109375,14.680278778076172,-46.85579299926758
1633782307579334400,11.07933447265625,13.290802001953125,14.870963096618652,-47.01399612426758
1633782307599213600,11.099213623046875,13.364227294921875,15.028823852539062,-46.756465911865234
1633782307619093800,11.11909375,13.264312744140625,15.028876304626465,-47.02358627319336
1633782307638972400,11.138972412109375,13.307708740234375,15.119133949279785,-46.726863861083984
1633782307658851600,11.1588515625,13.738616943359375,14.81086254119873,-46.706668853759766
1633782307678730500,11.17873046875,13.8909912109375,14.823014259338379,-47.054447174072266
1633782307698609700,11.198609619140624,13.780548095703125,14.88396167755127,-47.19155502319336
1633782307718488600,11.218488525390624,13.438568115234375,15.262035369873047,-47.04521560668945
1633782307738367500,11.238367431640626,13.758148193359375,15.167251586914062,-46.9537239074707
1633782307758246700,11.25824658203125,13.689239501953125,15.460107803344727,-47.12015151977539
1633782307778125600,11.27812548828125,14.119842529296875,15.34411907196045,-46.99394607543945
1633782307798005500,11.298005615234375,14.1700439453125,15.584253311157227,-46.869197845458984
1633782307817884700,11.317884765625,14.13543701171875,15.3308687210083,-46.57699203491211
1633782307837763600,11.337763671875,14.164886474609375,15.477681159973145,-46.84541702270508
1633782307857642800,11.357642822265625,14.266448974609375,15.579092025756836,-46.871944427490234
1633782307877521400,11.377521484375,14.182403564453125,15.240169525146484,-46.76309585571289
1633782307897400600,11.397400634765624,14.044830322265625,15.190773963928223,-46.94601058959961
1633782307917279500,11.417279541015626,13.810028076171875,15.263334274291992,-47.02650833129883
1633782307937158700,11.43715869140625,14.072052001953125,15.306084632873535,-46.9499626159668
1633782307957037600,11.45703759765625,14.3411865234375,15.206060409545898,-46.777774810791016
1633782307976917500,11.47691748046875,14.282440185546875,15.3277006149292,-46.67337417602539
1633782307996796700,11.496796630859375,14.550994873046875,15.013343811035156,-46.55393600463867
1633782308016675600,11.516675537109375,14.297882080078125,14.971479415893555,-46.78544998168945
1633782308036554500,11.536554443359375,13.961578369140625,15.099647521972656,-46.677677154541016
1633782308056433700,11.55643359375,13.91864013671875,14.950377464294434,-46.4222526550293
1633782308076312600,11.5763125,14.367706298828125,14.90476131439209,-46.664546966552734
1633782308096191700,11.596191650390624,13.822296142578125,14.791255950927734,-46.623714447021484
1633782308116070400,11.6160703125,13.798797607421875,14.801501274108887,-46.45488357543945
1633782308135949600,11.635949462890625,13.94232177734375,14.5811767578125,-46.70341110229492
1633782308155829800,11.655829833984376,14.2449951171875,14.88688850402832,-46.6890754699707
1633782308175708400,11.67570849609375,14.05615234375,14.685240745544434,-46.8820686340332
1633782308195587600,11.695587646484375,14.025390625,14.829562187194824,-46.971614837646484
1633782308215466500,11.715466552734375,14.192413330078125,14.872776985168457,-46.80922317504883
1633782308235345700,11.735345703125,14.06439208984375,14.58951473236084,-46.87320327758789
1633782308255224800,11.755224853515625,13.722686767578125,14.800468444824219,-46.7564582824707
1633782308275103500,11.775103515625,13.695587158203125,14.550326347351074,-46.77970504760742
1633782308294982700,11.794982666015626,13.886993408203125,14.857820510864258,-46.66775131225586
1633782308314862600,11.814862548828126,13.895660400390625,14.968914985656738,-46.48176193237305
1633782308334741500,11.834741455078126,13.79229736328125,14.646242141723633,-46.591121673583984
1633782308354620700,11.85462060546875,14.19842529296875,14.757040023803711,-46.6138801574707
1633782308374499600,11.87449951171875,14.143707275390625,14.899435997009277,-46.59586715698242
1633782308394378800,11.894378662109375,14.27667236328125,14.837806701660156,-46.59775924682617
1633782308414257400,11.91425732421875,14.526885986328125,14.81436538696289,-46.54207992553711
1633782308434136600,11.934136474609375,14.475494384765625,14.887693405151367,-46.72368240356445
1633782308454015500,11.954015380859374,14.076416015625,14.642936706542969,-46.87501907348633
1633782308473894700,11.973894775390624,14.20550537109375,14.765154838562012,-46.94368362426758
1633782308493773800,11.99377392578125,13.86529541015625,14.611008644104004,-46.791202545166016
1633782308513652700,12.01365283203125,13.789031982421875,15.023046493530273,-46.806461334228516
1633782308533531600,12.03353173828125,13.9359130859375,15.041975021362305,-46.76658248901367
1633782308553410800,12.053410888671875,14.08502197265625,14.857178688049316,-46.6327018737793
1633782308573290000,12.0732900390625,14.007354736328125,15.111790657043457,-46.66555404663086
1633782308593168600,12.093168701171875,14.40557861328125,14.902519226074219,-46.737430572509766
1633782308613047800,12.1130478515625,13.9659423828125,14.695643424987793,-46.77047348022461
1633782308632926700,12.1329267578125,14.20367431640625,14.878927230834961,-46.553035736083984
1633782308652806000,12.152805908203124,14.302520751953125,14.521424293518066,-46.46885299682617
1633782308672685800,12.172685791015626,14.459381103515625,14.574511528015137,-46.4400749206543
1633782308692564700,12.192564697265626,14.32769775390625,14.704523086547852,-46.407405853271484
1633782308712444000,12.21244384765625,14.5394287109375,14.623969078063965,-46.496883392333984
1633782308732322800,12.23232275390625,14.17669677734375,14.68925952911377,-46.73444747924805
1633782308752201700,12.25220166015625,14.539825439453125,14.578346252441406,-46.81503677368164
1633782308772080600,12.27208056640625,14.472259521484375,14.735194206237793,-46.63704299926758
1633782308791959800,12.291959716796875,14.2960205078125,14.922226905822754,-46.810787200927734
1633782308811839000,12.3118388671875,14.1602783203125,14.765944480895996,-46.757076263427734
1633782308831717600,12.331717529296874,14.179107666015625,14.579233169555664,-46.80146408081055
1633782308851597800,12.351597900390624,14.352783203125,14.60365104675293,-46.69321060180664
1633782308871476700,12.371476806640626,14.227203369140625,14.773719787597656,-46.81464767456055
1633782308891355600,12.391355712890626,14.34466552734375,14.791664123535156,-46.69876480102539
1633782308911234800,12.41123486328125,14.33660888671875,14.343875885009766,-46.79668045043945
1633782308931113700,12.43111376953125,14.4244384765625,14.406187057495117,-46.82425308227539
1633782308950993000,12.450992919921875,14.51141357421875,14.436216354370117,-46.71796798706055
1633782308970871800,12.470871826171875,14.304931640625,14.441595077514648,-47.08272171020508
1633782308990750700,12.490750732421875,14.477569580078125,14.235027313232422,-46.718814849853516
1633782309010629600,12.510629638671874,14.69891357421875,14.555971145629883,-46.95627212524414
1633782309030509800,12.530509765625,14.770416259765625,14.47832202911377,-46.82698440551758
1633782309050388700,12.550388671875,14.71331787109375,14.451323509216309,-46.73012161254883
1633782309070267600,12.570267578125,14.844940185546875,14.340749740600586,-46.89225387573242
1633782309090146800,12.590146728515625,14.697357177734375,14.507769584655762,-46.42265701293945
1633782309110026000,12.61002587890625,14.775787353515625,14.065011024475098,-46.73313522338867
1633782309129904600,12.629904541015625,14.81146240234375,13.98984432220459,-46.916019439697266
1633782309149783800,12.64978369140625,15.051544189453125,13.942533493041992,-46.94431686401367
1633782309169662700,12.669662841796875,14.5726318359375,13.946503639221191,-47.02945327758789
1633782309189542000,12.6895419921875,14.9739990234375,13.904572486877441,-46.874576568603516
1633782309209421800,12.709421875,14.416168212890625,13.889371871948242,-47.06727981567383
1633782309229300700,12.72930078125,14.82470703125,14.068857192993164,-47.05971145629883
1633782309249180000,12.749179931640626,14.159759521484375,13.561555862426758,-46.895206451416016
1633782309269058800,12.769058837890626,14.603973388671875,13.867013931274414,-46.839534759521484
1633782309288937700,12.788937744140625,14.418731689453125,13.740983009338379,-46.96268844604492
1633782309308816600,12.808816650390625,14.66680908203125,13.654314041137695,-47.27504348754883
1633782309328695800,12.82869580078125,15.00836181640625,13.690535545349121,-47.02456283569336
1633782309348575000,12.848574951171875,14.895416259765625,13.77226734161377,-46.90427017211914
1633782309368453600,12.86845361328125,15.103485107421875,13.73950481414795,-47.10419845581055
1633782309388333800,12.888333740234375,15.169189453125,13.771759986877441,-47.19156265258789
1633782309408212700,12.908212646484374,15.0665283203125,13.665022850036621,-47.015689849853516
1633782309428091600,12.928091552734376,14.50775146484375,13.936370849609375,-46.895999908447266
1633782309447970800,12.947970703125,14.547882080078125,13.917671203613281,-47.08440017700195
1633782309467849700,12.967849609375,14.21234130859375,13.94381046295166,-47.13600540161133
1633782309487729000,12.98772900390625,14.44342041015625,14.030136108398438,-46.74241256713867
1633782309507608000,13.007608154296875,14.2960205078125,13.95866584777832,-46.83244705200195
1633782309527486700,13.02748681640625,14.453460693359375,13.887752532958984,-47.032344818115234
1633782309547366000,13.047365966796875,14.66827392578125,14.066211700439453,-46.877254486083984
1633782309567246000,13.06724609375,13.973236083984375,13.899266242980957,-46.85347366333008
1633782309587124700,13.087124755859374,14.421295166015625,14.065956115722656,-46.74222183227539
1633782309607004000,13.10700390625,14.44573974609375,13.85628604888916,-46.92832565307617
1633782309626882800,13.1268828125,14.156402587890625,14.193347930908203,-46.87094497680664
1633782309646762000,13.146761962890626,13.98992919921875,14.420848846435547,-46.98763656616211
1633782309666640600,13.166640625,14.254180908203125,14.493825912475586,-46.733150482177734
1633782309686519800,13.186519775390625,14.00347900390625,14.352795600891113,-46.32517623901367
1633782309706399000,13.20639892578125,14.466033935546875,14.432296752929688,-46.58151626586914
1633782309726278000,13.22627783203125,14.488739013671875,14.38931655883789,-46.53740310668945
1633782309746157800,13.24615771484375,14.480499267578125,14.575044631958008,-46.63886642456055
1633782309766036700,13.26603662109375,14.547515869140625,14.626866340637207,-46.70549392700195
1633782309785916000,13.285916015625,14.276214599609375,14.578672409057617,-46.55227279663086
1633782309805795000,13.305795166015624,14.556884765625,14.697689056396484,-46.61086654663086
1633782309825673700,13.325673828125,14.26861572265625,14.55868148803711,-46.236507415771484
1633782309845553000,13.345552978515625,14.63970947265625,14.208584785461426,-46.544551849365234
1633782309865431800,13.365431884765625,14.758697509765625,14.271167755126953,-46.48416519165039
1633782309885311000,13.38531103515625,14.841522216796875,14.225138664245605,-46.56095504760742
1633782309905189600,13.405189697265625,14.843231201171875,14.159728050231934,-46.54264450073242
1633782309925069800,13.42506982421875,14.84478759765625,14.230518341064453,-46.72794723510742
1633782309944949000,13.444948974609375,14.926605224609375,14.076634407043457,-46.39621353149414
1633782309964827600,13.46482763671875,14.889404296875,14.069209098815918,-46.40774917602539
1633782309984706800,13.484706787109374,15.075958251953125,14.114120483398438,-46.4213981628418
1633782310004585700,13.504585693359376,14.86669921875,14.210707664489746,-46.629581451416016
1633782310024465000,13.52446484375,15.44873046875,14.089709281921387,-46.58305740356445
1633782310044344000,13.544343994140625,15.574737548828125,14.05306339263916,-46.58588790893555
1633782310064222700,13.56422265625,15.314208984375,14.040325164794922,-46.516780853271484
1633782310084102000,13.584101806640625,15.238494873046875,14.074294090270996,-46.57712936401367
1633782310103981800,13.60398193359375,15.210968017578125,13.685870170593262,-46.760494232177734
1633782310123860700,13.62386083984375,15.036102294921875,13.9324951171875,-46.584774017333984
1633782310143740000,13.643739990234375,14.954193115234375,13.736541748046875,-46.73733901977539
1633782310163618800,13.663618896484374,15.35723876953125,13.722673416137695,-46.63593673706055
1633782310183498000,13.683498046875,14.9686279296875,14.01955795288086,-46.86477279663086
1633782310203377000,13.703376953125,15.148040771484375,13.96452522277832,-46.64352798461914
1633782310223255800,13.723255859375,14.929473876953125,13.942157745361328,-46.618526458740234
1633782310243134700,13.743134765625,15.054595947265625,13.794050216674805,-46.594608306884766
1633782310263014000,13.763013916015625,15.197357177734375,13.804451942443848,-46.82844161987305
1633782310282893000,13.78289306640625,14.871856689453125,13.988504409790039,-46.706424713134766
1633782310302772700,13.802772705078125,15.274169921875,13.822460174560547,-46.57014846801758
1633782310322652000,13.82265185546875,14.927154541015625,13.756134986877441,-46.65951156616211
1633782310342531000,13.842531005859374,15.248687744140625,13.564126968383789,-46.549076080322266
1633782310362409700,13.86240966796875,15.334075927734375,13.467192649841309,-46.65121078491211
1633782310382289000,13.882288818359376,15.48175048828125,13.628840446472168,-46.3442497253418
1633782310402167800,13.902167724609376,15.157806396484375,13.635847091674805,-46.63529586791992
1633782310422047000,13.922046875,15.382720947265625,13.79758358001709,-46.522762298583984
1633782310441926000,13.94192578125,15.25054931640625,13.585516929626465,-46.76596450805664
1633782310461805800,13.961805908203125,15.620086669921875,13.677699089050293,-46.45270919799805
1633782310481685000,13.98168505859375,15.383758544921875,13.588342666625977,-46.38070297241211
1633782310501564000,14.00156396484375,15.38909912109375,13.594038009643555,-46.637210845947266
1633782310521443300,14.021443359375,15.381134033203125,13.458717346191406,-46.60232925415039
1633782310541322200,14.041322265625,15.26312255859375,13.463703155517578,-46.67808151245117
1633782310561201400,14.061201416015624,15.648529052734375,13.162128448486328,-46.65090560913086
1633782310581080300,14.081080322265626,15.41815185546875,13.517789840698242,-46.602169036865234
1633782310600959200,14.100959228515626,15.20941162109375,13.619539260864258,-46.50094985961914
1633782310620838100,14.120838134765625,15.26983642578125,13.203258514404297,-46.493167877197266
1633782310640717300,14.14071728515625,15.084197998046875,13.073524475097656,-46.386600494384766
1633782310660597200,14.16059716796875,15.548980712890625,13.396600723266602,-46.456722259521484
1633782310680476200,14.18047607421875,15.676910400390625,13.258291244506836,-46.38773727416992
1633782310700355300,14.200355224609375,15.51806640625,12.963090896606445,-46.561038970947266
1633782310720234200,14.220234130859374,15.336639404296875,13.098411560058594,-46.585330963134766
1633782310740113200,14.240113037109374,15.865478515625,13.047683715820312,-46.38167190551758
1633782310759992300,14.259992431640624,16.068450927734375,13.002504348754883,-46.6837272644043
1633782310779871200,14.279871337890626,15.70513916015625,12.846200942993164,-46.58488082885742
1633782310799750400,14.29975048828125,16.017913818359375,12.79166316986084,-46.73929977416992
1633782310819629300,14.31962939453125,15.897430419921875,12.789505958557129,-46.84236526489258
1633782310839509200,14.33950927734375,15.759521484375,12.858036994934082,-46.87739181518555
1633782310859388400,14.359388427734375,15.72479248046875,13.114201545715332,-46.69899368286133
1633782310879267300,14.379267333984375,15.391754150390625,12.82388973236084,-46.59931564331055
1633782310899146200,14.399146240234375,15.673248291015625,12.724761009216309,-46.560550689697266
1633782310919025200,14.419025146484374,16.128997802734375,12.680265426635742,-46.789005279541016
1633782310938904300,14.438904296875,15.839996337890625,12.756065368652344,-46.781986236572266
1633782310958783200,14.458783203125,15.514495849609375,12.954035758972168,-46.908687591552734
1633782310978662100,14.478662109375,15.773223876953125,12.604660034179688,-46.79147720336914
1633782310998541300,14.498541259765625,15.416290283203125,13.18832778930664,-46.85408401489258
1633782311018420200,14.518420166015625,15.241485595703125,12.840858459472656,-46.69369888305664
1633782311038300200,14.538300048828125,15.773895263671875,12.777774810791016,-46.7844123840332
1633782311058179300,14.558179443359375,15.699371337890625,12.81997299194336,-46.698970794677734
1633782311078058200,14.578058349609375,15.958587646484375,12.79031753540039,-46.866580963134766
1633782311097937400,14.5979375,15.637359619140625,12.769217491149902,-46.85853958129883
1633782311117816300,14.61781640625,15.28253173828125,12.653169631958008,-47.17527389526367
1633782311137695200,14.6376953125,15.5225830078125,12.857817649841309,-47.07290267944336
1633782311157574100,14.65757421875,15.550750732421875,13.119882583618164,-46.704708099365234
1633782311177453300,14.677453369140625,15.131317138671875,13.299485206604004,-46.941165924072266
1633782311197332500,14.69733251953125,15.138214111328125,13.212801933288574,-47.08572006225586
1633782311217212200,14.717212158203125,15.00616455078125,12.9102201461792,-47.104854583740234
1633782311237091300,14.73709130859375,15.1995849609375,13.152379035949707,-47.05167770385742
1633782311256970200,14.75697021484375,15.127410888671875,13.197000503540039,-47.24025344848633
1633782311276849200,14.77684912109375,15.24444580078125,13.269672393798828,-46.629459381103516
1633782311296728300,14.796728271484374,15.0638427734375,13.313209533691406,-46.9442024230957
1633782311316607200,14.816607177734374,15.4639892578125,13.226631164550781,-46.72787094116211
1633782311336486400,14.836486328125,15.2791748046875,13.463715553283691,-46.62404251098633
1633782311356365300,14.856365234375,15.47735595703125,13.679032325744629,-46.89393997192383
1633782311376244200,14.876244140625,15.22796630859375,13.609648704528809,-46.66695785522461
1633782311396124400,14.89612451171875,15.07708740234375,13.580501556396484,-46.74734878540039
1633782311416003300,14.91600341796875,15.197967529296875,13.806797981262207,-46.73251724243164
1633782311435882200,14.93588232421875,15.171142578125,13.977630615234375,-46.9384651184082
1633782311455761200,14.95576123046875,14.893829345703125,13.85450267791748,-46.77278518676758
1633782311475640300,14.975640380859375,15.252227783203125,13.803487777709961,-46.683467864990234
1633782311495519200,14.995519287109374,15.134307861328125,13.442209243774414,-47.041316986083984
1633782311515397600,15.015397705078126,15.298492431640625,13.732523918151855,-46.847171783447266
1633782311535276500,15.035276611328126,15.12725830078125,13.79465103149414,-46.76815414428711
1633782311555155700,15.05515576171875,15.369903564453125,13.73143196105957,-46.76162338256836
1633782311575034600,15.07503466796875,15.241607666015625,13.51048469543457,-46.958316802978516
1633782311594914600,15.09491455078125,15.196258544921875,13.66695785522461,-46.6987419128418
1633782311614793500,15.11479345703125,15.267059326171875,13.797125816345215,-47.03786087036133
1633782311634672600,15.134672607421875,15.33544921875,13.789750099182129,-47.01823043823242
1633782311654551800,15.1545517578125,15.411224365234375,13.72496223449707,-46.893184661865234
1633782311674430700,15.1744306640625,15.16387939453125,13.633834838867188,-46.96916580200195
1633782311694309600,15.1943095703125,15.626708984375,13.759472846984863,-47.11562728881836
1633782311714188500,15.2141884765625,15.676177978515625,13.51463508605957,-47.051204681396484
1633782311734067700,15.234067626953125,15.133087158203125,13.569769859313965,-47.07248306274414
1633782311753946600,15.253946533203125,15.72625732421875,13.562914848327637,-46.97053909301758
1633782311773826600,15.27382666015625,15.325592041015625,13.432645797729492,-47.076229095458984
1633782311793705700,15.293705810546875,15.57574462890625,13.758843421936035,-46.83815383911133
1633782311813584600,15.313584716796875,15.308319091796875,13.443159103393555,-47.06821823120117
1633782311833463600,15.333463623046875,15.5025634765625,13.571517944335938,-47.0003547668457
1633782311853342500,15.353342529296874,15.51190185546875,13.48408317565918,-47.0451774597168
1633782311873221600,15.3732216796875,15.80035400390625,13.13373851776123,-46.98324966430664
1633782311893100800,15.393100830078126,15.8323974609375,13.461307525634766,-47.088191986083984
1633782311912979700,15.412979736328126,15.629119873046875,13.447773933410645,-46.87130355834961
1633782311932858600,15.432858642578125,15.3951416015625,13.494550704956055,-46.753482818603516
1633782311952738600,15.452738525390625,15.64410400390625,13.610650062561035,-47.03145980834961
1633782311972617700,15.47261767578125,15.402099609375,13.343905448913574,-47.0287971496582
1633782311992496600,15.49249658203125,15.206268310546875,13.402856826782227,-46.999324798583984
1633782312012375600,15.51237548828125,15.399658203125,13.171987533569336,-47.12979507446289
1633782312032254700,15.532254638671875,15.8768310546875,13.151759147644043,-46.80881118774414
1633782312052133600,15.552133544921874,15.883819580078125,13.18392276763916,-46.964839935302734
1633782312072012500,15.572012451171876,16.043426513671875,13.356731414794922,-46.92560958862305
1633782312091891500,15.591891357421876,15.25140380859375,13.383075714111328,-46.91151809692383
1633782312111770600,15.6117705078125,15.44873046875,13.154160499572754,-46.83980941772461
1633782312131649800,15.63164990234375,15.865570068359375,13.068531036376953,-46.717586517333984
1633782312151529500,15.651529541015625,15.87225341796875,12.779138565063477,-46.84431076049805
1633782312171408600,15.67140869140625,15.571136474609375,13.014932632446289,-46.69570541381836
1633782312191287800,15.691287841796875,15.70196533203125,12.789069175720215,-46.704776763916016
1633782312211166700,15.711166748046875,15.506744384765625,12.527669906616211,-46.738399505615234
1633782312231045600,15.731045654296874,15.812591552734375,12.85440731048584,-46.90077590942383
1633782312250924500,15.750924560546874,15.782196044921875,12.97478199005127,-46.71414566040039
1633782312270803700,15.7708037109375,16.00091552734375,12.784855842590332,-46.80556869506836
1633782312290682600,15.7906826171875,16.173187255859375,12.738072395324707,-46.96037673950195
1633782312310561500,15.8105615234375,15.9208984375,13.107829093933105,-46.96625900268555
1633782312330440700,15.830440673828125,16.135955810546875,13.048168182373047,-47.05441665649414
1633782312350320600,15.850320556640625,16.34478759765625,13.078789710998535,-47.02546310424805
1633782312370199800,15.87019970703125,16.548614501953125,13.012163162231445,-46.90353012084961
1633782312390078500,15.890078369140625,16.4810791015625,12.99370002746582,-46.80375289916992
1633782312409957600,15.90995751953125,16.45550537109375,13.074599266052246,-46.82143020629883
1633782312429836800,15.9298369140625,16.23828125,12.83286190032959,-46.941593170166016
1633782312449715700,15.9497158203125,16.36907958984375,13.158882141113281,-46.710079193115234
1633782312469594600,15.9695947265625,16.172454833984375,13.185110092163086,-46.91106033325195
1633782312489473500,15.9894736328125,16.27813720703125,13.275753021240234,-46.79804611206055
1633782312509356500,16.0093564453125,16.009765625,13.058672904968262,-46.70377731323242
1633782312529235500,16.0292353515625,15.833831787109375,12.949034690856934,-46.70383071899414
1633782312549115400,16.049115478515624,16.43609619140625,13.195333480834961,-47.12196731567383
1633782312568994600,16.06899462890625,16.2972412109375,12.863273620605469,-46.69364547729492
1633782312588873500,16.08887353515625,16.398590087890625,13.007246017456055,-46.83146286010742
1633782312608752400,16.10875244140625,16.47515869140625,12.940213203430176,-47.03522872924805
1633782312628631600,16.128631591796875,16.11920166015625,12.811894416809082,-46.89182662963867
1633782312648510500,16.148510498046875,16.496917724609375,12.733661651611328,-46.85701370239258
1633782312668389600,16.1683896484375,16.21392822265625,13.014091491699219,-46.706661224365234
1633782312688268500,16.1882685546875,16.808441162109375,13.15886402130127,-46.77572250366211
1633782312708147500,16.2081474609375,16.1663818359375,13.573037147521973,-46.72580337524414
1633782312728026400,16.2280263671875,16.460662841796875,13.63360595703125,-46.566036224365234
1633782312747906600,16.247906494140626,16.50384521484375,13.997678756713867,-46.35063552856445
1633782312767785500,16.267785400390625,16.22271728515625,14.544986724853516,-46.48555374145508
1633782312787664400,16.287664306640625,15.685455322265625,14.81712532043457,-46.329837799072266
1633782312807543600,16.30754345703125,15.53558349609375,15.200339317321777,-46.44289016723633
1633782312827422500,16.32742236328125,15.21661376953125,15.613101959228516,-46.18173599243164
1633782312847301400,16.34730126953125,14.89208984375,15.907859802246094,-46.21476364135742
1633782312867180500,16.3671806640625,14.5870361328125,15.8643217086792,-46.2147102355957
1633782312887059500,16.3870595703125,14.70013427734375,16.613027572631836,-46.006038665771484
1633782312906938600,16.406938720703124,14.468109130859375,16.79938507080078,-46.013248443603516
1633782312926817500,16.426817626953124,14.460296630859375,17.37897491455078,-45.62686538696289
1633782312946697500,16.446697509765624,14.3599853515625,17.40894317626953,-45.54668045043945
1633782312966576600,16.46657666015625,13.8297119140625,17.583133697509766,-45.86062240600586
1633782312986455600,16.48645556640625,13.944091796875,17.664958953857422,-45.83156967163086
1633782313006334500,16.50633447265625,14.06396484375,17.83550453186035,-45.77683639526367
1633782313026213400,16.52621337890625,13.970916748046875,17.709165573120117,-45.794925689697266
1633782313046092500,16.546092529296875,13.92999267578125,17.717283248901367,-45.7970085144043
1633782313065971500,16.565971435546874,14.242645263671875,17.858318328857422,-45.42764663696289
1633782313085850400,16.585850341796874,14.220184326171875,17.97365379333496,-45.530269622802734
1633782313105729500,16.6057294921875,14.361236572265625,18.017578125,-45.43833541870117
1633782313125608400,16.6256083984375,14.4049072265625,18.03939437866211,-45.515384674072266
1633782313145488400,16.64548828125,14.196746826171875,18.186538696289062,-45.53342819213867
1633782313165367300,16.6653671875,14.70587158203125,18.205650329589844,-45.584049224853516
1633782313185246500,16.68524658203125,14.416290283203125,18.329654693603516,-45.497615814208984
1633782313205125600,16.705125732421877,14.1649169921875,18.30360221862793,-45.53035354614258
1633782313225004500,16.725004638671876,14.134307861328125,18.270885467529297,-45.36668014526367
1633782313244883500,16.744883544921876,14.20330810546875,18.428874969482422,-45.44038009643555
1633782313264762400,16.764762451171876,14.344970703125,18.48163604736328,-45.111080169677734
1633782313284641500,16.7846416015625,14.139190673828125,18.46273422241211,-45.22512435913086
1633782313304520400,16.8045205078125,14.468292236328125,18.42867660522461,-45.07058334350586
1633782313324399400,16.8243994140625,15.0316162109375,18.656681060791016,-45.1856575012207
1633782313344279600,16.844279541015624,14.6143798828125,18.726167678833008,-45.00650405883789
1633782313364158500,16.864158447265623,14.68505859375,18.838016510009766,-44.8474235534668
1633782313384037400,16.884037353515627,14.687286376953125,18.861774444580078,-45.04001998901367
1633782313403916300,16.903916259765627,14.5462646484375,18.875951766967773,-45.08218002319336
1633782313423795500,16.92379541015625,14.637542724609375,18.818866729736328,-45.087528228759766
1633782313443674600,16.943674560546874,14.837127685546875,18.824853897094727,-45.13979721069336
1633782313463553500,16.963553466796874,14.933624267578125,18.951953887939453,-44.9083137512207
1633782313483432400,16.983432373046874,14.7318115234375,19.11948585510254,-44.84122848510742
1633782313503311400,17.003311279296874,14.898193359375,19.084613800048828,-44.97196578979492
1633782313523187000,17.02318701171875,14.853485107421875,19.326274871826172,-44.80472183227539
1633782313543065900,17.04306591796875,14.818206787109375,19.585887908935547,-44.837833404541016
1633782313562945800,17.06294580078125,15.166412353515625,19.20650863647461,-44.774715423583984
1633782313582825000,17.082824951171876,14.890899658203125,19.43532943725586,-44.63650131225586
1633782313602704000,17.102703857421876,14.96881103515625,19.371755599975586,-44.60051345825195
1633782313622583000,17.1225830078125,15.161590576171875,19.459062576293945,-44.468990325927734
1633782313642461700,17.142461669921875,15.047393798828125,19.59487533569336,-44.75150680541992
1633782313662340900,17.1623408203125,15.046234130859375,19.421091079711914,-44.820987701416016
1633782313682220000,17.182219970703127,15.357879638671875,19.5347957611084,-44.599117279052734
1633782313702099000,17.202098876953126,14.951629638671875,19.508750915527344,-44.61038589477539
1633782313721977900,17.221977783203126,14.809783935546875,19.478878021240234,-44.73232650756836
1633782313741856800,17.241856689453126,15.0465087890625,19.617691040039062,-44.38424301147461
1633782313761737000,17.261737060546874,15.55169677734375,19.631282806396484,-44.427677154541016
1633782313781615900,17.281615966796874,15.054412841796875,19.816652297973633,-44.55280685424805
1633782313801494800,17.301494873046874,15.09832763671875,19.812633514404297,-44.61247634887695
1633782313821374000,17.3213740234375,15.101959228515625,19.505451202392578,-44.54513931274414
1633782313841252900,17.3412529296875,14.558380126953125,19.538339614868164,-44.67976760864258
1633782313861132000,17.361132080078125,14.590179443359375,19.700035095214844,-44.72324752807617
1633782313881011000,17.381010986328125,14.757568359375,19.72787094116211,-44.64915084838867
1633782313900889900,17.400889892578125,14.748321533203125,19.60678482055664,-44.79671859741211
1633782313920769000,17.42076904296875,14.71746826171875,19.730602264404297,-44.57732009887695
1633782313940648000,17.44064794921875,14.73431396484375,19.48960304260254,-44.68277359008789
1633782313960526800,17.46052685546875,14.91156005859375,19.567461013793945,-44.51283645629883
1633782313980407000,17.480406982421876,14.861968994140625,19.405235290527344,-44.51278305053711
1633782314000286000,17.500285888671876,14.294921875,19.586685180664062,-44.6613883972168
1633782314020164900,17.520164794921875,14.27960205078125,19.583847045898438,-44.6948356628418
1633782314040043800,17.540043701171875,14.7791748046875,19.710262298583984,-44.564579010009766
1633782314059923000,17.5599228515625,14.356201171875,19.533260345458984,-44.711421966552734
1633782314079801900,17.5798017578125,14.729461669921875,19.656370162963867,-44.4446907043457
1633782314099681000,17.599680908203126,14.642242431640625,19.683040618896484,-44.94150924682617
1633782314119560000,17.619559814453126,14.7818603515625,19.56220245361328,-44.802364349365234
1633782314139438800,17.63943896484375,14.555572509765625,19.6928653717041,-44.61691665649414
1633782314159318000,17.659318115234374,14.314544677734375,19.647789001464844,-44.70430374145508
1633782314179197700,17.67919775390625,14.088470458984375,19.87688446044922,-44.60055160522461
1633782314199076900,17.699076904296874,13.9840087890625,20.18634605407715,-44.85280990600586
1633782314218956000,17.7189560546875,14.213592529296875,19.877180099487305,-44.7794075012207
1633782314238835000,17.7388349609375,13.863189697265625,20.148651123046875,-44.888301849365234
1633782314258713900,17.7587138671875,13.874908447265625,19.992416381835938,-45.07473373413086
1633782314278592800,17.7785927734375,13.646728515625,20.31358528137207,-44.643733978271484
1633782314298472000,17.798471923828124,13.7713623046875,20.44669532775879,-45.00063705444336
1633782314318350800,17.818350830078124,13.957366943359375,20.63597297668457,-45.07852554321289
1633782314338230000,17.83822998046875,13.997802734375,20.47604751586914,-44.85447311401367
1633782314358109000,17.85810888671875,13.8226318359375,20.38027000427246,-44.88176345825195
1633782314377987800,17.87798779296875,14.235870361328125,20.224864959716797,-44.81467056274414
1633782314397868000,17.897867919921875,14.40533447265625,20.263324737548828,-44.83505630493164
1633782314417746700,17.91774658203125,14.32513427734375,20.35559844970703,-44.562984466552734
1633782314437625900,17.9376259765625,14.4962158203125,20.368701934814453,-44.625911712646484
1633782314457505000,17.957505126953127,14.57763671875,20.37518310546875,-44.55739212036133
1633782314477384000,17.977384033203126,14.363922119140625,20.174379348754883,-44.68452835083008
1633782314497262800,17.997262939453126,14.810943603515625,19.891008377075195,-44.59835433959961
1633782314517142800,18.017142822265626,14.546600341796875,20.200382232666016,-44.720272064208984
1633782314537021700,18.037021728515626,14.564544677734375,20.22781753540039,-44.794254302978516
1633782314556900900,18.05690087890625,14.597412109375,20.10118293762207,-44.74276351928711
1633782314576779800,18.07677978515625,14.471710205078125,19.89657974243164,-44.7149543762207
1633782314596658700,18.09665869140625,14.19384765625,19.733652114868164,-44.84623336791992
1633782314616539000,18.116538818359373,14.1317138671875,19.83033561706543,-44.75300216674805
1633782314636417500,18.13641748046875,14.2005615234375,19.884674072265625,-44.90483474731445
1633782314656296700,18.156296630859377,14.307861328125,19.749557495117188,-45.07107925415039
1633782314676176000,18.17617578125,14.05609130859375,19.505901336669922,-45.0738410949707
1633782314696054800,18.1960546875,14.362396240234375,19.605607986450195,-45.072261810302734
1633782314715933700,18.21593359375,14.36016845703125,19.521516799926758,-45.03427505493164
1633782314735812600,18.2358125,14.09234619140625,19.420024871826172,-45.28440475463867
1633782314755691800,18.25569189453125,14.48760986328125,19.50537872314453,-44.94254684448242
1633782314775570700,18.27557080078125,14.223876953125,19.518657684326172,-45.0827522277832
1633782314795449900,18.295449951171875,14.38592529296875,19.45388412475586,-45.1296501159668
1633782314815329800,18.315329833984375,13.9739990234375,19.37726593017578,-45.06245040893555
1633782314835208700,18.335208740234375,13.991485595703125,19.494165420532227,-45.21689987182617
1633782314855087900,18.355087890625,14.027618408203125,19.335853576660156,-45.2039909362793
1633782314874966500,18.374966552734374,14.6888427734375,19.46548843383789,-45.16347122192383
1633782314894845700,18.394845703125,14.55316162109375,19.42279624938965,-45.24856948852539
1633782314914724900,18.414724853515626,14.04034423828125,19.274959564208984,-45.31643295288086
1633782314934603800,18.434603759765626,13.8226318359375,19.356142044067383,-45.24888229370117
1633782314954482700,18.454482666015625,13.967437744140625,19.1368408203125,-45.0214958190918
1633782314974361600,18.474361572265625,14.01641845703125,19.084274291992188,-45.27309799194336
1633782314994240800,18.49424072265625,14.17401123046875,18.863977432250977,-45.32094955444336
1633782315014120700,18.51412060546875,14.214752197265625,19.182727813720703,-45.31746292114258
1633782315033999600,18.53399951171875,13.847442626953125,19.037694931030273,-45.35739517211914
1633782315053878800,18.553878662109376,13.927001953125,18.957454681396484,-45.431217193603516
1633782315073757700,18.5737578125,14.316131591796875,19.012596130371094,-45.311580657958984
1633782315093636900,18.593636962890624,14.242401123046875,18.891382217407227,-45.36943435668945
1633782315113515500,18.613515625,14.112060546875,19.202817916870117,-45.31911087036133
1633782315133394700,18.633394775390624,14.2916259765625,18.8094482421875,-45.353145599365234
1633782315153273900,18.65327392578125,13.86492919921875,19.059772491455078,-45.24710464477539
1633782315173152800,18.67315283203125,14.15234375,19.059978485107422,-45.4015007019043
1633782315193031700,18.69303173828125,14.095947265625,19.144302368164062,-45.4427604675293
1633782315212911600,18.71291162109375,13.9090576171875,19.279050827026367,-45.33613204956055
1633782315232790800,18.732790771484375,13.810577392578125,19.168838500976562,-45.3284797668457
1633782315252669700,18.752669677734374,13.63458251953125,19.261293411254883,-45.34225082397461
1633782315272548600,18.772548583984374,13.776885986328125,19.263526916503906,-45.28644943237305
1633782315292427800,18.792427734375,13.5645751953125,19.40314483642578,-45.2501335144043
1633782315312306700,18.812306640625,13.814239501953125,19.17578887939453,-45.53609848022461
1633782315332185900,18.832185791015625,13.783935546875,19.191802978515625,-45.208194732666016
1633782315352064500,18.852064453125,13.536102294921875,19.57647132873535,-45.51240158081055
1633782315371943700,18.871943603515625,13.90203857421875,19.16182518005371,-45.46492385864258
1633782315391822800,18.89182275390625,14.035736083984375,19.39211654663086,-45.4428596496582
1633782315411702500,18.91170263671875,14.08575439453125,19.453153610229492,-45.32802963256836
1633782315431581700,18.931581787109376,14.196746826171875,19.59026336669922,-45.2243537902832
1633782315451460900,18.9514609375,14.274658203125,19.3653507232666,-45.49099349975586
1633782315471339800,18.97133984375,14.37847900390625,19.807022094726562,-45.146785736083984
1633782315491218700,18.99121875,14.097259521484375,19.564559936523438,-45.1202278137207
1633782315511097000,19.01109716796875,14.033294677734375,19.556909561157227,-44.98245620727539
1633782315530976300,19.030976318359375,13.9638671875,19.52471160888672,-45.26932144165039
1633782315550855200,19.050855224609375,14.157684326171875,19.834884643554688,-45.1545295715332
1633782315570734300,19.070734375,13.893585205078125,19.51596450805664,-45.097110748291016
1633782315590614300,19.0906142578125,14.08380126953125,19.594573974609375,-45.00188064575195
1633782315610493200,19.1104931640625,13.633636474609375,19.957412719726562,-45.33554458618164
1633782315630372400,19.130372314453126,13.623443603515625,19.796810150146484,-45.18534469604492
1633782315650251300,19.150251220703126,13.622283935546875,19.661907196044922,-45.34659957885742
1633782315670130200,19.170130126953126,13.37030029296875,19.81456184387207,-45.32395553588867
1633782315690009000,19.190009033203125,13.470672607421875,19.77619171142578,-45.14725875854492
1633782315709888300,19.20988818359375,13.505523681640625,19.681636810302734,-45.18233108520508
1633782315729767400,19.229767333984373,13.400238037109375,19.89720916748047,-45.17538833618164
1633782315749646000,19.24964599609375,13.55511474609375,19.750080108642578,-44.950923919677734
1633782315769525200,19.269525146484376,13.71148681640625,19.75939178466797,-45.036014556884766
1633782315789404200,19.289404052734376,13.825714111328125,19.506669998168945,-44.95816421508789
1633782315809284000,19.3092841796875,13.858978271484375,19.55549430847168,-45.33585739135742
1633782315829163300,19.329163330078124,13.729461669921875,19.64559555053711,-45.293880462646484
1633782315849042200,19.349042236328124,14.0255126953125,19.371402740478516,-45.29233169555664
1633782315868921300,19.36892138671875,14.132415771484375,19.42156410217285,-45.1133918762207
1633782315888800300,19.38880029296875,14.523895263671875,19.216245651245117,-45.0206184387207
1633782315908679200,19.40867919921875,14.210540771484375,19.450693130493164,-45.16498947143555
1633782315928558000,19.42855810546875,14.1414794921875,19.35045623779297,-45.184329986572266
1633782315948437200,19.448437255859375,13.97625732421875,19.535911560058594,-45.14066696166992
1633782315968316400,19.46831640625,14.0230712890625,19.288219451904297,-45.069278717041016
1633782315988196000,19.488196044921875,14.53033447265625,19.241518020629883,-44.8171272277832
1633782316008075300,19.5080751953125,14.163360595703125,19.305688858032227,-45.093441009521484
1633782316027954400,19.527954345703126,14.15087890625,19.339387893676758,-45.2153205871582
1633782316047833000,19.5478330078125,14.451812744140625,19.128196716308594,-45.02218246459961
1633782316067712300,19.567712158203125,14.85888671875,19.118255615234375,-45.28403091430664
1633782316087591200,19.587591064453125,14.404998779296875,19.416791915893555,-45.26119613647461
1633782316107470300,19.60747021484375,14.62091064453125,19.285785675048828,-44.96871566772461
1633782316127349200,19.627349365234377,14.757965087890625,19.28990364074707,-45.07588577270508
1633782316147228200,19.647228271484376,14.8292236328125,19.05225372314453,-45.07547378540039
1633782316167107300,19.667107421875,15.106903076171875,19.199077606201172,-44.871891021728516
1633782316186987300,19.6869873046875,14.85113525390625,19.35179901123047,-45.36140060424805
1633782316206866200,19.7068662109375,14.79156494140625,19.240371704101562,-45.23433303833008
1633782316226745000,19.7267451171875,15.322540283203125,18.97782325744629,-45.12807083129883
1633782316246624300,19.746624267578124,14.667236328125,18.955493927001953,-45.24355697631836
1633782316266503400,19.76650341796875,14.841796875,19.193342208862305,-44.99247360229492
1633782316286382000,19.786382080078123,14.8831787109375,19.100969314575195,-45.13270950317383
1633782316306261200,19.80626123046875,14.80059814453125,19.130081176757812,-45.21073532104492
1633782316326140200,19.82614013671875,14.5499267578125,18.929378509521484,-45.00540542602539
1633782316346019300,19.846019287109375,14.406585693359375,18.77528953552246,-45.30166244506836
1633782316365899300,19.865899169921875,14.18463134765625,18.819082260131836,-45.37625503540039
1633782316385778200,19.885778076171874,14.319610595703125,18.970458984375,-45.2354621887207
1633782316405657300,19.9056572265625,14.500152587890625,19.160673141479492,-45.23301315307617
1633782316425536300,19.925536376953126,14.38916015625,19.087162017822266,-45.36843490600586
1633782316445415200,19.945415283203126,14.705780029296875,19.19944190979004,-44.998783111572266
1633782316465294000,19.965294189453125,14.991912841796875,19.200769424438477,-45.2352180480957
1633782316485173200,19.98517333984375,14.892425537109375,19.211408615112305,-45.2396354675293
1633782316505052400,20.005052490234377,15.035003662109375,19.608631134033203,-45.164859771728516
1633782316524931300,20.024931396484376,14.776092529296875,19.287403106689453,-45.09678268432617
1633782316544810500,20.044810546875,14.62384033203125,19.529891967773438,-44.99534225463867
1633782316564690700,20.064690673828125,14.529693603515625,19.57447052001953,-45.24028396606445
1633782316584569300,20.0845693359375,14.383544921875,19.608610153198242,-45.16679000854492
1633782316604448500,20.104448486328124,14.41522216796875,19.557741165161133,-45.31119155883789
1633782316624327400,20.124327392578124,14.47869873046875,19.607282638549805,-45.04961013793945
1633782316644206600,20.14420654296875,14.402618408203125,19.56052017211914,-45.048702239990234
1633782316664085500,20.16408544921875,14.268829345703125,19.451496124267578,-45.168880462646484
1633782316683964400,20.18396435546875,14.5030517578125,19.412120819091797,-44.9946403503418
1633782316703843600,20.203843505859375,15.035064697265625,19.20345687866211,-45.14350509643555
1633782316723722500,20.223722412109375,14.50653076171875,18.850135803222656,-45.00912857055664
1633782316743602400,20.2436025390625,14.14190673828125,19.501155853271484,-45.169986724853516
1633782316763481300,20.2634814453125,14.316650390625,19.324642181396484,-45.02913284301758
1633782316783360500,20.283360595703126,14.7381591796875,19.25387954711914,-44.92195510864258
1633782316803239700,20.30323974609375,14.7808837890625,19.359346389770508,-44.8897819519043
1633782316823118300,20.323118408203126,14.711090087890625,19.203535079956055,-45.068302154541016
1633782316842997500,20.34299755859375,14.66143798828125,19.273080825805664,-44.97719192504883
1633782316862876400,20.36287646484375,15.108245849609375,19.56165313720703,-45.09145736694336
1633782316882755600,20.382755615234377,14.764984130859375,19.53994369506836,-45.058780670166016
1633782316902634500,20.402634521484377,14.433868408203125,19.33989715576172,-44.830501556396484
1633782316922514400,20.422514404296876,14.774139404296875,19.528779983520508,-44.66523361206055
1633782316942393600,20.4423935546875,15.0838623046875,19.456893920898438,-44.72548294067383
1633782316962272500,20.4622724609375,15.127899169921875,19.57320785522461,-44.6519660949707
1633782316982151400,20.4821513671875,15.179351806640625,19.3494873046875,-44.8520622253418
1633782317002030300,20.5020302734375,15.09063720703125,19.375280380249023,-44.43252182006836
1633782317021909500,20.521909423828124,15.3599853515625,19.370115280151367,-44.643375396728516
1633782317041788700,20.54178857421875,15.340362548828125,19.365108489990234,-44.55276870727539
1633782317061667300,20.561667236328127,15.31304931640625,19.37236976623535,-44.670108795166016
1633782317081546500,20.58154638671875,15.454742431640625,19.435415267944336,-44.247074127197266
1633782317101426400,20.601426513671875,15.85723876953125,19.42146110534668,-44.25697708129883
1633782317121305300,20.621305419921875,15.739349365234375,19.545570373535156,-44.4019660949707
1633782317141184500,20.6411845703125,16.026336669921875,19.672155380249023,-44.205379486083984
1633782317161063400,20.6610634765625,16.20098876953125,19.60525131225586,-44.61079788208008
1633782317180942600,20.680942626953126,15.577362060546875,19.544599533081055,-44.54093551635742
