time,seconds_elapsed,z,y,x
1633780260215652400,0.01065234375,22.114532470703125,-41.77308654785156,-19.48550033569336
1633780260235532300,0.0305322265625,21.7847900390625,-41.730194091796875,-19.380939483642578
1633780260255411500,0.050411376953125,21.454071044921875,-41.72840118408203,-19.465984344482422
1633780260275290400,0.070290283203125,21.467864990234375,-41.484710693359375,-19.52578353881836
1633780260295170300,0.09017041015625,21.408294677734375,-41.59663391113281,-19.351215362548828
1633780260315049500,0.110049560546875,21.339019775390625,-41.69068145751953,-19.361492156982422
1633780260334928400,0.129928466796875,21.279327392578125,-41.63996124267578,-19.568378448486328
1633780260354808300,0.149808349609375,21.3929443359375,-41.89573669433594,-19.07345962524414
1633780260374687500,0.1696875,21.3734130859375,-41.90046691894531,-19.03487777709961
1633780260394566400,0.18956640625,21.37091064453125,-41.62055969238281,-19.034915924072266
1633780260414445300,0.2094453125,21.02581787109375,-41.42022705078125,-19.127735137939453
1633780260434325500,0.229325439453125,21.191558837890625,-41.61540222167969,-19.05276107788086
1633780260454204400,0.249204345703125,21.399658203125,-41.641929626464844,-19.348690032958984
1633780260474083300,0.269083251953125,21.282745361328125,-41.74565887451172,-19.104068756103516
1633780260493963500,0.288963623046875,21.14691162109375,-41.66686248779297,-19.229969024658203
1633780260513842400,0.308842529296875,21.3060302734375,-41.47007751464844,-19.312763214111328
1633780260533721300,0.328721435546875,21.319427490234375,-41.502723693847656,-19.080158233642578
1633780260553600300,0.348600341796875,21.684844970703125,-41.34912109375,-18.97330093383789
1633780260573480400,0.36848046875,21.40472412109375,-41.64985656738281,-19.407489776611328
1633780260593359400,0.388359375,21.162353515625,-41.746788024902344,-18.917377471923828
1633780260613238300,0.40823828125,21.215179443359375,-41.7122802734375,-18.953365325927734
1633780260633117400,0.428117431640625,21.70587158203125,-41.69440460205078,-18.90951156616211
1633780260652997400,0.447997314453125,21.472320556640625,-41.70379638671875,-18.73373031616211
1633780260672876300,0.467876220703125,21.386932373046875,-41.56621551513672,-18.825557708740234
1633780260692755500,0.48775537109375,21.61419677734375,-41.57518768310547,-19.069141387939453
1633780260712635400,0.507635498046875,21.19512939453125,-41.820892333984375,-19.246883392333984
1633780260732514300,0.527514404296875,21.44879150390625,-41.84772491455078,-18.989818572998047
1633780260752393500,0.5473935546875,21.585479736328125,-41.907569885253906,-19.023685455322266
1633780260772273400,0.5672734375,21.476837158203125,-41.85768127441406,-18.890033721923828
1633780260792152300,0.58715234375,21.33782958984375,-41.71217346191406,-19.026996612548828
1633780260812031200,0.60703125,20.93768310546875,-41.47356414794922,-18.82559585571289
1633780260831910400,0.626910400390625,21.247314453125,-41.62470245361328,-18.98971939086914
1633780260851790000,0.6467900390625,21.37548828125,-41.726356506347656,-18.94100570678711
1633780260871669200,0.666669189453125,21.285614013671875,-41.803367614746094,-19.112972259521484
1633780260891548200,0.686548095703125,21.30322265625,-42.00743865966797,-18.96286392211914
1633780260911428000,0.706427978515625,21.179718017578125,-41.81389617919922,-19.00552749633789
1633780260931307300,0.726307373046875,21.093536376953125,-41.85411834716797,-19.017070770263672
1633780260951186200,0.746186279296875,21.398101806640625,-42.07634735107422,-19.045848846435547
1633780260971065300,0.7660654296875,21.152435302734375,-42.06694030761719,-19.062610626220703
1633780260990945300,0.7859453125,21.33270263671875,-41.77948760986328,-18.972591400146484
1633780261010824200,0.80582421875,21.1156005859375,-41.60755920410156,-19.124530792236328
1633780261030703400,0.825703369140625,21.173614501953125,-41.71399688720703,-19.07553482055664
1633780261050582300,0.845582275390625,21.02117919921875,-41.79637908935547,-19.131031036376953
1633780261070462200,0.865462158203125,21.0089111328125,-41.7117919921875,-19.080623626708984
1633780261090341400,0.88534130859375,20.809661865234375,-41.79241180419922,-19.201541900634766
1633780261110220300,0.90522021484375,20.931427001953125,-41.534088134765625,-19.057369232177734
1633780261130100200,0.925100341796875,20.726715087890625,-41.57256317138672,-19.32552719116211
1633780261149979400,0.9449794921875,20.79595947265625,-41.47520446777344,-19.324726104736328
1633780261169858300,0.9648583984375,20.5584716796875,-41.54383087158203,-19.266788482666016
1633780261189737200,0.9847373046875,21.136505126953125,-41.651329040527344,-19.018733978271484
1633780261209617400,1.004617431640625,21.04400634765625,-41.70539093017578,-19.20499038696289
1633780261229496300,1.024496337890625,21.22796630859375,-41.83251953125,-19.084125518798828
1633780261249375200,1.044375244140625,21.367645263671875,-41.706520080566406,-19.295032501220703
1633780261269255200,1.064255126953125,21.070037841796875,-41.50183868408203,-19.084796905517578
1633780261289134300,1.08413427734375,21.480804443359375,-41.571266174316406,-19.05466079711914
1633780261309013200,1.10401318359375,21.190704345703125,-41.43754577636719,-19.25479507446289
1633780261328892200,1.12389208984375,21.61749267578125,-41.75205993652344,-19.291812896728516
1633780261348772400,1.1437724609375,21.39801025390625,-41.52545928955078,-19.311115264892578
1633780261368651300,1.1636513671875,21.011505126953125,-41.36589050292969,-19.460376739501953
1633780261388530200,1.1835302734375,21.513397216796875,-41.50010681152344,-19.716907501220703
1633780261408410400,1.203410400390625,21.33154296875,-41.24933624267578,-19.49892807006836
1633780261428289300,1.223289306640625,21.778411865234375,-41.05126190185547,-19.52463150024414
1633780261448168200,1.243168212890625,21.652862548828125,-41.224639892578125,-19.339099884033203
1633780261468047400,1.26304736328125,21.4908447265625,-41.67401885986328,-19.726924896240234
1633780261487927300,1.28292724609375,21.832122802734375,-41.785186767578125,-19.570117950439453
1633780261507806200,1.30280615234375,21.334259033203125,-41.620277404785156,-19.52090072631836
1633780261527685000,1.32268505859375,21.223358154296875,-41.29493713378906,-19.42959213256836
1633780261547565300,1.3425654296875,21.718231201171875,-41.13829040527344,-19.430988311767578
1633780261567444200,1.3624443359375,21.5079345703125,-41.489990234375,-19.476497650146484
1633780261587323100,1.3823232421875,21.69696044921875,-41.462303161621094,-19.523983001708984
1633780261607202300,1.402202392578125,21.5811767578125,-41.577476501464844,-19.368587493896484
1633780261627082200,1.422082275390625,21.399993896484375,-41.689903259277344,-19.197521209716797
1633780261646961200,1.441961181640625,21.295867919921875,-41.38739013671875,-19.391475677490234
1633780261666840300,1.46184033203125,21.495758056640625,-41.649635314941406,-19.15402603149414
1633780261686720300,1.48172021484375,21.204498291015625,-41.611297607421875,-19.235904693603516
1633780261706599200,1.50159912109375,21.202606201171875,-41.77021026611328,-19.064228057861328
1633780261726478300,1.521478271484375,21.57537841796875,-41.67738342285156,-19.342357635498047
1633780261746357200,1.541357177734375,21.43450927734375,-41.766563415527344,-19.109088897705078
1633780261766237200,1.5612373046875,21.2420654296875,-41.85405731201172,-19.061809539794922
1633780261786116400,1.581116455078125,21.319580078125,-41.731727600097656,-19.099315643310547
1633780261805995300,1.600995361328125,21.302947998046875,-41.699745178222656,-18.940502166748047
1633780261825875200,1.620875244140625,21.1427001953125,-41.786865234375,-19.051326751708984
1633780261845754000,1.640754150390625,21.101287841796875,-42.08070373535156,-18.767147064208984
1633780261865633300,1.66063330078125,20.887451171875,-41.64019775390625,-18.837894439697266
1633780261885512200,1.68051220703125,21.090972900390625,-41.629310607910156,-18.83993148803711
1633780261905392000,1.70039208984375,21.238189697265625,-41.73936462402344,-18.93832015991211
1633780261925271300,1.720271240234375,21.231781005859375,-41.89667510986328,-18.371509552001953
1633780261945150200,1.740150146484375,20.922393798828125,-41.76611328125,-18.714527130126953
1633780261965030100,1.760030029296875,21.1275634765625,-41.926025390625,-18.822139739990234
1633780261984909300,1.779909423828125,21.1907958984375,-42.098670959472656,-18.872188568115234
1633780262004788200,1.799788330078125,21.099884033203125,-41.67362976074219,-18.94619369506836
1633780262024667100,1.819667236328125,21.1102294921875,-41.777610778808594,-18.513072967529297
1633780262044547300,1.83954736328125,21.037109375,-41.83427429199219,-18.99069595336914
1633780262064426200,1.85942626953125,21.309844970703125,-41.485313415527344,-18.908489227294922
1633780262084305400,1.879305419921875,21.42962646484375,-41.511993408203125,-18.853580474853516
1633780262104185000,1.89918505859375,21.63482666015625,-41.591880798339844,-19.028133392333984
1633780262124064300,1.919064208984375,21.333740234375,-41.53623962402344,-18.839580535888672
1633780262143943400,1.938943359375,21.470977783203125,-41.78449249267578,-18.541271209716797
1633780262163822000,1.958822021484375,21.66082763671875,-41.81049346923828,-18.67471694946289
1633780262183702300,1.978702392578125,21.584136962890625,-41.502601623535156,-18.447696685791016
1633780262203581400,1.99858154296875,21.505523681640625,-41.65277862548828,-18.688976287841797
1633780262223460000,2.018460205078125,21.61370849609375,-41.8660888671875,-18.77396011352539
1633780262243340300,2.03834033203125,21.74871826171875,-41.769676208496094,-18.460872650146484
1633780262263219200,2.05821923828125,21.345062255859375,-41.484092712402344,-18.605571746826172
1633780262283098000,2.07809814453125,21.262725830078125,-41.96357727050781,-18.678157806396484
1633780262302977300,2.097977294921875,21.343841552734375,-41.58050537109375,-18.80001449584961
1633780262322857200,2.117857177734375,21.328887939453125,-41.78815460205078,-18.69894027709961
1633780262342736100,2.137736083984375,21.4010009765625,-41.63957977294922,-18.48488998413086
1633780262362615000,2.157614990234375,21.417083740234375,-41.83049011230469,-18.704158782958984
1633780262382495200,2.1774951171875,21.57049560546875,-41.629364013671875,-18.444515228271484
1633780262402374100,2.1973740234375,21.405609130859375,-41.533836364746094,-18.740039825439453
1633780262422253000,2.217253173828125,21.027069091796875,-41.94640350341797,-18.574214935302734
1633780262442132200,2.23713232421875,21.1640625,-41.79725646972656,-18.360431671142578
1633780262462012400,2.257012451171875,21.221527099609375,-41.80995178222656,-18.642276763916016
1633780262481891000,2.27689111328125,21.349456787109375,-41.821495056152344,-18.779468536376953
1633780262501770200,2.296770263671875,21.505706787109375,-42.075439453125,-18.75387954711914
1633780262521650400,2.316650390625,21.375152587890625,-41.914398193359375,-18.51076889038086
1633780262541529000,2.336529052734375,20.991485595703125,-42.13093566894531,-18.61214828491211
1633780262561408300,2.356408203125,21.164276123046875,-41.93794250488281,-18.566822052001953
1633780262581287200,2.376287109375,21.342987060546875,-41.92334747314453,-18.392452239990234
1633780262601167000,2.3961669921875,21.610626220703125,-41.8394775390625,-18.350414276123047
1633780262621046300,2.41604638671875,21.4803466796875,-41.77794647216797,-18.502788543701172
1633780262640925200,2.43592529296875,21.93865966796875,-41.7279052734375,-18.352771759033203
1633780262660805000,2.45580517578125,22.08197021484375,-41.914398193359375,-18.379993438720703
1633780262680684300,2.475684326171875,22.113311767578125,-41.68274688720703,-18.240848541259766
1633780262700563200,2.495563232421875,21.7982177734375,-41.99713897705078,-18.343067169189453
1633780262720442400,2.5154423828125,21.732147216796875,-41.82496643066406,-18.338138580322266
1633780262740322000,2.535322021484375,21.57666015625,-42.072242736816406,-18.60855484008789
1633780262760201200,2.555201171875,21.594146728515625,-41.76106262207031,-18.48563003540039
1633780262780080400,2.575080322265625,21.70953369140625,-41.76396179199219,-18.264629364013672
1633780262799960000,2.5949599609375,21.68927001953125,-42.033958435058594,-18.399608612060547
1633780262819838500,2.61483837890625,21.801116943359375,-42.161354064941406,-18.675212860107422
1633780262839717600,2.634717529296875,21.4322509765625,-41.898895263671875,-18.407878875732422
1633780262859596800,2.6545966796875,21.68914794921875,-42.01678466796875,-18.463825225830078
1633780262879476500,2.6744765625,21.6875,-42.05400848388672,-18.463130950927734
1633780262899355600,2.694355712890625,21.832794189453125,-41.990631103515625,-18.54074478149414
1633780262919234800,2.71423486328125,21.4622802734375,-41.98487091064453,-18.569568634033203
1633780262939114500,2.734114501953125,21.7874755859375,-42.127716064453125,-18.306842803955078
1633780262958993700,2.75399365234375,21.68194580078125,-42.33264923095703,-18.447368621826172
1633780262978872600,2.77387255859375,21.59649658203125,-42.11944580078125,-18.624187469482422
1633780262998752500,2.79375244140625,22.01007080078125,-41.96714782714844,-18.450275421142578
1633780263018631700,2.813631591796875,21.453765869140625,-41.87657928466797,-18.275127410888672
1633780263038510600,2.833510498046875,21.4735107421875,-42.19892883300781,-18.407283782958984
1633780263058389800,2.8533896484375,21.620086669921875,-42.13782501220703,-18.403545379638672
1633780263078269700,2.873269775390625,21.69482421875,-42.28495788574219,-18.525814056396484
1633780263098148600,2.893148681640625,21.652679443359375,-41.89768981933594,-18.382770538330078
1633780263118027800,2.91302783203125,21.79522705078125,-41.906471252441406,-18.373737335205078
1633780263137906400,2.932906494140625,21.915008544921875,-41.983543395996094,-18.438030242919922
1633780263157786600,2.95278662109375,21.608856201171875,-42.059242248535156,-18.507320404052734
1633780263177665800,2.972665771484375,21.623992919921875,-41.732032775878906,-18.566967010498047
1633780263197544400,2.99254443359375,21.5877685546875,-42.09272766113281,-18.527408599853516
1633780263217424600,3.012424560546875,21.4066162109375,-41.9957275390625,-18.35763931274414
1633780263237303800,3.0323037109375,21.133636474609375,-41.94548034667969,-18.61819076538086
1633780263257182700,3.0521826171875,21.668853759765625,-41.847694396972656,-18.570941925048828
1633780263277062700,3.072062744140625,21.80120849609375,-41.88298797607422,-18.753116607666016
1633780263296941600,3.091941650390625,21.782196044921875,-42.058143615722656,-18.522022247314453
1633780263316820700,3.11182080078125,21.44976806640625,-41.90558624267578,-18.51779556274414
1633780263336699600,3.13169970703125,21.337646484375,-42.0860595703125,-18.601444244384766
1633780263356579600,3.15157958984375,21.366241455078125,-42.012542724609375,-18.764232635498047
1633780263376458800,3.171458740234375,20.9932861328125,-42.02459716796875,-18.849658966064453
1633780263396337700,3.191337646484375,21.463226318359375,-42.09247589111328,-18.807392120361328
1633780263416217600,3.211217529296875,21.4801025390625,-42.07666778564453,-18.629497528076172
1633780263436096800,3.2310966796875,21.500885009765625,-41.96758270263672,-18.872150421142578
1633780263455975400,3.250975341796875,21.21136474609375,-41.982948303222656,-18.795108795166016
1633780263475854600,3.2708544921875,21.648651123046875,-41.871673583984375,-18.73904800415039
1633780263495734800,3.29073486328125,21.481536865234375,-41.86213684082031,-18.861385345458984
1633780263515613400,3.310613525390625,21.272369384765625,-42.088722229003906,-18.63455581665039
1633780263535492600,3.33049267578125,21.258544921875,-41.95862579345703,-18.79977035522461
1633780263555372800,3.350372802734375,21.2373046875,-41.854461669921875,-19.032703399658203
1633780263575251500,3.37025146484375,21.226654052734375,-42.05133056640625,-19.041194915771484
1633780263595130600,3.390130615234375,21.393035888671875,-41.735748291015625,-18.90890884399414
1633780263615010800,3.4100107421875,21.53076171875,-41.75042724609375,-18.809803009033203
1633780263634889700,3.4298896484375,21.63214111328125,-41.68567657470703,-18.682552337646484
1633780263654768600,3.4497685546875,21.09954833984375,-41.84886932373047,-18.625141143798828
1633780263674647600,3.4696474609375,21.1865234375,-42.042091369628906,-18.75619888305664
1633780263694527700,3.48952783203125,21.56268310546875,-41.81571960449219,-18.711925506591797
1633780263714406700,3.50940673828125,21.700927734375,-42.05851745605469,-18.946353912353516
1633780263734285600,3.52928564453125,21.547088623046875,-42.09557342529297,-18.518817901611328
1633780263754165800,3.549165771484375,21.710693359375,-41.86341857910156,-18.460445404052734
1633780263774044700,3.569044677734375,21.41607666015625,-42.14414978027344,-18.597293853759766
1633780263793923600,3.588923583984375,21.12200927734375,-41.69346618652344,-18.601673126220703
1633780263813802800,3.608802734375,21.010040283203125,-42.20036315917969,-18.566158294677734
1633780263833682400,3.628682373046875,21.392242431640625,-42.17271423339844,-18.63071060180664
1633780263853561600,3.6485615234375,21.411651611328125,-42.24281311035156,-18.693477630615234
1633780263873440500,3.6684404296875,21.688140869140625,-42.150611877441406,-18.486797332763672
1633780263893320400,3.688320556640625,21.42626953125,-42.3466796875,-18.472545623779297
1633780263913199600,3.70819970703125,21.242095947265625,-42.50263214111328,-18.462688446044922
1633780263933078500,3.72807861328125,21.558135986328125,-42.47980499267578,-18.430965423583984
1633780263952958500,3.74795849609375,21.46588134765625,-42.25501251220703,-18.133663177490234
1633780263972837600,3.767837646484375,21.678375244140625,-42.210533142089844,-18.216259002685547
1633780263992716500,3.787716552734375,21.65106201171875,-42.270896911621094,-18.391315460205078
1633780264012595700,3.807595703125,21.639617919921875,-42.19032287597656,-18.385517120361328
1633780264032475600,3.8274755859375,21.67083740234375,-41.99365997314453,-18.52902603149414
1633780264052354600,3.8473544921875,21.732666015625,-42.02424621582031,-18.44693374633789
1633780264072233700,3.867233642578125,21.7032470703125,-41.757286071777344,-18.376636505126953
1633780264092113400,3.887113525390625,21.3712158203125,-42.331993103027344,-18.489009857177734
1633780264111992600,3.90699267578125,21.36834716796875,-42.201683044433594,-18.490352630615234
1633780264131871700,3.926871826171875,21.308197021484375,-42.226112365722656,-18.26144790649414
1633780264151750700,3.946750732421875,21.290924072265625,-42.4156494140625,-18.30606460571289
1633780264171630600,3.966630615234375,21.228515625,-42.075294494628906,-18.437747955322266
1633780264191509500,3.986509521484375,21.18115234375,-42.248390197753906,-18.46505355834961
1633780264211388700,4.006388671875,21.052642822265625,-42.26740264892578,-18.460887908935547
1633780264231268600,4.0262685546875,21.1650390625,-42.150596618652344,-18.509159088134766
1633780264251147500,4.0461474609375,21.459197998046875,-42.28089141845703,-18.582019805908203
1633780264271026700,4.066026611328125,21.39044189453125,-42.28179931640625,-18.545337677001953
1633780264290905600,4.085905517578125,21.63037109375,-42.36570739746094,-18.279064178466797
1633780264310785500,4.10578564453125,21.72650146484375,-42.364646911621094,-18.570110321044922
1633780264330664700,4.125664794921875,21.5897216796875,-42.24494934082031,-18.490421295166016
1633780264350543600,4.145543701171875,21.805755615234375,-41.92936706542969,-18.187725067138672
1633780264370423600,4.165423583984375,21.525604248046875,-42.14442443847656,-18.665828704833984
1633780264390302700,4.185302734375,21.6685791015625,-42.05219268798828,-18.553348541259766
1633780264410181600,4.205181640625,21.13031005859375,-42.04533386230469,-18.144107818603516
1633780264430061600,4.2250615234375,21.282958984375,-41.90906524658203,-18.335941314697266
1633780264449940700,4.244940673828125,21.399993896484375,-42.285179138183594,-18.433025360107422
1633780264469819600,4.264819580078125,21.71148681640625,-42.55229949951172,-18.226909637451172
1633780264489698600,4.284698486328125,21.661895751953125,-42.337921142578125,-18.220142364501953
1633780264509578800,4.304578857421875,21.519134521484375,-42.06645202636719,-18.060901641845703
1633780264529457700,4.324457763671875,21.487762451171875,-42.1328125,-18.217845916748047
1633780264549336600,4.344336669921875,21.605194091796875,-42.45647430419922,-18.079288482666016
1633780264569216500,4.364216552734375,21.579376220703125,-42.20976257324219,-18.221858978271484
1633780264589095700,4.384095703125,21.574462890625,-42.148536682128906,-17.93429946899414
1633780264608974600,4.403974609375,21.715087890625,-42.035064697265625,-18.165027618408203
1633780264628853500,4.423853515625,21.64520263671875,-42.27928924560547,-18.09048843383789
1633780264648733700,4.443733642578125,21.4517822265625,-42.08241271972656,-18.376781463623047
1633780264668612600,4.463612548828125,20.953125,-42.02085876464844,-18.384838104248047
1633780264688491500,4.483491455078125,21.66973876953125,-42.01313781738281,-18.251903533935547
1633780264708371700,4.503371826171875,21.523956298828125,-42.361061096191406,-18.305622100830078
1633780264728250600,4.523250732421875,22.127685546875,-42.070030212402344,-18.321147918701172
1633780264748129500,4.543129638671875,21.9012451171875,-42.09001159667969,-18.42416000366211
1633780264768009700,4.563009765625,21.986297607421875,-42.0709228515625,-18.227436065673828
1633780264787888600,4.582888671875,21.589202880859375,-42.01482391357422,-18.422527313232422
1633780264807767600,4.602767578125,21.567840576171875,-42.01415252685547,-18.357433319091797
1633780264827647000,4.62264697265625,22.047454833984375,-42.2750244140625,-18.422229766845703
1633780264847527000,4.64252685546875,21.78985595703125,-42.28221893310547,-18.381168365478516
1633780264867405800,4.66240576171875,21.623321533203125,-42.324546813964844,-18.33449935913086
1633780264887285000,4.682284912109375,21.806640625,-42.228515625,-18.386951446533203
1633780264907165000,4.7021650390625,21.97406005859375,-42.20722198486328,-18.387157440185547
1633780264927043800,4.7220439453125,22.06781005859375,-42.208641052246094,-18.184490203857422
1633780264946923000,4.741923095703125,22.03216552734375,-42.11598205566406,-18.241291046142578
1633780264966803200,4.76180322265625,21.82244873046875,-42.363441467285156,-18.405155181884766
1633780264986681900,4.781681884765625,21.966888427734375,-41.946144104003906,-18.412677764892578
1633780265006561000,4.80156103515625,21.833343505859375,-42.26899719238281,-18.498760223388672
1633780265026440000,4.82143994140625,21.851715087890625,-42.15570831298828,-18.485797882080078
1633780265046319900,4.84131982421875,22.014251708984375,-42.29840087890625,-18.51724624633789
1633780265066199000,4.861198974609375,22.239410400390625,-42.449378967285156,-18.567577362060547
1633780265086078000,4.881077880859375,21.3941650390625,-42.328094482421875,-18.73751449584961
1633780265105958000,4.9009580078125,21.817138671875,-42.295814514160156,-18.384662628173828
1633780265125837000,4.920837158203125,21.444976806640625,-42.045692443847656,-18.371570587158203
1633780265145716000,4.940716064453125,21.75177001953125,-41.975746154785156,-18.42251205444336
1633780265165595100,4.96059521484375,21.573486328125,-42.0260009765625,-18.270099639892578
1633780265185474800,4.980474853515625,21.759002685546875,-41.951316833496094,-18.268932342529297
1633780265205354000,5.00035400390625,21.780303955078125,-41.70649719238281,-18.272838592529297
1633780265225233200,5.020233154296875,21.344451904296875,-42.035491943359375,-18.607540130615234
1633780265245112800,5.04011279296875,21.7059326171875,-41.90582275390625,-18.413326263427734
1633780265264992000,5.059991943359375,21.719146728515625,-42.045677185058594,-18.10970687866211
1633780265284871000,5.079870849609375,21.3526611328125,-41.858001708984375,-18.334156036376953
1633780265304750800,5.099750732421875,21.56109619140625,-42.00865173339844,-18.398685455322266
1633780265324630000,5.119630126953125,21.4921875,-41.901031494140625,-18.278705596923828
1633780265344509000,5.139509033203125,21.539947509765625,-41.780616760253906,-18.504199981689453
1633780265364388000,5.15938818359375,21.233978271484375,-42.19324493408203,-18.651676177978516
1633780265384268000,5.17926806640625,21.271759033203125,-41.93009948730469,-18.59090805053711
1633780265404147000,5.19914697265625,21.298126220703125,-42.16786193847656,-18.685596466064453
1633780265424026000,5.219026123046875,21.53619384765625,-41.96223449707031,-18.555652618408203
1633780265443906000,5.238906005859375,21.44281005859375,-42.097137451171875,-18.770893096923828
1633780265463785000,5.258784912109375,21.59515380859375,-41.97166442871094,-18.570629119873047
1633780265483664100,5.2786640625,21.397125244140625,-42.04890441894531,-18.463054656982422
1633780265503542800,5.298542724609375,21.504638671875,-41.9027099609375,-18.56600570678711
1633780265523423000,5.318423095703125,21.832305908203125,-41.774513244628906,-18.552806854248047
1633780265543302100,5.33830224609375,21.642303466796875,-41.86882781982422,-18.637706756591797
1633780265563180800,5.358180908203125,21.940643310546875,-41.79236602783203,-18.254383087158203
1633780265583061000,5.37806103515625,21.71942138671875,-42.11450958251953,-18.506603240966797
1633780265602940200,5.397940185546875,21.41510009765625,-41.83562469482422,-18.51040267944336
1633780265622819000,5.417819091796875,21.691650390625,-42.150718688964844,-18.555950164794922
1633780265642698000,5.437697998046875,22.021820068359375,-41.891685485839844,-18.574382781982422
1633780265662578000,5.457577880859375,21.838287353515625,-41.97465515136719,-18.341365814208984
1633780265682457000,5.47745703125,21.71240234375,-41.79319763183594,-18.55404281616211
1633780265702336000,5.4973359375,22.1229248046875,-41.712501525878906,-18.434505462646484
1633780265722216000,5.5172158203125,21.813446044921875,-41.70832824707031,-18.850025177001953
1633780265742095000,5.53709521484375,21.55242919921875,-41.87196350097656,-18.508045196533203
1633780265761973800,5.556973876953125,21.7520751953125,-41.74364471435547,-18.672504425048828
1633780265781854000,5.57685400390625,22.118438720703125,-41.54894256591797,-18.502948760986328
1633780265801733000,5.596733154296875,21.7159423828125,-41.872589111328125,-18.725505828857422
1633780265821611800,5.61661181640625,22.138092041015625,-41.964111328125,-18.538707733154297
1633780265841491000,5.636490966796875,21.95452880859375,-41.803253173828125,-18.744136810302734
1633780265861371000,5.656370849609375,21.982452392578125,-41.764610290527344,-18.800029754638672
1633780265881249800,5.676249755859375,22.147064208984375,-41.633934020996094,-18.658267974853516
1633780265901128700,5.696128662109375,22.216888427734375,-41.62486267089844,-18.710430145263672
1633780265921009000,5.7160087890625,21.79620361328125,-41.77427673339844,-18.676944732666016
1633780265940887800,5.7358876953125,22.1058349609375,-41.89972686767578,-18.925739288330078
1633780265960766700,5.7557666015625,21.747406005859375,-41.82023620605469,-18.718135833740234
1633780265980646000,5.77564599609375,21.69744873046875,-41.68940734863281,-18.846637725830078
1633780266000525800,5.79552587890625,21.638153076171875,-41.65406799316406,-18.856266021728516
1633780266020404700,5.81540478515625,21.631011962890625,-41.772071838378906,-18.734088897705078
1633780266040284000,5.835283935546875,21.69708251953125,-41.883544921875,-18.94992446899414
1633780266060164000,5.8551640625,21.5184326171875,-41.90497589111328,-18.656505584716797
1633780266080042800,5.875042724609375,21.690216064453125,-41.85449981689453,-18.56509780883789
1633780266099922000,5.894921875,21.275482177734375,-41.72052764892578,-18.678043365478516
1633780266119800800,5.91480078125,21.452117919921875,-41.659210205078125,-18.727054595947266
1633780266139680800,5.9346806640625,21.322540283203125,-41.69257354736328,-18.81717300415039
1633780266159560000,5.954559814453125,21.77886962890625,-41.77802276611328,-18.69662094116211
1633780266179438800,5.97443896484375,22.09619140625,-41.520301818847656,-18.771991729736328
1633780266199318800,5.99431884765625,21.779388427734375,-41.30359649658203,-18.594989776611328
1633780266219198000,6.014197998046875,22.13433837890625,-41.584442138671875,-18.740886688232422
1633780266239076900,6.034076904296875,21.982330322265625,-41.57270812988281,-18.899784088134766
1633780266258956800,6.053956787109375,22.046112060546875,-41.645233154296875,-18.946186065673828
1633780266278835700,6.073835693359375,21.733123779296875,-41.673583984375,-18.677165985107422
1633780266298715000,6.09371484375,22.375457763671875,-41.65948486328125,-18.759235382080078
1633780266318594000,6.113593994140625,22.089385986328125,-41.349517822265625,-18.76919174194336
1633780266338473700,6.1334736328125,21.93182373046875,-41.60858154296875,-18.753612518310547
1633780266358353000,6.153352783203125,22.227142333984375,-41.559471130371094,-18.836498260498047
1633780266378232000,6.173232177734375,22.03216552734375,-41.448570251464844,-18.70907974243164
1633780266398111000,6.193111083984375,21.701446533203125,-41.694366455078125,-18.904903411865234
1633780266417991000,6.212990966796875,22.033203125,-41.500274658203125,-18.781085968017578
1633780266437869800,6.232869873046875,22.16748046875,-41.61857604980469,-18.811077117919922
1633780266457749000,6.2527490234375,22.072174072265625,-41.60558319091797,-18.541004180908203
1633780266477629000,6.27262890625,22.17138671875,-41.66526794433594,-18.601428985595703
1633780266497507800,6.2925078125,22.261932373046875,-41.61106872558594,-18.629596710205078
1633780266517387000,6.312386962890625,22.23712158203125,-41.54237365722656,-18.731433868408203
1633780266537267000,6.332266845703125,22.18994140625,-41.51820373535156,-18.55062484741211
1633780266557145900,6.352145751953125,21.866912841796875,-41.38554382324219,-18.882442474365234
1633780266577025000,6.37202490234375,22.06744384765625,-41.73016357421875,-18.661495208740234
1633780266596903700,6.391903564453125,22.131500244140625,-41.68909454345703,-18.76175308227539
1633780266616784000,6.411783935546875,21.992645263671875,-41.66526794433594,-18.635303497314453
1633780266636663000,6.4316630859375,22.26007080078125,-41.7808837890625,-18.730167388916016
1633780266656542000,6.4515419921875,21.927978515625,-41.669273376464844,-18.594898223876953
1633780266676422000,6.471421875,22.12176513671875,-41.59992980957031,-18.55953598022461
1633780266696301000,6.491301025390625,21.90557861328125,-41.57139587402344,-18.612438201904297
1633780266716180000,6.511179931640625,21.905975341796875,-41.66090393066406,-18.506847381591797
1633780266736059000,6.531058837890625,21.79290771484375,-41.65643310546875,-18.446697235107422
1633780266755938800,6.550938720703125,22.326934814453125,-41.820159912109375,-18.366352081298828
1633780266775818000,6.57081787109375,22.43194580078125,-41.892913818359375,-18.29281997680664
1633780266795697000,6.59069677734375,22.1617431640625,-41.79790496826172,-18.223712921142578
1633780266815576800,6.610576904296875,21.88165283203125,-41.78668212890625,-18.463855743408203
1633780266835456000,6.6304560546875,21.89117431640625,-41.82859802246094,-18.495922088623047
1633780266855335000,6.6503349609375,22.110595703125,-41.722930908203125,-18.41781234741211
1633780266875213800,6.6702138671875,22.17291259765625,-42.004066467285156,-18.43825912475586
1633780266895094000,6.690093994140625,21.77203369140625,-41.92457580566406,-18.567371368408203
1633780266914972700,6.70997265625,21.73712158203125,-41.82244110107422,-18.658809661865234
1633780266934851800,6.729851806640625,22.068511962890625,-41.68766784667969,-18.473209381103516
1633780266954732000,6.74973193359375,21.820526123046875,-41.75684356689453,-18.58591079711914
1633780266974610700,6.769610595703125,21.831817626953125,-41.979042053222656,-18.599109649658203
1633780266994489900,6.78948974609375,22.2647705078125,-41.61175537109375,-18.292308807373047
1633780267014368800,6.80936865234375,22.338623046875,-41.66999053955078,-18.50399398803711
1633780267034248700,6.829248779296875,22.280059814453125,-41.21820068359375,-18.48037338256836
1633780267054127900,6.8491279296875,22.52484130859375,-41.42729187011719,-18.459430694580078
1633780267074006800,6.8690068359375,22.41192626953125,-41.70020294189453,-18.393314361572266
1633780267093887000,6.888886962890625,22.173248291015625,-41.71747589111328,-18.500553131103516
1633780267113766000,6.908765869140625,22.16845703125,-41.46258544921875,-18.324626922607422
1633780267133644800,6.928644775390625,22.23382568359375,-41.6885986328125,-18.417682647705078
1633780267153524000,6.94852392578125,22.707305908203125,-41.70885467529297,-18.221538543701172
1633780267173404000,6.96840380859375,22.390411376953125,-41.57398986816406,-18.478923797607422
1633780267193282800,6.98828271484375,22.05279541015625,-41.50642395019531,-18.252002716064453
1633780267213162000,7.008161865234375,22.323486328125,-41.43346405029297,-18.42013168334961
1633780267233042000,7.0280419921875,22.102447509765625,-41.804656982421875,-18.339824676513672
1633780267252920800,7.0479208984375,22.2860107421875,-41.512969970703125,-18.476612091064453
1633780267272800000,7.067800048828125,22.053863525390625,-41.35670471191406,-18.406810760498047
1633780267292679700,7.0876796875,22.493865966796875,-41.58258056640625,-18.52914810180664
1633780267312558800,7.107558837890625,21.892578125,-41.86354064941406,-18.43233871459961
1633780267332438000,7.12743798828125,22.08245849609375,-41.849151611328125,-18.513172149658203
1633780267352317000,7.14731689453125,22.160919189453125,-41.80950164794922,-18.366802215576172
1633780267372196900,7.16719677734375,21.769805908203125,-41.769561767578125,-18.348499298095703
1633780267392075800,7.18707568359375,21.65252685546875,-41.82989501953125,-18.489864349365234
1633780267411955000,7.206954833984375,21.893768310546875,-41.911354064941406,-18.410778045654297
1633780267431835000,7.2268349609375,21.659149169921875,-41.79680633544922,-18.474323272705078
1633780267451713800,7.2467138671875,21.545257568359375,-41.85716247558594,-18.400623321533203
1633780267471593000,7.266593017578125,21.772186279296875,-42.082176208496094,-18.275157928466797
1633780267491472100,7.28647216796875,21.950286865234375,-41.83582305908203,-18.239704132080078
1633780267511351800,7.306351806640625,22.245330810546875,-42.05982971191406,-18.48367691040039
1633780267531231000,7.32623095703125,21.885223388671875,-42.03461456298828,-18.50076675415039
1633780267551110000,7.34610986328125,22.128326416015625,-41.66637420654297,-18.449657440185547
1633780267570989800,7.36598974609375,21.929779052734375,-41.73866271972656,-18.489452362060547
1633780267590869000,7.385868896484375,21.4757080078125,-41.48765563964844,-18.41140365600586
1633780267610748000,7.405747802734375,22.00213623046875,-41.62507629394531,-18.370655059814453
1633780267630626800,7.425626708984375,21.767364501953125,-41.66559600830078,-18.666683197021484
1633780267650507000,7.445507080078125,22.1376953125,-41.695648193359375,-18.608623504638672
1633780267670386000,7.465385986328125,22.292694091796875,-41.68797302246094,-18.739261627197266
1633780267690264800,7.485264892578125,21.938385009765625,-41.66358947753906,-18.622051239013672
1633780267710145000,7.50514501953125,22.041717529296875,-41.66090393066406,-18.646289825439453
1633780267730024000,7.52502392578125,21.663116455078125,-41.79051971435547,-18.771366119384766
1633780267749902800,7.54490283203125,21.7904052734375,-41.809539794921875,-18.90298080444336
1633780267769781800,7.56478173828125,21.98504638671875,-41.724159240722656,-18.983699798583984
1633780267789662000,7.584661865234375,21.847412109375,-41.774681091308594,-18.851268768310547
1633780267809540900,7.604540771484375,21.632171630859375,-41.80628967285156,-18.716320037841797
1633780267829420000,7.624419921875,21.637969970703125,-41.79242706298828,-18.786540985107422
1633780267849300000,7.644300048828125,21.677032470703125,-42.00275421142578,-18.963336944580078
1633780267869179100,7.66417919921875,21.653045654296875,-41.76367950439453,-18.660503387451172
1633780267889058000,7.68405810546875,21.264190673828125,-42.030296325683594,-18.59041976928711
1633780267908937000,7.70393701171875,21.70684814453125,-41.608680725097656,-18.876300811767578
1633780267928817200,7.723817138671875,21.451019287109375,-41.83838653564453,-18.647693634033203
1633780267948695800,7.74369580078125,21.78778076171875,-41.841522216796875,-18.800975799560547
1633780267968575000,7.763574951171875,22.07421875,-41.83629608154297,-18.85854721069336
1633780267988455200,7.783455078125,21.795806884765625,-41.790557861328125,-18.53927993774414
1633780268008333800,7.803333740234375,21.45404052734375,-41.70275115966797,-18.59561538696289
1633780268028213000,7.823212890625,21.464752197265625,-41.70812225341797,-18.450672149658203
1633780268048092200,7.843092041015625,21.58062744140625,-41.538063049316406,-18.637073516845703
1633780268067971800,7.862971923828125,21.227813720703125,-41.76463317871094,-18.344348907470703
1633780268087851000,7.88285107421875,21.7008056640625,-41.77684020996094,-18.36063003540039
1633780268107730000,7.90272998046875,20.90142822265625,-41.93446350097656,-18.504985809326172
1633780268127609900,7.92260986328125,21.34942626953125,-41.74732971191406,-18.437496185302734
1633780268147489000,7.942489013671875,21.711944580078125,-41.569297790527344,-18.81209945678711
1633780268167368000,7.962367919921875,21.63629150390625,-41.72080993652344,-18.900203704833984
1633780268187247000,7.9822470703125,21.374267578125,-41.78968811035156,-18.780818939208984
1633780268207127000,8.002126953125,21.3974609375,-41.652626037597656,-18.65298843383789
1633780268227006000,8.022005859375,21.63433837890625,-41.692962646484375,-18.832569122314453
1633780268246885000,8.041885009765625,21.878326416015625,-41.56983947753906,-18.604717254638672
1633780268266764000,8.061763916015625,21.52410888671875,-41.65635681152344,-18.49985122680664
1633780268286644000,8.08164404296875,21.292724609375,-41.75279235839844,-18.993114471435547
1633780268306523100,8.101523193359375,21.26934814453125,-41.642906188964844,-18.870861053466797
1633780268326402000,8.121402099609375,21.692413330078125,-41.57018280029297,-19.122760772705078
1633780268346282000,8.141281982421875,21.792877197265625,-41.58024597167969,-19.090007781982422
1633780268366161200,8.1611611328125,21.7972412109375,-41.581626892089844,-19.221569061279297
1633780268386040000,8.1810400390625,21.651641845703125,-41.71443176269531,-19.304241180419922
1633780268405919000,8.2009189453125,21.4293212890625,-41.5303955078125,-19.322460174560547
1633780268425799200,8.220799072265624,21.686920166015625,-41.75608825683594,-19.17123031616211
1633780268445678000,8.240677978515626,21.600067138671875,-41.53423309326172,-18.964214324951172
1633780268465557000,8.260556884765625,21.69549560546875,-41.772682189941406,-19.279582977294922
1633780268485437000,8.28043701171875,21.56622314453125,-41.644554138183594,-19.086315155029297
1633780268505316000,8.300316162109375,21.60430908203125,-41.645538330078125,-19.175609588623047
1633780268525195000,8.320195068359375,22.0064697265625,-41.75823211669922,-19.207904815673828
1633780268545074000,8.340073974609375,21.765533447265625,-41.62904357910156,-18.855953216552734
1633780268564954000,8.3599541015625,21.77606201171875,-41.489898681640625,-18.820858001708984
1633780268584833000,8.3798330078125,21.373626708984375,-41.59874725341797,-18.915630340576172
1633780268604712000,8.3997119140625,21.6175537109375,-41.52245330810547,-18.942821502685547
1633780268624592100,8.419592041015624,21.59332275390625,-41.76612091064453,-19.230289459228516
1633780268644471000,8.439470947265624,21.62677001953125,-41.488853454589844,-18.934146881103516
1633780268664350000,8.459349853515626,21.1195068359375,-41.74675750732422,-18.834270477294922
1633780268684228900,8.479228759765626,21.254791259765625,-41.620384216308594,-19.07626724243164
1633780268704109000,8.499109130859376,21.389434814453125,-41.654327392578125,-19.236873626708984
1633780268723988000,8.518988037109375,21.67095947265625,-42.09918975830078,-19.027210235595703
1633780268743867000,8.538866943359375,21.53594970703125,-41.772125244140625,-19.13833999633789
1633780268763747000,8.5587470703125,21.871795654296875,-41.77496337890625,-18.87332534790039
1633780268783626000,8.5786259765625,21.6917724609375,-41.88317108154297,-18.745304107666016
1633780268803505000,8.5985048828125,21.235748291015625,-42.05412292480469,-18.749279022216797
1633780268823383800,8.6183837890625,21.382171630859375,-42.02698516845703,-18.50900650024414
1633780268843263700,8.638263671875,21.37493896484375,-42.08317565917969,-18.607654571533203
1633780268863142700,8.658142578125,21.323638916015625,-41.996063232421875,-18.653827667236328
1633780268883021800,8.678021728515626,20.949005126953125,-41.983253479003906,-18.949657440185547
1633780268902901800,8.69790185546875,21.38250732421875,-41.806663513183594,-18.598514556884766
1633780268922780700,8.71778076171875,21.200439453125,-41.81538391113281,-18.675983428955078
1633780268942659800,8.737659912109375,21.393646240234375,-41.97191619873047,-18.852970123291016
1633780268962538800,8.757538818359375,21.30535888671875,-41.91437530517578,-18.566936492919922
1633780268982418700,8.777418701171875,21.720123291015625,-42.08699035644531,-18.520214080810547
1633780269002297900,8.7972978515625,21.439849853515625,-42.05597686767578,-18.529834747314453
1633780269022176800,8.8171767578125,21.304107666015625,-42.04192352294922,-18.787738800048828
1633780269042056700,8.837056640625,21.634735107421875,-42.011756896972656,-18.637470245361328
1633780269061935600,8.856935546875,21.83978271484375,-41.72943878173828,-18.717174530029297
1633780269081814800,8.876814697265624,21.866973876953125,-41.898338317871094,-18.521900177001953
1633780269101694000,8.89669384765625,21.813568115234375,-41.63536071777344,-18.59885025024414
1633780269121573600,8.91657373046875,21.780975341796875,-41.92298889160156,-18.566692352294922
1633780269141452800,8.936452880859376,21.512847900390625,-41.84405517578125,-18.468151092529297
1633780269161331700,8.956331787109375,21.355712890625,-42.024810791015625,-18.589778900146484
1633780269181211600,8.976211669921875,21.323638916015625,-41.958953857421875,-18.58255386352539
1633780269201090800,8.9960908203125,21.556304931640625,-42.139137268066406,-18.53207778930664
1633780269220969700,9.0159697265625,21.1080322265625,-41.998497009277344,-18.628040313720703
1633780269240849000,9.035848876953125,21.073333740234375,-42.17564392089844,-18.60599136352539
1633780269260728800,9.055728759765625,21.171600341796875,-42.056846618652344,-18.568256378173828
1633780269280607700,9.075607666015625,21.07586669921875,-42.09313201904297,-18.598247528076172
1633780269300487000,9.09548681640625,21.045013427734375,-42.16423034667969,-18.380077362060547
1633780269320366800,9.115366943359374,21.134307861328125,-42.20075225830078,-18.507389068603516
1633780269340245800,9.135245849609374,21.086517333984375,-42.26525115966797,-18.342044830322266
1633780269360125000,9.155125,21.0042724609375,-42.242462158203125,-18.302234649658203
1633780269380003600,9.175003662109376,21.140655517578125,-42.34400939941406,-18.616374969482422
1633780269399883800,9.1948837890625,20.918365478515625,-42.48797607421875,-18.593524932861328
1633780269419763000,9.214762939453125,20.826812744140625,-42.48478698730469,-18.468257904052734
1633780269439641600,9.2346416015625,20.735870361328125,-42.5294189453125,-18.593769073486328
1633780269459521800,9.254521728515625,20.79766845703125,-42.53260040283203,-18.599720001220703
1633780269479401000,9.27440087890625,20.831878662109375,-42.39227294921875,-18.60092544555664
1633780269499279600,9.294279541015625,20.380279541015625,-42.52661895751953,-18.474910736083984
1633780269519158800,9.31415869140625,20.264404296875,-42.74214172363281,-18.785694122314453
1633780269539038700,9.334038818359375,20.207794189453125,-42.66192626953125,-18.788509368896484
1633780269558918000,9.35391796875,20.680511474609375,-42.672271728515625,-18.858760833740234
1633780269578796800,9.373796875,20.81182861328125,-42.627174377441406,-18.654247283935547
1633780269598676700,9.3936767578125,20.766082763671875,-42.46271514892578,-18.957080841064453
1633780269618556000,9.413555908203126,20.79022216796875,-42.338226318359375,-18.788951873779297
1633780269638434600,9.4334345703125,20.449493408203125,-42.376121520996094,-19.05709457397461
1633780269658313700,9.453313720703125,20.851531982421875,-42.09905242919922,-18.821949005126953
1633780269678194000,9.47319384765625,21.2117919921875,-42.37852478027344,-18.820087432861328
1633780269698072600,9.493072509765625,21.091156005859375,-42.544158935546875,-18.688304901123047
1633780269717951700,9.51295166015625,20.757598876953125,-42.174163818359375,-19.040668487548828
1633780269737832000,9.53283203125,20.73162841796875,-42.24248504638672,-18.991329193115234
1633780269757710600,9.552710693359375,20.714202880859375,-42.31744384765625,-18.877925872802734
1633780269777589800,9.57258984375,20.88037109375,-42.198875427246094,-18.917896270751953
1633780269797468700,9.59246875,20.820404052734375,-42.068336486816406,-19.109477996826172
1633780269817348600,9.6123486328125,20.819305419921875,-42.008575439453125,-18.92733383178711
1633780269837227800,9.632227783203126,21.27471923828125,-42.061378479003906,-18.923709869384766
1633780269857106700,9.652106689453126,20.730499267578125,-42.25926208496094,-18.928997039794922
1633780269876986600,9.671986572265626,20.57086181640625,-42.164405822753906,-18.856983184814453
1633780269896865500,9.691865478515625,20.891815185546875,-42.3165283203125,-18.957538604736328
1633780269916744700,9.71174462890625,20.517913818359375,-42.11553192138672,-18.96175765991211
1633780269936624600,9.731624755859375,20.58349609375,-42.433189392089844,-18.895702362060547
1633780269956503600,9.751503662109375,20.755889892578125,-42.226844787597656,-18.78354263305664
1633780269976382700,9.7713828125,20.578216552734375,-42.17579650878906,-18.593807220458984
1633780269996262000,9.791261962890625,20.42608642578125,-42.469276428222656,-18.71683120727539
1633780270016141600,9.8111416015625,20.794586181640625,-42.224151611328125,-18.811382293701172
1633780270036020700,9.831020751953124,20.863189697265625,-42.35633850097656,-18.63113784790039
1633780270055899600,9.850899658203126,20.709136962890625,-42.32783508300781,-18.60799789428711
1633780270075779600,9.870779541015626,20.54644775390625,-42.34180450439453,-18.715442657470703
1633780270095658800,9.89065869140625,20.584808349609375,-42.19837188720703,-18.659984588623047
1633780270115537700,9.91053759765625,20.43768310546875,-42.243934631347656,-18.793445587158203
1633780270135416800,9.930416748046875,20.369354248046875,-42.49810791015625,-18.86252212524414
1633780270155296800,9.950296875,19.93756103515625,-42.11822509765625,-18.849048614501953
1633780270175175700,9.97017578125,20.31439208984375,-42.387062072753906,-19.066272735595703
1633780270195054800,9.990054931640625,19.95245361328125,-42.41998291015625,-19.005725860595703
1633780270214934800,10.009934814453125,20.42333984375,-42.38819885253906,-18.672252655029297
1633780270234813700,10.029813720703125,20.036895751953125,-42.23112487792969,-18.941539764404297
1633780270254692900,10.04969287109375,20.179473876953125,-42.34785461425781,-18.856861114501953
1633780270274571800,10.06957177734375,20.19366455078125,-42.60795593261719,-18.658313751220703
1633780270294451700,10.08945166015625,20.26300048828125,-42.47636413574219,-18.73543930053711
1633780270314331000,10.109330810546876,20.395355224609375,-42.482696533203125,-18.903186798095703
1633780270334209800,10.129209716796876,20.210479736328125,-42.550872802734375,-19.01657485961914
1633780270354089700,10.14908984375,20.273529052734375,-42.48310852050781,-18.810657501220703
1633780270373969000,10.168968994140625,20.1339111328125,-42.31016540527344,-18.936687469482422
1633780270393847800,10.188847900390625,20.369476318359375,-42.593345642089844,-19.201213836669922
1633780270413726700,10.208726806640625,19.910308837890625,-42.545677185058594,-19.276775360107422
1633780270433606700,10.228606689453125,20.20849609375,-42.433204650878906,-19.09085464477539
1633780270453485800,10.24848583984375,20.0172119140625,-42.40916442871094,-19.048961639404297
1633780270473364700,10.26836474609375,20.410125732421875,-42.234092712402344,-18.955821990966797
1633780270493244700,10.28824462890625,20.252410888671875,-42.2864990234375,-19.133670806884766
1633780270513123800,10.308123779296874,20.39892578125,-42.14772033691406,-19.132572174072266
1633780270533002500,10.32800244140625,20.555572509765625,-42.253387451171875,-18.97250747680664
1633780270552881700,10.347881591796876,20.3699951171875,-42.1376953125,-19.06264877319336
1633780270572761900,10.367761962890626,20.597930908203125,-42.137550354003906,-18.887149810791016
1633780270592640500,10.387640625,20.514495849609375,-42.38273620605469,-18.848041534423828
1633780270612519700,10.407519775390625,20.461456298828125,-42.33953094482422,-18.896656036376953
1633780270632400000,10.42739990234375,20.36175537109375,-42.321022033691406,-18.93069076538086
1633780270652278800,10.44727880859375,20.6705322265625,-42.52497100830078,-18.970706939697266
1633780270672157700,10.46715771484375,20.51422119140625,-42.160797119140625,-18.827342987060547
1633780270692038000,10.487037841796875,20.421295166015625,-41.989601135253906,-18.955242156982422
1633780270711916800,10.506916748046875,20.270263671875,-42.365089416503906,-19.082958221435547
1633780270731795700,10.526795654296874,20.38555908203125,-42.067054748535156,-18.958484649658203
1633780270751674600,10.546674560546874,20.391510009765625,-42.10478210449219,-19.077465057373047
1633780270771554800,10.566554931640624,19.91705322265625,-42.480567932128906,-19.288280487060547
1633780270791433700,10.586433837890626,20.54058837890625,-42.163185119628906,-19.097431182861328
1633780270811312600,10.606312744140626,20.39056396484375,-42.16077423095703,-18.880138397216797
1633780270831196700,10.62619677734375,20.420654296875,-42.210121154785156,-19.088275909423828
1633780270851075600,10.64607568359375,19.976776123046875,-42.085235595703125,-18.996440887451172
1633780270870954800,10.665954833984374,19.9295654296875,-42.22631072998047,-19.037456512451172
1633780270890833700,10.685833740234376,19.967864990234375,-42.27116394042969,-18.79519271850586
1633780270910713600,10.705713623046876,19.895782470703125,-42.412567138671875,-19.115070343017578
1633780270930592500,10.725592529296875,19.858245849609375,-42.497344970703125,-19.003490447998047
1633780270950471700,10.7454716796875,19.856109619140625,-42.25763702392578,-19.283428192138672
1633780270970351600,10.7653515625,20.021392822265625,-42.301307678222656,-18.986507415771484
1633780270990230500,10.78523046875,19.90594482421875,-42.350372314453125,-19.001270294189453
1633780271010109700,10.805109619140625,19.980194091796875,-42.50022888183594,-19.098407745361328
1633780271029989600,10.82498974609375,19.83905029296875,-42.559104919433594,-19.10244369506836
1633780271049868500,10.84486865234375,20.0555419921875,-42.26514434814453,-18.945621490478516
1633780271069747700,10.864747802734374,19.655975341796875,-42.515419006347656,-18.838024139404297
1633780271089626600,10.884626708984374,19.386962890625,-42.686378479003906,-18.964313507080078
1633780271109506600,10.904506591796874,19.459991455078125,-42.640838623046875,-18.867664337158203
1633780271129385700,10.9243857421875,19.771575927734375,-42.53819274902344,-18.845035552978516
1633780271149264600,10.9442646484375,19.57684326171875,-42.397918701171875,-18.983203887939453
1633780271169144600,10.96414453125,19.91436767578125,-42.50904083251953,-18.827159881591797
1633780271189023700,10.984023681640625,20.02947998046875,-42.302757263183594,-18.881847381591797
1633780271208902700,11.003902587890625,19.591064453125,-42.331298828125,-18.915935516357422
1633780271228781800,11.02378173828125,19.566375732421875,-42.267478942871094,-18.894977569580078
1633780271248661800,11.043661865234375,19.728057861328125,-42.145233154296875,-18.989696502685547
1633780271268540700,11.063540771484375,19.968719482421875,-42.39060974121094,-18.851184844970703
1633780271288419800,11.083419921875,19.9935302734375,-42.20429229736328,-19.055980682373047
1633780271308299500,11.103299560546875,19.848541259765625,-42.0228271484375,-19.172779083251953
1633780271328178700,11.1231787109375,19.9962158203125,-42.16210174560547,-19.15456771850586
1633780271348057900,11.143057861328124,19.865966796875,-42.15544128417969,-18.747730255126953
1633780271367936500,11.1629365234375,19.927398681640625,-42.065956115722656,-18.816791534423828
1633780271387816700,11.182816650390626,19.80682373046875,-42.186065673828125,-19.050968170166016
1633780271407695600,11.202695556640625,19.556884765625,-42.28162384033203,-18.96297836303711
1633780271427574500,11.222574462890625,19.822021484375,-42.425628662109375,-19.071346282958984
1633780271447454700,11.242454833984375,20.169281005859375,-42.47694396972656,-18.824329376220703
1633780271467333600,11.262333740234375,20.12030029296875,-42.04112243652344,-18.781513214111328
1633780271487212500,11.282212646484375,19.843109130859375,-42.17112731933594,-18.81466293334961
1633780271507091500,11.302091552734375,20.671173095703125,-42.149986267089844,-18.67922592163086
1633780271526971600,11.3219716796875,20.430267333984375,-42.092857360839844,-18.606311798095703
1633780271546850600,11.3418505859375,19.95477294921875,-42.31681823730469,-18.911609649658203
1633780271566729500,11.3617294921875,20.246063232421875,-42.03387451171875,-18.716876983642578
1633780271586609700,11.381609619140624,20.54229736328125,-42.25468444824219,-18.636981964111328
1633780271606488800,11.40148876953125,19.901580810546875,-42.235443115234375,-18.687793731689453
1633780271626367500,11.421367431640626,20.03253173828125,-42.35693359375,-18.509227752685547
1633780271646247700,11.44124755859375,20.171661376953125,-42.19666290283203,-18.499217987060547
1633780271666126800,11.461126953125,19.7738037109375,-42.31565856933594,-18.618045806884766
1633780271686005500,11.481005615234375,19.959197998046875,-42.42002868652344,-18.67312240600586
1633780271705884700,11.500884765625,20.166900634765625,-42.416648864746094,-18.425586700439453
1633780271725764900,11.520764892578125,19.97576904296875,-42.688232421875,-18.706668853759766
1633780271745643500,11.5406435546875,20.536224365234375,-42.23332214355469,-18.586551666259766
1633780271765522700,11.560522705078125,20.407440185546875,-42.248680114746094,-18.681636810302734
1633780271785402600,11.580402587890624,20.08319091796875,-42.12690734863281,-18.457561492919922
1633780271805281500,11.600281494140624,20.01812744140625,-42.09147644042969,-18.522533416748047
1633780271825157000,11.6201572265625,20.659881591796875,-42.31462860107422,-18.626712799072266
1633780271845036000,11.6400361328125,20.716339111328125,-42.14857482910156,-18.33382797241211
1633780271864916000,11.659916015625,20.350738525390625,-42.34203338623047,-18.523601531982422
1633780271884795100,11.679795166015625,20.351959228515625,-42.35553741455078,-18.603931427001953
1633780271904674000,11.699674072265625,20.6455078125,-42.19146728515625,-18.521038055419922
1633780271924554000,11.719553955078124,20.294830322265625,-42.250755310058594,-18.40157699584961
1633780271944433200,11.73943310546875,20.2598876953125,-42.37762451171875,-18.540447235107422
1633780271964312000,11.75931201171875,20.59075927734375,-42.143287658691406,-18.68276596069336
1633780271984192300,11.779192138671876,21.29742431640625,-42.15009307861328,-18.685832977294922
1633780272004071000,11.79907080078125,21.036224365234375,-41.991600036621094,-18.596485137939453
1633780272023950000,11.8189501953125,20.816802978515625,-42.098785400390625,-18.445392608642578
1633780272043829200,11.838829345703125,21.3665771484375,-41.9522705078125,-18.663921356201172
1633780272063709000,11.858708984375,21.371551513671875,-42.067718505859375,-18.459239959716797
1633780272083588000,11.878588134765625,21.27642822265625,-41.97125244140625,-18.613597869873047
1633780272103467000,11.898467041015625,21.188934326171875,-42.00836181640625,-18.634502410888672
1633780272123347000,11.918346923828125,21.215545654296875,-42.136497497558594,-18.634998321533203
1633780272143226000,11.93822607421875,21.00830078125,-42.071922302246094,-18.652172088623047
1633780272163105000,11.95810498046875,20.768951416015625,-41.94364929199219,-18.926029205322266
1633780272182984200,11.977984130859374,21.0184326171875,-41.921630859375,-18.672863006591797
1633780272202864000,11.997864013671874,20.305755615234375,-42.122962951660156,-18.58493423461914
1633780272222743000,12.017742919921876,20.695892333984375,-41.93616485595703,-18.81717300415039
1633780272242622200,12.037622314453126,21.5401611328125,-42.090293884277344,-18.71347427368164
1633780272262502100,12.057502197265626,21.445526123046875,-42.006996154785156,-18.94473648071289
1633780272282381000,12.077381103515625,21.411895751953125,-41.983299255371094,-18.884342193603516
1633780272302260200,12.09726025390625,21.187896728515625,-42.06404113769531,-18.577068328857422
1633780272322139100,12.11713916015625,21.587890625,-41.76792907714844,-18.689594268798828
1633780272342019000,12.13701904296875,20.948272705078125,-41.99351501464844,-18.55466079711914
1633780272361898200,12.156898193359375,20.900543212890625,-41.892303466796875,-18.576091766357422
1633780272381777200,12.176777099609374,21.02459716796875,-42.12831115722656,-18.713001251220703
1633780272401657000,12.196656982421874,21.344696044921875,-41.92662811279297,-18.696331024169922
1633780272421536300,12.216536376953124,21.437896728515625,-42.08135986328125,-18.871456146240234
1633780272441415200,12.236415283203126,21.113006591796875,-42.16558074951172,-18.725765228271484
1633780272461295000,12.256295166015626,20.8887939453125,-42.20952606201172,-18.936321258544922
1633780272481174000,12.276174072265626,20.83502197265625,-41.95176696777344,-18.999614715576172
1633780272501053200,12.29605322265625,20.937225341796875,-42.01295471191406,-18.937999725341797
1633780272520932000,12.31593212890625,20.829833984375,-42.0391845703125,-18.787708282470703
1633780272540812000,12.33581201171875,21.131134033203125,-41.928306579589844,-18.954639434814453
1633780272560691200,12.355691162109375,21.165679931640625,-41.94152069091797,-18.60598373413086
1633780272580569900,12.37556982421875,20.9833984375,-41.580078125,-19.056865692138672
1633780272600450000,12.395449951171875,21.291107177734375,-41.76708221435547,-19.044071197509766
1633780272620329200,12.4153291015625,21.196624755859375,-41.67058563232422,-19.09334945678711
1633780272640208100,12.4352080078125,21.40240478515625,-41.448699951171875,-19.124469757080078
1633780272660087000,12.455087158203124,21.140472412109375,-41.502540588378906,-19.114795684814453
1633780272679967200,12.47496728515625,21.267486572265625,-41.32879638671875,-18.872570037841797
1633780272699846100,12.49484619140625,21.48992919921875,-41.331336975097656,-18.975948333740234
1633780272719725000,12.51472509765625,21.58929443359375,-41.43500518798828,-18.92495346069336
1633780272739605200,12.534605224609376,21.370330810546875,-41.248382568359375,-18.692035675048828
1633780272759484200,12.554484130859375,21.258514404296875,-41.26458740234375,-18.713573455810547
1633780272779363000,12.574363037109375,21.093902587890625,-41.51122283935547,-18.893314361572266
1633780272799242000,12.594241943359375,21.112457275390625,-41.48450469970703,-19.034557342529297
1633780272819122200,12.6141220703125,21.638092041015625,-41.61042022705078,-19.306529998779297
1633780272839000600,12.63400048828125,21.8123779296875,-41.80878448486328,-19.174854278564453
1633780272858879200,12.653879150390624,21.70245361328125,-41.83910369873047,-19.376850128173828
1633780272878759400,12.673759521484374,21.44158935546875,-41.372459411621094,-19.21054458618164
1633780272898638300,12.693638427734374,21.535247802734375,-41.452293395996094,-19.01407241821289
1633780272918517200,12.713517333984376,21.713653564453125,-41.23314666748047,-19.00771713256836
1633780272938396400,12.733396484375,21.686126708984375,-41.604827880859375,-19.231891632080078
1633780272958276400,12.7532763671875,21.793792724609375,-41.54405212402344,-19.306957244873047
1633780272978155300,12.7731552734375,21.78912353515625,-41.688568115234375,-19.25460433959961
1633780272998034200,12.7930341796875,21.719818115234375,-41.617919921875,-19.338237762451172
1633780273017914400,12.812914306640625,21.547454833984375,-41.343353271484375,-19.378162384033203
1633780273037793300,12.832793212890625,21.881622314453125,-41.573089599609375,-19.410968780517578
1633780273057672200,12.852672119140625,22.1480712890625,-41.72209930419922,-19.63875961303711
1633780273077551400,12.87255126953125,21.89105224609375,-41.34228515625,-19.05478286743164
1633780273097431300,12.892431396484374,21.916473388671875,-41.542747497558594,-19.141719818115234
1633780273117310200,12.912310302734374,21.72601318359375,-41.538536071777344,-19.389171600341797
1633780273137189400,12.932189453125,22.1630859375,-41.420684814453125,-19.355693817138672
1633780273157069600,12.952069580078126,21.9520263671875,-41.48761749267578,-19.278362274169922
1633780273176948200,12.9719482421875,21.707305908203125,-41.66535186767578,-19.116077423095703
1633780273196827400,12.991827392578125,21.588043212890625,-41.636634826660156,-18.98452377319336
1633780273216706300,13.011706298828125,21.648162841796875,-41.70794677734375,-18.978206634521484
1633780273236586200,13.031586181640625,21.41546630859375,-41.75437927246094,-19.306232452392578
1633780273256465400,13.05146533203125,21.802459716796875,-41.97802734375,-19.227466583251953
1633780273276344300,13.07134423828125,21.530242919921875,-41.75318145751953,-19.220905303955078
1633780273296224300,13.091224365234375,21.252777099609375,-41.935585021972656,-19.272144317626953
1633780273316103400,13.111103515625,21.08416748046875,-41.735206604003906,-19.092952728271484
1633780273335982300,13.130982421875,21.935943603515625,-41.804786682128906,-19.551136016845703
1633780273355862300,13.1508623046875,21.6771240234375,-41.384117126464844,-19.845165252685547
1633780273375741200,13.1707412109375,21.3739013671875,-41.433013916015625,-20.272945404052734
1633780273395620400,13.190620361328126,21.6961669921875,-40.90575408935547,-21.053691864013672
1633780273415499500,13.21049951171875,21.48291015625,-40.559600830078125,-21.960514068603516
1633780273435379200,13.230379150390625,20.960601806640625,-40.826194763183594,-22.075687408447266
1633780273455258400,13.25025830078125,19.84552001953125,-41.22137451171875,-21.903400421142578
1633780273475137300,13.27013720703125,19.1370849609375,-41.764373779296875,-21.897052764892578
1633780273495017200,13.290017333984375,18.575653076171875,-42.4931640625,-21.406505584716797
1633780273514896400,13.309896484375,18.262786865234375,-42.56092071533203,-21.25594711303711
1633780273534775300,13.329775390625,18.37799072265625,-42.259422302246094,-21.486743927001953
1633780273554654500,13.349654541015624,18.91778564453125,-41.91343688964844,-22.050289154052734
1633780273574534400,13.369534423828124,19.347381591796875,-41.54401397705078,-22.401607513427734
1633780273594413300,13.389413330078124,19.797760009765625,-41.04711151123047,-22.589702606201172
1633780273614292500,13.40929248046875,19.753814697265625,-41.035369873046875,-22.48537826538086
1633780273634171100,13.429171142578125,19.970703125,-41.40296936035156,-22.606685638427734
1633780273654051300,13.44905126953125,19.4742431640625,-41.093055725097656,-22.249195098876953
1633780273673930500,13.468930419921875,19.44439697265625,-41.11865234375,-22.431354522705078
1633780273693809200,13.48880908203125,19.85986328125,-41.25908660888672,-22.226055145263672
1633780273713689300,13.508689453125,19.654449462890625,-41.3856201171875,-22.384395599365234
1633780273733568500,13.528568603515625,19.79034423828125,-41.46331024169922,-22.187854766845703
1633780273753447200,13.548447265625,19.81182861328125,-41.359283447265625,-22.14858627319336
1633780273773326300,13.568326416015625,19.677764892578125,-41.365272521972656,-21.73447036743164
1633780273793206500,13.58820654296875,19.964630126953125,-41.41627502441406,-21.582256317138672
1633780273813085400,13.60808544921875,20.45843505859375,-41.28721618652344,-21.443157196044922
1633780273832964400,13.62796435546875,20.30889892578125,-41.57264709472656,-21.613162994384766
1633780273852844500,13.647844482421876,19.99188232421875,-41.540679931640625,-21.546344757080078
1633780273872723500,13.667723388671876,19.86737060546875,-41.692962646484375,-21.64474105834961
1633780273892602400,13.687602294921875,20.04559326171875,-41.56684875488281,-21.779666900634766
1633780273912482600,13.707482666015625,19.839324951171875,-41.50984191894531,-21.810596466064453
1633780273932361500,13.727361572265625,19.824493408203125,-41.28131103515625,-21.851810455322266
1633780273952240400,13.747240478515625,19.775970458984375,-41.266395568847656,-21.997974395751953
1633780273972119300,13.767119384765625,19.68829345703125,-41.27313995361328,-22.04294204711914
1633780273991999500,13.78699951171875,19.714202880859375,-41.47026824951172,-21.896099090576172
1633780274011878400,13.80687841796875,19.250946044921875,-41.816192626953125,-21.755107879638672
1633780274031757300,13.82675732421875,19.477996826171875,-41.71266174316406,-21.579776763916016
1633780274051637500,13.846637451171874,19.58203125,-41.80176544189453,-21.72878646850586
1633780274071516200,13.86651611328125,19.479400634765625,-41.85957336425781,-21.353199005126953
1633780274091395300,13.886395263671876,19.373382568359375,-42.23402404785156,-21.063617706298828
1633780274111274500,13.9062744140625,19.478363037109375,-42.309326171875,-20.910823822021484
1633780274131154200,13.926154296875,19.31549072265625,-42.27874755859375,-21.007465362548828
1633780274151033300,13.946033447265625,19.511993408203125,-42.56520080566406,-20.682613372802734
1633780274170912500,13.96591259765625,19.50897216796875,-42.20948028564453,-20.458484649658203
1633780274190792400,13.98579248046875,20.048858642578125,-42.35869598388672,-20.57553482055664
1633780274210671400,14.00567138671875,19.733154296875,-42.604393005371094,-20.304019927978516
1633780274230550300,14.02555029296875,19.830718994140625,-42.335166931152344,-20.226436614990234
1633780274250429400,14.045429443359374,19.834442138671875,-42.26557159423828,-20.081546783447266
1633780274270309400,14.065309326171874,20.0648193359375,-42.442604064941406,-20.554912567138672
1633780274290188300,14.085188232421874,19.570343017578125,-42.26744079589844,-20.611446380615234
1633780274310067500,14.1050673828125,19.701568603515625,-42.15172576904297,-20.430347442626953
1633780274329947400,14.124947509765626,19.5125732421875,-42.099571228027344,-20.80954360961914
1633780274349826300,14.144826416015626,19.644256591796875,-42.369171142578125,-20.70505142211914
1633780274369705500,14.16470556640625,18.9136962890625,-42.08216094970703,-20.629825592041016
1633780274389584400,14.18458447265625,19.322509765625,-41.96637725830078,-20.72097396850586
1633780274409464300,14.20446435546875,19.053497314453125,-42.33350372314453,-20.763179779052734
1633780274429343500,14.224343505859375,18.850372314453125,-41.96311950683594,-20.75711441040039
1633780274449222400,14.244222412109375,19.196746826171875,-42.1578369140625,-20.874492645263672
1633780274469102300,14.264102294921875,18.86614990234375,-41.99018859863281,-21.04580307006836
1633780274488981500,14.2839814453125,18.75762939453125,-42.252716064453125,-20.566043853759766
1633780274508860400,14.3038603515625,19.031097412109375,-42.07676696777344,-20.590587615966797
1633780274528739300,14.3237392578125,19.13885498046875,-41.96369934082031,-20.41555404663086
1633780274548619300,14.343619384765624,19.11358642578125,-42.222190856933594,-20.51224136352539
1633780274568498400,14.36349853515625,19.19146728515625,-42.327232360839844,-20.545482635498047
1633780274588377600,14.383377685546876,19.234130859375,-42.42560577392578,-20.383487701416016
1633780274608257300,14.40325732421875,19.353759765625,-42.49395751953125,-20.480960845947266
1633780274628136400,14.423136474609375,19.062347412109375,-42.43046569824219,-20.417827606201172
1633780274648015600,14.443015625,19.324005126953125,-42.24829864501953,-20.333477020263672
1633780274667894300,14.462894287109375,19.464935302734375,-42.121612548828125,-20.26595687866211
1633780274687774500,14.4827744140625,19.357330322265625,-42.32621765136719,-20.469043731689453
1633780274707653400,14.5026533203125,19.000823974609375,-42.11045837402344,-20.521739959716797
1633780274727532300,14.5225322265625,19.317840576171875,-42.0567626953125,-20.397571563720703
1633780274747412500,14.54241259765625,18.887451171875,-42.396942138671875,-20.39443588256836
1633780274767291400,14.56229150390625,18.96502685546875,-42.54530334472656,-20.068965911865234
1633780274787170300,14.58217041015625,19.165283203125,-42.31550598144531,-20.443866729736328
1633780274807049200,14.60204931640625,19.091522216796875,-42.42930603027344,-20.29201889038086
1633780274826930200,14.62193017578125,19.491058349609375,-42.40351104736328,-20.178157806396484
1633780274846809000,14.64180908203125,19.095123291015625,-42.59400939941406,-20.042110443115234
1633780274866688300,14.661688232421875,19.31365966796875,-42.296722412109375,-20.152111053466797
1633780274886568200,14.681568115234375,19.238555908203125,-42.38947296142578,-19.931385040283203
1633780274906447000,14.701447021484375,19.320404052734375,-42.254295349121094,-19.967792510986328
1633780274926326300,14.721326171875,19.07330322265625,-42.46214294433594,-20.041210174560547
1633780274946205200,14.741205078125,19.210662841796875,-42.2349853515625,-19.723278045654297
1633780274966085000,14.761085205078125,19.05560302734375,-42.46758270263672,-19.832881927490234
1633780274985964300,14.78096435546875,19.3714599609375,-42.30279541015625,-19.879833221435547
1633780275005843200,14.80084326171875,19.116668701171875,-42.23457336425781,-19.969669342041016
1633780275025723100,14.82072314453125,19.193511962890625,-42.24903869628906,-20.388172149658203
1633780275045602300,14.840602294921876,19.257568359375,-42.302635192871094,-20.242717742919922
1633780275065481200,14.860481201171876,19.125762939453125,-42.228424072265625,-20.351016998291016
1633780275085360400,14.8803603515625,19.054443359375,-42.21611785888672,-20.133403778076172
1633780275105240000,14.900239990234375,19.44189453125,-42.391517639160156,-20.29477310180664
1633780275125119200,14.920119140625,19.17724609375,-42.454002380371094,-20.271404266357422
1633780275144998400,14.939998291015625,18.859527587890625,-42.39817810058594,-20.307476043701172
1633780275164878000,14.959878173828125,18.701690673828125,-42.636268615722656,-19.876651763916016
1633780275184757200,14.97975732421875,18.988067626953125,-42.32737731933594,-19.929317474365234
1633780275204636400,14.999636474609375,18.75787353515625,-42.52002716064453,-19.85543441772461
1633780275224515000,15.01951513671875,18.8564453125,-42.59356689453125,-19.609508514404297
1633780275244395300,15.039395263671874,18.907501220703125,-42.42639923095703,-19.49734878540039
1633780275264274200,15.059274169921874,19.028076171875,-42.58447265625,-19.465404510498047
1633780275284153300,15.0791533203125,19.19561767578125,-42.57977294921875,-19.496501922607422
1633780275304033300,15.099033203125,19.021575927734375,-42.4993896484375,-19.170955657958984
1633780275323912200,15.118912109375,19.052276611328125,-42.611724853515625,-19.16672134399414
1633780275343791400,15.138791259765625,19.008636474609375,-42.60292053222656,-19.367656707763672
1633780275363670000,15.158669921875,19.12646484375,-42.61328887939453,-19.165088653564453
1633780275383550200,15.17855029296875,19.017822265625,-42.60624694824219,-19.205265045166016
1633780275403429400,15.198429443359375,19.38739013671875,-42.86497497558594,-19.12844467163086
1633780275423308000,15.21830810546875,18.812255859375,-42.846290588378906,-19.238346099853516
1633780275443188200,15.238188232421875,18.927947998046875,-42.61688995361328,-19.36618423461914
1633780275463067400,15.2580673828125,19.10394287109375,-42.452003479003906,-19.266414642333984
1633780275482946000,15.277946044921874,19.420745849609375,-42.62547302246094,-19.44449234008789
1633780275502825200,15.2978251953125,19.36505126953125,-42.44892120361328,-19.442584991455078
1633780275522705400,15.317705322265626,19.7452392578125,-42.308433532714844,-19.51510238647461
1633780275542584000,15.337583984375,19.84375,-42.132728576660156,-19.702869415283203
1633780275562463200,15.357463134765625,19.839141845703125,-42.06688690185547,-19.759830474853516
1633780275582343400,15.377343505859375,19.6221923828125,-42.069366455078125,-20.326114654541016
1633780275602222000,15.39722216796875,19.673370361328125,-41.90983581542969,-20.314495086669922
1633780275622101200,15.417101318359375,19.8765869140625,-41.757057189941406,-20.84432601928711
1633780275641980200,15.436980224609375,20.30126953125,-41.807586669921875,-20.961963653564453
1633780275661860400,15.4568603515625,20.01702880859375,-41.598106384277344,-21.117938995361328
1633780275681739300,15.4767392578125,19.302215576171875,-41.71339416503906,-21.581981658935547
1633780275701618200,15.4966181640625,19.845245361328125,-41.651397705078125,-21.67911148071289
1633780275721498400,15.516498291015624,19.38385009765625,-41.38165283203125,-21.896564483642578
1633780275741377000,15.536376953125,19.380645751953125,-41.285316467285156,-22.06180191040039
1633780275761256200,15.556256103515626,19.581695556640625,-41.267974853515625,-21.92837142944336
1633780275781135400,15.57613525390625,19.880523681640625,-41.010231018066406,-21.899578094482422
1633780275801015000,15.59601513671875,19.7445068359375,-40.989013671875,-22.364643096923828
1633780275820894200,15.615894287109375,20.141021728515625,-40.92768096923828,-22.560688018798828
1633780275840772900,15.63577294921875,20.2314453125,-40.48966979980469,-22.721370697021484
1633780275860652800,15.65565283203125,20.81781005859375,-40.395225524902344,-22.830097198486328
1633780275880531700,15.67553173828125,21.346588134765625,-40.40074157714844,-22.367481231689453
1633780275900410600,15.69541064453125,21.903564453125,-40.358917236328125,-21.631961822509766
1633780275920289800,15.715289794921874,22.371551513671875,-40.346397399902344,-21.20810317993164
1633780275940169700,15.735169677734374,22.53350830078125,-40.495033264160156,-20.639820098876953
1633780275960048600,15.755048583984374,22.80303955078125,-40.359283447265625,-20.22243881225586
1633780275979927800,15.774927734375,23.136932373046875,-40.297996520996094,-19.937427520751953
1633780275999807700,15.794807861328126,23.387969970703125,-40.42670440673828,-19.822124481201172
1633780276019686700,15.814686767578126,23.54815673828125,-40.588233947753906,-19.08742904663086
1633780276039565800,15.83456591796875,23.951751708984375,-41.00627136230469,-18.635356903076172
1633780276059444700,15.85444482421875,23.9100341796875,-40.78966522216797,-18.505626678466797
1633780276079324700,15.87432470703125,24.057861328125,-40.632904052734375,-18.18838119506836
1633780276099203800,15.894203857421875,23.903228759765625,-40.85749053955078,-18.08902359008789
1633780276119082800,15.914082763671875,23.49993896484375,-40.86968994140625,-18.01009750366211
1633780276138962700,15.933962646484375,23.64129638671875,-41.01768493652344,-17.765583038330078
1633780276158841900,15.953841796875,23.4755859375,-41.144691467285156,-17.731090545654297
1633780276178720800,15.973720703125,23.27557373046875,-41.43528747558594,-17.791996002197266
1633780276198600000,15.993599853515626,23.08233642578125,-41.557395935058594,-17.904155731201172
1633780276218479900,16.01347998046875,22.581878662109375,-41.51451110839844,-17.946292877197266
1633780276238358800,16.03335888671875,22.502655029296875,-41.71092987060547,-17.954341888427734
1633780276258238000,16.053238037109374,22.843719482421875,-41.69401550292969,-18.02273178100586
1633780276278117600,16.07311767578125,22.625701904296875,-41.55126190185547,-17.847095489501953
1633780276297996800,16.092996826171873,22.718963623046875,-41.40666198730469,-17.79977798461914
1633780276317876000,16.1128759765625,22.854949951171875,-41.523277282714844,-17.684772491455078
1633780276337754600,16.132754638671877,22.722564697265625,-41.24488067626953,-17.768383026123047
1633780276357634800,16.152634765625,23.205902099609375,-41.335411071777344,-17.52859115600586
1633780276377513700,16.172513671875,22.894317626953125,-41.399879455566406,-17.87203598022461
1633780276397392600,16.192392578125,23.203216552734375,-41.62591552734375,-17.786998748779297
1633780276417271800,16.212271728515624,22.861480712890625,-41.26580810546875,-18.125988006591797
1633780276437151700,16.23215185546875,22.6153564453125,-41.48571014404297,-17.941669464111328
1633780276457030700,16.25203076171875,22.226287841796875,-41.60730743408203,-18.225894927978516
1633780276476909800,16.271909912109376,22.265167236328125,-41.66215515136719,-18.447162628173828
1633780276496789800,16.291789794921876,22.522308349609375,-41.63787078857422,-18.460559844970703
1633780276516668700,16.311668701171875,22.415008544921875,-41.435035705566406,-18.243358612060547
1633780276536547600,16.331547607421875,22.429779052734375,-41.42009735107422,-18.502208709716797
1633780276556426800,16.3514267578125,22.21917724609375,-41.44770050048828,-18.569889068603516
1633780276576307000,16.371306884765627,22.35894775390625,-41.461021423339844,-18.50234603881836
1633780276596185600,16.391185546875,22.0347900390625,-41.48029327392578,-18.54519271850586
1633780276616064800,16.411064697265626,22.008026123046875,-41.93663024902344,-18.664722442626953
1633780276635945000,16.430945068359375,21.650115966796875,-42.03087615966797,-18.697269439697266
1633780276655823600,16.45082373046875,21.477691650390625,-41.891082763671875,-18.580623626708984
1633780276675702800,16.470702880859374,21.311981201171875,-41.82847595214844,-18.642635345458984
1633780276695581700,16.490581787109374,21.101470947265625,-42.336326599121094,-18.563465118408203
1633780276715461600,16.510461669921874,21.732269287109375,-42.226318359375,-18.571781158447266
1633780276735340800,16.5303408203125,21.80889892578125,-42.41642761230469,-18.225788116455078
1633780276755219700,16.5502197265625,21.59326171875,-42.43537139892578,-18.089595794677734
1633780276775099600,16.570099609375,21.9613037109375,-42.31005859375,-17.85750961303711
1633780276794978800,16.589978759765625,21.748748779296875,-42.11640930175781,-17.725353240966797
1633780276814857700,16.609857666015625,21.685302734375,-42.035179138183594,-17.73757553100586
1633780276834740500,16.629740478515625,21.6339111328125,-42.19932556152344,-17.699886322021484
1633780276854620400,16.649620361328125,21.462249755859375,-42.02056121826172,-17.703540802001953
1633780276874499300,16.669499267578125,21.814544677734375,-42.10223388671875,-17.804508209228516
1633780276894378500,16.68937841796875,21.3995361328125,-42.110252380371094,-17.837963104248047
1633780276914258200,16.709258056640625,21.735107421875,-42.031837463378906,-17.957996368408203
1633780276934137300,16.729137451171876,21.7119140625,-41.89411926269531,-18.044307708740234
1633780276954016500,16.7490166015625,22.04034423828125,-42.11314392089844,-17.96474838256836
1633780276973895400,16.7688955078125,22.22821044921875,-42.152915954589844,-17.880367279052734
1633780276993775400,16.788775390625,21.962646484375,-42.23570251464844,-17.960613250732422
1633780277013654300,16.808654296875,21.631744384765625,-41.78388977050781,-17.938610076904297
1633780277033533400,16.828533447265624,21.87823486328125,-42.03180694580078,-18.015972137451172
1633780277053412400,16.848412353515624,22.19342041015625,-41.796875,-17.78726577758789
1633780277073292300,16.868292236328124,22.179351806640625,-41.928466796875,-17.50576400756836
1633780277093171500,16.88817138671875,22.2117919921875,-42.058319091796875,-17.500873565673828
1633780277113050400,16.90805029296875,22.19293212890625,-42.17979431152344,-17.212215423583984
1633780277132930300,16.927930419921875,22.3045654296875,-42.456565856933594,-17.206180572509766
1633780277152809500,16.9478095703125,22.5772705078125,-42.1141357421875,-17.129871368408203
1633780277172688100,16.967688232421875,22.566009521484375,-42.10050964355469,-17.19894790649414
1633780277192567300,16.9875673828125,22.979583740234375,-41.793907165527344,-17.32596206665039
1633780277212447500,17.007447509765626,22.6239013671875,-41.938507080078125,-17.546741485595703
1633780277232326100,17.027326171875,22.341827392578125,-41.96820831298828,-17.463542938232422
1633780277252205300,17.047205322265626,22.575836181640625,-41.916709899902344,-17.503467559814453
1633780277272085500,17.06708544921875,22.2041015625,-42.00470733642578,-17.61477279663086
1633780277291964400,17.08696435546875,22.37445068359375,-41.72967529296875,-17.702495574951172
1633780277311843300,17.10684326171875,22.34771728515625,-41.874107360839844,-17.42885971069336
1633780277331722200,17.12672216796875,22.226776123046875,-41.742340087890625,-17.575252532958984
1633780277351602400,17.1466025390625,22.341888427734375,-41.851898193359375,-17.209461212158203
1633780277371481300,17.1664814453125,22.731719970703125,-41.80323028564453,-17.149158477783203
1633780277391360300,17.1863603515625,22.23077392578125,-41.92870330810547,-17.312328338623047
1633780277411240400,17.206240478515625,22.148956298828125,-41.718299865722656,-17.186016082763672
1633780277431119400,17.226119384765624,22.3275146484375,-42.13801574707031,-17.395198822021484
1633780277450998300,17.245998291015624,22.374267578125,-42.256103515625,-17.40188217163086
1633780277470877400,17.26587744140625,22.546295166015625,-42.279136657714844,-17.201190948486328
1633780277490757000,17.285757080078124,22.272430419921875,-42.32208251953125,-17.007144927978516
1633780277510636300,17.30563623046875,22.5413818359375,-42.02295684814453,-17.136425018310547
1633780277530515500,17.325515380859375,22.568817138671875,-42.12945556640625,-17.062267303466797
1633780277550395100,17.34539501953125,22.6884765625,-42.02098846435547,-16.968242645263672
1633780277570274300,17.3652744140625,22.195587158203125,-41.731048583984375,-16.953983306884766
1633780277590153500,17.385153564453127,22.528564453125,-41.66413116455078,-17.38320541381836
1633780277610032400,17.405032470703127,22.362060546875,-41.90379333496094,-17.088207244873047
1633780277629912300,17.424912353515627,22.199554443359375,-41.91748809814453,-17.316272735595703
1633780277649791200,17.444791259765626,22.3302001953125,-41.882713317871094,-17.34195327758789
1633780277669670400,17.46467041015625,22.154449462890625,-41.64751434326172,-17.173999786376953
1633780277689549600,17.484549560546874,22.68829345703125,-41.84722900390625,-17.423908233642578
1633780277709429200,17.50442919921875,21.9486083984375,-41.61235046386719,-17.610614776611328
1633780277729308400,17.524308349609374,22.53460693359375,-41.57110595703125,-17.427112579345703
1633780277749187300,17.544187255859374,21.9967041015625,-41.864990234375,-17.66115951538086
1633780277769067300,17.5640673828125,22.031768798828125,-41.571441650390625,-17.716304779052734
1633780277788946400,17.583946533203125,22.106201171875,-41.66816711425781,-17.845478057861328
1633780277808825300,17.603825439453125,21.931182861328125,-41.59571075439453,-18.503192901611328
1633780277828704300,17.623704345703125,21.854217529296875,-41.57684326171875,-18.74649429321289
1633780277848581400,17.643581298828124,21.399383544921875,-41.76862335205078,-18.877750396728516
1633780277868460500,17.66346044921875,21.576690673828125,-41.732337951660156,-19.445598602294922
1633780277888339200,17.683339111328124,20.986480712890625,-41.42008972167969,-19.922245025634766
1633780277908219400,17.703219482421876,20.927093505859375,-41.66328430175781,-20.510417938232422
1633780277928098600,17.7230986328125,20.618133544921875,-41.47130584716797,-20.94260025024414
1633780277947977200,17.742977294921875,19.73870849609375,-41.45759582519531,-21.380428314208984
1633780277967856400,17.7628564453125,19.557861328125,-41.61365509033203,-21.858684539794922
1633780277987736600,17.782736572265627,19.080780029296875,-41.54688262939453,-22.044063568115234
1633780278007615200,17.802615234375,18.775054931640625,-41.448211669921875,-22.44949722290039
1633780278027494400,17.822494384765626,18.5665283203125,-41.59953308105469,-22.762248992919922
1633780278047374300,17.842374267578126,18.9298095703125,-41.40735626220703,-22.624309539794922
1633780278067253200,17.862253173828126,18.7158203125,-41.16358184814453,-22.664310455322266
1633780278087132400,17.88213232421875,19.088592529296875,-41.30107116699219,-22.91396713256836
1633780278107011300,17.90201123046875,19.0657958984375,-41.13276672363281,-22.418018341064453
1633780278126891300,17.921891357421874,18.863677978515625,-41.45143127441406,-22.754268646240234
1633780278146770200,17.941770263671874,19.099029541015625,-41.179832458496094,-22.749805450439453
1633780278166649300,17.9616494140625,19.263885498046875,-41.24232482910156,-22.791934967041016
1633780278186528500,17.981528564453125,19.356781005859375,-40.9937744140625,-23.229450225830078
1633780278206408200,18.001408203125,18.99285888671875,-41.057151794433594,-23.580333709716797
1633780278226287400,18.021287353515625,19.37322998046875,-40.437744140625,-23.852008819580078
1633780278246166300,18.041166259765625,19.511383056640625,-40.59507751464844,-23.972339630126953
1633780278266046200,18.061046142578125,19.33795166015625,-40.42107391357422,-24.284740447998047
1633780278285925400,18.08092529296875,19.655487060546875,-40.22119140625,-24.482067108154297
1633780278305804300,18.10080419921875,19.190155029296875,-40.481300354003906,-24.337238311767578
1633780278325683500,18.120683349609376,19.408477783203125,-40.20612335205078,-24.072406768798828
1633780278345563400,18.1405634765625,19.08740234375,-40.47205352783203,-24.08358383178711
1633780278365442300,18.1604423828125,19.5159912109375,-40.37396240234375,-24.38180923461914
1633780278385321500,18.180321533203124,19.309326171875,-40.347267150878906,-24.468936920166016
1633780278405201400,18.200201416015624,19.068450927734375,-40.45337677001953,-24.650676727294922
1633780278425080300,18.220080322265623,19.12066650390625,-40.3031005859375,-24.665241241455078
1633780278444959500,18.23995947265625,19.385528564453125,-40.39826202392578,-24.45870590209961
1633780278464838100,18.259838134765626,19.377716064453125,-40.444419860839844,-24.53628921508789
1633780278484718300,18.27971826171875,19.316253662109375,-40.269432067871094,-24.967586517333984
1633780278504597500,18.299597412109375,19.28680419921875,-40.05033874511719,-24.921611785888672
1633780278524476400,18.319476318359374,19.502105712890625,-40.00428771972656,-25.302104949951172
1633780278544355300,18.339355224609374,19.626312255859375,-39.90601348876953,-25.616886138916016
1633780278564235500,18.359235595703126,19.177734375,-39.89434051513672,-25.67885971069336
1633780278584114400,18.379114501953126,19.52435302734375,-39.776145935058594,-25.642284393310547
1633780278603993300,18.398993408203125,19.176666259765625,-39.80174255371094,-25.443164825439453
1633780278623873300,18.418873291015625,18.884613037109375,-39.68695831298828,-25.607929229736328
1633780278643752400,18.43875244140625,19.099334716796875,-39.923057556152344,-25.803211212158203
1633780278663631400,18.45863134765625,19.344879150390625,-39.82886505126953,-26.094341278076172
1633780278683510300,18.47851025390625,19.628631591796875,-39.83943176269531,-25.602909088134766
1633780278703390500,18.498390380859377,19.581573486328125,-39.87730407714844,-25.891483306884766
1633780278723269400,18.518269287109376,19.29693603515625,-39.74036407470703,-25.85922622680664
1633780278743148300,18.538148193359376,19.116790771484375,-39.553382873535156,-25.91561508178711
1633780278763027500,18.55802734375,19.28887939453125,-39.55573272705078,-25.786617279052734
1633780278782907100,18.5779072265625,19.007049560546875,-39.68970489501953,-25.850666046142578
1633780278802786300,18.597786376953124,19.32342529296875,-39.93743133544922,-25.708560943603516
1633780278822665500,18.61766552734375,19.016448974609375,-39.87422180175781,-25.670429229736328
1633780278842548200,18.63754833984375,18.8046875,-39.719703674316406,-25.80422592163086
1633780278862427100,18.65742724609375,18.999786376953125,-39.824073791503906,-25.883037567138672
1633780278882306300,18.677306396484376,18.980865478515625,-39.78135681152344,-25.95328140258789
1633780278902185200,18.697185302734376,19.1949462890625,-39.83025360107422,-25.95437240600586
1633780278922065200,18.717065185546875,18.77294921875,-40.031639099121094,-26.027599334716797
1633780278941944000,18.736944091796875,18.868988037109375,-39.95365905761719,-25.97977066040039
1633780278961823200,18.7568232421875,18.724639892578125,-39.894622802734375,-25.917530059814453
1633780278981703200,18.776703125,19.1092529296875,-39.719757080078125,-26.126644134521484
1633780279001582000,18.79658203125,18.8216552734375,-39.715728759765625,-26.03537368774414
1633780279021461200,18.816461181640626,19.15765380859375,-39.70295715332031,-26.106647491455078
1633780279041340200,18.836340087890626,19.08642578125,-39.516746520996094,-25.995845794677734
1633780279061220000,18.85622021484375,18.710601806640625,-39.87519836425781,-25.917652130126953
