time,seconds_elapsed,z,y,x
1634125153946290000,0.0382900390625,0.11062084138393402,0.030246958136558533,0.052631720900535583
1634125153966169900,0.058169921875,0.10267771780490875,-0.009403469040989876,0.042083099484443665
1634125153986049800,0.0780498046875,0.076113760471344,-0.027689283713698387,-0.008804182521998882
1634125154005930000,0.097929931640625,0.05881652981042862,-0.005113174673169851,-0.05182567983865738
1634125154025810000,0.117809814453125,0.04877291992306709,0.0018670400604605675,-0.02265811339020729
1634125154045689900,0.13768994140625,0.03773147240281105,0.022732138633728027,0.04554067552089691
1634125154065569800,0.15756982421875,0.029554229229688644,0.06181652098894119,0.07152047008275986
1634125154085450000,0.177449951171875,0.030357949435710907,0.05367576330900192,0.053327180445194244
1634125154105330000,0.197329833984375,0.0403197780251503,0.012201988138258457,0.03671745955944061
1634125154125210000,0.217210205078125,0.036720287054777145,-0.03636809438467026,0.03743882104754448
1634125154145089800,0.23708984375,0.03108929470181465,-0.056726034730672836,0.07192342728376389
1634125154164970000,0.256969970703125,0.025216717272996902,-0.02572130784392357,0.10144184529781342
1634125154184850000,0.276849853515625,0.024101924151182175,-0.028547018766403198,0.0978187620639801
1634125154204730000,0.296730224609375,0.030516959726810455,-0.085715651512146,0.08337032794952393
1634125154224609500,0.316609619140625,0.04510147497057915,-0.1640450358390808,0.06869547814130783
1634125154244489700,0.33648974609375,0.04228491336107254,-0.20105920732021332,0.058465201407670975
1634125154264369700,0.35636962890625,0.03563554212450981,-0.14928597211837769,0.024502338841557503
1634125154284249600,0.37624951171875,0.03746462240815163,-0.09220562875270844,-0.008532145991921425
1634125154304129500,0.396129638671875,0.03656235337257385,-0.08754567801952362,-0.028815574944019318
1634125154324009700,0.416009765625,0.04242689162492752,-0.1013040542602539,-0.03227422758936882
1634125154343889700,0.4358896484375,0.014615999534726143,-0.12164853513240814,0.012803971767425537
1634125154363769600,0.45576953125,-0.04234713688492775,-0.12692342698574066,0.05290322005748749
1634125154383649500,0.4756494140625,-0.11472281068563461,-0.1396058350801468,0.08729060739278793
1634125154403529700,0.49552978515625,-0.18607044219970703,-0.16270819306373596,0.1217276006937027
1634125154423409700,0.51540966796875,-0.26354289054870605,-0.1475432813167572,0.16039520502090454
1634125154443289900,0.535289794921875,-0.338588148355484,-0.1387934535741806,0.21670104563236237
1634125154463169500,0.55516943359375,-0.39145079255104065,-0.08505898714065552,0.2729731798171997
1634125154483049700,0.5750498046875,-0.4713541269302368,-0.013758801855146885,0.38618722558021545
1634125154502929700,0.5949296875,-0.5552125573158264,-0.02808956615626812,0.5170876979827881
1634125154522808600,0.61480859375,-0.6010631322860718,-0.1342742145061493,0.6469489932060242
1634125154542688500,0.6346884765625,-0.6294201612472534,-0.22056321799755096,0.7708218097686768
1634125154562568700,0.654568603515625,-0.7331469058990479,-0.2734658122062683,0.9169065952301025
1634125154582448600,0.67444873046875,-0.8859885931015015,-0.38742879033088684,1.082754135131836
1634125154602328600,0.69432861328125,-0.990994393825531,-0.52811598777771,1.2166500091552734
1634125154622208500,0.71420849609375,-1.0258090496063232,-0.5733200907707214,1.29921555519104
1634125154642088700,0.734088623046875,-0.9781116247177124,-0.4957909882068634,1.2773207426071167
1634125154661968600,0.75396875,-0.8623964190483093,-0.3692482113838196,1.2024848461151123
1634125154681848600,0.7738486328125,-0.7036606669425964,-0.2842875123023987,1.0612525939941406
1634125154701728500,0.793728515625,-0.6254225373268127,-0.27532050013542175,0.8906148672103882
1634125154721608700,0.813608642578125,-0.6088036298751831,-0.36918818950653076,0.7158491015434265
1634125154741488600,0.833488525390625,-0.5536285638809204,-0.5181277394294739,0.5561897158622742
1634125154761368800,0.853368896484375,-0.4384838044643402,-0.6554694771766663,0.41658279299736023
1634125154781248500,0.87324853515625,-0.3213905096054077,-0.7473341822624207,0.3322688043117523
1634125154801128700,0.893128662109375,-0.2890642583370209,-0.7199456095695496,0.31400179862976074
1634125154821008600,0.913008544921875,-0.2819482982158661,-0.630437970161438,0.32281768321990967
1634125154840888800,0.932888916015625,-0.2833448350429535,-0.6083559393882751,0.35017871856689453
1634125154860768500,0.9527685546875,-0.2979528307914734,-0.6945618391036987,0.37561044096946716
1634125154880648700,0.972648681640625,-0.23936404287815094,-0.719581663608551,0.3940601646900177
1634125154900528600,0.992528564453125,-0.17200659215450287,-0.647104799747467,0.455762654542923
1634125154920408800,1.012408935546875,-0.1530052274465561,-0.5495491027832031,0.45069998502731323
1634125154940288500,1.03228857421875,-0.176622673869133,-0.5982204079627991,0.358001708984375
1634125154960168700,1.052168701171875,-0.27481260895729065,-0.6693825125694275,0.2325669676065445
1634125154980048600,1.072048583984375,-0.3749496042728424,-0.5998419523239136,0.12160199135541916
1634125154999928800,1.0919287109375,-0.3462905287742615,-0.6325685381889343,0.1259426474571228
1634125155019808500,1.11180859375,-0.19385971128940582,-0.6709230542182922,0.1482844203710556
1634125155039688700,1.131688720703125,0.0007859355537220836,-0.5628708600997925,0.1129089891910553
1634125155059568600,1.151568603515625,0.15618327260017395,-0.3209235668182373,0.09647121280431747
1634125155079448600,1.171448486328125,0.21621356904506683,-0.06714683026075363,0.1678505390882492
1634125155099328800,1.191328857421875,0.23817186057567596,0.22862108051776886,0.23492740094661713
1634125155119208400,1.21120849609375,0.28496333956718445,0.3722631335258484,0.24508541822433472
1634125155139088600,1.231088623046875,0.35439860820770264,0.2729009687900543,0.17173022031784058
1634125155158968600,1.250968505859375,0.44045332074165344,0.028454145416617393,0.04171604663133621
1634125155178847500,1.270847412109375,0.47891655564308167,-0.3270614743232727,-0.06886410713195801
1634125155198727700,1.290727783203125,0.4829683005809784,-0.6353090405464172,-0.1678641438484192
1634125155218607900,1.31060791015625,0.4347882568836212,-0.42137411236763,-0.3383053243160248
1634125155238488000,1.330488037109375,0.2328261137008667,0.18601006269454956,-0.3689425587654114
1634125155258368000,1.350367919921875,-0.03920222446322441,0.668068528175354,-0.14046189188957214
1634125155278248000,1.370248046875,-0.22301439940929413,0.8875020742416382,0.15550358593463898
1634125155298128000,1.3901279296875,-0.321000874042511,0.8720340132713318,0.3791167140007019
1634125155318008000,1.410008056640625,-0.2717350721359253,0.8086006045341492,0.4539777636528015
1634125155337888000,1.429887939453125,-0.1428966522216797,0.7228167057037354,0.4334999620914459
1634125155357768000,1.449767822265625,-0.01050212699919939,0.6255887746810913,0.3815757632255554
1634125155377647900,1.46964794921875,0.11785665899515152,0.47961968183517456,0.3625601530075073
1634125155397527800,1.48952783203125,0.15680937469005585,0.355363130569458,0.339128702878952
1634125155417408000,1.509407958984375,0.10738962888717651,0.2809047996997833,0.30298855900764465
1634125155437288000,1.529287841796875,0.01954019069671631,0.2520357370376587,0.2294221818447113
1634125155457168000,1.54916796875,-0.012032125145196915,0.23275303840637207,0.12277626246213913
1634125155477047800,1.5690478515625,0.05003071203827858,0.22376394271850586,0.012667713686823845
1634125155496928000,1.588927978515625,0.16302572190761566,0.22736302018165588,-0.03241007775068283
1634125155516808000,1.608807861328125,0.2514227032661438,0.18837764859199524,-0.01420552283525467
1634125155536687900,1.62868798828125,0.3085176646709442,0.149822399020195,0.005392346065491438
1634125155556567800,1.64856787109375,0.31403839588165283,0.12279553711414337,0.008457297459244728
1634125155576448000,1.668447998046875,0.2696773111820221,0.11582046002149582,0.0070036957040429115
1634125155596328000,1.688327880859375,0.15937772393226624,0.12314925342798233,0.03698151186108589
1634125155616208000,1.708207763671875,0.04354165494441986,0.09028824418783188,0.08362123370170593
1634125155636087800,1.728087890625,-0.009648589417338371,-0.04113193601369858,0.07573608309030533
1634125155655968000,1.747968017578125,-0.024172121658921242,-0.13309645652770996,0.043292149901390076
1634125155675848000,1.767847900390625,-0.03830021619796753,-0.16393360495567322,0.02702745608985424
1634125155695726800,1.787726806640625,-0.0032727231737226248,-0.096747025847435,0.03964775800704956
1634125155715607800,1.80760791015625,0.07737578451633453,0.01764156110584736,0.05365125089883804
1634125155735487000,1.827487060546875,0.1560777872800827,0.14807574450969696,0.027258699759840965
1634125155755367200,1.8473671875,0.16819916665554047,0.25386902689933777,-0.018825748935341835
1634125155775246800,1.867246826171875,0.11595700681209564,0.28654447197914124,-0.02987157367169857
1634125155795127000,1.887126953125,0.06790052354335785,0.2605540156364441,-0.025106672197580338
1634125155815007000,1.907007080078125,0.04991753026843071,0.24236805737018585,-0.03170371055603027
1634125155834887000,1.926886962890625,0.031952641904354095,0.20084995031356812,-0.024027472361922264
1634125155854766800,1.946766845703125,0.038981255143880844,0.11971721798181534,-0.0040320479311048985
1634125155874646800,1.966646728515625,0.09210119396448135,0.04805225878953934,0.010472743771970272
1634125155894527000,1.98652685546875,0.163693368434906,0.03956323862075806,0.02851085178554058
1634125155914407000,2.006406982421875,0.20034484565258026,0.1371956765651703,0.014428876340389252
1634125155934286800,2.026286865234375,0.18062840402126312,0.22127388417720795,-0.032771408557891846
1634125155954166800,2.046166748046875,0.15439628064632416,0.22652468085289001,-0.07228904962539673
1634125155974047000,2.066046875,0.13460604846477509,0.233677476644516,-0.10888272523880005
1634125155993927000,2.085927001953125,0.10285212099552155,0.319286048412323,-0.15249206125736237
1634125156013806800,2.105806884765625,0.06176646798849106,0.43693485856056213,-0.17866982519626617
1634125156033686800,2.125686767578125,0.07573634386062622,0.45804598927497864,-0.19115595519542694
1634125156053567000,2.14556689453125,0.1381312757730484,0.32198870182037354,-0.14917665719985962
1634125156073447000,2.165447021484375,0.1881403923034668,0.12767991423606873,-0.0560738742351532
1634125156093327000,2.1853271484375,0.1955900490283966,-0.004836030770093203,0.014540995471179485
1634125156113206800,2.205206787109375,0.14372499287128448,-0.042184650897979736,0.035174302756786346
1634125156133087000,2.2250869140625,0.06835512071847916,0.029266562312841415,0.02094469591975212
1634125156152967000,2.244966796875,-0.004489231389015913,0.09112067520618439,0.01350948866456747
1634125156172847000,2.26484716796875,-0.0535832978785038,0.07745806127786636,0.0377764068543911
1634125156192726000,2.28472607421875,-0.09195172786712646,0.04498912766575813,0.10171636193990707
1634125156212606000,2.30460595703125,-0.12502551078796387,0.02312328666448593,0.18327561020851135
1634125156232486100,2.324486083984375,-0.1632317453622818,0.023540932685136795,0.2491828352212906
1634125156252366000,2.344365966796875,-0.17616833746433258,0.01815047115087509,0.2747499346733093
1634125156272246000,2.36424609375,-0.169453963637352,-0.021266598254442215,0.2569294571876526
1634125156292126200,2.384126220703125,-0.15423107147216797,-0.05927005782723427,0.22335760295391083
1634125156312006100,2.404006103515625,-0.15547290444374084,-0.1126236766576767,0.18561393022537231
1634125156331886000,2.423885986328125,-0.20234747231006622,-0.14957955479621887,0.1660354733467102
1634125156351766000,2.44376611328125,-0.2789474427700043,-0.1960136890411377,0.18042942881584167
1634125156371646200,2.463646240234375,-0.3187563717365265,-0.21161773800849915,0.1815532147884369
1634125156391526100,2.483526123046875,-0.33991384506225586,-0.18500937521457672,0.15468160808086395
1634125156411406000,2.503406005859375,-0.37710222601890564,-0.15671533346176147,0.10185793042182922
1634125156431286000,2.5232861328125,-0.42826956510543823,-0.04043922573328018,-0.000389984343200922
1634125156451166200,2.543166259765625,-0.462845116853714,0.2047578990459442,-0.16947250068187714
1634125156471046100,2.563046142578125,-0.4469822645187378,0.4252171814441681,-0.3226076066493988
1634125156490926000,2.582926025390625,-0.3346503973007202,0.41904959082603455,-0.3567372262477875
1634125156510806000,2.602805908203125,-0.17202311754226685,0.20196036994457245,-0.24815934896469116
1634125156530686200,2.622686279296875,-0.04194048047065735,-0.07166538387537003,-0.03182792663574219
1634125156550566100,2.642566162109375,0.014427176676690578,-0.25000613927841187,0.15541738271713257
1634125156570446300,2.6624462890625,-0.005434662103652954,-0.28286638855934143,0.23646585643291473
1634125156590326000,2.682325927734375,-0.02602863684296608,-0.24088367819786072,0.19605405628681183
1634125156610206200,2.702206298828125,-0.008004077710211277,-0.24511264264583588,0.06993839889764786
1634125156630085000,2.722085205078125,-0.002309986390173435,-0.20216573774814606,-0.09108231961727142
1634125156649965000,2.741965087890625,-0.04557276517152786,-0.07155672460794449,-0.22110597789287567
1634125156669845000,2.761844970703125,-0.09813771396875381,0.05827357992529869,-0.2621307969093323
1634125156689725200,2.78172509765625,-0.089198537170887,0.09117333590984344,-0.23870892822742462
1634125156709605000,2.801605224609375,-0.03392701968550682,0.08612091839313507,-0.17513751983642578
1634125156729485000,2.821485107421875,0.028712114319205284,0.0605640672147274,-0.07583480328321457
1634125156749365000,2.841364990234375,0.06976420432329178,-0.00037061702460050583,0.04371821880340576
1634125156769245200,2.8612451171875,0.05531442165374756,-0.10408011823892593,0.11317503452301025
1634125156789125000,2.881125,0.02891559898853302,-0.1670890748500824,0.0994398444890976
1634125156809005300,2.90100537109375,0.009468642994761467,-0.20680446922779083,0.07151881605386734
1634125156828885000,2.920885009765625,0.007852097973227501,-0.18301212787628174,0.04019735008478165
1634125156848765200,2.94076513671875,0.009974905289709568,-0.052365221083164215,0.01782108284533024
1634125156868645000,2.96064501953125,0.024978894740343094,0.08436289429664612,-0.00025655998615548015
1634125156888525300,2.980525390625,0.03269166871905327,0.120302215218544,-0.04030920937657356
1634125156908405000,3.000405029296875,0.040014296770095825,0.09444225579500198,-0.09976417571306229
1634125156928285200,3.02028515625,0.03739134967327118,0.07329335808753967,-0.15464167296886444
1634125156948165000,3.0401650390625,0.023806296288967133,0.09360277652740479,-0.15865558385849
1634125156968045300,3.06004541015625,0.013849010691046715,0.14674347639083862,-0.11081796139478683
1634125156987925000,3.079925048828125,0.013744075782597065,0.15860463678836823,-0.019599679857492447
1634125157007805200,3.09980517578125,0.047832272946834564,0.13766853511333466,0.01151508279144764
1634125157027685000,3.11968505859375,0.0955372080206871,0.09303104877471924,-0.008280063979327679
1634125157047565300,3.1395654296875,0.11729097366333008,0.07096358388662338,-0.04923562332987785
1634125157067444000,3.15944384765625,0.10000785440206528,0.043758101761341095,-0.08578512072563171
1634125157087324200,3.17932421875,0.10073544085025787,0.029032660648226738,-0.08841747045516968
1634125157107204000,3.1992041015625,0.12445327639579773,0.04348946362733841,-0.0746123269200325
1634125157127084300,3.219084228515625,0.15089954435825348,0.051943130791187286,-0.059032831341028214
1634125157146964000,3.2389638671875,0.17483150959014893,0.03914658725261688,-0.06123751774430275
1634125157166844200,3.25884423828125,0.15446870028972626,0.047457460314035416,-0.06734059751033783
1634125157186724000,3.27872412109375,0.11564888060092926,0.05962764099240303,-0.04918786883354187
1634125157206604300,3.298604248046875,0.09509698301553726,0.08562492579221725,-0.024928124621510506
1634125157226483700,3.318483642578125,0.07925066351890564,0.07625746726989746,-0.028143970295786858
1634125157246364000,3.338364013671875,0.08746063709259033,0.03931744769215584,-0.052849654108285904
1634125157266243800,3.358243896484375,0.09154672920703888,-0.010784981772303581,-0.0676184594631195
1634125157286124000,3.3781240234375,0.07675392925739288,-0.019785284996032715,-0.07547933608293533
1634125157306003700,3.398003662109375,0.03913891687989235,-0.024897851049900055,-0.06265153735876083
1634125157325884000,3.4178837890625,-0.010288282297551632,0.020813211798667908,-0.026016252115368843
1634125157345763800,3.437763916015625,-0.04540072754025459,0.05797545239329338,0.018472658470273018
1634125157365644000,3.45764404296875,-0.02886437065899372,0.0693826749920845,0.01788150705397129
1634125157385523700,3.477523681640625,0.010061461478471756,0.023898275569081306,-0.011080853641033173
1634125157405404000,3.49740380859375,0.0353444442152977,-0.022085990756750107,-0.049841344356536865
1634125157425283800,3.517283935546875,0.035679735243320465,-0.04942579194903374,-0.06136417016386986
1634125157445164000,3.5371640625,-0.010600145906209946,-0.04244539886713028,-0.03263438493013382
1634125157465043000,3.55704296875,-0.04857708886265755,-0.027090907096862793,-0.007520249113440514
1634125157484923000,3.5769228515625,-0.06443274021148682,-0.00827653706073761,0.0017525344155728817
1634125157504802800,3.596802734375,-0.04606679081916809,-0.004146689083427191,-0.0022465279325842857
1634125157524683000,3.61668310546875,-0.03005773387849331,0.006469489075243473,-0.01196906715631485
1634125157544563000,3.63656298828125,-0.04755523428320885,0.02220325544476509,-0.013119567185640335
1634125157564443000,3.65644287109375,-0.0724930688738823,0.0025739502161741257,0.004127717576920986
1634125157584322800,3.67632275390625,-0.08593565225601196,-0.04017924144864082,0.018129713833332062
1634125157604203000,3.696203125,-0.08157951384782791,-0.0789264664053917,0.021953098475933075
1634125157624082700,3.716082763671875,-0.08281015604734421,-0.07055141031742096,0.018094854429364204
1634125157643963000,3.735962890625,-0.0871359184384346,-0.04659361392259598,0.016863828524947166
1634125157663842800,3.7558427734375,-0.09320767968893051,-0.04280779883265495,0.030058681964874268
1634125157683723000,3.775722900390625,-0.09222203493118286,-0.05373339727520943,0.04306243732571602
1634125157703602700,3.795602783203125,-0.08208897709846497,-0.059747882187366486,0.035914838314056396
1634125157723483000,3.81548291015625,-0.07042032480239868,-0.06418724358081818,0.0178364347666502
1634125157743362800,3.83536279296875,-0.06273045390844345,-0.08172325789928436,0.008289121091365814
1634125157763243000,3.855242919921875,-0.05468584597110748,-0.09935484826564789,0.01310231164097786
1634125157783122700,3.875122802734375,-0.04665615037083626,-0.11640165001153946,0.014704583212733269
1634125157803003000,3.8950029296875,-0.043884050101041794,-0.11708249896764755,0.007496191188693047
1634125157822882800,3.9148828125,-0.04398259148001671,-0.10107389092445374,-0.009855646640062332
1634125157842762000,3.934761962890625,-0.04334477707743645,-0.08322940766811371,-0.004716315306723118
1634125157862642000,3.954641845703125,-0.058965809643268585,-0.06422920525074005,0.019637512043118477
1634125157882521900,3.97452197265625,-0.07016360759735107,-0.06247780844569206,0.02758418582379818
1634125157902402000,3.994402099609375,-0.06777714192867279,-0.07506819069385529,0.01078755035996437
1634125157922282000,4.014281982421875,-0.06013360247015953,-0.08879107236862183,-0.006333757657557726
1634125157942162000,4.034161865234375,-0.05026739463210106,-0.12656404078006744,-0.02624012529850006
1634125157962041900,4.054041748046875,-0.060488078743219376,-0.15143688023090363,-0.05893615633249283
1634125157981921800,4.073921875,-0.07631178200244904,-0.14146316051483154,-0.08250889927148819
1634125158001802000,4.093802001953125,-0.08461365848779678,-0.09930531680583954,-0.07861881703138351
1634125158021681700,4.113681640625,-0.07816372066736221,-0.07478862255811691,-0.04555750638246536
1634125158041561900,4.133561767578125,-0.0477278046309948,-0.04930151626467705,-0.008948532864451408
1634125158061441800,4.15344189453125,-0.023222459480166435,-0.04969792813062668,0.03829791396856308
1634125158081322000,4.173322021484375,-0.021001653745770454,-0.08549252897500992,0.07274379581212997
1634125158101202000,4.193201904296875,-0.04292000085115433,-0.08296699076890945,0.09172053635120392
1634125158121081900,4.213081787109375,-0.08257073909044266,-0.050337277352809906,0.08154230564832687
1634125158140961800,4.2329619140625,-0.09404124319553375,-0.013527505099773407,0.05209515988826752
1634125158160842000,4.252842041015625,-0.07551736384630203,0.004227221943438053,0.012754898518323898
1634125158180722000,4.272721923828125,-0.051984336227178574,-0.002985188737511635,-0.00797780230641365
1634125158200601900,4.292601806640625,-0.03181328624486923,-0.002810770645737648,-0.030996698886156082
1634125158220482000,4.31248193359375,-0.02013985440135002,-0.035496775060892105,-0.059557512402534485
1634125158240361000,4.33236083984375,-0.023045629262924194,-0.04104352742433548,-0.04830194264650345
1634125158260241200,4.3522412109375,-0.01905008777976036,-0.008526161313056946,0.0003744030836969614
1634125158280121000,4.37212109375,-0.020045578479766846,0.01761418953537941,0.021345630288124084
1634125158300001000,4.3920009765625,-0.01743301935493946,0.009372392669320107,0.042098551988601685
1634125158319881000,4.411880859375,-0.004629071801900864,0.010691228322684765,0.04830130934715271
1634125158339761000,4.431760986328125,0.0005438514053821564,0.017123177647590637,0.03308403119444847
1634125158359641000,4.45164111328125,0.0030219268519431353,0.012447715736925602,0.007681551855057478
1634125158379521000,4.47152099609375,0.0036733336746692657,0.009438780136406422,-0.0027906426694244146
1634125158399401000,4.49140087890625,-0.002050067065283656,0.025200527161359787,-0.0006157374591566622
1634125158419281000,4.511281005859375,-0.002115843817591667,0.02860376238822937,0.010801316238939762
1634125158439161000,4.5311611328125,0.014680445194244385,0.036304786801338196,0.030544936656951904
1634125158459041000,4.551041015625,0.022011596709489822,0.04193153604865074,0.03115040250122547
1634125158478921000,4.5709208984375,0.01699127070605755,0.05348192900419235,0.004592293407768011
1634125158498801000,4.59080078125,0.009662791155278683,0.07025759667158127,-0.02377253770828247
1634125158518681000,4.61068115234375,0.029645562171936035,0.08602018654346466,-0.050018955022096634
1634125158538561000,4.63056103515625,0.06259977072477341,0.04791055992245674,-0.0512310154736042
1634125158558441000,4.65044091796875,0.08549389243125916,0.014937618747353554,-0.03500382974743843
1634125158578321000,4.67032080078125,0.06935250014066696,-0.0026262933388352394,-0.03764432296156883
1634125158598200000,4.690199951171875,0.016369951888918877,0.016897687688469887,-0.022704681381583214
1634125158618080000,4.710080078125,-0.021540936082601547,0.04872966930270195,0.01558898389339447
1634125158637960000,4.7299599609375,-0.034759264439344406,0.04930179566144943,0.04959886148571968
1634125158657840000,4.749840087890625,-0.03476859629154205,0.024809878319501877,0.06351397186517715
1634125158677720000,4.769719970703125,-0.00984593853354454,-0.007700828835368156,0.03778928145766258
1634125158697600000,4.78960009765625,0.018760405480861664,-0.02179127372801304,-0.0004763103206641972
1634125158717480000,4.80947998046875,0.03249729424715042,-0.020975571125745773,-0.002476925030350685
1634125158737360100,4.829360107421875,0.015727873891592026,-0.010937122628092766,0.002745356410741806
1634125158757240000,4.849239990234375,-0.02072441577911377,0.011803724803030491,0.01820291019976139
1634125158777120000,4.8691201171875,-0.04263743758201599,0.00797893013805151,0.0367203950881958
1634125158797000000,4.889,-0.058062996715307236,0.005735483951866627,0.04226909205317497
1634125158816879900,4.9088798828125,-0.05122639983892441,-0.026613174006342888,0.0266363974660635
1634125158836760000,4.928760009765625,-0.01656561717391014,-0.05253756418824196,0.007659421302378178
1634125158856640000,4.948639892578125,0.004004630260169506,-0.05117877945303917,-0.019937267526984215
1634125158876520000,4.96852001953125,-0.015554157085716724,-0.030966773629188538,-0.034440431743860245
1634125158896400000,4.98839990234375,-0.04305874928832054,-0.011051978915929794,-0.035234495997428894
1634125158916279000,5.008279052734375,-0.0703313872218132,0.04032650217413902,-0.01451624371111393
1634125158936159200,5.0281591796875,-0.060554388910532,0.07775957137346268,0.01128055527806282
1634125158956039000,5.048038818359375,-0.013182878494262695,0.09346763789653778,0.019022511318325996
1634125158975919000,5.067919189453125,0.05292929708957672,0.10960312187671661,0.017362577840685844
1634125158995799000,5.087799072265625,0.10661011189222336,0.12722636759281158,0.011727262288331985
1634125159015679200,5.10767919921875,0.13197298347949982,0.1251562088727951,0.001289552659727633
1634125159035559000,5.127558837890625,0.1287018209695816,0.09945392608642578,-0.025766754522919655
1634125159055439000,5.147439208984375,0.11003706604242325,0.08352603763341904,-0.04513536021113396
1634125159075319000,5.167319091796875,0.09925073385238647,0.07493097335100174,-0.04638558253645897
1634125159095199200,5.18719921875,0.1100490614771843,0.056207407265901566,-0.03220200538635254
1634125159115079000,5.207078857421875,0.12013576924800873,0.055845752358436584,-0.03163708373904228
1634125159134959000,5.226958984375,0.1266823559999466,0.05606420338153839,-0.028041565790772438
1634125159154839000,5.246839111328125,0.11232417821884155,0.05119570344686508,-0.035150159150362015
1634125159174719000,5.266718994140625,0.08901433646678925,0.033739037811756134,-0.04330805316567421
1634125159194599000,5.286598876953125,0.07468467950820923,0.023044470697641373,-0.05452490225434303
1634125159214478800,5.306478759765625,0.06651704013347626,0.028211036697030067,-0.06080172210931778
1634125159234360800,5.32636083984375,0.05629261955618858,0.0366332121193409,-0.05017542093992233
1634125159254241000,5.346240966796875,0.052299726754426956,0.041223134845495224,-0.0421680212020874
1634125159274121000,5.366120849609375,0.04313100129365921,-0.0015644300729036331,-0.020469143986701965
1634125159294001200,5.386001220703125,0.026181045919656754,-0.03396600857377052,-0.007470263168215752
1634125159313880800,5.405880859375,-0.000052162911742925644,-0.04028778150677681,-0.020660048350691795
1634125159333761000,5.425760986328125,-0.024469612166285515,0.0067308396100997925,-0.05245145410299301
1634125159353641000,5.445640869140625,-0.02959272265434265,0.022318225353956223,-0.053570959717035294
1634125159373521200,5.465521240234375,-0.01825619861483574,0.016363609582185745,-0.039343077689409256
1634125159393400800,5.48540087890625,-0.004506825003772974,0.00337015837430954,-0.02523740381002426
1634125159413281000,5.505281005859375,-0.009196645580232143,0.006335150450468063,-0.027203505858778954
1634125159433161000,5.525160888671875,-0.021285811439156532,0.006661084480583668,-0.041952021420001984
1634125159453041200,5.545041259765625,-0.027769800275564194,-0.020846974104642868,-0.041809070855379105
1634125159472921000,5.564921142578125,-0.018169909715652466,-0.03634481877088547,-0.034460850059986115
1634125159492801000,5.584801025390625,-0.02382643334567547,-0.034987565129995346,-0.016933618113398552
1634125159512680000,5.604679931640625,-0.023217907175421715,-0.00960423331707716,-0.019400887191295624
1634125159532560100,5.62456005859375,0.00039764423854649067,0.010310794226825237,-0.026306720450520515
1634125159552439800,5.644439697265625,0.028477223590016365,0.013447047211229801,-0.03922712802886963
1634125159572320000,5.664320068359375,0.03184026852250099,-0.021421950310468674,-0.0321631021797657
1634125159592200000,5.684199951171875,0.018726585432887077,-0.0459086075425148,-0.008717911317944527
1634125159612080000,5.704080078125,0.02164328470826149,-0.03854135796427727,-0.009125941433012486
1634125159631959800,5.723959716796875,0.03718656674027443,0.005127445794641972,-0.024784034118056297
1634125159651840000,5.743840087890625,0.07116157561540604,0.03290845826268196,-0.03553880751132965
1634125159671720000,5.763719970703125,0.10391980409622192,0.04202618449926376,-0.03226808086037636
1634125159691600100,5.78360009765625,0.11199958622455597,0.02742931619286537,-0.015259853564202785
1634125159711479800,5.803479736328125,0.09341413527727127,-0.012766161002218723,-0.0033589531667530537
1634125159731360000,5.823360107421875,0.05606038123369217,-0.04831778630614281,0.00695368368178606
1634125159751240000,5.843239990234375,0.032298337668180466,-0.06439462304115295,0.008385766297578812
1634125159771120000,5.8631201171875,0.036151397973299026,-0.03377470001578331,-0.005698352120816708
1634125159791000000,5.883,0.05971904098987579,0.010374919511377811,-0.006684787105768919
1634125159810880000,5.9028798828125,0.08239026367664337,0.03401949256658554,0.0017044460400938988
1634125159830759200,5.92275927734375,0.08064427971839905,0.01561210211366415,0.013209659606218338
1634125159850639000,5.94263916015625,0.061593104153871536,-0.019710831344127655,0.029607046395540237
1634125159870519000,5.96251904296875,0.04082444682717323,-0.043188437819480896,0.021109560504555702
1634125159890399000,5.98239892578125,0.02878880873322487,-0.03803090378642082,0.008129761554300785
1634125159910279000,6.00227880859375,0.02443215250968933,-0.00520889088511467,0.005936080124229193
1634125159930159000,6.0221591796875,0.006388438865542412,0.025597793981432915,0.023345688357949257
1634125159950038800,6.042038818359375,-0.006020301021635532,0.014437972567975521,0.04292873665690422
1634125159969919000,6.0619189453125,-0.012000957503914833,-0.020928464829921722,0.04620680585503578
1634125159989799000,6.081798828125,-0.013357286341488361,-0.019742868840694427,0.036034002900123596
1634125160009679000,6.10167919921875,-0.019747305661439896,-0.009870810434222221,0.01824355125427246
1634125160029559000,6.12155908203125,-0.027764195576310158,0.021259617060422897,-0.0015748711302876472
1634125160049439000,6.14143896484375,-0.015344557352364063,0.029437731951475143,-0.015566272661089897
1634125160069319000,6.16131884765625,0.0007193605415523052,0.024256229400634766,-0.0211718138307333
1634125160089199000,6.18119921875,0.00027887639589607716,0.01524840947240591,-0.013432814739644527
1634125160109078000,6.201078125,-0.021936146542429924,0.03742670267820358,-0.013048924505710602
1634125160128958000,6.2209580078125,-0.044157564640045166,0.06721014529466629,-0.01877058856189251
1634125160148838100,6.240838134765625,-0.036461830139160156,0.06458945572376251,-0.02083277702331543
1634125160168718000,6.260718017578125,-0.005161156877875328,0.024272091686725616,-0.01590598188340664
1634125160188598000,6.280597900390625,0.016134537756443024,-0.021207887679338455,-0.015291563235223293
1634125160208478000,6.30047802734375,0.011142192408442497,-0.03481508418917656,-0.009537860751152039
1634125160228354600,6.3203544921875,-0.006441084202378988,-0.03167850524187088,-0.005792170763015747
1634125160248234500,6.340234375,-0.01518290489912033,-0.009175194427371025,-0.013835879042744637
1634125160268114400,6.360114501953125,-0.0018846732564270496,0.01392911747097969,-0.03131994232535362
1634125160287994400,6.379994384765625,0.01795719936490059,0.005229483358561993,-0.03560653328895569
1634125160307874600,6.39987451171875,0.028259139508008957,0.015016498044133186,-0.028240473940968513
1634125160327754500,6.41975439453125,0.003447502851486206,0.017216693609952927,-0.013304837048053741
1634125160347634400,6.439634521484375,-0.03035866655409336,0.014020540751516819,-0.016785167157649994
1634125160367514400,6.459514404296875,-0.05040343850851059,-0.0023802611976861954,-0.02761758118867874
1634125160387394300,6.479394287109375,-0.04501776397228241,-0.006329358089715242,-0.033523693680763245
1634125160407273200,6.499273193359375,-0.026233967393636703,0.006188222207129002,-0.041716568171978
1634125160427153400,6.5191533203125,-0.02019975520670414,0.021618327125906944,-0.04377278685569763
1634125160447033300,6.539033447265625,-0.021845310926437378,0.029309114441275597,-0.04011150076985359
1634125160466913500,6.55891357421875,-0.02697109244763851,0.019119365140795708,-0.034268271178007126
1634125160486793200,6.578793212890625,-0.033008236438035965,-0.01564047485589981,-0.02293059229850769
1634125160506673400,6.59867333984375,-0.0290297269821167,-0.04126764088869095,-0.022995218634605408
1634125160526553300,6.61855322265625,-0.020302025601267815,-0.05169271305203438,-0.03222636878490448
1634125160546433500,6.63843359375,-0.01880561001598835,-0.03928905725479126,-0.03980552405118942
1634125160566313500,6.6583134765625,-0.025921840220689774,-0.03226282075047493,-0.030407363548874855
1634125160586193400,6.678193359375,-0.024149227887392044,-0.03081672638654709,-0.014270002022385597
1634125160606073300,6.6980732421875,-0.004996821284294128,-0.04281086474657059,-0.022045820951461792
1634125160625953500,6.71795361328125,0.008604992181062698,-0.057906895875930786,-0.029250025749206543
1634125160645832200,6.737832275390625,0.0189743060618639,-0.059375885874032974,-0.01989535242319107
1634125160665712400,6.75771240234375,0.01689731888473034,-0.06477348506450653,-0.008339258842170238
1634125160685592300,6.77759228515625,0.003927415702491999,-0.056273046880960464,-0.008557531051337719
1634125160705472500,6.797472412109375,-0.008038713596761227,-0.03366784751415253,-0.03561851754784584
1634125160725352200,6.817352294921875,-0.018943490460515022,-0.05049727484583855,-0.06207574903964996
1634125160745232400,6.837232421875,-0.019128616899251938,-0.0827643871307373,-0.07888980209827423
1634125160765112300,6.8571123046875,-0.022014444693922997,-0.07359571009874344,-0.07524771243333817
1634125160784992500,6.876992431640625,-0.01581510528922081,-0.02080908790230751,-0.05016988888382912
1634125160804872400,6.89687255859375,0.011824742890894413,0.00888821016997099,-0.02530411258339882
1634125160824752400,6.91675244140625,0.03366851806640625,0.020240619778633118,-0.016385426744818687
1634125160844632300,6.93663232421875,0.03449253365397453,-0.005523929838091135,-0.02098735421895981
1634125160864512500,6.956512451171875,0.017104720696806908,-0.03775983303785324,-0.0386824794113636
1634125160884392400,6.976392333984375,0.003166814334690571,-0.040050704032182693,-0.05437268316745758
1634125160904272400,6.9962724609375,0.011943796649575233,-0.012834758497774601,-0.0575258731842041
1634125160924151300,7.0161513671875,0.03960978239774704,0.018850218504667282,-0.049637194722890854
1634125160944031500,7.036031494140625,0.06937061250209808,0.01563030108809471,-0.03387264534831047
1634125160963911200,7.0559111328125,0.07278721779584885,0.005541724152863026,-0.01791546493768692
1634125160983791400,7.075791259765625,0.04679475724697113,-0.0185202956199646,-0.01423721108585596
1634125161003671300,7.09567138671875,0.01614203117787838,-0.03476696088910103,-0.015841349959373474
1634125161023551500,7.115551513671875,-0.009395026601850986,-0.02793201431632042,-0.009707407094538212
1634125161043431200,7.13543115234375,-0.017890797927975655,0.002044854685664177,-0.017218664288520813
1634125161063311400,7.155311279296875,-0.010313263162970543,0.018727265298366547,-0.02643383853137493
1634125161083191300,7.17519140625,0.022793259471654892,0.009643230587244034,-0.030647948384284973
1634125161103071500,7.195071533203125,0.04902404919266701,-0.0016825990751385689,-0.031883735209703445
1634125161122951400,7.214951416015625,0.0441606342792511,-0.008921371772885323,-0.027871958911418915
1634125161142831400,7.234831298828125,0.03245788812637329,0.003635837696492672,-0.028410278260707855
1634125161162710500,7.25471044921875,0.015230142511427402,0.02405807003378868,-0.03968976438045502
1634125161182590500,7.274590576171875,0.00926678441464901,0.02033141255378723,-0.04394986853003502
1634125161202470400,7.294470458984375,0.017830219119787216,-0.0005929404869675636,-0.05004914477467537
1634125161222350300,7.314350341796875,0.03226344659924507,-0.026937318965792656,-0.05574673414230347
1634125161242230300,7.334230224609375,0.04507274925708771,-0.03496669977903366,-0.05627133324742317
1634125161262110200,7.354110107421875,0.041152097284793854,-0.03410377725958824,-0.06080760061740875
1634125161281990400,7.373990478515625,0.03402861952781677,-0.029131978750228882,-0.08362705260515213
1634125161301870300,7.393870361328125,0.03822572901844978,-0.05757567286491394,-0.09515019506216049
1634125161321750300,7.413750244140625,0.032021090388298035,-0.0827500969171524,-0.09141495823860168
1634125161341630200,7.433630126953125,0.0160346869379282,-0.09125916659832001,-0.07810826599597931
1634125161361510400,7.453510498046875,0.008831635117530823,-0.055622346699237823,-0.05694359913468361
1634125161381389300,7.473389404296875,0.008037760853767395,-0.00235153641551733,-0.04900381714105606
1634125161401269200,7.493269287109375,0.007573285140097141,0.021569840610027313,-0.056138236075639725
1634125161421149200,7.513149169921875,-0.0007640102412551641,0.01522082556039095,-0.0542958527803421
1634125161441029400,7.533029296875,-0.012255774810910225,-0.010755011811852455,-0.03945495933294296
1634125161460909300,7.552909423828125,-0.023553188890218735,-0.03513504937291145,-0.02252374216914177
1634125161480789200,7.572789306640625,-0.02003646455705166,-0.05432191118597984,-0.018048610538244247
1634125161500669200,7.592669189453125,0.0018083809409290552,-0.05551766976714134,-0.03088424727320671
1634125161520549400,7.61254931640625,0.009251359850168228,-0.04218127578496933,-0.029070846736431122
1634125161540429300,7.63242919921875,0.010248439386487007,-0.02738828957080841,-0.029999470338225365
1634125161560309200,7.652309326171875,-0.0046500833705067635,-0.008614069782197475,-0.022652341052889824
1634125161580189200,7.672189208984375,-0.014314142987132072,-0.004584008827805519,-0.018460974097251892
1634125161600069400,7.6920693359375,-0.011762289330363274,-0.05381830781698227,-0.02521837316453457
1634125161619948300,7.7119482421875,-0.008808577433228493,-0.09273401647806168,-0.023157352581620216
1634125161639828200,7.731828125,-0.01622496172785759,-0.08365514129400253,-0.016326578333973885
1634125161659708200,7.751708251953125,-0.03577788174152374,-0.07562059909105301,-0.008177188225090504
1634125161679588400,7.77158837890625,-0.06173411011695862,-0.06821271032094955,0.012202107347548008
1634125161699468300,7.79146826171875,-0.06991882622241974,-0.061640992760658264,0.031433507800102234
1634125161719348200,7.81134814453125,-0.05571717768907547,-0.04829755425453186,0.04458510875701904
1634125161739228200,7.831228271484375,-0.041146598756313324,-0.028854697942733765,0.020569248124957085
1634125161759108400,7.8511083984375,-0.03991134092211723,-0.018690787255764008,0.008383075706660748
1634125161778988300,7.87098828125,-0.04882337525486946,-0.0112935034558177,0.016146516427397728
1634125161798868200,7.8908681640625,-0.061846230179071426,-0.034242741763591766,0.03610117733478546
1634125161818747400,7.910747314453125,-0.05357581004500389,-0.0439310297369957,0.043979544192552567
1634125161838627300,7.93062744140625,-0.04446670413017273,-0.03493170067667961,0.022987239062786102
1634125161858507300,7.95050732421875,-0.03378768637776375,-0.021122341975569725,0.008824790827929974
1634125161878387200,7.97038720703125,-0.02583843283355236,-0.009732376784086227,0.022125717252492905
1634125161898267400,7.990267333984375,-0.02196059748530388,-0.014311911538243294,0.027801701799035072
1634125161918147300,8.010147216796875,-0.02640858292579651,-0.021858349442481995,0.018087102100253105
1634125161938027300,8.03002734375,-0.03356766328215599,-0.039025209844112396,0.015959719195961952
1634125161957907200,8.0499072265625,-0.04332185164093971,-0.01986067369580269,0.015327018685638905
1634125161977787100,8.069787109375,-0.041853874921798706,0.012382051907479763,0.011705278418958187
1634125161997667300,8.089667236328125,-0.02088949643075466,0.02682683803141117,0.014240003190934658
1634125162017547300,8.10954736328125,-0.002337630605325103,0.017043061554431915,0.025079024955630302
1634125162037426200,8.12942626953125,0.0024033456575125456,-0.002533193677663803,0.02847318723797798
1634125162057306400,8.149306396484375,-0.0040444741025567055,-0.0017920611426234245,0.02508387342095375
1634125162077186300,8.169186279296875,-0.011552711948752403,-0.006059932988137007,0.02222946472465992
1634125162097066200,8.189066162109375,-0.019515281543135643,-0.02561621367931366,0.04354830086231232
1634125162116946200,8.2089462890625,-0.025058874860405922,-0.021882761269807816,0.056066010147333145
1634125162136826400,8.228826416015625,-0.026093261316418648,-0.0028159311041235924,0.04936578869819641
1634125162156706300,8.248706298828125,-0.006709994748234749,0.012154122814536095,0.05346949025988579
1634125162176586200,8.268586181640625,0.01406879909336567,-0.013369008898735046,0.05967330187559128
1634125162196466200,8.288466064453125,0.0038550379686057568,-0.04339645057916641,0.06384888291358948
1634125162216346400,8.308346435546875,-0.03928074985742569,-0.0498918741941452,0.05799945816397667
1634125162236227000,8.32822705078125,-0.07321525365114212,-0.04334031417965889,0.03096085973083973
1634125162256106200,8.348106201171875,-0.06593303382396698,-0.022608846426010132,0.006021026987582445
1634125162275986200,8.367986083984375,-0.0329754464328289,-0.0007618404924869537,-0.005845845676958561
1634125162295866400,8.387866455078125,-0.003616976784542203,-0.00404895655810833,-0.0007044413941912353
1634125162315746000,8.40774609375,-0.011254980228841305,-0.009684585966169834,0.006735353730618954
1634125162335626200,8.427626220703125,-0.042085569351911545,-0.0005342783406376839,-0.0017838991479948163
1634125162355506200,8.447506103515625,-0.06009597331285477,-0.009676518850028515,-0.016748376190662384
1634125162375386000,8.46738623046875,-0.059207573533058167,-0.02384098619222641,-0.025104517117142677
1634125162395266000,8.48726611328125,-0.04399799555540085,-0.019772227853536606,-0.02893027476966381
1634125162415146200,8.507146240234375,-0.021506542339920998,-0.000870230607688427,-0.0223060455173254
1634125162435026200,8.527026123046875,-0.0067275771871209145,0.008903431706130505,-0.010522263124585152
1634125162454905000,8.546905029296875,0.0031567602418363094,-0.011561805382370949,-0.010341864079236984
1634125162474785000,8.566784912109375,-0.0008259799797087908,-0.024808812886476517,-0.02023860067129135
1634125162494665200,8.586665283203125,-0.004025479778647423,-0.028880946338176727,-0.021318817511200905
1634125162514545200,8.606545166015625,0.012669550254940987,-0.016122328117489815,-0.023382123559713364
1634125162534425300,8.62642529296875,0.02900484763085842,-0.008723268285393715,-0.022467859089374542
1634125162554305000,8.646304931640625,0.03272819519042969,-0.01796804554760456,-0.005395621992647648
1634125162574185200,8.666185302734375,0.01172866765409708,-0.02566143311560154,0.0033916765823960304
1634125162594065200,8.686065185546875,-0.0072258394211530685,-0.029467836022377014,0.0014844355173408985
1634125162613945300,8.7059453125,-0.01174014713615179,-0.03961998224258423,-0.009931102395057678
1634125162633825000,8.725824951171875,-0.001158898463472724,-0.04071413353085518,-0.023840617388486862
1634125162653704200,8.7457041015625,-0.002014853060245514,-0.015510600060224533,-0.030050411820411682
1634125162673584000,8.765584228515625,-0.008530777879059315,0.002746080979704857,-0.022773118689656258
1634125162693464000,8.785464111328125,-0.02450684644281864,0.0024779876694083214,0.0032508184667676687
1634125162713344000,8.805343994140625,-0.03516535088419914,-0.019439563155174255,0.023134779185056686
1634125162733224200,8.82522412109375,-0.036174383014440536,-0.03751635178923607,0.010037013329565525
1634125162753104100,8.845104248046875,-0.03725754842162132,-0.04217882454395294,-0.016095010563731194
1634125162772984000,8.864984130859375,-0.0357685312628746,-0.037708722054958344,-0.02445981279015541
1634125162792864000,8.884864013671875,-0.033248625695705414,0.0017674406990408897,-0.01672057807445526
1634125162812744200,8.904744140625,-0.033267803490161896,0.04698871448636055,-0.005671655759215355
1634125162832623400,8.924623291015624,-0.018068844452500343,0.03909338265657425,0.0049660224467515945
1634125162852503000,8.9445029296875,0.01451387070119381,-0.006062361411750317,0.016966085880994797
1634125162872383200,8.96438330078125,0.046053096652030945,-0.05918631702661514,0.0046911477111279964
1634125162892263200,8.98426318359375,0.0455116368830204,-0.06464575231075287,-0.016198884695768356
1634125162912143000,9.00414306640625,0.032969262450933456,-0.02528262510895729,-0.03492405638098717
1634125162932023000,9.02402294921875,0.030208904296159744,0.027844563126564026,-0.04296109825372696
1634125162951903200,9.0439033203125,0.04344024136662483,0.03104862943291664,-0.03762110695242882
1634125162971783200,9.063783203125,0.05949946120381355,0.012128644622862339,-0.026184719055891037
1634125162991663000,9.0836630859375,0.058138784021139145,0.005391326732933521,-0.017885662615299225
1634125163011543000,9.10354296875,0.036825522780418396,0.026332402601838112,-0.00413419958204031
1634125163031422200,9.123422119140624,0.01601903885602951,0.03361824154853821,-0.004505698103457689
1634125163051302100,9.14330224609375,0.008934246376156807,0.023971546441316605,-0.014134915545582771
1634125163071182300,9.163182373046874,0.018733369186520576,0.03298325836658478,-0.018390154466032982
1634125163091062000,9.18306201171875,0.026896480470895767,0.056061357259750366,-0.014205907471477985
1634125163110942200,9.202942138671874,0.028142817318439484,0.06877198815345764,0.004499908071011305
1634125163130822100,9.222822265625,0.0327991247177124,0.04534699767827988,0.01833363249897957
1634125163150702300,9.242702392578124,0.033753879368305206,0.017464270815253258,0.017088325694203377
1634125163170582000,9.26258203125,0.03981921076774597,0.006372134201228619,-0.0036659282632172108
1634125163190462200,9.282462158203124,0.05128035321831703,0.019401738420128822,-0.01582638919353485
1634125163210342100,9.302342041015624,0.06346835196018219,0.047480423003435135,-0.0003478958969935775
1634125163230221300,9.32222119140625,0.07388103008270264,0.045660100877285004,0.03060458041727543
1634125163250101200,9.342101318359376,0.0787983238697052,0.019536778330802917,0.04564645513892174
1634125163269981400,9.3619814453125,0.0734725147485733,-0.0013334564864635468,0.038628797978162766
1634125163289861000,9.381861083984376,0.08168964087963104,0.0024919072166085243,0.022699328139424324
1634125163309741300,9.4017412109375,0.08826958388090134,0.026679057627916336,0.003674921812489629
1634125163329621200,9.421621337890626,0.10201307386159897,0.03700992092490196,-0.027207065373659134
1634125163349501400,9.44150146484375,0.10475926101207733,0.012529822997748852,-0.0332840234041214
1634125163369381400,9.46138134765625,0.08696164935827255,-0.003002370707690716,-0.007911209017038345
1634125163389261300,9.48126123046875,0.06153135001659393,-0.004522489849478006,-0.0057382541708648205
1634125163409140200,9.50114013671875,0.027811549603939056,0.023974299430847168,-0.02854837477207184
1634125163429020400,9.5210205078125,0.012210486456751823,0.03362452983856201,-0.033824365586042404
1634125163448900000,9.540900146484375,0.006017293315380812,0.05184955149888992,-0.03768419846892357
1634125163468780300,9.5607802734375,-0.020927051082253456,0.08617747575044632,-0.022711878642439842
1634125163488660200,9.58066015625,-0.03728543221950531,0.08702781796455383,0.0000826106988824904
1634125163508540400,9.60054052734375,-0.006946241948753595,0.04082128778100014,0.014130792580544949
1634125163528420000,9.620420166015625,0.03926680609583855,-0.010943811386823654,0.01757037080824375
1634125163548300300,9.64030029296875,0.04519542306661606,-0.016458284109830856,0.012124218046665192
1634125163568180200,9.66018017578125,0.0140874357894063,0.01859261840581894,0.0023682115133851767
1634125163588060400,9.680060302734375,0.005394095089286566,0.03038198873400688,0.008948452770709991
1634125163607939300,9.699939208984375,0.03862949460744858,0.02107684314250946,0.021608691662549973
1634125163627819300,9.7198193359375,0.07352738082408905,0.0076848240569233894,0.023966090753674507
1634125163647699500,9.739699462890625,0.08408965915441513,0.0003116801381111145,0.016301533207297325
1634125163667579400,9.759579345703125,0.07084581255912781,0.003988481126725674,0.006209517829120159
1634125163687459300,9.779459228515625,0.046418197453022,0.006426158361136913,0.013930615969002247
1634125163707339300,9.79933935546875,0.024955283850431442,-0.0015812534838914871,0.02422580122947693
1634125163727219500,9.819219482421875,0.015168159268796444,0.002980705350637436,0.034576721489429474
1634125163747099400,9.839099365234375,0.023932093754410744,0.029074907302856445,0.03560616075992584
1634125163766979300,9.858979248046875,0.0469265952706337,0.0365171954035759,0.00960551481693983
1634125163786858200,9.878858154296875,0.05953504517674446,0.02905062958598137,-0.026931816712021828
1634125163806738400,9.898738525390625,0.05403537303209305,0.006447216495871544,-0.026463551446795464
1634125163826618000,9.9186181640625,0.02979474700987339,-0.010646834038197994,0.010963854379951954
1634125163846498300,9.938498291015625,-0.00204436550848186,-0.011704141274094582,0.05288179591298103
1634125163866378200,9.958378173828125,-0.033424898982048035,0.0022181877866387367,0.068629689514637
1634125163886258400,9.978258544921875,-0.05741603299975395,0.0020421892404556274,0.055875491350889206
1634125163906138400,9.998138427734375,-0.05934233218431473,-0.016504015773534775,0.03838871419429779
1634125163926018300,10.018018310546875,-0.048114676028490067,-0.04116547107696533,0.030136840417981148
1634125163945898200,10.037898193359375,-0.041239701211452484,-0.023949338123202324,0.03522702679038048
1634125163965778400,10.0577783203125,-0.04683869332075119,0.012143843807280064,0.03584841638803482
1634125163985657000,10.077656982421875,-0.044158514589071274,0.013802354224026203,0.034944046288728714
1634125164005537300,10.097537353515625,-0.03934865817427635,-0.02576439455151558,0.024179697036743164
1634125164025417200,10.117417236328125,-0.03215726464986801,-0.04223916679620743,0.015183559618890285
1634125164045297400,10.13729736328125,-0.03654717653989792,-0.007920963689684868,0.014689209870994091
1634125164065177000,10.157177001953125,-0.034831348806619644,0.025598451495170593,0.022304192185401917
1634125164085057300,10.177057373046875,-0.028960183262825012,0.030081387609243393,0.031669676303863525
1634125164104937200,10.196937255859375,-0.021922647953033447,0.025793496519327164,0.028338903561234474
1634125164124817400,10.2168173828125,-0.01694985292851925,0.030078507959842682,0.012130978517234325
1634125164144697300,10.236697265625,-0.006050047464668751,0.02613873779773712,-0.007015854585915804
1634125164164576300,10.256576171875,0.010372605174779892,0.0003444422036409378,-0.009597928263247013
1634125164184456400,10.27645654296875,0.009535352699458599,-0.037608321756124496,-0.004237063229084015
1634125164204336400,10.29633642578125,-0.01128852553665638,-0.048487816005945206,-0.011864855885505676
1634125164224216300,10.31621630859375,-0.0395701639354229,-0.020783638581633568,-0.02876979671418667
1634125164244096800,10.3360966796875,-0.0584452860057354,0.018393732607364655,-0.0381644181907177
1634125164263976700,10.355976806640625,-0.03426862508058548,0.0110397320240736,-0.031279802322387695
1634125164283857000,10.37585693359375,-0.000658190343528986,0.0023951660841703415,-0.012584296055138111
1634125164303736600,10.395736572265625,0.008822433650493622,0.0043522147461771965,0.01025477983057499
1634125164323616800,10.41561669921875,-0.015724986791610718,-0.004737953655421734,0.028423931449651718
1634125164343496000,10.435495849609374,-0.052947741001844406,-0.002665816806256771,0.04819473251700401
1634125164363375600,10.455375732421874,-0.07426107674837112,-0.02024669386446476,0.04475243017077446
1634125164383255800,10.475255859375,-0.06695545464754105,-0.03900500386953354,0.017505429685115814
1634125164403135700,10.4951357421875,-0.03663320094347,-0.0361960306763649,-0.0004805483913514763
1634125164423016000,10.515015869140624,-0.012820583768188953,-0.016291188076138496,0.007752806879580021
1634125164442895600,10.5348955078125,-0.003173224860802293,0.026342537254095078,0.023283999413251877
1634125164462775800,10.55477587890625,-0.008961370214819908,0.04140552133321762,0.034133635461330414
1634125164482655700,10.57465576171875,-0.020657913759350777,0.01016127411276102,0.0235044676810503
1634125164502536000,10.594535888671874,-0.020075272768735886,-0.052752938121557236,0.008581403642892838
1634125164522414600,10.61441455078125,-0.01052030362188816,-0.08216432482004166,-0.006784492172300816
1634125164542294800,10.634294677734376,-0.0103096142411232,-0.05890737473964691,-0.014944996684789658
1634125164562174700,10.6541748046875,-0.017265312373638153,-0.002737746573984623,-0.01041062269359827
1634125164582055000,10.674054931640624,-0.0033431965857744217,0.039513468742370605,0.0025952025316655636
1634125164601934600,10.6939345703125,0.018504273146390915,0.037116941064596176,-0.0008013200131244957
1634125164621814800,10.713814697265626,0.028140125796198845,0.015363461337983608,-0.023952051997184753
1634125164641694700,10.73369482421875,0.020220771431922913,0.01209938433021307,-0.034876223653554916
1634125164661575000,10.753574951171874,0.009365208446979523,0.017717640846967697,-0.045549530535936356
1634125164681454600,10.77345458984375,-0.0001531955786049366,0.03698641061782837,-0.030312256887555122
1634125164701333800,10.793333740234376,0.011576920747756958,0.04690464586019516,0.003812760580331087
1634125164721213700,10.813213623046876,0.009712966158986092,0.03959769383072853,0.031493403017520905
1634125164741094000,10.833093994140626,-0.007917472161352634,0.03377872332930565,0.03783007711172104
1634125164760973600,10.8529736328125,-0.018039019778370857,0.028472676873207092,0.032815635204315186
1634125164780853800,10.872853759765626,-0.0008672287221997976,0.012822861783206463,0.041291553527116776
1634125164800733700,10.892733642578126,0.020650293678045273,-0.0077565377578139305,0.06025688722729683
1634125164820614000,10.91261376953125,0.04130077362060547,-0.019984714686870575,0.07295247167348862
1634125164840493600,10.93249365234375,0.049187708646059036,-0.019811410456895828,0.06997109204530716
1634125164860372700,10.952372802734375,0.047022245824337006,0.023764371871948242,0.055367857217788696
1634125164880253000,10.9722529296875,0.050741810351610184,0.06398830562829971,0.044142644852399826
1634125164900132600,10.992132568359375,0.05997826159000397,0.055951088666915894,0.045377932488918304
1634125164920012800,11.0120126953125,0.07191720604896545,0.017549581825733185,0.04532082751393318
1634125164939892700,11.031892822265625,0.0746336281299591,-0.00961332954466343,0.042102664709091187
1634125164959773000,11.05177294921875,0.06285020709037781,-0.014361213892698288,0.04163314774632454
1634125164979652900,11.07165283203125,0.053582943975925446,-0.00266830250620842,0.04890809208154678
1634125164999532800,11.09153271484375,0.038887832313776016,0.0274522565305233,0.05138227716088295
1634125165019412700,11.111412841796875,0.021005308255553246,0.020815521478652954,0.048903804272413254
1634125165039292000,11.1312919921875,0.02171606943011284,0.011876709759235382,0.04585215449333191
1634125165059171600,11.151171630859375,0.019297387450933456,0.0076819658279418945,0.04291362315416336
1634125165079051800,11.1710517578125,0.011583296582102776,0.003144047223031521,0.039049334824085236
1634125165098931700,11.190931640625,-0.0033495731186121702,-0.002136967144906521,0.038960907608270645
1634125165118812000,11.21081201171875,-0.009475401602685452,-0.00821602251380682,0.04334517940878868
1634125165138691600,11.230691650390625,-0.015817131847143173,-0.018435388803482056,0.050799544900655746
1634125165158571800,11.25057177734375,-0.024085456505417824,-0.035122793167829514,0.04186278581619263
1634125165178451700,11.27045166015625,-0.03320997208356857,-0.03554380312561989,0.025111224502325058
1634125165198331000,11.290330810546875,-0.027993924915790558,-0.03240109235048294,0.0018023403827100992
1634125165218210800,11.3102109375,-0.008088831789791584,-0.036271121352910995,-0.010633433237671852
1634125165238089500,11.33008935546875,0.023279596120119095,-0.0445626862347126,-0.02546687051653862
1634125165257969700,11.3499697265625,0.02270573377609253,-0.03070947155356407,-0.03507644310593605
1634125165277849600,11.369849609375,0.0019408126827329397,0.03333108127117157,-0.054616473615169525
1634125165297729800,11.389729736328125,-0.0022843049373477697,0.08625070750713348,-0.05903397500514984
1634125165317609500,11.409609375,0.010106326080858707,0.08988595008850098,-0.03885015472769737
1634125165337489700,11.42948974609375,0.006039958447217941,0.03287331759929657,0.0015064360341057181
1634125165357368800,11.449368896484375,-0.019025733694434166,-0.12914523482322693,0.04550495371222496
1634125165377248500,11.46924853515625,-0.05261671170592308,-0.3140535354614258,0.05992276221513748
1634125165397128700,11.489128662109374,-0.06511139869689941,-0.37601014971733093,0.017918627709150314
1634125165417008600,11.509008544921874,-0.04858721047639847,-0.307188481092453,-0.05102672427892685
1634125165436888600,11.528888671875,0.0043831560760736465,-0.15551918745040894,-0.09437193721532822
1634125165456768800,11.548768798828124,0.06024905666708946,-0.02811504155397415,-0.07293956726789474
1634125165476648400,11.5686484375,0.07064075022935867,-0.03532375395298004,-0.01386579591780901
1634125165496528600,11.588528564453124,0.042445164173841476,-0.1345207691192627,-0.007325631566345692
1634125165516408600,11.60840869140625,-0.008209061808884144,-0.27166441082954407,-0.03532114997506142
1634125165536287500,11.62828759765625,-0.010587512515485287,-0.3605688810348511,-0.05693100020289421
1634125165556167700,11.648167724609374,0.020298322662711143,-0.3130050003528595,-0.056404370814561844
1634125165576047600,11.668047607421874,0.03213467821478844,-0.24849656224250793,-0.02031603828072548
1634125165595927800,11.687927734375,0.023216066882014275,-0.22739988565444946,0.019030090421438217
1634125165615807500,11.707807373046874,-0.005604686681181192,-0.22716747224330902,0.016563905403017998
1634125165635687700,11.727687744140624,-0.043215733021497726,-0.23477540910243988,-0.005858143325895071
1634125165655567600,11.747567626953124,-0.07256614416837692,-0.24047954380512238,-0.024234656244516373
1634125165675447800,11.76744775390625,-0.0697842538356781,-0.2544802725315094,-0.025532191619277
1634125165695326500,11.787326416015626,-0.058386411517858505,-0.24662268161773682,-0.021664831787347794
1634125165715206700,11.80720654296875,-0.06470181047916412,-0.2298969030380249,-0.026319267228245735
1634125165735086600,11.827086669921876,-0.0749182179570198,-0.22673486173152924,-0.05994342640042305
1634125165754966800,11.846966796875,-0.08792858570814133,-0.24199648201465607,-0.08387508243322372
1634125165774846500,11.866846435546876,-0.1188439130783081,-0.25203585624694824,-0.07357661426067352
1634125165794726700,11.8867265625,-0.17633776366710663,-0.2351147085428238,-0.057161252945661545
1634125165814606600,11.906606689453126,-0.22624143958091736,-0.23317977786064148,-0.047555577009916306
1634125165834486800,11.92648681640625,-0.24074561893939972,-0.25725051760673523,-0.04314234480261803
1634125165854365700,11.94636572265625,-0.255956768989563,-0.2633982300758362,-0.035233765840530396
1634125165874245600,11.96624560546875,-0.2867436707019806,-0.25371992588043213,-0.03284788131713867
1634125165894125800,11.986125732421876,-0.31630420684814453,-0.24137675762176514,-0.045470044016838074
1634125165914005800,12.006005859375,-0.3304978013038635,-0.22422005236148834,-0.056136440485715866
1634125165933885700,12.0258857421875,-0.3435017466545105,-0.19913209974765778,-0.04370596632361412
1634125165953765600,12.045765625,-0.364176869392395,-0.17746570706367493,-0.021899575367569923
1634125165973645600,12.0656455078125,-0.38019078969955444,-0.17459450662136078,-0.012723955325782299
1634125165993525800,12.08552587890625,-0.38825011253356934,-0.19995415210723877,-0.02079976722598076
1634125166013404700,12.10540478515625,-0.39191317558288574,-0.19723142683506012,-0.04004502296447754
1634125166033284600,12.12528466796875,-0.4037448465824127,-0.15428973734378815,-0.04702122509479523
1634125166053164800,12.145164794921875,-0.3956318497657776,-0.08500786125659943,-0.04981837049126625
1634125166073044500,12.16504443359375,-0.3440259099006653,-0.05364694073796272,-0.050568610429763794
1634125166092924700,12.184924560546875,-0.24191707372665405,-0.06632766127586365,-0.047116298228502274
1634125166112804600,12.2048046875,-0.16543430089950562,-0.09692692011594772,-0.02278030477464199
1634125166132684800,12.224684814453125,-0.14473064243793488,-0.13237586617469788,0.03501354157924652
1634125166152563500,12.2445634765625,-0.15599164366722107,-0.16068151593208313,0.05349017679691315
1634125166172443600,12.264443603515625,-0.18013089895248413,-0.15921911597251892,0.04276878759264946
1634125166192323600,12.284323486328125,-0.18341541290283203,-0.11687129735946655,0.023632453754544258
1634125166212203800,12.304203857421875,-0.176945298910141,-0.07328580319881439,0.00593311432749033
1634125166232087300,12.32408740234375,-0.15604157745838165,-0.0595850870013237,0.005201375111937523
1634125166251967500,12.343967529296876,-0.12032066285610199,-0.051259469240903854,0.005362453870475292
1634125166271847400,12.363847412109376,-0.09528215229511261,-0.031038619577884674,0.0017946171574294567
1634125166291727400,12.383727294921876,-0.09155898541212082,-0.005246177781373262,-0.00008181860903277993
1634125166311606500,12.4036064453125,-0.09707605838775635,-0.0037904884666204453,0.006669533438980579
1634125166331486500,12.423486572265626,-0.10822717845439911,-0.01267479918897152,0.0202570091933012
1634125166351366400,12.443366455078126,-0.13326193392276764,0.006895791739225388,0.04103242605924606
1634125166371246300,12.463246337890626,-0.1649886965751648,0.03829767182469368,0.033882759511470795
1634125166391126300,12.483126220703125,-0.17274121940135956,0.04020695388317108,0.045777592808008194
1634125166411006500,12.50300634765625,-0.17291058599948883,-0.007693177089095116,0.09762440621852875
1634125166430886400,12.522886474609376,-0.1535136103630066,-0.04487058147788048,0.15072250366210938
1634125166450765300,12.542765380859375,-0.16826868057250977,-0.1230977326631546,0.17377319931983948
1634125166470645500,12.5626455078125,-0.19291456043720245,-0.1956252157688141,0.1513661891222
1634125166490525400,12.582525390625,-0.20304709672927856,-0.25689712166786194,0.047670695930719376
1634125166510405400,12.6024052734375,-0.20859423279762268,-0.2686782777309418,-0.06577152013778687
1634125166530285300,12.622285400390625,-0.1886032074689865,-0.20380151271820068,-0.1428382247686386
1634125166550165500,12.64216552734375,-0.14588004350662231,-0.09879114478826523,-0.1859981119632721
1634125166570045400,12.66204541015625,-0.10672545433044434,-0.004076088313013315,-0.1766863763332367
1634125166589925400,12.68192529296875,-0.07444846630096436,0.049417249858379364,-0.14392296969890594
1634125166609804300,12.70180419921875,-0.0759529322385788,0.03444717824459076,-0.10032748430967331
1634125166629684500,12.7216845703125,-0.07147375494241714,0.0036562252789735794,-0.07087677717208862
1634125166649564400,12.741564453125,-0.055369891226291656,-0.02139158546924591,-0.07798223197460175
1634125166669444400,12.7614443359375,-0.050440866500139236,0.0016830144450068474,-0.0619514100253582
1634125166689324300,12.78132421875,-0.05485212802886963,0.008841324597597122,0.001304792589507997
1634125166709204500,12.80120458984375,-0.04718133807182312,-0.027402160689234734,0.07947590947151184
1634125166729084400,12.82108447265625,-0.024632178246974945,-0.04080906882882118,0.1477191299200058
1634125166748963300,12.84096337890625,0.021542610600590706,-0.028579244390130043,0.1521647423505783
1634125166768843500,12.860843505859375,0.06779827177524567,0.018112406134605408,0.12475293129682541
1634125166788723500,12.880723388671875,0.1262979805469513,0.1017783135175705,0.0795927494764328
1634125166808603400,12.900603271484375,0.19523043930530548,0.18750223517417908,0.01947377249598503
1634125166828483300,12.9204833984375,0.2868479788303375,0.22966322302818298,-0.060633957386016846
1634125166848363500,12.940363525390625,0.38809043169021606,0.25006547570228577,-0.13294266164302826
1634125166868243500,12.960243408203125,0.44996029138565063,0.28513503074645996,-0.1805218756198883
1634125166888123400,12.980123291015625,0.4468406140804291,0.29576998949050903,-0.1850167065858841
1634125166908002300,13.000002197265625,0.4350642263889313,0.25729790329933167,-0.1847200095653534
1634125166927882500,13.019882568359375,0.40944820642471313,0.20035789906978607,-0.18831606209278107
1634125166947762400,13.039762451171875,0.39789968729019165,0.15006916224956512,-0.20443937182426453
1634125166967642400,13.059642333984375,0.39089900255203247,0.08633989840745926,-0.2206948697566986
1634125166987522300,13.079522216796875,0.3650929629802704,0.04167042672634125,-0.20998390018939972
1634125167007402500,13.099402587890625,0.3292958736419678,-0.025960374623537064,-0.16324204206466675
1634125167027282400,13.119282470703125,0.2925371527671814,-0.10708323121070862,-0.14399921894073486
1634125167047161300,13.139161376953124,0.23805062472820282,-0.15438924729824066,-0.1648930460214615
1634125167067041300,13.159041259765624,0.17650820314884186,-0.1379726231098175,-0.19495230913162231
1634125167086921500,13.17892138671875,0.12357575446367264,-0.07872659713029861,-0.17265301942825317
1634125167106801400,13.198801513671874,0.1034230962395668,-0.027458319440484047,-0.10423428565263748
1634125167126681300,13.218681396484374,0.08185914903879166,-0.051066379994153976,-0.024234166368842125
1634125167146561300,13.238561279296874,0.045342203229665756,-0.0895739197731018,0.01041508000344038
1634125167166441500,13.25844140625,-0.0011451260652393103,-0.10337305814027786,0.007802503649145365
1634125167186320400,13.2783203125,-0.035563305020332336,-0.0661434456706047,-0.004779977258294821
1634125167206200300,13.298200439453124,-0.032023970037698746,-0.04937673360109329,0.01992817409336567
1634125167226080500,13.31808056640625,-0.01371522806584835,-0.048630669713020325,0.07129637151956558
1634125167245956000,13.3379560546875,-0.007521290332078934,-0.06657329946756363,0.11174171417951584
1634125167265836300,13.357836181640625,0.01149015873670578,-0.11441397666931152,0.1324312388896942
1634125167285716200,13.37771630859375,0.03775837644934654,-0.16763928532600403,0.16874565184116364
1634125167305596400,13.397596435546875,0.06859801709651947,-0.2189001441001892,0.22467154264450073
1634125167325476000,13.41747607421875,0.09467723220586777,-0.20780666172504425,0.28111720085144043
1634125167345355300,13.437355224609375,0.09744086116552353,-0.16944070160388947,0.32899779081344604
1634125167365235500,13.4572353515625,0.08538096398115158,-0.14233806729316711,0.33774685859680176
1634125167385115400,13.477115478515625,0.04489874839782715,-0.12462202459573746,0.31872448325157166
1634125167404995300,13.496995361328125,0.014815244823694229,-0.13899672031402588,0.29556378722190857
1634125167424875300,13.516875244140625,0.02856503613293171,-0.16864438354969025,0.271845281124115
1634125167444755200,13.536755126953125,0.05889257788658142,-0.21081821620464325,0.2853409945964813
1634125167464635400,13.556635498046875,0.061681222170591354,-0.25277990102767944,0.32579341530799866
1634125167484514300,13.576514404296875,0.040076758712530136,-0.2717590034008026,0.34355366230010986
1634125167504394200,13.596394287109375,0.013437498360872269,-0.2688063681125641,0.31632497906684875
1634125167524274400,13.6162744140625,-0.0033180175814777613,-0.2295781821012497,0.25562232732772827
1634125167544154000,13.636154052734375,-0.025656666606664658,-0.1891757994890213,0.19906164705753326
1634125167564034300,13.656034423828125,-0.04674946144223213,-0.19088992476463318,0.17579896748065948
1634125167583914200,13.675914306640625,-0.08712159097194672,-0.23131941258907318,0.16923725605010986
1634125167603794400,13.69579443359375,-0.1550397425889969,-0.22984834015369415,0.1518356204032898
1634125167623673000,13.715673095703124,-0.22558626532554626,-0.21828004717826843,0.13919572532176971
1634125167643553300,13.73555322265625,-0.24516688287258148,-0.21725362539291382,0.1282832771539688
1634125167663433200,13.75543310546875,-0.20562025904655457,-0.2642219364643097,0.12569747865200043
1634125167683313400,13.7753134765625,-0.1489008367061615,-0.3071024417877197,0.1579514890909195
1634125167703193000,13.795193115234374,-0.12783357501029968,-0.3515479862689972,0.20040005445480347
1634125167723073300,13.8150732421875,-0.11072111129760742,-0.4111097455024719,0.19477885961532593
1634125167742953200,13.834953125,-0.10094662755727768,-0.4589204788208008,0.15740661323070526
1634125167762832100,13.85483203125,-0.084383025765419,-0.47559186816215515,0.12562474608421326
1634125167782712300,13.87471240234375,-0.07445258647203445,-0.48075512051582336,0.11326482892036438
1634125167802592300,13.89459228515625,-0.07737040519714355,-0.4749429225921631,0.10049410909414291
1634125167822472400,13.914472412109374,-0.0954873189330101,-0.4592679738998413,0.050313182175159454
1634125167842352000,13.93435205078125,-0.1263124644756317,-0.435381144285202,-0.027562275528907776
1634125167862232300,13.954232421875,-0.13762260973453522,-0.40701597929000854,-0.11182326078414917
1634125167882112300,13.9741123046875,-0.17399069666862488,-0.43458592891693115,-0.16385377943515778
1634125167901991400,13.993991455078126,-0.2146521955728531,-0.5296487808227539,-0.22019562125205994
1634125167921871000,14.01387109375,-0.258494108915329,-0.6940190196037292,-0.32303470373153687
1634125167941751300,14.033751220703126,-0.2940327227115631,-0.7246833443641663,-0.5212429165840149
1634125167961631200,14.05363134765625,-0.2051486372947693,-0.4956594705581665,-0.8121392130851746
1634125167981511400,14.073511474609376,-0.10282277315855026,-0.21565410494804382,-1.0445926189422607
1634125168001391000,14.09339111328125,-0.15430530905723572,-0.08918679505586624,-1.0484975576400757
1634125168021271300,14.113271240234376,-0.33575427532196045,-0.20278513431549072,-0.8306045532226562
1634125168041150200,14.133150146484375,-0.561447262763977,-0.4459990859031677,-0.5425685048103333
1634125168061030400,14.153030517578125,-0.7254876494407654,-0.6297282576560974,-0.35759609937667847
1634125168080910000,14.17291015625,-0.7759914994239807,-0.6604251861572266,-0.3379150629043579
1634125168100790300,14.192790283203125,-0.7562816739082336,-0.5905159115791321,-0.3994428217411041
1634125168120670200,14.212670166015625,-0.6758553981781006,-0.49556106328964233,-0.4282245934009552
1634125168140550400,14.23255029296875,-0.5708977580070496,-0.4083549976348877,-0.34294357895851135
1634125168160430000,14.25243017578125,-0.4266285002231598,-0.3726409673690796,-0.23127920925617218
1634125168180310300,14.272310302734375,-0.2862458825111389,-0.4629981815814972,-0.18380004167556763
1634125168200189400,14.292189453125,-0.20617099106311798,-0.572613537311554,-0.20540857315063477
1634125168220069000,14.312069091796875,-0.1885237842798233,-0.6212300062179565,-0.2830493450164795
1634125168239953700,14.33195361328125,-0.18114183843135834,-0.587809145450592,-0.33452266454696655
1634125168259833600,14.35183349609375,-0.19653131067752838,-0.4903203547000885,-0.2821080982685089
1634125168279713500,14.371713623046874,-0.24274039268493652,-0.351819783449173,-0.1500549614429474
1634125168299593700,14.39159375,-0.3368808627128601,-0.2435881793498993,0.011016372591257095
1634125168319473000,14.411472900390624,-0.43874698877334595,-0.21109293401241302,0.16193099319934845
1634125168339352600,14.4313525390625,-0.4598709046840668,-0.2540622353553772,0.21801182627677917
1634125168359232800,14.451232666015626,-0.40617209672927856,-0.2969331443309784,0.18532945215702057
1634125168379112700,14.47111279296875,-0.31215524673461914,-0.2943095862865448,0.14676710963249207
1634125168398993000,14.490992919921876,-0.19936621189117432,-0.2396339625120163,0.1469685137271881
1634125168418872600,14.51087255859375,-0.11788591742515564,-0.12746791541576385,0.20025432109832764
1634125168438752800,14.530752685546876,-0.07630997151136398,0.0041814809665083885,0.24103409051895142
1634125168458631700,14.550631591796876,-0.08225680142641068,0.0886220782995224,0.2565857470035553
1634125168478511600,14.57051171875,-0.11999581754207611,0.0857301577925682,0.2549700140953064
1634125168498391600,14.5903916015625,-0.12627799808979034,0.06276321411132812,0.2125455141067505
1634125168518271700,14.610271728515626,-0.07462245970964432,0.07794738560914993,0.11803410947322845
1634125168538151700,14.630151611328126,-0.009709784761071205,0.14956003427505493,0.017708322033286095
1634125168558032000,14.650031982421876,0.038936078548431396,0.2729259729385376,-0.027617909014225006
1634125168577911600,14.66991162109375,0.08439269661903381,0.3071165084838867,0.005030263680964708
1634125168597790700,14.689790771484375,0.14629806578159332,0.18845492601394653,0.05117187649011612
1634125168617670700,14.709670654296875,0.23674754798412323,0.043881505727767944,0.0645124539732933
1634125168637550600,14.729550537109375,0.3099341094493866,-0.010497398674488068,-0.0002698377938941121
1634125168657430500,14.749430419921875,0.29893478751182556,-0.0032755350694060326,-0.05299810692667961
1634125168677310700,14.769310791015625,0.2519379258155823,0.024285882711410522,-0.05085951089859009
1634125168697190700,14.789190673828125,0.2297050952911377,0.051598332822322845,-0.00955953635275364
1634125168717070600,14.809070556640625,0.20246000587940216,0.08743009716272354,0.027734044939279556
1634125168736949800,14.82894970703125,0.1388670951128006,0.1041785329580307,0.050692446529865265
1634125168756829700,14.84882958984375,0.09292115271091461,0.09106744080781937,0.02629619836807251
1634125168776710000,14.8687099609375,0.07272402942180634,0.058022744953632355,-0.023033564910292625
1634125168796589600,14.888589599609375,0.07507990300655365,0.02669500932097435,-0.07177132368087769
1634125168816469800,14.9084697265625,0.06211758032441139,0.07687258720397949,-0.08674462139606476
1634125168836349700,14.928349609375,0.04279438033699989,0.160352885723114,-0.07248836010694504
1634125168856230000,14.94822998046875,0.03513939678668976,0.18833313882350922,-0.054095376282930374
1634125168876108500,14.968108642578125,0.03906833007931709,0.15607471764087677,-0.07197114080190659
1634125168895988700,14.98798876953125,0.0392443872988224,0.1373538225889206,-0.091591477394104
1634125168915868700,15.00786865234375,0.022318897768855095,0.1342543512582779,-0.06943979114294052
1634125168935748600,15.02774853515625,0.006408645771443844,0.10571034252643585,-0.012958278879523277
1634125168955628500,15.047628662109375,0.015126273967325687,0.05056062713265419,0.04401734098792076
1634125168975508700,15.0675087890625,0.0312512181699276,0.034255500882864,0.08013256639242172
1634125168995388000,15.087387939453125,0.03906223922967911,0.04349155351519585,0.09941894561052322
1634125169015267600,15.107267578125,0.04487985372543335,0.0386367104947567,0.1151449903845787
1634125169035147800,15.127147705078125,0.058526765555143356,0.012522213160991669,0.1293933391571045
1634125169055027700,15.14702783203125,0.09515503793954849,0.016305655241012573,0.12184692919254303
1634125169074908000,15.166907958984375,0.09606518596410751,0.04038572311401367,0.11725708842277527
1634125169094787600,15.18678759765625,0.0762234553694725,0.08861881494522095,0.13760414719581604
1634125169114667800,15.206667724609375,0.05430515110492706,0.11841195076704025,0.18628641963005066
1634125169134546700,15.226546630859374,0.04994251951575279,0.10948796570301056,0.2206534445285797
1634125169154426600,15.246426513671874,0.055715810507535934,0.1005634218454361,0.23074471950531006
1634125169174306600,15.266306640625,0.06335312128067017,0.12004762887954712,0.24265888333320618
1634125169194186800,15.286186767578124,0.07234299927949905,0.16753022372722626,0.2551284730434418
1634125169214066700,15.306066650390624,0.07077202945947647,0.2567560076713562,0.278067022562027
1634125169233943300,15.325943359375,0.08386963605880737,0.28972551226615906,0.30201655626296997
1634125169253823000,15.345822998046875,0.10607696324586868,0.23822616040706635,0.32876837253570557
1634125169273702100,15.3657021484375,0.12084650993347168,0.14899246394634247,0.3623530864715576
1634125169293582000,15.38558203125,0.09894654154777527,0.10791002213954926,0.4222599267959595
1634125169313462300,15.405462158203125,0.09090783447027206,0.10799111425876617,0.453311026096344
1634125169333342000,15.425342041015625,0.11974453926086426,0.14753638207912445,0.421343594789505
1634125169353222100,15.44522216796875,0.14848726987838745,0.1896764487028122,0.34435543417930603
1634125169373102000,15.46510205078125,0.15468019247055054,0.23005053400993347,0.26673203706741333
1634125169392981000,15.48498095703125,0.12894253432750702,0.271872878074646,0.24521391093730927
1634125169412861200,15.504861083984375,0.10502789169549942,0.24851807951927185,0.28636157512664795
1634125169432741000,15.5247412109375,0.0976792573928833,0.17126666009426117,0.30708953738212585
1634125169452621300,15.544621337890625,0.07775875926017761,0.1349005252122879,0.25976788997650146
1634125169472501000,15.5645009765625,0.10777340084314346,0.21397221088409424,0.15599578619003296
1634125169492381200,15.584381103515625,0.19714374840259552,0.3476772606372833,0.03319265693426132
1634125169512261000,15.60426123046875,0.30071142315864563,0.4605628252029419,-0.06711052358150482
1634125169532140300,15.624140380859375,0.3853505253791809,0.5254276990890503,-0.10698438435792923
1634125169552020000,15.64402001953125,0.39887723326683044,0.5756880044937134,-0.08943656086921692
1634125169571900200,15.663900146484375,0.3324733078479767,0.6357278227806091,-0.08141443133354187
1634125169591780000,15.683780029296875,0.2098715752363205,0.632077157497406,-0.09990885853767395
1634125169611660300,15.703660400390625,0.11581015586853027,0.5763463973999023,-0.08850395679473877
1634125169631540000,15.7235400390625,0.07254838943481445,0.4820352792739868,-0.028894782066345215
1634125169651419100,15.743419189453125,0.038956861943006516,0.3902616500854492,0.07359778881072998
1634125169671299300,15.76329931640625,0.011335025541484356,0.2971746027469635,0.16145506501197815
1634125169691179000,15.783178955078125,-0.01707424409687519,0.28878548741340637,0.1989123523235321
1634125169711059200,15.80305908203125,-0.037945762276649475,0.3147312104701996,0.14795881509780884
1634125169730939100,15.822939208984375,-0.06575404107570648,0.32955288887023926,0.046706728637218475
1634125169750819300,15.8428193359375,-0.09327606856822968,0.37422293424606323,-0.022459853440523148
1634125169770699300,15.86269921875,-0.0675831213593483,0.46949902176856995,-0.06351150572299957
1634125169790578200,15.882578125,0.0634135976433754,0.5676145553588867,-0.1068517342209816
1634125169810458000,15.9024580078125,0.28726133704185486,0.5986006855964661,-0.16366562247276306
1634125169830338300,15.92233837890625,0.5192175507545471,0.5663331747055054,-0.16933248937129974
1634125169850218000,15.942218017578124,0.6709170341491699,0.494216650724411,-0.05822167918086052
1634125169870098200,15.96209814453125,0.6676633954048157,0.4621289074420929,0.12243190407752991
1634125169889978000,15.98197802734375,0.521135687828064,0.5242475867271423,0.3221445381641388
1634125169909857000,16.00185693359375,0.37443235516548157,0.6111053824424744,0.5040982961654663
1634125169929737200,16.0217373046875,0.3497871458530426,0.5823163390159607,0.600395679473877
1634125169949617200,16.0416171875,0.4773792028427124,0.5165875554084778,0.6109650135040283
1634125169969497000,16.0614970703125,0.5521128177642822,0.5071893334388733,0.6137430667877197
1634125169989377300,16.081377197265624,0.4720897078514099,0.7117830514907837,0.6411585211753845
1634125170009257000,16.101257080078124,0.5335187911987305,0.6981770396232605,0.6212921142578125
1634125170029136100,16.12113623046875,0.5430687665939331,0.6960556507110596,0.6052077412605286
1634125170049016300,16.141016357421876,0.529333233833313,1.0564228296279907,0.5115071535110474
1634125170068896000,16.16089599609375,0.4125697910785675,1.086517095565796,0.3018461763858795
1634125170088776200,16.180776123046876,0.1967795044183731,0.9935157895088196,-0.01591690443456173
1634125170108656000,16.20065625,0.2176271677017212,0.8399202227592468,-0.4055006802082062
1634125170128536300,16.220536376953124,0.355109304189682,0.9102324843406677,-0.8453598618507385
1634125170148416000,16.240416015625,0.3546813130378723,1.0474574565887451,-1.0716595649719238
1634125170168295200,16.260295166015624,0.4119094908237457,1.0262573957443237,-0.958184540271759
1634125170188175000,16.280175048828124,0.495154470205307,1.0039972066879272,-0.6301379799842834
1634125170208055300,16.30005517578125,0.5474653244018555,0.9048874378204346,-0.3920322358608246
1634125170227935000,16.31993505859375,0.5761674642562866,0.7142010927200317,-0.34742867946624756
1634125170247815000,16.33981494140625,0.6501922011375427,0.6158310770988464,-0.4258708655834198
1634125170267694800,16.35969482421875,0.7738077640533447,0.5228604674339294,-0.5241061449050903
1634125170287573800,16.37957373046875,0.8398447632789612,0.42198845744132996,-0.5758926272392273
1634125170307454000,16.399453857421875,0.844733715057373,0.44457998871803284,-0.598940372467041
1634125170327334000,16.419333984375,0.847622811794281,0.5941179394721985,-0.6014236807823181
1634125170347214000,16.439214111328123,0.8682641386985779,0.7518613934516907,-0.6038472652435303
1634125170367093800,16.45909375,0.8697710633277893,0.8139044046401978,-0.6425228714942932
1634125170386974000,16.478973876953123,0.7917520403862,0.8052762150764465,-0.6379791498184204
1634125170406852900,16.498852783203127,0.6620844602584839,0.7715820074081421,-0.5490732192993164
1634125170426732800,16.51873291015625,0.49927255511283875,0.7734115123748779,-0.42784589529037476
1634125170446612700,16.53861279296875,0.35600516200065613,0.8325731158256531,-0.3647397756576538
1634125170466493000,16.558492919921875,0.3034798502922058,0.881342351436615,-0.43688637018203735
1634125170486372900,16.578372802734375,0.3292110562324524,0.8020607233047485,-0.5325252413749695
1634125170506253000,16.598253173828127,0.37918320298194885,0.6340603232383728,-0.5660391449928284
1634125170526132000,16.618132080078126,0.34961676597595215,0.4682369530200958,-0.5123608112335205
1634125170546012000,16.638011962890626,0.22560876607894897,0.42022275924682617,-0.38667410612106323
1634125170565892000,16.65789208984375,0.13998505473136902,0.5169265866279602,-0.27798643708229065
1634125170585771800,16.677771728515626,0.1446324586868286,0.7156930565834045,-0.24116672575473785
1634125170605652000,16.69765185546875,0.17636986076831818,0.7185125350952148,-0.17825576663017273
1634125170625532000,16.717531982421875,0.18733841180801392,0.5676330924034119,-0.04683639854192734
1634125170645410800,16.737410888671874,0.12575498223304749,0.422580361366272,0.023673413321375847
1634125170665290800,16.757290771484374,0.04039320722222328,0.43529826402664185,-0.013415759429335594
1634125170685171000,16.7771708984375,0.012401483952999115,0.5320380926132202,-0.06279660016298294
1634125170705051000,16.79705078125,0.0473027303814888,0.556631326675415,-0.03245426341891289
1634125170724931000,16.81693115234375,0.09437008947134018,0.4838353991508484,0.07168876379728317
1634125170744810800,16.836810791015626,0.09462665766477585,0.41528332233428955,0.17189335823059082
1634125170764690000,16.85668994140625,0.07748329639434814,0.3244233727455139,0.18950873613357544
1634125170784569900,16.87656982421875,0.05045926570892334,0.26065561175346375,0.1478077471256256
1634125170804449800,16.89644970703125,0.05485081300139427,0.22878408432006836,0.09164641052484512
1634125170824329700,16.916329833984374,0.07627903670072556,0.20386795699596405,0.04588804394006729
1634125170844210000,16.9362099609375,0.07060074806213379,0.20540845394134521,0.03483399376273155
1634125170864089900,16.95608984375,0.05472574755549431,0.23595550656318665,0.033784691244363785
1634125170883968800,16.97596875,0.030825288966298103,0.2230408936738968,0.02941637858748436
1634125170903849000,16.995848876953126,-0.0010711904615163803,0.20889994502067566,0.014964117668569088
1634125170923729000,17.01572900390625,-0.061669472604990005,0.23779481649398804,-0.030580392107367516
1634125170943609000,17.035609130859374,-0.13501451909542084,0.27257999777793884,-0.06534117460250854
1634125170963488800,17.05548876953125,-0.19017449021339417,0.2660333514213562,-0.07344207912683487
1634125170983369000,17.075368896484374,-0.261795312166214,0.26956403255462646,-0.03628971800208092
1634125171003247900,17.095247802734374,-0.3003231883049011,0.11760059744119644,0.032363779842853546
1634125171023127800,17.1151279296875,-0.38094422221183777,-0.1601790487766266,0.10911805927753448
1634125171043007700,17.1350078125,-0.3998933434486389,-0.30445563793182373,0.04749562591314316
1634125171062888000,17.154887939453126,-0.3656647205352783,-0.09434018284082413,-0.14184822142124176
1634125171082768000,17.174767822265625,-0.3051687777042389,0.12839309871196747,-0.3526334762573242
1634125171102647800,17.194647705078125,-0.26018962264060974,0.14322791993618011,-0.44861671328544617
1634125171122527000,17.21452685546875,-0.2029379904270172,0.07158150523900986,-0.3823579251766205
1634125171142407000,17.234406982421874,-0.18070396780967712,-0.07051026821136475,-0.2721278965473175
1634125171162287000,17.254287109375,-0.19447197020053864,-0.1754385232925415,-0.18384332954883575
1634125171182166800,17.274166748046873,-0.2406126707792282,-0.2541433572769165,-0.15027597546577454
1634125171202047000,17.294046875,-0.2905404269695282,-0.3067777454853058,-0.14804145693778992
1634125171221927000,17.313927001953125,-0.30555176734924316,-0.2971440553665161,-0.14422021806240082
1634125171241805800,17.333805908203125,-0.3009422719478607,-0.25746580958366394,-0.12953558564186096
1634125171261685500,17.353685546875,-0.27974095940589905,-0.18611648678779602,-0.11483108997344971
1634125171281565700,17.373565673828125,-0.2623143792152405,-0.06383766233921051,-0.07313747704029083
1634125171301445600,17.393445556640625,-0.24131757020950317,0.03479745239019394,-0.0374063141644001
1634125171321325800,17.413325927734373,-0.2641299366950989,0.002484787255525589,0.018224192783236504
1634125171341205500,17.43320556640625,-0.3063630163669586,-0.1261225938796997,0.1472482830286026
1634125171361084700,17.453084716796877,-0.3699014484882355,-0.2785930931568146,0.30113571882247925
1634125171380964900,17.47296484375,-0.3423271179199219,-0.3399815857410431,0.3865966796875
1634125171400844500,17.492844482421877,-0.26132047176361084,-0.2800080478191376,0.2856093645095825
1634125171420724700,17.512724853515625,-0.19656284153461456,-0.14698562026023865,0.08634090423583984
1634125171440604700,17.532604736328125,-0.1324683576822281,-0.02788783237338066,-0.11501465737819672
1634125171460483800,17.55248388671875,-0.11262872815132141,0.030928798019886017,-0.24039171636104584
1634125171480363500,17.572363525390625,-0.17700032889842987,-0.10143758356571198,-0.3115048408508301
1634125171500243700,17.59224365234375,-0.24288113415241241,-0.34045103192329407,-0.3314889073371887
1634125171520123600,17.61212353515625,-0.2628510296344757,-0.5168022513389587,-0.2768557071685791
1634125171540003800,17.63200390625,-0.2699422836303711,-0.5135269165039062,-0.19345661997795105
1634125171559883500,17.651883544921876,-0.2650429606437683,-0.4238376021385193,-0.116402268409729
1634125171579762700,17.6717626953125,-0.27614426612854004,-0.33007240295410156,-0.11051128059625626
1634125171599643000,17.691642822265624,-0.27930015325546265,-0.20234030485153198,-0.10506324470043182
1634125171619522600,17.7115224609375,-0.23703107237815857,-0.12516357004642487,-0.06938444077968597
1634125171639402800,17.73140283203125,-0.16886307299137115,-0.11980650573968887,-0.012491908855736256
1634125171659282700,17.75128271484375,-0.12024563550949097,-0.13541756570339203,0.03844497352838516
1634125171679162600,17.77116259765625,-0.08139270544052124,-0.16663241386413574,0.09738215059041977
1634125171699041500,17.79104150390625,-0.04756256192922592,-0.14243869483470917,0.10053630918264389
1634125171718921700,17.810921630859376,-0.010949794203042984,-0.12684620916843414,0.04903824254870415
1634125171738801700,17.8308017578125,0.009688211604952812,-0.12056295573711395,-0.00823917891830206
1634125171758681900,17.850681884765624,0.022450698539614677,-0.11644665151834488,-0.06285630166530609
1634125171778561500,17.8705615234375,0.016185063868761063,-0.16557641327381134,-0.08084952086210251
1634125171798440700,17.890440673828124,-0.012136455625295639,-0.183843195438385,-0.06395131349563599
1634125171818320600,17.910320556640624,-0.0546027235686779,-0.15612950921058655,-0.025199905037879944
1634125171838200600,17.93020068359375,-0.0590394027531147,-0.061118464916944504,-0.005932656116783619
1634125171858080500,17.95008056640625,-0.051239192485809326,0.01434789877384901,-0.017026640474796295
1634125171877960700,17.969960693359376,-0.04184480383992195,0.04089171439409256,-0.002127369400113821
1634125171897840600,17.989840576171876,-0.021403469145298004,0.044488560408353806,0.04813101887702942
1634125171917719600,18.009719482421875,-0.022897887974977493,-0.0030127884820103645,0.08027385175228119
1634125171937599700,18.029599853515624,-0.030567405745387077,-0.02221670001745224,0.07243689149618149
1634125171957479700,18.049479736328124,-0.02933296374976635,0.0019337078556418419,0.004519322887063026
1634125171977360000,18.06935986328125,-0.012576854787766933,0.07094819098711014,-0.06715991348028183
1634125171997239600,18.089239501953124,0.006085308268666267,0.09509728848934174,-0.06490054726600647
1634125172017119700,18.10911962890625,0.018185976892709732,0.06368617713451385,-0.014178668148815632
1634125172036998700,18.12899853515625,0.020146861672401428,0.006156541407108307,-0.00022291118511930108
1634125172056878600,18.148878662109375,0.00429929792881012,-0.005707966163754463,-0.0262692142277956
1634125172076758500,18.168758544921875,0.00336792366579175,0.031231876462697983,-0.06255368143320084
1634125172096638700,18.188638671875,0.020045503973960876,0.04980289936065674,-0.09254565834999084
1634125172116518700,18.2085185546875,0.021581891924142838,0.04911268129944801,-0.08990798890590668
1634125172136397600,18.2283974609375,0.018898531794548035,0.05814560130238533,-0.07916705310344696
1634125172156277800,18.24827783203125,0.025427132844924927,0.050321660935878754,-0.07549450546503067
1634125172176157700,18.26815771484375,0.03454180061817169,0.06252133846282959,-0.08442168682813644
1634125172196038000,18.288037841796875,0.048868175595998764,0.08103098720312119,-0.0883852019906044
1634125172215917600,18.30791748046875,0.06529073417186737,0.0735868439078331,-0.06338821351528168
1634125172235797500,18.327797607421875,0.06837956607341766,0.027134474366903305,0.018574664369225502
1634125172255677400,18.347677490234375,0.06706186383962631,-0.010791565291583538,0.11155771464109421
1634125172275557600,18.3675576171875,0.04695063829421997,-0.0035910536535084248,0.14424049854278564
1634125172295437600,18.3874375,0.024899890646338463,0.03743948042392731,0.11217042803764343
1634125172315317500,18.4073173828125,0.02529042214155197,0.049097828567028046,0.07491835951805115
1634125172335197400,18.427197509765627,0.04947556555271149,0.009367124177515507,0.08914552628993988
1634125172355076600,18.44707666015625,0.08358673751354218,0.008457712829113007,0.12826187908649445
1634125172374956500,18.46695654296875,0.09261903911828995,0.02987532690167427,0.15944738686084747
1634125172394836500,18.48683642578125,0.07252130657434464,0.03464724123477936,0.1490529179573059
1634125172414716400,18.50671630859375,0.06714380532503128,0.04095597565174103,0.14389491081237793
1634125172434596600,18.5265966796875,0.051121097058057785,0.02763478085398674,0.12221813946962357
1634125172454476500,18.5464765625,0.019971201196312904,-0.031212791800498962,0.11868371069431305
1634125172474355500,18.56635546875,0.016643937677145004,-0.07885534316301346,0.10527866333723068
1634125172494235400,18.5862353515625,0.04397732764482498,-0.06711261719465256,0.06723085790872574
1634125172514115600,18.606115478515626,0.07704216241836548,-0.01675400324165821,0.018356867134571075
1634125172533995500,18.62599560546875,0.0647769421339035,0.0037690838798880577,-0.03340045362710953
1634125172553875500,18.64587548828125,0.048018936067819595,0.028508426621556282,-0.05554167926311493
1634125172573754600,18.665754638671874,0.03398391976952553,0.07350612431764603,-0.0631096363067627
1634125172593634600,18.685634521484374,0.028544439002871513,0.055990807712078094,-0.0737236812710762
1634125172613514500,18.705514404296874,0.055237941443920135,0.013711616396903992,-0.06193804368376732
1634125172633394400,18.72539453125,0.0906013548374176,-0.01318300236016512,-0.06703644245862961
1634125172653274600,18.745274658203126,0.08674676716327667,-0.008464870974421501,-0.06807658821344376
1634125172673153300,18.7651533203125,0.06636159121990204,-0.01545647718012333,-0.04594264551997185
1634125172693033500,18.785033447265626,0.047634970396757126,0.0035296157002449036,-0.01809646189212799
1634125172712913400,18.804913330078126,0.03917699307203293,0.04432763531804085,0.000034901953767985106
1634125172732793600,18.824793701171874,0.04764274135231972,0.04899812489748001,-0.007560623809695244
1634125172752673500,18.844673583984374,0.05918094515800476,0.026242531836032867,-0.002987074665725231
1634125172772553500,18.864553466796874,0.06567075848579407,-0.026970399543642998,-0.004774297587573528
1634125172792432600,18.8844326171875,0.0991765558719635,-0.04740613326430321,0.009446032345294952
1634125172812312600,18.9043125,0.10444796830415726,-0.03018750622868538,0.014191010035574436
1634125172832192500,18.924192626953126,0.0996171310544014,0.02008829265832901,0.013287350535392761
1634125172852072400,18.944072509765626,0.08771205693483353,0.0427824929356575,0.03545546159148216
1634125172871952600,18.96395263671875,0.08237135410308838,0.05756863206624985,0.07185714691877365
1634125172891831600,18.98383154296875,0.10034367442131042,0.06638207286596298,0.1085379421710968
1634125172911711500,19.00371142578125,0.11830314993858337,0.0702052116394043,0.1127922460436821
1634125172931591400,19.02359130859375,0.11557499319314957,0.07696989923715591,0.09394599497318268
1634125172951471600,19.0434716796875,0.09074810147285461,0.0792422816157341,0.03652309998869896
1634125172971351600,19.0633515625,0.06469258666038513,0.05033265799283981,-0.019680682569742203
1634125172991231500,19.0832314453125,0.06249196454882622,0.024330563843250275,-0.04098207876086235
1634125173011110700,19.103110595703125,0.05798985809087753,0.03780825436115265,-0.026182740926742554
1634125173030990600,19.122990478515625,0.057841796427965164,0.08397496491670609,-0.018529485911130905
1634125173050870500,19.14287060546875,0.06325240433216095,0.12086489796638489,-0.00858568400144577
1634125173070750500,19.16275048828125,0.08010084182024002,0.11295928061008453,0.014838679693639278
1634125173090630700,19.182630615234373,0.09047642350196838,0.08582447469234467,0.04182733595371246
1634125173110509600,19.202509521484377,0.09543612599372864,0.04742928594350815,0.08216564357280731
1634125173130389500,19.222389404296877,0.086123988032341,0.030610747635364532,0.09918559342622757
1634125173150269400,19.24226953125,0.06608302891254425,0.07093007117509842,0.06245466694235802
1634125173170149600,19.262149658203125,0.06920412927865982,0.1425710916519165,-0.007816903293132782
1634125173190029600,19.282029541015625,0.08701205998659134,0.1580820381641388,-0.03859471529722214
1634125173209908500,19.301908447265625,0.12287943065166473,0.13782517611980438,-0.02240814082324505
1634125173229788400,19.321788330078125,0.12937217950820923,0.09821170568466187,0.006538175977766514
1634125173249668400,19.34166845703125,0.10953375697135925,0.08702827244997025,0.019132139161229134
1634125173269548300,19.36154833984375,0.07961171120405197,0.08426939696073532,0.005736629944294691
1634125173289428200,19.38142822265625,0.06879597157239914,0.06160261482000351,-0.01696225441992283
1634125173309307400,19.401307373046876,0.08299069851636887,0.020982805639505386,-0.02824610285460949
1634125173329187000,19.42118701171875,0.083809033036232,0.0024146754294633865,-0.014665290713310242
1634125173349067300,19.4410673828125,0.08597439527511597,0.026159364730119705,0.02252165786921978
1634125173368947200,19.460947265625,0.0838528424501419,0.0845876932144165,0.058653078973293304
1634125173388827400,19.480827392578124,0.08825655281543732,0.11700493842363358,0.06956209242343903
1634125173408707300,19.500707275390624,0.079134501516819,0.10371369868516922,0.06710117310285568
1634125173428586200,19.520586181640624,0.06374692171812057,0.10929346084594727,0.05558529868721962
1634125173448466200,19.540466064453124,0.052648961544036865,0.07104697823524475,0.09855502098798752
1634125173468346400,19.560346435546876,0.07230501621961594,-0.05448026582598686,0.1542290449142456
1634125173488226000,19.58022607421875,0.0878293439745903,-0.016561146825551987,0.08489671349525452
1634125173508106200,19.600106201171876,0.0585721954703331,0.10357331484556198,-0.06160540133714676
1634125173527985400,19.6199853515625,0.011311111971735954,0.10800526291131973,-0.16114792227745056
1634125173547865000,19.639864990234376,-0.02141074277460575,0.029751334339380264,-0.13594768941402435
1634125173567745300,19.659745361328124,-0.0221494622528553,-0.0269734188914299,-0.03260161727666855
1634125173587625200,19.679625244140624,0.007094955071806908,-0.005166679620742798,0.058130960911512375
1634125173607505400,19.69950537109375,0.03085530735552311,0.05514073371887207,0.076393261551857
1634125173627385300,19.71938525390625,0.02926741912961006,0.05634574219584465,0.06129489839076996
1634125173647264300,19.73926416015625,0.0017558499239385128,0.014189441688358784,0.05685743689537048
1634125173667144200,19.759144287109375,-0.041736796498298645,-0.0107910530641675,0.04114692285656929
1634125173687024400,19.7790244140625,-0.08781380206346512,-0.003639980684965849,0.019180534407496452
1634125173706904000,19.798904052734375,-0.09654568880796432,-0.04677963629364967,0.04247450456023216
1634125173726784300,19.8187841796875,-0.04207295924425125,-0.0700797364115715,0.07607937604188919
1634125173746663400,19.838663330078123,-0.016640521585941315,-0.06286785006523132,0.037953805178403854
1634125173766543000,19.858543212890623,-0.03961039334535599,-0.03698468208312988,-0.04571374133229256
1634125173786423300,19.87842333984375,-0.0622633658349514,-0.01621723547577858,-0.07515532523393631
1634125173806303200,19.89830322265625,-0.0800333321094513,-0.07304884493350983,-0.05792972072958946
1634125173826183400,19.918183349609375,-0.09999576210975647,-0.1022750586271286,-0.01638897694647312
1634125173846062000,19.93806201171875,-0.10364969074726105,-0.12421533465385437,0.00034156301990151405
1634125173865942300,19.9579423828125,-0.09878591448068619,-0.08154428005218506,-0.011920579709112644
1634125173885822200,19.977822265625,-0.09807002544403076,-0.03772936016321182,-0.020267870277166367
1634125173905702400,19.997702392578127,-0.09415943920612335,-0.01784513145685196,0.012334013357758522
1634125173925582000,20.01758203125,-0.089838907122612,-0.029098233208060265,0.03715489059686661
1634125173945461200,20.037461181640627,-0.11571262031793594,-0.0441264808177948,0.043718136847019196
1634125173965341400,20.057341552734375,-0.1275539994239807,-0.053181685507297516,0.03736260533332825
1634125173985221400,20.077221435546875,-0.1057903841137886,-0.01742183417081833,0.003625022480264306
1634125174005101300,20.097101318359375,-0.08406693488359451,-0.04421050846576691,-0.04003287851810455
1634125174024981200,20.116981201171875,-0.08490932732820511,-0.08276752382516861,-0.07680686563253403
1634125174044861400,20.136861328125,-0.10254966467618942,-0.10993371903896332,-0.10520171374082565
1634125174064740000,20.156739990234374,-0.12363114953041077,-0.10863533616065979,-0.09325708448886871
1634125174084620300,20.176620361328126,-0.11916282773017883,-0.08843890577554703,-0.04499996453523636
1634125174104500200,20.196500244140626,-0.08526507765054703,-0.07447359710931778,-0.017835834994912148
1634125174124380400,20.21638037109375,-0.033509574830532074,-0.038974061608314514,-0.018750423565506935
1634125174144260000,20.236260009765626,-0.00463263550773263,0.00244717113673687,-0.01888466067612171
1634125174164139300,20.25613916015625,0.00673263892531395,-0.006437129341065884,-0.001371994731016457
1634125174184019200,20.276019287109374,-0.0025838855654001236,-0.03922009840607643,0.03641758859157562
1634125174203899400,20.2958994140625,-0.00437396764755249,-0.03483165428042412,0.03177473321557045
1634125174223779300,20.315779296875,0.024227198213338852,0.022598978132009506,0.005759068299084902
1634125174243659300,20.3356591796875,0.03771074861288071,0.060395654290914536,0.012752903625369072
1634125174263538200,20.3555380859375,0.02683110348880291,0.0456237718462944,0.03887816518545151
1634125174283418000,20.375418212890626,0.002354272175580263,0.00038682110607624054,0.042932428419589996
1634125174303298300,20.39529833984375,-0.003280187724158168,-0.000828922726213932,0.018496733158826828
1634125174323178000,20.415177978515626,0.023859329521656036,-0.007699298206716776,0.00433481577783823
1634125174343058200,20.43505810546875,0.05718059837818146,0.1439925581216812,0.2054913192987442
1634125174362937000,20.45493701171875,0.05015352740883827,0.15417510271072388,0.23679456114768982
1634125174382817000,20.474817138671874,-0.01042046770453453,0.09585652500391006,0.11830325424671173
1634125174402697000,20.494697021484374,-0.06777428090572357,-0.09546095132827759,-0.07676038146018982
1634125174422577200,20.5145771484375,-0.12378042191267014,-0.3286013603210449,-0.29511475563049316
1634125174442457000,20.53445703125,-0.18541760742664337,-0.4457170069217682,-0.34638506174087524
