time,seconds_elapsed,z,y,x
1634125153946290000,0.0382900390625,21.03350830078125,-16.657243728637695,40.830413818359375
1634125153966169900,0.058169921875,20.84466552734375,-16.748579025268555,40.926944732666016
1634125153986049800,0.0780498046875,21.201507568359375,-16.893362045288086,41.371055603027344
1634125154005930000,0.097929931640625,21.29644775390625,-17.021242141723633,41.252838134765625
1634125154025810000,0.117809814453125,21.22076416015625,-16.974607467651367,41.22563552856445
1634125154045689900,0.13768994140625,20.867767333984375,-17.15620231628418,41.030006408691406
1634125154065569800,0.15756982421875,21.467041015625,-17.145837783813477,41.119789123535156
1634125154085450000,0.177449951171875,21.557403564453125,-17.31260108947754,41.11602020263672
1634125154105330000,0.197329833984375,21.221832275390625,-17.328325271606445,40.87754821777344
1634125154125210000,0.217210205078125,21.3074951171875,-17.173166275024414,41.11668395996094
1634125154145089800,0.23708984375,21.156524658203125,-17.29325294494629,40.941429138183594
1634125154164970000,0.256969970703125,20.960723876953125,-16.836816787719727,40.88816833496094
1634125154184850000,0.276849853515625,21.1549072265625,-17.155752182006836,40.91248321533203
1634125154204730000,0.296730224609375,20.920074462890625,-17.292699813842773,41.18943786621094
1634125154224609500,0.316609619140625,20.842559814453125,-17.100366592407227,41.07424545288086
1634125154244489700,0.33648974609375,20.86602783203125,-17.323915481567383,41.092872619628906
1634125154264369700,0.35636962890625,20.786834716796875,-17.14255714416504,41.102230072021484
1634125154284249600,0.37624951171875,20.57757568359375,-17.146528244018555,41.15876007080078
1634125154304129500,0.396129638671875,20.35467529296875,-17.17673683166504,41.47993469238281
1634125154324009700,0.416009765625,20.32110595703125,-17.38161277770996,41.35289764404297
1634125154343889700,0.4358896484375,20.248077392578125,-17.581911087036133,41.068946838378906
1634125154363769600,0.45576953125,20.250885009765625,-17.585046768188477,41.31080627441406
1634125154383649500,0.4756494140625,20.250213623046875,-17.006772994995117,41.32636260986328
1634125154403529700,0.49552978515625,19.69720458984375,-17.19307518005371,41.53183364868164
1634125154423409700,0.51540966796875,19.861083984375,-16.98871421813965,41.810516357421875
1634125154443289900,0.535289794921875,19.526580810546875,-16.692293167114258,41.78425598144531
1634125154463169500,0.55516943359375,19.797698974609375,-16.51023292541504,41.940574645996094
1634125154483049700,0.5750498046875,19.86236572265625,-15.66712760925293,42.23096466064453
1634125154502929700,0.5949296875,19.9163818359375,-15.274591445922852,42.46284866333008
1634125154522808600,0.61480859375,19.80859375,-14.427846908569336,42.48181915283203
1634125154542688500,0.6346884765625,19.916046142578125,-13.751153945922852,42.51594543457031
1634125154562568700,0.654568603515625,20.058746337890625,-12.573690414428711,42.86076736450195
1634125154582448600,0.67444873046875,19.922698974609375,-11.716363906860352,43.29340362548828
1634125154602328600,0.69432861328125,19.73211669921875,-10.40717887878418,43.69661331176758
1634125154622208500,0.71420849609375,19.82952880859375,-8.96156120300293,44.229164123535156
1634125154642088700,0.734088623046875,19.743408203125,-7.469175338745117,44.792640686035156
1634125154661968600,0.75396875,19.111785888671875,-6.19230842590332,45.14590835571289
1634125154681848600,0.7738486328125,19.38287353515625,-5.1894378662109375,45.17052459716797
1634125154701728500,0.793728515625,19.01654052734375,-4.201131820678711,45.44285583496094
1634125154721608700,0.813608642578125,18.545867919921875,-3.29248046875,45.583740234375
1634125154741488600,0.833488525390625,18.37615966796875,-2.3550033569335938,46.04692459106445
1634125154761368800,0.853368896484375,18.323516845703125,-1.808746337890625,46.33037185668945
1634125154781248500,0.87324853515625,17.334503173828125,-1.365030288696289,46.42488098144531
1634125154801128700,0.893128662109375,16.70159912109375,-0.8530406951904297,46.63855743408203
1634125154821008600,0.913008544921875,16.24468994140625,-0.39776611328125,46.73785400390625
1634125154840888800,0.932888916015625,15.44451904296875,-0.24473190307617188,47.10393524169922
1634125154860768500,0.9527685546875,15.032928466796875,0.1621551513671875,47.11209487915039
1634125154880648700,0.972648681640625,14.701171875,0.7945766448974609,47.166194915771484
1634125154900528600,0.992528564453125,13.852752685546875,1.0661869049072266,47.596595764160156
1634125154920408800,1.012408935546875,13.38995361328125,1.339406967163086,47.78863525390625
1634125154940288500,1.03228857421875,12.32257080078125,1.899801254272461,47.877967834472656
1634125154960168700,1.052168701171875,11.7293701171875,1.7399330139160156,47.84053039550781
1634125154980048600,1.072048583984375,11.602691650390625,2.148317337036133,48.387908935546875
1634125154999928800,1.0919287109375,10.342803955078125,2.3151779174804688,48.33351135253906
1634125155019808500,1.11180859375,9.75506591796875,2.597179412841797,48.57615661621094
1634125155039688700,1.131688720703125,9.623779296875,2.688291549682617,48.19507598876953
1634125155059568600,1.151568603515625,8.923828125,2.634204864501953,48.54267501831055
1634125155079448600,1.171448486328125,8.483428955078125,2.5513229370117188,48.53611755371094
1634125155099328800,1.191328857421875,8.852630615234375,2.498350143432617,48.70635986328125
1634125155119208400,1.21120849609375,9.2623291015625,2.1194496154785156,48.55168914794922
1634125155139088600,1.231088623046875,9.3740234375,1.9646282196044922,48.4010009765625
1634125155158968600,1.250968505859375,9.67633056640625,1.6480827331542969,48.588592529296875
1634125155178847500,1.270847412109375,9.2906494140625,1.4948902130126953,48.45062255859375
1634125155198727700,1.290727783203125,8.8492431640625,0.7221813201904297,48.56833267211914
1634125155218607900,1.31060791015625,8.49139404296875,-0.1469745635986328,48.665199279785156
1634125155238488000,1.330488037109375,8.605865478515625,-0.25585365295410156,48.45347213745117
1634125155258368000,1.350367919921875,8.742767333984375,-0.3139972686767578,48.47161102294922
1634125155278248000,1.370248046875,9.864990234375,-0.11549186706542969,48.51425552368164
1634125155298128000,1.3901279296875,10.510040283203125,-0.06144523620605469,48.04948806762695
1634125155318008000,1.410008056640625,11.216949462890625,0.4824237823486328,48.021915435791016
1634125155337888000,1.429887939453125,11.63916015625,0.693023681640625,47.724159240722656
1634125155357768000,1.449767822265625,12.24566650390625,0.9692745208740234,47.79501724243164
1634125155377647900,1.46964794921875,12.910797119140625,1.0239009857177734,47.555809020996094
1634125155397527800,1.48952783203125,13.45843505859375,1.0669517517089844,47.51387023925781
1634125155417408000,1.509407958984375,13.412200927734375,0.9909439086914062,47.292945861816406
1634125155437288000,1.529287841796875,13.763641357421875,0.9625339508056641,47.3387565612793
1634125155457168000,1.54916796875,14.323883056640625,0.9828853607177734,47.33616638183594
1634125155477047800,1.5690478515625,14.569061279296875,0.8627815246582031,47.28593444824219
1634125155496928000,1.588927978515625,14.53277587890625,0.8885173797607422,47.138511657714844
1634125155516808000,1.608807861328125,14.50909423828125,0.9162921905517578,46.774024963378906
1634125155536687900,1.62868798828125,14.600555419921875,0.47316741943359375,46.98774719238281
1634125155556567800,1.64856787109375,15.365875244140625,0.21398353576660156,46.81349563598633
1634125155576448000,1.668447998046875,15.337738037109375,0.17616844177246094,46.81713104248047
1634125155596328000,1.688327880859375,15.316436767578125,-0.08855247497558594,46.66773223876953
1634125155616208000,1.708207763671875,15.43402099609375,-0.19823074340820312,46.80165100097656
1634125155636087800,1.728087890625,15.717071533203125,-0.26285552978515625,46.62614440917969
1634125155655968000,1.747968017578125,15.280731201171875,-0.3974590301513672,46.80717468261719
1634125155675848000,1.767847900390625,14.9849853515625,-0.26136207580566406,46.441497802734375
1634125155695726800,1.787726806640625,14.86572265625,-0.3284435272216797,46.73832321166992
1634125155715607800,1.80760791015625,15.020782470703125,-0.40467071533203125,46.94948196411133
1634125155735487000,1.827487060546875,15.065185546875,-0.3446178436279297,46.948524475097656
1634125155755367200,1.8473671875,15.3798828125,-0.20779037475585938,46.741661071777344
1634125155775246800,1.867246826171875,15.604705810546875,-0.5593662261962891,46.71549606323242
1634125155795127000,1.887126953125,15.732696533203125,-0.7256641387939453,46.656578063964844
1634125155815007000,1.907007080078125,15.99774169921875,-0.45894813537597656,46.58782958984375
1634125155834887000,1.926886962890625,15.794403076171875,-0.7428741455078125,46.498050689697266
1634125155854766800,1.946766845703125,16.267822265625,-1.0454235076904297,46.50898742675781
1634125155874646800,1.966646728515625,16.314483642578125,-0.7976722717285156,46.292232513427734
1634125155894527000,1.98652685546875,16.412017822265625,-0.9758987426757812,46.44538116455078
1634125155914407000,2.006406982421875,16.5125732421875,-1.2991657257080078,46.53519821166992
1634125155934286800,2.026286865234375,16.55828857421875,-1.2168540954589844,46.3529052734375
1634125155954166800,2.046166748046875,16.833251953125,-1.3886775970458984,46.42890930175781
1634125155974047000,2.066046875,17.183441162109375,-1.8862457275390625,46.15093994140625
1634125155993927000,2.085927001953125,17.774810791015625,-2.0448226928710938,46.48428726196289
1634125156013806800,2.105806884765625,17.69549560546875,-2.144041061401367,46.26703643798828
1634125156033686800,2.125686767578125,18.289794921875,-2.4269752502441406,45.99794387817383
1634125156053567000,2.14556689453125,18.63458251953125,-2.6740894317626953,45.6515998840332
1634125156073447000,2.165447021484375,18.499267578125,-2.777189254760742,45.823326110839844
1634125156093327000,2.1853271484375,18.21826171875,-2.73358154296875,45.639862060546875
1634125156113206800,2.205206787109375,18.781524658203125,-2.818876266479492,45.511009216308594
1634125156133087000,2.2250869140625,18.41253662109375,-3.104074478149414,45.581787109375
1634125156152967000,2.244966796875,18.3201904296875,-3.219907760620117,45.268585205078125
1634125156172847000,2.26484716796875,18.8170166015625,-3.187288284301758,45.70539855957031
1634125156192726000,2.28472607421875,18.790924072265625,-2.9048080444335938,45.6142578125
1634125156212606000,2.30460595703125,18.579345703125,-2.671632766723633,45.65898132324219
1634125156232486100,2.324486083984375,18.62811279296875,-2.5251693725585938,45.670433044433594
1634125156252366000,2.344365966796875,18.96356201171875,-2.3002147674560547,45.7686767578125
1634125156272246000,2.36424609375,18.800384521484375,-2.0634021759033203,45.79498291015625
1634125156292126200,2.384126220703125,18.92266845703125,-2.1231212615966797,45.732566833496094
1634125156312006100,2.404006103515625,18.8795166015625,-1.3494834899902344,45.93914031982422
1634125156331886000,2.423885986328125,18.77276611328125,-1.3580894470214844,45.84101104736328
1634125156351766000,2.44376611328125,18.68475341796875,-0.8131580352783203,45.893470764160156
1634125156371646200,2.463646240234375,18.3228759765625,-0.5857772827148438,45.969120025634766
1634125156391526100,2.483526123046875,18.246734619140625,-0.34682655334472656,46.10084915161133
1634125156411406000,2.503406005859375,18.023040771484375,-0.004619598388671875,45.686607360839844
1634125156431286000,2.5232861328125,18.16754150390625,0.2526073455810547,45.75800323486328
1634125156451166200,2.543166259765625,18.142425537109375,0.5138130187988281,46.06044387817383
1634125156471046100,2.563046142578125,18.19171142578125,1.0199565887451172,45.853515625
1634125156490926000,2.582926025390625,18.829864501953125,1.2601146697998047,45.581119537353516
1634125156510806000,2.602805908203125,18.9053955078125,1.4117107391357422,45.7526741027832
1634125156530686200,2.622686279296875,19.003753662109375,1.4035167694091797,45.726531982421875
1634125156550566100,2.642566162109375,18.4798583984375,1.19830322265625,45.652854919433594
1634125156570446300,2.6624462890625,18.766845703125,1.5356922149658203,45.63954544067383
1634125156590326000,2.682325927734375,18.24127197265625,1.55303955078125,45.78755187988281
1634125156610206200,2.702206298828125,18.075775146484375,1.83697509765625,45.8148078918457
1634125156630085000,2.722085205078125,18.086669921875,1.8030033111572266,46.05398178100586
1634125156649965000,2.741965087890625,17.441436767578125,1.9114017486572266,45.91923522949219
1634125156669845000,2.761844970703125,17.671630859375,1.661092758178711,46.10163116455078
1634125156689725200,2.78172509765625,17.69061279296875,1.6174945831298828,46.22010040283203
1634125156709605000,2.801605224609375,17.901580810546875,1.4746780395507812,46.494415283203125
1634125156729485000,2.821485107421875,18.080596923828125,1.4790363311767578,46.34925842285156
1634125156749365000,2.841364990234375,18.0997314453125,1.516927719116211,46.15442657470703
1634125156769245200,2.8612451171875,18.13916015625,1.3931293487548828,45.834468841552734
1634125156789125000,2.881125,18.2752685546875,1.441864013671875,46.07072067260742
1634125156809005300,2.90100537109375,17.49761962890625,1.3449764251708984,45.97300338745117
1634125156828885000,2.920885009765625,17.391448974609375,1.4990177154541016,46.05235290527344
1634125156848765200,2.94076513671875,17.56280517578125,1.5842704772949219,46.17250061035156
1634125156868645000,2.96064501953125,17.5264892578125,1.6554203033447266,46.264678955078125
1634125156888525300,2.980525390625,17.339111328125,1.3979339599609375,46.20115661621094
1634125156908405000,3.000405029296875,17.933349609375,1.4043407440185547,46.31294631958008
1634125156928285200,3.02028515625,18.02685546875,1.5610218048095703,46.232521057128906
1634125156948165000,3.0401650390625,18.062255859375,1.2497005462646484,46.39754867553711
1634125156968045300,3.06004541015625,18.1888427734375,1.0867671966552734,46.38066482543945
1634125156987925000,3.079925048828125,18.152740478515625,0.9180755615234375,46.027496337890625
1634125157007805200,3.09980517578125,18.51922607421875,1.058553695678711,45.94889831542969
1634125157027685000,3.11968505859375,18.5179443359375,1.1882095336914062,45.792110443115234
1634125157047565300,3.1395654296875,18.598175048828125,0.9231224060058594,45.981353759765625
1634125157067444000,3.15944384765625,18.432525634765625,0.9457893371582031,45.7249755859375
1634125157087324200,3.17932421875,18.50274658203125,0.7965297698974609,45.76633071899414
1634125157107204000,3.1992041015625,18.46435546875,0.6936836242675781,45.791603088378906
1634125157127084300,3.219084228515625,18.505218505859375,0.58453369140625,45.93389129638672
1634125157146964000,3.2389638671875,18.09100341796875,0.5988368988037109,46.096153259277344
1634125157166844200,3.25884423828125,18.49072265625,0.2965202331542969,46.0053825378418
1634125157186724000,3.27872412109375,18.827667236328125,-0.07952880859375,45.53315734863281
1634125157206604300,3.298604248046875,18.852691650390625,-0.09704208374023438,45.75507354736328
1634125157226483700,3.318483642578125,18.816131591796875,-0.14142799377441406,45.774993896484375
1634125157246364000,3.338364013671875,18.489044189453125,-0.2229022979736328,45.70750427246094
1634125157266243800,3.358243896484375,18.924407958984375,-0.6690044403076172,45.89337921142578
1634125157286124000,3.3781240234375,18.4847412109375,-0.37322044372558594,45.70072555541992
1634125157306003700,3.398003662109375,18.49365234375,-0.5244388580322266,45.71328353881836
1634125157325884000,3.4178837890625,18.558197021484375,-0.4988365173339844,45.9663200378418
1634125157345763800,3.437763916015625,18.828277587890625,-0.751495361328125,45.60521697998047
1634125157365644000,3.45764404296875,19.016357421875,-0.7523612976074219,45.83841323852539
1634125157385523700,3.477523681640625,18.4073486328125,-0.6173171997070312,46.056617736816406
1634125157405404000,3.49740380859375,18.654449462890625,-0.8924655914306641,45.97488784790039
1634125157425283800,3.517283935546875,18.693328857421875,-0.9365882873535156,45.77307891845703
1634125157445164000,3.5371640625,18.820556640625,-0.7851333618164062,45.92549514770508
1634125157465043000,3.55704296875,18.961517333984375,-0.9437351226806641,46.159942626953125
1634125157484923000,3.5769228515625,18.68328857421875,-0.8607673645019531,46.07832717895508
1634125157504802800,3.596802734375,18.83233642578125,-0.7112159729003906,46.02247619628906
1634125157524683000,3.61668310546875,18.799591064453125,-0.4600658416748047,46.15178680419922
1634125157544563000,3.63656298828125,18.91253662109375,-0.9100265502929688,46.05337905883789
1634125157564443000,3.65644287109375,18.693206787109375,-0.6327991485595703,45.85645294189453
1634125157584322800,3.67632275390625,18.625213623046875,-0.5811634063720703,45.87806701660156
1634125157604203000,3.696203125,18.902618408203125,-0.3407154083251953,45.898216247558594
1634125157624082700,3.716082763671875,18.253265380859375,-0.6020793914794922,45.993778228759766
1634125157643963000,3.735962890625,18.5975341796875,-0.26062774658203125,45.94902038574219
1634125157663842800,3.7558427734375,18.29156494140625,0.10134315490722656,45.72444534301758
1634125157683723000,3.775722900390625,17.99884033203125,0.01171875,45.76579284667969
1634125157703602700,3.795602783203125,18.500732421875,-0.10448455810546875,46.22203826904297
1634125157723483000,3.81548291015625,18.3824462890625,-0.11746406555175781,46.097557067871094
1634125157743362800,3.83536279296875,18.49761962890625,0.058544158935546875,45.94627380371094
1634125157763243000,3.855242919921875,18.3592529296875,0.11280059814453125,46.00653839111328
1634125157783122700,3.875122802734375,17.921051025390625,0.4323406219482422,46.0246696472168
1634125157803003000,3.8950029296875,18.04302978515625,0.08649444580078125,46.16291427612305
1634125157822882800,3.9148828125,17.874908447265625,0.20184898376464844,46.12604522705078
1634125157842762000,3.934761962890625,17.486846923828125,0.13662147521972656,45.991695404052734
1634125157862642000,3.954641845703125,17.722381591796875,0.3097953796386719,46.206687927246094
1634125157882521900,3.97452197265625,17.46368408203125,0.5787162780761719,46.36033630371094
1634125157902402000,3.994402099609375,17.700897216796875,0.5924320220947266,46.492576599121094
1634125157922282000,4.014281982421875,17.63775634765625,0.789886474609375,46.32759094238281
1634125157942162000,4.034161865234375,17.192596435546875,0.6772384643554688,46.18560791015625
1634125157962041900,4.054041748046875,17.58447265625,0.8742160797119141,46.54351806640625
1634125157981921800,4.073921875,17.699493408203125,0.9382514953613281,46.53974151611328
1634125158001802000,4.093802001953125,17.592803955078125,0.6915264129638672,46.241085052490234
1634125158021681700,4.113681640625,17.060638427734375,0.9294147491455078,46.434417724609375
1634125158041561900,4.133561767578125,16.655975341796875,0.7272281646728516,46.333370208740234
1634125158061441800,4.15344189453125,16.969268798828125,1.0339012145996094,46.34453201293945
1634125158081322000,4.173322021484375,16.744110107421875,0.654541015625,46.553932189941406
1634125158101202000,4.193201904296875,16.741851806640625,0.6960868835449219,46.554588317871094
1634125158121081900,4.213081787109375,17.0821533203125,0.7660751342773438,46.371158599853516
1634125158140961800,4.2329619140625,16.85467529296875,1.2800159454345703,46.3854866027832
1634125158160842000,4.252842041015625,16.64837646484375,1.1614112854003906,46.4670524597168
1634125158180722000,4.272721923828125,16.5240478515625,1.454538345336914,46.36624526977539
1634125158200601900,4.292601806640625,16.59613037109375,1.5202770233154297,46.302249908447266
1634125158220482000,4.31248193359375,16.66827392578125,1.4945621490478516,46.37038040161133
1634125158240361000,4.33236083984375,16.777313232421875,1.3746986389160156,46.47919845581055
1634125158260241200,4.3522412109375,16.46044921875,1.42974853515625,46.48371505737305
1634125158280121000,4.37212109375,16.763519287109375,1.5440406799316406,46.801963806152344
1634125158300001000,4.3920009765625,16.477508544921875,1.5745735168457031,46.63549041748047
1634125158319881000,4.411880859375,16.12945556640625,1.5884857177734375,46.69271469116211
1634125158339761000,4.431760986328125,16.566741943359375,1.5518550872802734,46.36370086669922
1634125158359641000,4.45164111328125,16.80743408203125,1.6491565704345703,46.515235900878906
1634125158379521000,4.47152099609375,16.80938720703125,1.4650516510009766,46.49775695800781
1634125158399401000,4.49140087890625,16.646820068359375,1.4003963470458984,46.39699172973633
1634125158419281000,4.511281005859375,16.625518798828125,1.2128677368164062,46.424659729003906
1634125158439161000,4.5311611328125,16.630126953125,1.4532032012939453,46.574676513671875
1634125158459041000,4.551041015625,16.643768310546875,1.7283515930175781,46.57237243652344
1634125158478921000,4.5709208984375,16.67974853515625,1.7039165496826172,46.5542106628418
1634125158498801000,4.59080078125,17.3140869140625,1.2650814056396484,46.621707916259766
1634125158518681000,4.61068115234375,16.883026123046875,1.2532234191894531,46.45895767211914
1634125158538561000,4.63056103515625,17.18011474609375,1.1605224609375,46.519683837890625
1634125158558441000,4.65044091796875,17.27081298828125,0.9944000244140625,46.48960876464844
1634125158578321000,4.67032080078125,17.4759521484375,1.0212173461914062,46.37083053588867
1634125158598200000,4.690199951171875,17.10980224609375,1.1473522186279297,46.535980224609375
1634125158618080000,4.710080078125,17.1416015625,1.253194808959961,46.63046646118164
1634125158637960000,4.7299599609375,17.21453857421875,1.0928211212158203,46.52692413330078
1634125158657840000,4.749840087890625,17.469696044921875,1.041891098022461,46.53400421142578
1634125158677720000,4.769719970703125,17.445831298828125,1.0975227355957031,46.365570068359375
1634125158697600000,4.78960009765625,17.382720947265625,1.2606525421142578,46.72635269165039
1634125158717480000,4.80947998046875,17.1529541015625,1.1275157928466797,46.78539276123047
1634125158737360100,4.829360107421875,16.657073974609375,1.07855224609375,46.76101303100586
1634125158757240000,4.849239990234375,17.115570068359375,1.01397705078125,46.629241943359375
1634125158777120000,4.8691201171875,17.588348388671875,1.1272048950195312,46.588565826416016
1634125158797000000,4.889,17.11572265625,1.1913928985595703,46.43367004394531
1634125158816879900,4.9088798828125,17.028167724609375,1.046762466430664,46.556705474853516
1634125158836760000,4.928760009765625,17.27374267578125,0.9553127288818359,46.475975036621094
1634125158856640000,4.948639892578125,17.141998291015625,1.0626163482666016,46.635074615478516
1634125158876520000,4.96852001953125,16.792205810546875,1.1190719604492188,46.75712585449219
1634125158896400000,4.98839990234375,17.14990234375,1.1448307037353516,46.862430572509766
1634125158916279000,5.008279052734375,17.298858642578125,1.0886058807373047,46.667598724365234
1634125158936159200,5.0281591796875,17.1868896484375,1.1034927368164062,46.435546875
1634125158956039000,5.048038818359375,16.831146240234375,1.2961082458496094,46.302249908447266
1634125158975919000,5.067919189453125,17.6556396484375,1.0868110656738281,46.474876403808594
1634125158995799000,5.087799072265625,17.11627197265625,1.4446659088134766,46.4249267578125
1634125159015679200,5.10767919921875,17.541961669921875,1.2860889434814453,46.497230529785156
1634125159035559000,5.127558837890625,17.51910400390625,1.0878887176513672,46.31672286987305
1634125159055439000,5.147439208984375,17.831207275390625,0.7783412933349609,46.253883361816406
1634125159075319000,5.167319091796875,17.376678466796875,0.6635208129882812,46.29969024658203
1634125159095199200,5.18719921875,17.591278076171875,0.7226390838623047,46.15467071533203
1634125159115079000,5.207078857421875,17.573638916015625,0.5364875793457031,46.16131591796875
1634125159134959000,5.226958984375,17.553619384765625,0.6255779266357422,46.10706329345703
1634125159154839000,5.246839111328125,17.6884765625,0.6579818725585938,46.15483856201172
1634125159174719000,5.266718994140625,18.114410400390625,0.3296947479248047,46.263057708740234
1634125159194599000,5.286598876953125,18.01654052734375,0.4656639099121094,46.19641876220703
1634125159214478800,5.306478759765625,17.99774169921875,0.3969593048095703,45.98430252075195
1634125159234360800,5.32636083984375,17.98907470703125,0.17314910888671875,46.02573776245117
1634125159254241000,5.346240966796875,18.002197265625,0.2739982604980469,45.83930587768555
1634125159274121000,5.366120849609375,18.079254150390625,-0.07463645935058594,45.994789123535156
1634125159294001200,5.386001220703125,17.671234130859375,0.03306388854980469,45.81787872314453
1634125159313880800,5.405880859375,18.057464599609375,-0.09231948852539062,46.150508880615234
1634125159333761000,5.425760986328125,18.279754638671875,-0.09262657165527344,46.14223098754883
1634125159353641000,5.445640869140625,18.381622314453125,0.18978118896484375,46.26695251464844
1634125159373521200,5.465521240234375,18.222991943359375,-0.09209060668945312,46.32773208618164
1634125159393400800,5.48540087890625,18.1759033203125,-0.02416229248046875,46.12395477294922
1634125159413281000,5.505281005859375,18.29296875,0.03248786926269531,45.99900436401367
1634125159433161000,5.525160888671875,17.985504150390625,0.09156990051269531,46.274375915527344
1634125159453041200,5.545041259765625,17.7557373046875,0.3038978576660156,46.246299743652344
1634125159472921000,5.564921142578125,18.209259033203125,0.12418746948242188,46.351226806640625
1634125159492801000,5.584801025390625,17.71234130859375,0.22234535217285156,46.36789321899414
1634125159512680000,5.604679931640625,17.871795654296875,0.008975982666015625,46.36145782470703
1634125159532560100,5.62456005859375,17.79693603515625,-0.03550529479980469,46.15779495239258
1634125159552439800,5.644439697265625,17.68994140625,-0.07207107543945312,46.25098419189453
1634125159572320000,5.664320068359375,18.17864990234375,-0.17841148376464844,45.83692169189453
1634125159592200000,5.684199951171875,17.8167724609375,-0.3377971649169922,45.84928512573242
1634125159612080000,5.704080078125,17.885955810546875,-0.2320079803466797,45.87873458862305
1634125159631959800,5.723959716796875,17.67803955078125,-0.2775993347167969,45.84839630126953
1634125159651840000,5.743840087890625,17.71099853515625,-0.31209564208984375,45.77027893066406
1634125159671720000,5.763719970703125,18.351959228515625,-0.16567230224609375,46.01708221435547
1634125159691600100,5.78360009765625,18.053253173828125,-0.5235881805419922,46.07964324951172
1634125159711479800,5.803479736328125,17.746002197265625,-0.5580615997314453,46.08479309082031
1634125159731360000,5.823360107421875,17.185272216796875,-0.37671852111816406,46.126426696777344
1634125159751240000,5.843239990234375,17.698699951171875,-0.42536354064941406,46.15473175048828
1634125159771120000,5.8631201171875,17.750030517578125,-0.5066013336181641,46.04002380371094
1634125159791000000,5.883,17.571319580078125,-0.7252578735351562,46.221256256103516
1634125159810880000,5.9028798828125,17.5787353515625,-0.8235416412353516,46.13148880004883
1634125159830759200,5.92275927734375,17.5062255859375,-0.8356971740722656,45.882720947265625
1634125159850639000,5.94263916015625,17.452728271484375,-0.6976203918457031,46.019527435302734
1634125159870519000,5.96251904296875,17.852264404296875,-0.8491954803466797,46.33604431152344
1634125159890399000,5.98239892578125,17.527130126953125,-0.8443679809570312,46.03904342651367
1634125159910279000,6.00227880859375,17.26171875,-0.8093395233154297,45.9449462890625
1634125159930159000,6.0221591796875,17.679962158203125,-0.7711315155029297,46.054351806640625
1634125159950038800,6.042038818359375,17.74017333984375,-0.9025859832763672,46.135833740234375
1634125159969919000,6.0619189453125,17.86431884765625,-0.9249820709228516,46.00403594970703
1634125159989799000,6.081798828125,17.644317626953125,-0.734405517578125,45.79446029663086
1634125160009679000,6.10167919921875,17.7476806640625,-0.8098354339599609,45.756935119628906
1634125160029559000,6.12155908203125,17.85308837890625,-0.9666576385498047,46.22689437866211
1634125160049439000,6.14143896484375,17.720306396484375,-0.6849899291992188,46.111602783203125
1634125160069319000,6.16131884765625,17.703521728515625,-0.8410797119140625,46.079383850097656
1634125160089199000,6.18119921875,17.323638916015625,-0.6708145141601562,45.82653045654297
1634125160109078000,6.201078125,17.67864990234375,-0.5835685729980469,45.887489318847656
1634125160128958000,6.2209580078125,17.653961181640625,-0.6553840637207031,45.965206146240234
1634125160148838100,6.240838134765625,17.696136474609375,-0.6669731140136719,46.06350326538086
1634125160168718000,6.260718017578125,17.862640380859375,-0.46976280212402344,46.087188720703125
1634125160188598000,6.280597900390625,18.067718505859375,-0.38092803955078125,45.980430603027344
1634125160208478000,6.30047802734375,18.047760009765625,-0.4612903594970703,46.07909393310547
1634125160228354600,6.3203544921875,17.894256591796875,-0.6940250396728516,45.89934539794922
1634125160248234500,6.340234375,17.82916259765625,-0.5319499969482422,46.11675262451172
1634125160268114400,6.360114501953125,18.127716064453125,-0.5229301452636719,45.967613220214844
1634125160287994400,6.379994384765625,17.780426025390625,-0.5040626525878906,45.90808868408203
1634125160307874600,6.39987451171875,18.071136474609375,-0.6981887817382812,45.93299102783203
1634125160327754500,6.41975439453125,18.02001953125,-0.5920772552490234,45.92988586425781
1634125160347634400,6.439634521484375,17.6693115234375,-0.4463176727294922,46.161766052246094
1634125160367514400,6.459514404296875,17.364837646484375,-0.7401256561279297,46.08411407470703
1634125160387394300,6.479394287109375,18.00604248046875,-0.7405967712402344,46.216644287109375
1634125160407273200,6.499273193359375,17.86077880859375,-0.5086498260498047,46.10224914550781
1634125160427153400,6.5191533203125,17.878204345703125,-0.7703018188476562,45.833370208740234
1634125160447033300,6.539033447265625,17.66131591796875,-0.7008075714111328,45.88826370239258
1634125160466913500,6.55891357421875,17.6849365234375,-0.7091503143310547,46.091217041015625
1634125160486793200,6.578793212890625,17.84588623046875,-0.5407123565673828,46.067684173583984
1634125160506673400,6.59867333984375,17.829315185546875,-0.699066162109375,46.060699462890625
1634125160526553300,6.61855322265625,17.61676025390625,-0.6585788726806641,45.89434814453125
1634125160546433500,6.63843359375,17.51025390625,-0.6969223022460938,45.84872817993164
1634125160566313500,6.6583134765625,17.61871337890625,-0.4305267333984375,45.91368865966797
1634125160586193400,6.678193359375,17.637542724609375,-0.7315158843994141,46.07935333251953
1634125160606073300,6.6980732421875,17.254608154296875,-0.4963417053222656,46.350547790527344
1634125160625953500,6.71795361328125,17.264312744140625,-0.5567169189453125,46.29416275024414
1634125160645832200,6.737832275390625,17.407958984375,-0.3618049621582031,46.19062042236328
1634125160665712400,6.75771240234375,17.1400146484375,-0.8330955505371094,46.24976348876953
1634125160685592300,6.77759228515625,17.002197265625,-0.7717037200927734,46.317771911621094
1634125160705472500,6.797472412109375,17.458770751953125,-0.7590522766113281,46.18325424194336
1634125160725352200,6.817352294921875,17.588775634765625,-0.6370944976806641,46.27434158325195
1634125160745232400,6.837232421875,17.02947998046875,-0.8234195709228516,46.502220153808594
1634125160765112300,6.8571123046875,17.146270751953125,-0.6154594421386719,46.517337799072266
1634125160784992500,6.876992431640625,16.94866943359375,-0.7503223419189453,46.4541015625
1634125160804872400,6.89687255859375,17.182952880859375,-0.7607326507568359,46.622440338134766
1634125160824752400,6.91675244140625,16.953704833984375,-0.8407859802246094,46.564327239990234
1634125160844632300,6.93663232421875,17.30572509765625,-0.7603836059570312,46.39598083496094
1634125160864512500,6.956512451171875,17.41717529296875,-0.8046779632568359,46.37683868408203
1634125160884392400,6.976392333984375,17.309814453125,-0.9399681091308594,46.3793830871582
1634125160904272400,6.9962724609375,16.96673583984375,-0.7790489196777344,46.583412170410156
1634125160924151300,7.0161513671875,16.720794677734375,-0.9705829620361328,46.33296203613281
1634125160944031500,7.036031494140625,16.8115234375,-0.9143714904785156,46.16231155395508
1634125160963911200,7.0559111328125,17.11895751953125,-0.9771556854248047,46.24585723876953
1634125160983791400,7.075791259765625,16.99066162109375,-1.118703842163086,46.24942398071289
1634125161003671300,7.09567138671875,16.9371337890625,-1.1319732666015625,46.314369201660156
1634125161023551500,7.115551513671875,17.1435546875,-1.1493453979492188,46.456600189208984
1634125161043431200,7.13543115234375,16.95733642578125,-1.086282730102539,46.41644287109375
1634125161063311400,7.155311279296875,16.8402099609375,-1.266387939453125,46.37876892089844
1634125161083191300,7.17519140625,17.439178466796875,-1.2108917236328125,46.22482681274414
1634125161103071500,7.195071533203125,17.3779296875,-0.9420433044433594,46.268638610839844
1634125161122951400,7.214951416015625,17.385589599609375,-1.182413101196289,46.285709381103516
1634125161142831400,7.234831298828125,17.23492431640625,-1.3027839660644531,46.355079650878906
1634125161162710500,7.25471044921875,17.24676513671875,-1.3801460266113281,46.26546859741211
1634125161182590500,7.274590576171875,17.74957275390625,-1.4580841064453125,46.32698059082031
1634125161202470400,7.294470458984375,17.331939697265625,-1.4310760498046875,46.311092376708984
1634125161222350300,7.314350341796875,17.522216796875,-1.5539398193359375,46.43889617919922
1634125161242230300,7.334230224609375,17.130157470703125,-1.6347408294677734,46.45227813720703
1634125161262110200,7.354110107421875,17.278076171875,-1.6832046508789062,46.44458770751953
1634125161281990400,7.373990478515625,17.142120361328125,-1.7794189453125,46.58696365356445
1634125161301870300,7.393870361328125,17.03790283203125,-1.8409500122070312,46.548797607421875
1634125161321750300,7.413750244140625,17.102874755859375,-1.7903976440429688,46.39459228515625
1634125161341630200,7.433630126953125,17.022186279296875,-1.7377147674560547,46.45359802246094
1634125161361510400,7.453510498046875,16.760833740234375,-1.6385478973388672,46.25766372680664
1634125161381389300,7.473389404296875,16.747711181640625,-1.7146358489990234,46.534664154052734
1634125161401269200,7.493269287109375,16.95391845703125,-1.6866283416748047,46.45148849487305
1634125161421149200,7.513149169921875,16.989410400390625,-1.668466567993164,46.673683166503906
1634125161441029400,7.533029296875,17.187835693359375,-1.6049385070800781,46.793357849121094
1634125161460909300,7.552909423828125,17.1240234375,-1.6637344360351562,46.37295150756836
1634125161480789200,7.572789306640625,16.683929443359375,-1.9425506591796875,46.342498779296875
1634125161500669200,7.592669189453125,16.4327392578125,-1.5220947265625,46.37276840209961
1634125161520549400,7.61254931640625,16.7144775390625,-1.7180099487304688,46.673030853271484
1634125161540429300,7.63242919921875,16.770660400390625,-1.7806282043457031,46.983848571777344
1634125161560309200,7.652309326171875,16.78924560546875,-1.9292774200439453,47.1187858581543
1634125161580189200,7.672189208984375,16.92059326171875,-1.70062255859375,46.858551025390625
1634125161600069400,7.6920693359375,16.716522216796875,-1.8815422058105469,46.731624603271484
1634125161619948300,7.7119482421875,16.883514404296875,-1.8199901580810547,46.7000846862793
1634125161639828200,7.731828125,16.5555419921875,-1.7351722717285156,46.92625045776367
1634125161659708200,7.751708251953125,16.8173828125,-1.7537155151367188,46.89137649536133
1634125161679588400,7.77158837890625,16.203155517578125,-1.3579845428466797,46.615562438964844
1634125161699468300,7.79146826171875,16.19317626953125,-1.5047664642333984,46.797142028808594
1634125161719348200,7.81134814453125,16.131744384765625,-1.4359416961669922,46.83583068847656
1634125161739228200,7.831228271484375,16.452423095703125,-1.3680038452148438,47.02730941772461
1634125161759108400,7.8511083984375,16.152618408203125,-1.4478492736816406,47.044189453125
1634125161778988300,7.87098828125,16.15576171875,-1.4336566925048828,47.06561279296875
1634125161798868200,7.8908681640625,16.337921142578125,-1.2422657012939453,46.85680389404297
1634125161818747400,7.910747314453125,16.036224365234375,-1.1042804718017578,46.95797348022461
1634125161838627300,7.93062744140625,15.74798583984375,-1.0380268096923828,46.987911224365234
1634125161858507300,7.95050732421875,15.849273681640625,-1.120077133178711,46.988731384277344
1634125161878387200,7.97038720703125,15.7926025390625,-1.0624217987060547,46.91358947753906
1634125161898267400,7.990267333984375,15.708465576171875,-1.0662040710449219,46.7923469543457
1634125161918147300,8.010147216796875,15.74224853515625,-1.0022144317626953,46.789100646972656
1634125161938027300,8.03002734375,16.066925048828125,-0.8771934509277344,46.70682144165039
1634125161957907200,8.0499072265625,16.053466796875,-0.9677467346191406,46.75748062133789
1634125161977787100,8.069787109375,15.8939208984375,-0.7601490020751953,46.79719543457031
1634125161997667300,8.089667236328125,15.7613525390625,-0.7516975402832031,46.63249969482422
1634125162017547300,8.10954736328125,15.65997314453125,-1.0181293487548828,46.910316467285156
1634125162037426200,8.12942626953125,15.976654052734375,-0.7522830963134766,47.003509521484375
1634125162057306400,8.149306396484375,15.819061279296875,-0.7580814361572266,46.73969268798828
1634125162077186300,8.169186279296875,15.946807861328125,-0.71502685546875,47.151580810546875
1634125162097066200,8.189066162109375,15.98760986328125,-0.6925334930419922,47.2369499206543
1634125162116946200,8.2089462890625,15.567901611328125,-0.7669219970703125,47.08570861816406
1634125162136826400,8.228826416015625,15.66827392578125,-0.8344612121582031,47.15449905395508
1634125162156706300,8.248706298828125,16.223785400390625,-0.9099025726318359,47.05052947998047
1634125162176586200,8.268586181640625,15.63751220703125,-0.7040348052978516,46.78526306152344
1634125162196466200,8.288466064453125,15.956573486328125,-0.6503868103027344,46.958412170410156
1634125162216346400,8.308346435546875,15.9561767578125,-0.5950641632080078,46.787147521972656
1634125162236227000,8.32822705078125,15.729705810546875,-0.7741184234619141,46.99142074584961
1634125162256106200,8.348106201171875,16.21539306640625,-0.6521339416503906,47.020050048828125
1634125162275986200,8.367986083984375,15.99505615234375,-0.37381744384765625,47.14912414550781
1634125162295866400,8.387866455078125,15.789093017578125,-0.3849048614501953,47.051387786865234
1634125162315746000,8.40774609375,15.755615234375,-0.5096721649169922,46.972312927246094
1634125162335626200,8.427626220703125,15.76873779296875,-0.7322635650634766,46.88728332519531
1634125162355506200,8.447506103515625,15.6763916015625,-0.4239158630371094,46.97392654418945
1634125162375386000,8.46738623046875,15.810272216796875,-0.5352325439453125,47.17539978027344
1634125162395266000,8.48726611328125,16.094146728515625,-0.36316680908203125,47.077735900878906
1634125162415146200,8.507146240234375,15.6256103515625,-0.5420303344726562,47.039669036865234
1634125162435026200,8.527026123046875,15.791900634765625,-0.4753093719482422,47.018943786621094
1634125162454905000,8.546905029296875,15.709808349609375,-0.3657646179199219,46.92793273925781
1634125162474785000,8.566784912109375,15.661773681640625,-0.1901378631591797,46.88166046142578
1634125162494665200,8.586665283203125,15.447967529296875,-0.27849578857421875,46.785682678222656
1634125162514545200,8.606545166015625,15.562347412109375,-0.4130363464355469,46.85818862915039
1634125162534425300,8.62642529296875,15.26800537109375,-0.4815406799316406,46.604000091552734
1634125162554305000,8.646304931640625,15.684478759765625,-0.25989532470703125,46.69074249267578
1634125162574185200,8.666185302734375,15.5667724609375,-0.20379066467285156,46.799766540527344
1634125162594065200,8.686065185546875,15.49603271484375,-0.2335681915283203,46.866451263427734
1634125162613945300,8.7059453125,15.495025634765625,-0.26016807556152344,46.92359924316406
1634125162633825000,8.725824951171875,15.36578369140625,-0.33731651306152344,46.81417465209961
1634125162653704200,8.7457041015625,15.500823974609375,-0.475738525390625,46.870811462402344
1634125162673584000,8.765584228515625,15.281341552734375,-0.3853321075439453,47.242103576660156
1634125162693464000,8.785464111328125,15.3253173828125,-0.2590351104736328,47.26799774169922
1634125162713344000,8.805343994140625,15.368927001953125,-0.1823902130126953,46.76060485839844
1634125162733224200,8.82522412109375,15.363250732421875,-0.05237007141113281,46.900455474853516
1634125162753104100,8.845104248046875,15.298431396484375,0.005443572998046875,46.986228942871094
1634125162772984000,8.864984130859375,15.401641845703125,-0.10096168518066406,47.18177795410156
1634125162792864000,8.884864013671875,15.01513671875,-0.20676231384277344,47.396217346191406
1634125162812744200,8.904744140625,14.787750244140625,-0.08902168273925781,47.319313049316406
1634125162832623400,8.924623291015624,15.42108154296875,-0.039920806884765625,47.11209487915039
1634125162852503000,8.9445029296875,15.18084716796875,-0.1228179931640625,47.3205451965332
1634125162872383200,8.96438330078125,15.424285888671875,-0.30100059509277344,47.21723556518555
1634125162892263200,8.98426318359375,15.287078857421875,-0.3155250549316406,47.059654235839844
1634125162912143000,9.00414306640625,15.712188720703125,-0.3082904815673828,47.10842514038086
1634125162932023000,9.02402294921875,15.346099853515625,-0.3445911407470703,47.41542053222656
1634125162951903200,9.0439033203125,15.338043212890625,-0.3282947540283203,46.879364013671875
1634125162971783200,9.063783203125,15.499298095703125,-0.37006187438964844,47.108680725097656
1634125162991663000,9.0836630859375,15.436798095703125,-0.3859367370605469,47.04310989379883
1634125163011543000,9.10354296875,15.785369873046875,-0.5593624114990234,47.036155700683594
1634125163031422200,9.123422119140624,15.711029052734375,-0.7225875854492188,46.94800567626953
1634125163051302100,9.14330224609375,15.636199951171875,-0.4960193634033203,47.04496765136719
1634125163071182300,9.163182373046874,15.4102783203125,-0.6365070343017578,47.19537353515625
1634125163091062000,9.18306201171875,15.67059326171875,-0.49587059020996094,47.129512786865234
1634125163110942200,9.202942138671874,15.7528076171875,-0.6416091918945312,47.029869079589844
1634125163130822100,9.222822265625,15.739898681640625,-0.7671947479248047,46.81251907348633
1634125163150702300,9.242702392578124,15.83612060546875,-0.452056884765625,47.00905990600586
1634125163170582000,9.26258203125,15.72430419921875,-0.6726436614990234,47.06946563720703
1634125163190462200,9.282462158203124,15.820648193359375,-0.676727294921875,47.02931213378906
1634125163210342100,9.302342041015624,15.837982177734375,-0.6234722137451172,46.98418045043945
1634125163230221300,9.32222119140625,15.907928466796875,-0.6751689910888672,46.889739990234375
1634125163250101200,9.342101318359376,15.7755126953125,-0.9915351867675781,46.989501953125
1634125163269981400,9.3619814453125,15.7589111328125,-0.8493537902832031,47.012306213378906
1634125163289861000,9.381861083984376,15.86328125,-0.9489097595214844,46.886112213134766
1634125163309741300,9.4017412109375,15.78466796875,-1.1140613555908203,46.79494857788086
1634125163329621200,9.421621337890626,15.66552734375,-1.1073341369628906,46.74870300292969
1634125163349501400,9.44150146484375,15.899169921875,-1.0889644622802734,46.69367980957031
1634125163369381400,9.46138134765625,15.863372802734375,-1.3490638732910156,46.64149856567383
1634125163389261300,9.48126123046875,16.065460205078125,-1.4300174713134766,46.74142837524414
1634125163409140200,9.50114013671875,16.380218505859375,-1.5756454467773438,46.44711685180664
1634125163429020400,9.5210205078125,16.00390625,-1.7077903747558594,46.64070129394531
1634125163448900000,9.540900146484375,15.956268310546875,-1.6890525817871094,46.776546478271484
1634125163468780300,9.5607802734375,16.272613525390625,-1.5043716430664062,46.700111389160156
1634125163488660200,9.58066015625,16.50042724609375,-1.594839096069336,46.63298034667969
1634125163508540400,9.60054052734375,16.2393798828125,-1.6553306579589844,46.53011703491211
1634125163528420000,9.620420166015625,16.417999267578125,-1.763498306274414,46.50419616699219
1634125163548300300,9.64030029296875,16.252685546875,-1.5131721496582031,46.537113189697266
1634125163568180200,9.66018017578125,16.01641845703125,-1.7032604217529297,46.682159423828125
1634125163588060400,9.680060302734375,16.314727783203125,-1.6190910339355469,46.78852844238281
1634125163607939300,9.699939208984375,16.258941650390625,-1.5739707946777344,47.029747009277344
1634125163627819300,9.7198193359375,16.04144287109375,-1.568838119506836,46.64216232299805
1634125163647699500,9.739699462890625,16.0689697265625,-2.0271644592285156,46.70964050292969
1634125163667579400,9.759579345703125,16.557647705078125,-1.919443130493164,46.30916976928711
1634125163687459300,9.779459228515625,16.299896240234375,-2.361227035522461,46.41501235961914
1634125163707339300,9.79933935546875,16.039398193359375,-2.1853904724121094,46.602500915527344
1634125163727219500,9.819219482421875,15.785919189453125,-2.0130138397216797,46.37383270263672
1634125163747099400,9.839099365234375,16.38531494140625,-1.9595184326171875,46.37223434448242
1634125163766979300,9.858979248046875,16.532012939453125,-1.885335922241211,46.50739288330078
1634125163786858200,9.878858154296875,16.69024658203125,-1.8853816986083984,46.6922607421875
1634125163806738400,9.898738525390625,16.2764892578125,-2.282459259033203,46.578575134277344
1634125163826618000,9.9186181640625,16.42083740234375,-2.2288131713867188,46.616180419921875
1634125163846498300,9.938498291015625,16.298309326171875,-2.1446475982666016,46.310546875
1634125163866378200,9.958378173828125,16.33258056640625,-2.208383560180664,46.49981689453125
1634125163886258400,9.978258544921875,16.923614501953125,-2.0915164947509766,46.51213073730469
1634125163906138400,9.998138427734375,16.222381591796875,-2.0004844665527344,46.415611267089844
1634125163926018300,10.018018310546875,16.25006103515625,-1.9517669677734375,46.539573669433594
1634125163945898200,10.037898193359375,16.191314697265625,-1.9913711547851562,46.473304748535156
1634125163965778400,10.0577783203125,16.054351806640625,-1.8795814514160156,46.237937927246094
1634125163985657000,10.077656982421875,15.81683349609375,-1.730630874633789,46.29637908935547
1634125164005537300,10.097537353515625,15.9984130859375,-1.7765941619873047,46.46601867675781
1634125164025417200,10.117417236328125,16.543365478515625,-1.5928096771240234,46.300880432128906
1634125164045297400,10.13729736328125,16.18621826171875,-1.6541118621826172,46.4548225402832
1634125164065177000,10.157177001953125,16.302490234375,-1.6125240325927734,46.551475524902344
1634125164085057300,10.177057373046875,16.525543212890625,-1.4985771179199219,46.47255325317383
1634125164104937200,10.196937255859375,16.26763916015625,-1.4348697662353516,46.28926086425781
1634125164124817400,10.2168173828125,16.1947021484375,-1.4942646026611328,46.307151794433594
1634125164144697300,10.236697265625,16.48272705078125,-1.5828533172607422,46.53644943237305
1634125164164576300,10.256576171875,16.45648193359375,-1.6068668365478516,46.69219970703125
1634125164184456400,10.27645654296875,16.272613525390625,-1.598611831665039,46.656734466552734
1634125164204336400,10.29633642578125,16.401641845703125,-1.67718505859375,46.44736862182617
1634125164224216300,10.31621630859375,16.25201416015625,-1.6388206481933594,46.43155288696289
1634125164244096800,10.3360966796875,16.089569091796875,-1.6880359649658203,46.57819747924805
1634125164263976700,10.355976806640625,16.76141357421875,-1.6908950805664062,46.7783317565918
1634125164283857000,10.37585693359375,16.261871337890625,-1.9239788055419922,46.577571868896484
1634125164303736600,10.395736572265625,16.263458251953125,-1.8067359924316406,46.612979888916016
1634125164323616800,10.41561669921875,16.040802001953125,-1.6129417419433594,46.839691162109375
1634125164343496000,10.435495849609374,16.1707763671875,-1.5559558868408203,46.90635681152344
1634125164363375600,10.455375732421874,16.439544677734375,-1.2697811126708984,46.55805587768555
1634125164383255800,10.475255859375,16.231842041015625,-1.1930484771728516,46.925621032714844
1634125164403135700,10.4951357421875,16.244476318359375,-1.1879253387451172,46.77251434326172
1634125164423016000,10.515015869140624,16.1795654296875,-1.4546241760253906,46.53684616088867
1634125164442895600,10.5348955078125,16.094635009765625,-1.2069129943847656,46.59877014160156
1634125164462775800,10.55477587890625,16.315032958984375,-1.12646484375,46.787315368652344
1634125164482655700,10.57465576171875,16.0731201171875,-0.9710140228271484,46.62778854370117
1634125164502536000,10.594535888671874,16.471466064453125,-1.0576324462890625,46.67534637451172
1634125164522414600,10.61441455078125,16.218505859375,-1.0344371795654297,46.536376953125
1634125164542294800,10.634294677734376,16.4180908203125,-0.9356651306152344,46.85308837890625
1634125164562174700,10.6541748046875,16.11175537109375,-0.9459877014160156,46.61671447753906
1634125164582055000,10.674054931640624,16.1365966796875,-0.7803077697753906,47.124229431152344
1634125164601934600,10.6939345703125,16.277679443359375,-1.1857261657714844,46.79592514038086
1634125164621814800,10.713814697265626,15.71954345703125,-1.0083370208740234,46.85066604614258
1634125164641694700,10.73369482421875,16.234619140625,-1.0182209014892578,46.858192443847656
1634125164661575000,10.753574951171874,15.973052978515625,-1.141754150390625,46.84952926635742
1634125164681454600,10.77345458984375,16.174041748046875,-1.1124897003173828,46.74391555786133
1634125164701333800,10.793333740234376,16.63189697265625,-1.1313037872314453,46.69097900390625
1634125164721213700,10.813213623046876,16.337371826171875,-1.142251968383789,46.519161224365234
1634125164741094000,10.833093994140626,16.049041748046875,-1.0837326049804688,46.42947769165039
1634125164760973600,10.8529736328125,16.189056396484375,-1.172098159790039,46.76613235473633
1634125164780853800,10.872853759765626,16.615264892578125,-1.0407695770263672,46.85631561279297
1634125164800733700,10.892733642578126,16.727752685546875,-0.9791297912597656,46.53137969970703
1634125164820614000,10.91261376953125,16.5850830078125,-1.072763442993164,46.61281967163086
1634125164840493600,10.93249365234375,16.47283935546875,-1.0903453826904297,46.60433578491211
1634125164860372700,10.952372802734375,16.35845947265625,-1.2180061340332031,46.459556579589844
1634125164880253000,10.9722529296875,16.557098388671875,-0.9939002990722656,46.81882858276367
1634125164900132600,10.992132568359375,16.71063232421875,-0.7297744750976562,46.6263427734375
1634125164920012800,11.0120126953125,16.851959228515625,-1.1134986877441406,46.66365432739258
1634125164939892700,11.031892822265625,16.581146240234375,-0.9440746307373047,46.527740478515625
1634125164959773000,11.05177294921875,16.92449951171875,-1.1567440032958984,46.36115646362305
1634125164979652900,11.07165283203125,16.921356201171875,-1.045278549194336,46.41227722167969
1634125164999532800,11.09153271484375,16.8521728515625,-1.1296062469482422,46.29057312011719
1634125165019412700,11.111412841796875,16.643951416015625,-1.3881282806396484,46.39068603515625
1634125165039292000,11.1312919921875,17.00872802734375,-1.2395401000976562,46.28708267211914
1634125165059171600,11.151171630859375,16.819091796875,-1.2011566162109375,46.17702865600586
1634125165079051800,11.1710517578125,16.75396728515625,-1.0046367645263672,46.249359130859375
1634125165098931700,11.190931640625,16.59423828125,-1.470102310180664,46.31075668334961
1634125165118812000,11.21081201171875,16.63385009765625,-1.1697959899902344,46.145484924316406
1634125165138691600,11.230691650390625,16.650390625,-1.3378276824951172,46.315921783447266
1634125165158571800,11.25057177734375,16.64788818359375,-1.2390422821044922,46.45798110961914
1634125165178451700,11.27045166015625,16.745086669921875,-1.2120113372802734,46.425750732421875
1634125165198331000,11.290330810546875,16.414093017578125,-1.1068267822265625,46.30626678466797
1634125165218210800,11.3102109375,16.50616455078125,-1.0584163665771484,46.33829879760742
1634125165238089500,11.33008935546875,16.257537841796875,-1.0037403106689453,46.540191650390625
1634125165257969700,11.3499697265625,16.35772705078125,-1.338430404663086,46.4715576171875
1634125165277849600,11.369849609375,15.915557861328125,-1.345184326171875,46.38066482543945
1634125165297729800,11.389729736328125,16.056915283203125,-1.0543403625488281,46.54978942871094
1634125165317609500,11.409609375,16.281768798828125,-1.17852783203125,46.25313186645508
1634125165337489700,11.42948974609375,16.255279541015625,-1.4583168029785156,46.34581756591797
1634125165357368800,11.449368896484375,16.585418701171875,-1.2416400909423828,46.32806396484375
1634125165377248500,11.46924853515625,16.015838623046875,-1.0601882934570312,46.59916687011719
1634125165397128700,11.489128662109374,15.630645751953125,-1.1597900390625,46.447235107421875
1634125165417008600,11.509008544921874,15.36688232421875,-1.1555004119873047,46.74480438232422
1634125165436888600,11.528888671875,15.363983154296875,-1.1548614501953125,47.02635955810547
1634125165456768800,11.548768798828124,15.36700439453125,-1.2725849151611328,46.85106658935547
1634125165476648400,11.5686484375,15.211456298828125,-1.1567668914794922,47.03499984741211
1634125165496528600,11.588528564453124,14.739532470703125,-1.3759956359863281,46.958587646484375
1634125165516408600,11.60840869140625,14.894287109375,-1.5172100067138672,47.118492126464844
1634125165536287500,11.62828759765625,14.8858642578125,-1.2368640899658203,46.89209747314453
1634125165556167700,11.648167724609374,14.63763427734375,-1.146148681640625,47.022254943847656
1634125165576047600,11.668047607421874,14.18109130859375,-1.3930091857910156,47.22838592529297
1634125165595927800,11.687927734375,13.86688232421875,-1.4513416290283203,47.26477813720703
1634125165615807500,11.707807373046874,13.636566162109375,-1.363485336303711,47.03398513793945
1634125165635687700,11.727687744140624,13.578765869140625,-1.4337654113769531,47.3629150390625
1634125165655567600,11.747567626953124,13.433074951171875,-1.3101139068603516,47.553768157958984
1634125165675447800,11.76744775390625,12.936065673828125,-1.2320785522460938,47.40412902832031
1634125165695326500,11.787326416015626,12.651275634765625,-1.079885482788086,47.3233757019043
1634125165715206700,11.80720654296875,12.309417724609375,-1.314432144165039,47.75679016113281
1634125165735086600,11.827086669921876,12.529205322265625,-1.185394287109375,47.686195373535156
1634125165754966800,11.846966796875,12.12359619140625,-1.3417854309082031,47.78120040893555
1634125165774846500,11.866846435546876,12.600250244140625,-1.226531982421875,47.934226989746094
1634125165794726700,11.8867265625,11.67596435546875,-0.9877853393554688,47.88945770263672
1634125165814606600,11.906606689453126,11.309600830078125,-0.9296016693115234,47.975433349609375
1634125165834486800,11.92648681640625,11.185028076171875,-0.8510913848876953,47.944576263427734
1634125165854365700,11.94636572265625,10.760284423828125,-0.24961090087890625,48.16144561767578
1634125165874245600,11.96624560546875,10.82177734375,-0.1656208038330078,48.08454132080078
1634125165894125800,11.986125732421876,10.533721923828125,0.20502662658691406,48.23450469970703
1634125165914005800,12.006005859375,10.195892333984375,0.5600395202636719,48.255828857421875
1634125165933885700,12.0258857421875,9.89471435546875,0.8439006805419922,48.3087272644043
1634125165953765600,12.045765625,9.472442626953125,1.0507698059082031,48.415401458740234
1634125165973645600,12.0656455078125,9.561187744140625,1.0785274505615234,48.34152603149414
1634125165993525800,12.08552587890625,9.58233642578125,1.6683807373046875,48.195518493652344
1634125166013404700,12.10540478515625,9.39501953125,2.084228515625,48.36143493652344
1634125166033284600,12.12528466796875,9.3458251953125,2.3508052825927734,48.51249694824219
1634125166053164800,12.145164794921875,9.009002685546875,2.9381027221679688,48.592430114746094
1634125166073044500,12.16504443359375,9.298919677734375,3.545482635498047,48.22593688964844
1634125166092924700,12.184924560546875,8.796600341796875,3.8160743713378906,48.54838180541992
1634125166112804600,12.2048046875,8.78662109375,3.9914894104003906,48.18829345703125
1634125166132684800,12.224684814453125,8.723358154296875,3.9751853942871094,47.99436950683594
1634125166152563500,12.2445634765625,8.701873779296875,4.38917350769043,47.94289016723633
1634125166172443600,12.264443603515625,8.431365966796875,4.197454452514648,48.38253402709961
1634125166192323600,12.284323486328125,8.192596435546875,4.469011306762695,48.45198440551758
1634125166212203800,12.304203857421875,8.469390869140625,4.912021636962891,48.242897033691406
1634125166232087300,12.32408740234375,9.021270751953125,4.821046829223633,48.48082733154297
1634125166251967500,12.343967529296876,8.420867919921875,5.002571105957031,48.53934097290039
1634125166271847400,12.363847412109376,8.22869873046875,5.085330963134766,48.5149040222168
1634125166291727400,12.383727294921876,8.015350341796875,5.387996673583984,48.444480895996094
1634125166311606500,12.4036064453125,8.231109619140625,5.405208587646484,48.460227966308594
1634125166331486500,12.423486572265626,8.086639404296875,5.78874397277832,48.32261657714844
1634125166351366400,12.443366455078126,8.076995849609375,5.701446533203125,48.39034652709961
1634125166371246300,12.463246337890626,8.112457275390625,5.837583541870117,48.57442855834961
1634125166391126300,12.483126220703125,8.40789794921875,6.138055801391602,48.17455291748047
1634125166411006500,12.50300634765625,7.937835693359375,6.0493927001953125,48.644203186035156
1634125166430886400,12.522886474609376,8.27398681640625,6.588222503662109,48.62228012084961
1634125166450765300,12.542765380859375,8.229705810546875,6.695772171020508,48.338218688964844
1634125166470645500,12.5626455078125,7.984588623046875,6.680978775024414,48.1615104675293
1634125166490525400,12.582525390625,7.892730712890625,7.117824554443359,48.49644088745117
1634125166510405400,12.6024052734375,7.494384765625,7.211751937866211,48.19755554199219
1634125166530285300,12.622285400390625,6.967193603515625,7.570093154907227,48.41309356689453
1634125166550165500,12.64216552734375,7.431854248046875,7.706001281738281,48.202972412109375
1634125166570045400,12.66204541015625,7.701873779296875,7.681972503662109,48.18842315673828
1634125166589925400,12.68192529296875,7.3370361328125,7.638767242431641,47.886043548583984
1634125166609804300,12.70180419921875,7.40460205078125,7.6566619873046875,48.12970733642578
1634125166629684500,12.7216845703125,7.5855712890625,7.6560211181640625,47.70349884033203
1634125166649564400,12.741564453125,7.16131591796875,7.834505081176758,48.12779235839844
1634125166669444400,12.7614443359375,7.187103271484375,8.139171600341797,48.0031852722168
1634125166689324300,12.78132421875,7.242401123046875,7.980682373046875,47.91745376586914
1634125166709204500,12.80120458984375,7.473541259765625,7.885625839233398,47.907466888427734
1634125166729084400,12.82108447265625,7.357147216796875,8.160772323608398,48.06916809082031
1634125166748963300,12.84096337890625,7.174652099609375,8.068666458129883,48.04773712158203
1634125166768843500,12.860843505859375,6.976593017578125,7.9642333984375,47.85533905029297
1634125166788723500,12.880723388671875,7.419342041015625,7.751976013183594,48.03763198852539
1634125166808603400,12.900603271484375,7.127105712890625,8.01010513305664,48.09834289550781
1634125166828483300,12.9204833984375,7.47564697265625,7.51695442199707,48.167327880859375
1634125166848363500,12.940363525390625,7.626800537109375,7.510517120361328,48.2000732421875
1634125166868243500,12.960243408203125,8.165771484375,7.119983673095703,48.09876251220703
1634125166888123400,12.980123291015625,8.1314697265625,6.647621154785156,48.124263763427734
1634125166908002300,13.000002197265625,9.22271728515625,5.906515121459961,48.18021774291992
1634125166927882500,13.019882568359375,9.027130126953125,5.575103759765625,48.16419982910156
1634125166947762400,13.039762451171875,9.050048828125,4.8855743408203125,48.09701156616211
1634125166967642400,13.059642333984375,8.953582763671875,4.48149299621582,48.247283935546875
1634125166987522300,13.079522216796875,9.0731201171875,4.164915084838867,47.94047927856445
1634125167007402500,13.099402587890625,9.049713134765625,4.004871368408203,48.06233596801758
1634125167027282400,13.119282470703125,9.337738037109375,3.557952880859375,48.11439514160156
1634125167047161300,13.139161376953124,9.379150390625,3.310791015625,48.1407585144043
1634125167067041300,13.159041259765624,8.850616455078125,3.123849868774414,48.10218048095703
1634125167086921500,13.17892138671875,8.849090576171875,2.9840221405029297,48.37601852416992
1634125167106801400,13.198801513671874,9.3433837890625,3.0819015502929688,48.47409439086914
1634125167126681300,13.218681396484374,9.021942138671875,3.070545196533203,48.52341842651367
1634125167146561300,13.238561279296874,8.256378173828125,2.6250457763671875,48.678611755371094
1634125167166441500,13.25844140625,8.708587646484375,2.782285690307617,48.35606002807617
1634125167186320400,13.2783203125,8.19525146484375,2.535737991333008,48.286556243896484
1634125167206200300,13.298200439453124,8.444000244140625,2.8400611877441406,48.586517333984375
1634125167226080500,13.31808056640625,8.86285400390625,2.825225830078125,48.48276901245117
1634125167245956000,13.3379560546875,8.52410888671875,2.5267486572265625,48.495323181152344
1634125167265836300,13.357836181640625,8.6226806640625,2.809305191040039,48.29607391357422
1634125167285716200,13.37771630859375,8.179168701171875,2.538698196411133,48.48894119262695
1634125167305596400,13.397596435546875,8.117889404296875,2.566194534301758,48.62010192871094
1634125167325476000,13.41747607421875,7.94354248046875,2.579141616821289,48.29423904418945
1634125167345355300,13.437355224609375,7.563385009765625,2.545675277709961,48.56873321533203
1634125167365235500,13.4572353515625,7.271026611328125,2.7228775024414062,48.3154411315918
1634125167385115400,13.477115478515625,7.43157958984375,2.6726531982421875,48.619224548339844
1634125167404995300,13.496995361328125,6.963714599609375,2.542184829711914,48.59429168701172
1634125167424875300,13.516875244140625,6.970855712890625,2.4397945404052734,48.7564811706543
1634125167444755200,13.536755126953125,6.877471923828125,2.3830394744873047,48.911922454833984
1634125167464635400,13.556635498046875,6.7435302734375,2.560079574584961,48.9926872253418
1634125167484514300,13.576514404296875,6.168243408203125,2.711139678955078,48.838623046875
1634125167504394200,13.596394287109375,6.02032470703125,2.2944393157958984,48.84455108642578
1634125167524274400,13.6162744140625,5.990386962890625,2.7782058715820312,49.22100067138672
1634125167544154000,13.636154052734375,5.74908447265625,2.487527847290039,49.15290069580078
1634125167564034300,13.656034423828125,5.61700439453125,2.638813018798828,49.34547805786133
1634125167583914200,13.675914306640625,5.14935302734375,2.909412384033203,49.312347412109375
1634125167603794400,13.69579443359375,4.712158203125,3.147991180419922,49.229469299316406
1634125167623673000,13.715673095703124,4.768798828125,3.101045608520508,49.12209701538086
1634125167643553300,13.73555322265625,4.412628173828125,3.0572032928466797,49.309783935546875
1634125167663433200,13.75543310546875,4.0208740234375,3.4165687561035156,49.17825698852539
1634125167683313400,13.7753134765625,4.14471435546875,3.8454551696777344,48.92007064819336
1634125167703193000,13.795193115234374,3.799774169921875,3.9884262084960938,49.11648178100586
1634125167723073300,13.8150732421875,3.43109130859375,4.234121322631836,49.22511672973633
1634125167742953200,13.834953125,3.17333984375,4.317632675170898,49.23773193359375
1634125167762832100,13.85483203125,2.148284912109375,4.389497756958008,49.23262405395508
1634125167782712300,13.87471240234375,1.562255859375,4.4418487548828125,49.15766143798828
1634125167802592300,13.89459228515625,1.1273193359375,4.42375373840332,49.29340744018555
1634125167822472400,13.914472412109374,0.625640869140625,4.349521636962891,49.408721923828125
1634125167842352000,13.93435205078125,-0.12451171875,4.476583480834961,49.01289367675781
1634125167862232300,13.954232421875,0.076446533203125,4.780681610107422,49.0850830078125
1634125167882112300,13.9741123046875,-0.385101318359375,5.039812088012695,49.30596923828125
1634125167901991400,13.993991455078126,-1.23870849609375,5.146783828735352,49.22461700439453
1634125167921871000,14.01387109375,-1.2989501953125,5.397214889526367,49.265167236328125
1634125167941751300,14.033751220703126,-2.366424560546875,5.696979522705078,49.257179260253906
1634125167961631200,14.05363134765625,-2.694976806640625,5.6723175048828125,49.1322135925293
1634125167981511400,14.073511474609376,-2.70745849609375,6.031435012817383,49.0753173828125
1634125168001391000,14.09339111328125,-3.171905517578125,6.196113586425781,49.291656494140625
1634125168021271300,14.113271240234376,-3.441925048828125,6.547250747680664,49.00221252441406
1634125168041150200,14.133150146484375,-3.36773681640625,6.995822906494141,49.06783676147461
1634125168061030400,14.153030517578125,-3.89569091796875,7.484668731689453,48.95382308959961
1634125168080910000,14.17291015625,-4.36285400390625,8.032512664794922,48.8312873840332
1634125168100790300,14.192790283203125,-4.947845458984375,9.128389358520508,48.672142028808594
1634125168120670200,14.212670166015625,-5.61480712890625,9.875099182128906,48.6704216003418
1634125168140550400,14.23255029296875,-6.368377685546875,10.316750526428223,48.35721969604492
1634125168160430000,14.25243017578125,-5.89129638671875,10.946436882019043,48.421974182128906
1634125168180310300,14.272310302734375,-6.4520263671875,10.995628356933594,48.03564453125
1634125168200189400,14.292189453125,-7.2410888671875,11.326693534851074,47.954673767089844
1634125168220069000,14.312069091796875,-7.350738525390625,11.898383140563965,47.57453918457031
1634125168239953700,14.33195361328125,-8.208892822265625,11.873849868774414,47.39591979980469
1634125168259833600,14.35183349609375,-8.26556396484375,12.049443244934082,47.32910919189453
1634125168279713500,14.371713623046874,-8.746185302734375,12.088125228881836,47.33123779296875
1634125168299593700,14.39159375,-9.208709716796875,12.26571273803711,47.20884704589844
1634125168319473000,14.411472900390624,-9.464935302734375,12.65771770477295,46.761775970458984
1634125168339352600,14.4313525390625,-9.729217529296875,13.187958717346191,46.83586120605469
1634125168359232800,14.451232666015626,-10.0889892578125,13.543649673461914,46.545265197753906
1634125168379112700,14.47111279296875,-11.00616455078125,13.866134643554688,46.580421447753906
1634125168398993000,14.490992919921876,-11.132476806640625,14.184617042541504,46.509910583496094
1634125168418872600,14.51087255859375,-11.199066162109375,14.221074104309082,46.60155487060547
1634125168438752800,14.530752685546876,-10.716400146484375,14.267877578735352,46.146636962890625
1634125168458631700,14.550631591796876,-11.46527099609375,14.253286361694336,46.145843505859375
1634125168478511600,14.57051171875,-11.51629638671875,14.047977447509766,45.910545349121094
1634125168498391600,14.5903916015625,-11.365997314453125,14.448064804077148,45.73979949951172
1634125168518271700,14.610271728515626,-11.306304931640625,14.281745910644531,45.87567901611328
1634125168538151700,14.630151611328126,-11.18621826171875,14.186508178710938,46.0224723815918
1634125168558032000,14.650031982421876,-11.09149169921875,14.239604949951172,46.117740631103516
1634125168577911600,14.66991162109375,-10.797760009765625,14.11998462677002,46.19136047363281
1634125168597790700,14.689790771484375,-10.497528076171875,14.311341285705566,46.39625549316406
1634125168617670700,14.709670654296875,-10.6912841796875,14.553786277770996,46.3465690612793
1634125168637550600,14.729550537109375,-10.028961181640625,13.982881546020508,46.76264953613281
1634125168657430500,14.749430419921875,-10.55157470703125,13.861174583435059,46.64595031738281
1634125168677310700,14.769310791015625,-9.951416015625,13.495282173156738,46.73788070678711
1634125168697190700,14.789190673828125,-9.974395751953125,13.162921905517578,46.552764892578125
1634125168717070600,14.809070556640625,-10.1915283203125,13.268657684326172,46.743770599365234
1634125168736949800,14.82894970703125,-9.99005126953125,13.215547561645508,46.94795227050781
1634125168756829700,14.84882958984375,-9.8956298828125,12.979843139648438,46.67013931274414
1634125168776710000,14.8687099609375,-10.3153076171875,12.914664268493652,46.93406677246094
1634125168796589600,14.888589599609375,-10.072113037109375,12.583491325378418,47.03616714477539
1634125168816469800,14.9084697265625,-9.80670166015625,12.394549369812012,46.72761535644531
1634125168836349700,14.928349609375,-9.662017822265625,12.403948783874512,47.095394134521484
1634125168856230000,14.94822998046875,-9.43646240234375,12.474663734436035,47.243778228759766
1634125168876108500,14.968108642578125,-9.415283203125,12.324135780334473,46.99801254272461
1634125168895988700,14.98798876953125,-9.247467041015625,12.272027015686035,47.173500061035156
1634125168915868700,15.00786865234375,-8.6988525390625,12.386841773986816,47.20972442626953
1634125168935748600,15.02774853515625,-8.498504638671875,12.37713623046875,47.011993408203125
1634125168955628500,15.047628662109375,-8.728179931640625,12.382932662963867,47.123130798339844
1634125168975508700,15.0675087890625,-8.821929931640625,12.169963836669922,47.06125259399414
1634125168995388000,15.087387939453125,-8.850311279296875,12.054605484008789,47.023216247558594
1634125169015267600,15.107267578125,-8.979400634765625,11.860970497131348,47.38523483276367
1634125169035147800,15.127147705078125,-8.3128662109375,12.172399520874023,47.339576721191406
1634125169055027700,15.14702783203125,-8.429107666015625,12.10639476776123,47.411983489990234
1634125169074908000,15.166907958984375,-8.36541748046875,12.021339416503906,47.27217483520508
1634125169094787600,15.18678759765625,-8.650726318359375,11.548664093017578,47.21676254272461
1634125169114667800,15.206667724609375,-8.563232421875,11.634953498840332,47.17479705810547
1634125169134546700,15.226546630859374,-8.65264892578125,11.62615966796875,47.48981475830078
1634125169154426600,15.246426513671874,-8.26629638671875,11.57180118560791,47.550384521484375
1634125169174306600,15.266306640625,-8.274627685546875,11.523524284362793,47.289756774902344
1634125169194186800,15.286186767578124,-7.9637451171875,11.206551551818848,47.76287078857422
1634125169214066700,15.306066650390624,-7.971466064453125,11.156136512756348,47.82964324951172
1634125169233943300,15.325943359375,-8.20538330078125,10.986933708190918,47.36214828491211
1634125169253823000,15.345822998046875,-7.734405517578125,11.074762344360352,47.535675048828125
1634125169273702100,15.3657021484375,-8.001373291015625,10.785164833068848,47.47272491455078
1634125169293582000,15.38558203125,-7.597381591796875,10.670419692993164,47.57544708251953
1634125169313462300,15.405462158203125,-7.669647216796875,10.86099624633789,47.90239334106445
1634125169333342000,15.425342041015625,-7.488433837890625,10.387832641601562,47.869384765625
1634125169353222100,15.44522216796875,-7.46917724609375,10.196569442749023,47.865966796875
1634125169373102000,15.46510205078125,-7.238372802734375,10.240478515625,48.30336380004883
1634125169392981000,15.48498095703125,-6.953857421875,10.29947566986084,47.982452392578125
1634125169412861200,15.504861083984375,-7.0489501953125,10.058643341064453,47.7139778137207
1634125169432741000,15.5247412109375,-7.0972900390625,9.71644401550293,48.13665771484375
1634125169452621300,15.544621337890625,-6.814849853515625,9.475711822509766,48.03441619873047
1634125169472501000,15.5645009765625,-6.82611083984375,9.382593154907227,48.04499816894531
1634125169492381200,15.584381103515625,-6.38885498046875,9.302125930786133,48.11699676513672
1634125169512261000,15.60426123046875,-5.901702880859375,9.061300277709961,48.22102737426758
1634125169532140300,15.624140380859375,-5.2779541015625,8.727622985839844,48.32905578613281
1634125169552020000,15.64402001953125,-4.416900634765625,8.350624084472656,48.19173812866211
1634125169571900200,15.663900146484375,-3.784210205078125,7.818498611450195,48.21888732910156
1634125169591780000,15.683780029296875,-3.755279541015625,7.806108474731445,48.58378219604492
1634125169611660300,15.703660400390625,-3.033721923828125,7.548929214477539,48.39105224609375
1634125169631540000,15.7235400390625,-2.24908447265625,7.651695251464844,48.69395065307617
1634125169651419100,15.743419189453125,-1.907745361328125,7.357810974121094,48.621742248535156
1634125169671299300,15.76329931640625,-1.775299072265625,7.512056350708008,48.513057708740234
1634125169691179000,15.783178955078125,-1.390228271484375,7.410390853881836,48.65184020996094
1634125169711059200,15.80305908203125,-0.960479736328125,7.284788131713867,48.84098815917969
1634125169730939100,15.822939208984375,-0.5057373046875,7.48997688293457,48.7703971862793
1634125169750819300,15.8428193359375,-0.88775634765625,7.7444000244140625,48.88621139526367
1634125169770699300,15.86269921875,-0.097991943359375,7.588474273681641,48.60593032836914
1634125169790578200,15.882578125,1.08819580078125,7.535215377807617,48.80213165283203
1634125169810458000,15.9024580078125,1.671600341796875,7.263116836547852,48.84907150268555
1634125169830338300,15.92233837890625,1.714752197265625,7.235044479370117,48.96809005737305
1634125169850218000,15.942218017578124,2.34405517578125,6.7293548583984375,48.72935485839844
1634125169870098200,15.96209814453125,2.397796630859375,5.913175582885742,48.859619140625
1634125169889978000,15.98197802734375,2.915863037109375,5.729316711425781,48.76213073730469
1634125169909857000,16.00185693359375,3.53753662109375,5.000099182128906,48.78618621826172
1634125169929737200,16.0217373046875,3.99505615234375,4.549779891967773,48.89978790283203
1634125169949617200,16.0416171875,4.54644775390625,4.501741409301758,48.77874755859375
1634125169969497000,16.0614970703125,5.194488525390625,3.997455596923828,48.606666564941406
1634125169989377300,16.081377197265624,5.228363037109375,3.7405624389648438,48.73076629638672
1634125170009257000,16.101257080078124,6.08746337890625,3.2811756134033203,48.94841766357422
1634125170029136100,16.12113623046875,6.32318115234375,3.1009578704833984,48.86835479736328
1634125170049016300,16.141016357421876,7.54547119140625,2.1717472076416016,48.610870361328125
1634125170068896000,16.16089599609375,8.529754638671875,2.332979202270508,48.6773796081543
1634125170088776200,16.180776123046876,9.5091552734375,1.6270484924316406,48.13637924194336
1634125170108656000,16.20065625,10.70343017578125,1.4855499267578125,48.2154655456543
1634125170128536300,16.220536376953124,11.351654052734375,1.0450382232666016,47.940208435058594
1634125170148416000,16.240416015625,12.529205322265625,0.5136985778808594,47.650550842285156
1634125170168295200,16.260295166015624,13.430694580078125,-0.24422073364257812,47.382381439208984
1634125170188175000,16.280175048828124,14.17327880859375,-0.7138137817382812,46.87932586669922
1634125170208055300,16.30005517578125,15.44976806640625,-1.7213363647460938,46.775814056396484
1634125170227935000,16.31993505859375,15.8677978515625,-2.580516815185547,46.52679443359375
1634125170247815000,16.33981494140625,16.53436279296875,-2.77093505859375,46.25299072265625
1634125170267694800,16.35969482421875,17.3160400390625,-3.5952682495117188,45.79243469238281
1634125170287573800,16.37957373046875,17.898773193359375,-4.675954818725586,45.672767639160156
1634125170307454000,16.399453857421875,18.145111083984375,-5.559925079345703,45.49479675292969
1634125170327334000,16.419333984375,18.82733154296875,-6.599393844604492,45.00422668457031
1634125170347214000,16.439214111328123,19.289215087890625,-7.605134963989258,44.8026008605957
1634125170367093800,16.45909375,19.649078369140625,-8.892473220825195,44.48044204711914
1634125170386974000,16.478973876953123,20.335723876953125,-9.687334060668945,43.87054443359375
1634125170406852900,16.498852783203127,20.529022216796875,-10.520303726196289,43.340911865234375
1634125170426732800,16.51873291015625,20.95751953125,-11.11308479309082,42.76973342895508
1634125170446612700,16.53861279296875,21.334442138671875,-11.707498550415039,42.55455017089844
1634125170466493000,16.558492919921875,22.34967041015625,-12.24070930480957,41.981117248535156
1634125170486372900,16.578372802734375,22.593994140625,-12.698087692260742,41.733863830566406
1634125170506253000,16.598253173828127,23.38360595703125,-13.311933517456055,41.30575180053711
1634125170526132000,16.618132080078126,23.739013671875,-13.781713485717773,40.82374572753906
1634125170546012000,16.638011962890626,23.6728515625,-14.310110092163086,40.6668701171875
1634125170565892000,16.65789208984375,24.08447265625,-14.64295768737793,40.50847625732422
1634125170585771800,16.677771728515626,24.204437255859375,-14.875814437866211,40.089420318603516
1634125170605652000,16.69765185546875,24.735321044921875,-15.125566482543945,39.73753356933594
1634125170625532000,16.717531982421875,25.142913818359375,-15.109342575073242,39.43544006347656
1634125170645410800,16.737410888671874,25.908477783203125,-15.266580581665039,39.206478118896484
1634125170665290800,16.757290771484374,25.9769287109375,-15.473901748657227,38.76011276245117
1634125170685171000,16.7771708984375,26.15692138671875,-15.521474838256836,38.63037872314453
1634125170705051000,16.79705078125,26.8397216796875,-15.624345779418945,38.22368621826172
1634125170724931000,16.81693115234375,27.464996337890625,-15.728986740112305,37.590232849121094
1634125170744810800,16.836810791015626,27.480682373046875,-15.775415420532227,37.534263610839844
1634125170764690000,16.85668994140625,28.18243408203125,-15.669790267944336,37.384132385253906
1634125170784569900,16.87656982421875,28.467864990234375,-15.71318244934082,36.9892692565918
1634125170804449800,16.89644970703125,28.6639404296875,-15.758607864379883,36.64305114746094
1634125170824329700,16.916329833984374,28.948028564453125,-15.732423782348633,36.5572509765625
1634125170844210000,16.9362099609375,28.77117919921875,-15.717657089233398,36.37125015258789
1634125170864089900,16.95608984375,28.822509765625,-15.702676773071289,36.43899154663086
1634125170883968800,16.97596875,29.052764892578125,-15.747945785522461,35.990875244140625
1634125170903849000,16.995848876953126,29.0797119140625,-15.670328140258789,36.022926330566406
1634125170923729000,17.01572900390625,29.744873046875,-15.660566329956055,35.973365783691406
1634125170943609000,17.035609130859374,29.991668701171875,-15.369524002075195,35.90231704711914
1634125170963488800,17.05548876953125,30.16680908203125,-15.587541580200195,35.56745910644531
1634125170983369000,17.075368896484374,29.943145751953125,-15.450563430786133,35.718326568603516
1634125171003247900,17.095247802734374,30.24822998046875,-15.068967819213867,35.54144287109375
1634125171023127800,17.1151279296875,30.669830322265625,-14.901418685913086,35.70670700073242
1634125171043007700,17.1350078125,30.17645263671875,-14.429864883422852,35.962493896484375
1634125171062888000,17.154887939453126,30.198822021484375,-14.349092483520508,36.13536834716797
1634125171082768000,17.174767822265625,29.84747314453125,-14.006902694702148,36.08120346069336
1634125171102647800,17.194647705078125,30.26904296875,-14.370420455932617,35.992122650146484
1634125171122527000,17.21452685546875,29.921966552734375,-14.293706893920898,36.03074645996094
1634125171142407000,17.234406982421874,29.554412841796875,-14.504400253295898,36.13682556152344
1634125171162287000,17.254287109375,29.737335205078125,-14.470983505249023,36.35111999511719
1634125171182166800,17.274166748046873,29.29449462890625,-14.625436782836914,36.36196517944336
1634125171202047000,17.294046875,28.928863525390625,-14.474302291870117,36.60918426513672
1634125171221927000,17.313927001953125,28.8411865234375,-14.29463005065918,36.775115966796875
1634125171241805800,17.333805908203125,28.891998291015625,-14.214391708374023,37.09246826171875
1634125171261685500,17.353685546875,28.7835693359375,-13.892877578735352,37.39148712158203
1634125171281565700,17.373565673828125,28.7911376953125,-13.714468002319336,37.57499313354492
1634125171301445600,17.393445556640625,28.253387451171875,-13.654672622680664,37.63251495361328
1634125171321325800,17.413325927734373,28.854949951171875,-13.388872146606445,37.62017822265625
1634125171341205500,17.43320556640625,28.538177490234375,-13.130605697631836,37.752079010009766
1634125171361084700,17.453084716796877,28.6298828125,-12.79716682434082,37.861534118652344
1634125171380964900,17.47296484375,28.219329833984375,-12.411855697631836,38.275177001953125
1634125171400844500,17.492844482421877,28.350433349609375,-11.80058479309082,38.739097595214844
1634125171420724700,17.512724853515625,27.73809814453125,-11.563516616821289,38.531150817871094
1634125171440604700,17.532604736328125,27.935699462890625,-11.537336349487305,38.852813720703125
1634125171460483800,17.55248388671875,27.760711669921875,-11.334901809692383,38.581809997558594
1634125171480363500,17.572363525390625,28.043182373046875,-11.221490859985352,38.83367919921875
1634125171500243700,17.59224365234375,27.608917236328125,-11.212606430053711,39.04585266113281
1634125171520123600,17.61212353515625,27.44036865234375,-11.461771011352539,39.150081634521484
1634125171540003800,17.63200390625,27.086456298828125,-11.515466690063477,39.68074035644531
1634125171559883500,17.651883544921876,26.830963134765625,-11.338510513305664,40.0556755065918
1634125171579762700,17.6717626953125,25.98028564453125,-10.903165817260742,40.152767181396484
1634125171599643000,17.691642822265624,26.16033935546875,-10.823747634887695,40.5124397277832
1634125171619522600,17.7115224609375,25.7177734375,-10.821767807006836,40.58068084716797
1634125171639402800,17.73140283203125,25.5404052734375,-10.785634994506836,40.820640563964844
1634125171659282700,17.75128271484375,25.7772216796875,-10.585599899291992,40.60523986816406
1634125171679162600,17.77116259765625,25.423980712890625,-10.378313064575195,40.56063461303711
1634125171699041500,17.79104150390625,25.181488037109375,-10.229970932006836,41.027122497558594
1634125171718921700,17.810921630859376,25.086822509765625,-10.183107376098633,41.077476501464844
1634125171738801700,17.8308017578125,25.1961669921875,-10.002069473266602,41.3630485534668
1634125171758681900,17.850681884765624,24.852508544921875,-10.219366073608398,41.31327819824219
1634125171778561500,17.8705615234375,25.015045166015625,-10.32878303527832,41.115074157714844
1634125171798440700,17.890440673828124,24.843902587890625,-10.474699020385742,41.45445251464844
1634125171818320600,17.910320556640624,24.9129638671875,-10.386224746704102,41.539371490478516
1634125171838200600,17.93020068359375,24.4942626953125,-10.539312362670898,41.46457290649414
1634125171858080500,17.95008056640625,24.366363525390625,-10.329412460327148,41.4698486328125
1634125171877960700,17.969960693359376,24.61077880859375,-10.61699104309082,41.62646484375
1634125171897840600,17.989840576171876,24.286834716796875,-10.323705673217773,41.72517395019531
1634125171917719600,18.009719482421875,24.53265380859375,-10.343698501586914,41.69908142089844
1634125171937599700,18.029599853515624,24.815948486328125,-10.209589004516602,41.66594696044922
1634125171957479700,18.049479736328124,24.349700927734375,-10.065221786499023,41.7215690612793
1634125171977360000,18.06935986328125,24.843475341796875,-10.018339157104492,42.01238250732422
1634125171997239600,18.089239501953124,24.5684814453125,-10.23454475402832,41.843605041503906
1634125172017119700,18.10911962890625,24.756195068359375,-9.996957778930664,41.90500259399414
1634125172036998700,18.12899853515625,24.6590576171875,-10.115030288696289,41.77714920043945
1634125172056878600,18.148878662109375,24.708526611328125,-10.339841842651367,41.903804779052734
1634125172076758500,18.168758544921875,24.58905029296875,-10.378015518188477,41.91635513305664
1634125172096638700,18.188638671875,24.876953125,-10.235639572143555,41.82834243774414
1634125172116518700,18.2085185546875,24.35089111328125,-10.607427597045898,41.55729293823242
1634125172136397600,18.2283974609375,24.80419921875,-10.414823532104492,41.404685974121094
1634125172156277800,18.24827783203125,24.730377197265625,-10.347124099731445,41.58094787597656
1634125172176157700,18.26815771484375,24.755645751953125,-10.487188339233398,41.76954650878906
1634125172196038000,18.288037841796875,25.17132568359375,-10.568441390991211,41.40104675292969
1634125172215917600,18.30791748046875,24.8157958984375,-10.728544235229492,41.62333679199219
1634125172235797500,18.327797607421875,24.78082275390625,-10.477964401245117,41.498802185058594
1634125172255677400,18.347677490234375,25.058746337890625,-10.656545639038086,41.38954162597656
1634125172275557600,18.3675576171875,25.033172607421875,-10.507482528686523,41.47510528564453
1634125172295437600,18.3874375,24.62548828125,-10.743856430053711,41.4752197265625
1634125172315317500,18.4073173828125,24.81585693359375,-10.56987190246582,41.278717041015625
1634125172335197400,18.427197509765627,24.93505859375,-10.505189895629883,41.46018981933594
1634125172355076600,18.44707666015625,24.961883544921875,-10.625085830688477,41.368656158447266
1634125172374956500,18.46695654296875,25.0164794921875,-10.573362350463867,41.16748809814453
1634125172394836500,18.48683642578125,25.363983154296875,-10.588262557983398,41.409812927246094
1634125172414716400,18.50671630859375,25.152984619140625,-10.523965835571289,41.223548889160156
1634125172434596600,18.5265966796875,25.476226806640625,-10.68147087097168,40.92634201049805
1634125172454476500,18.5464765625,25.71319580078125,-10.540048599243164,41.204742431640625
1634125172474355500,18.56635546875,25.074432373046875,-10.331403732299805,40.89347839355469
1634125172494235400,18.5862353515625,25.135955810546875,-10.259160995483398,41.25897216796875
1634125172514115600,18.606115478515626,25.356292724609375,-10.37910270690918,41.09459686279297
1634125172533995500,18.62599560546875,25.285858154296875,-10.641729354858398,41.08454132080078
1634125172553875500,18.64587548828125,25.43463134765625,-10.618864059448242,40.97151184082031
1634125172573754600,18.665754638671874,25.5810546875,-10.662015914916992,41.17310333251953
1634125172593634600,18.685634521484374,25.3692626953125,-10.559202194213867,40.99586486816406
1634125172613514500,18.705514404296874,25.7008056640625,-10.751443862915039,41.10296630859375
1634125172633394400,18.72539453125,25.401336669921875,-10.954610824584961,40.85368347167969
1634125172653274600,18.745274658203126,24.983551025390625,-10.752691268920898,41.1141357421875
1634125172673153300,18.7651533203125,25.312103271484375,-10.771482467651367,40.90258026123047
1634125172693033500,18.785033447265626,25.341949462890625,-11.120576858520508,41.2655143737793
1634125172712913400,18.804913330078126,25.565155029296875,-11.105733871459961,41.052955627441406
1634125172732793600,18.824793701171874,25.4537353515625,-11.273481369018555,40.90913391113281
1634125172752673500,18.844673583984374,25.031646728515625,-11.613382339477539,40.842315673828125
1634125172772553500,18.864553466796874,25.09197998046875,-11.585260391235352,40.729984283447266
1634125172792432600,18.8844326171875,24.841949462890625,-11.534265518188477,40.78401184082031
1634125172812312600,18.9043125,24.890289306640625,-11.398069381713867,41.04497528076172
1634125172832192500,18.924192626953126,25.151123046875,-11.584413528442383,40.92286682128906
1634125172852072400,18.944072509765626,25.147979736328125,-11.583150863647461,40.825592041015625
1634125172871952600,18.96395263671875,25.3756103515625,-11.736703872680664,40.927330017089844
1634125172891831600,18.98383154296875,25.398406982421875,-11.851373672485352,40.58525848388672
1634125172911711500,19.00371142578125,25.6435546875,-11.593183517456055,40.516632080078125
1634125172931591400,19.02359130859375,25.38006591796875,-11.689779281616211,40.76250076293945
1634125172951471600,19.0434716796875,25.50537109375,-11.964010238647461,40.58637237548828
1634125172971351600,19.0633515625,25.73736572265625,-11.812192916870117,40.592384338378906
1634125172991231500,19.0832314453125,25.7847900390625,-12.061243057250977,40.57244110107422
1634125173011110700,19.103110595703125,25.5555419921875,-12.05317497253418,40.3048210144043
1634125173030990600,19.122990478515625,25.427001953125,-11.886938095092773,40.319801330566406
1634125173050870500,19.14287060546875,25.169647216796875,-12.152135848999023,40.37737274169922
1634125173070750500,19.16275048828125,25.603302001953125,-12.255304336547852,40.227657318115234
1634125173090630700,19.182630615234373,25.906036376953125,-12.210000991821289,39.96104049682617
1634125173110509600,19.202509521484377,25.851226806640625,-12.243844985961914,40.07264709472656
1634125173130389500,19.222389404296877,25.8345947265625,-12.452520370483398,40.039398193359375
1634125173150269400,19.24226953125,25.88238525390625,-12.754369735717773,39.976966857910156
1634125173170149600,19.262149658203125,25.846221923828125,-12.726327896118164,39.640296936035156
1634125173190029600,19.282029541015625,26.07086181640625,-12.630678176879883,39.43077087402344
1634125173209908500,19.301908447265625,26.40582275390625,-12.862886428833008,39.441715240478516
1634125173229788400,19.321788330078125,26.115447998046875,-12.654333114624023,39.59654998779297
1634125173249668400,19.34166845703125,26.452239990234375,-12.844438552856445,39.307159423828125
1634125173269548300,19.36154833984375,26.567596435546875,-12.775102615356445,39.34880828857422
1634125173289428200,19.38142822265625,26.54168701171875,-12.902597427368164,39.034942626953125
1634125173309307400,19.401307373046876,26.76654052734375,-12.911760330200195,39.000911712646484
1634125173329187000,19.42118701171875,26.131378173828125,-13.000818252563477,39.08393859863281
1634125173349067300,19.4410673828125,26.2987060546875,-13.013067245483398,38.843994140625
1634125173368947200,19.460947265625,26.688995361328125,-13.064661026000977,39.00175094604492
1634125173388827400,19.480827392578124,26.78448486328125,-13.060327529907227,38.896732330322266
1634125173408707300,19.500707275390624,27.019256591796875,-12.943368911743164,39.01300048828125
1634125173428586200,19.520586181640624,26.962066650390625,-13.275762557983398,38.83095169067383
1634125173448466200,19.540466064453124,27.300567626953125,-13.267210006713867,38.57927703857422
1634125173468346400,19.560346435546876,27.24371337890625,-13.471921920776367,38.677207946777344
1634125173488226000,19.58022607421875,27.397796630859375,-13.361867904663086,38.51874542236328
1634125173508106200,19.600106201171876,27.247314453125,-13.374948501586914,38.427398681640625
1634125173527985400,19.6199853515625,27.2425537109375,-13.610845565795898,38.50860595703125
1634125173547865000,19.639864990234376,27.338287353515625,-13.444459915161133,38.479408264160156
1634125173567745300,19.659745361328124,27.165740966796875,-13.778085708618164,38.516910552978516
1634125173587625200,19.679625244140624,27.208984375,-13.552656173706055,38.60957336425781
1634125173607505400,19.69950537109375,27.180694580078125,-13.519323348999023,38.47087860107422
1634125173627385300,19.71938525390625,27.2156982421875,-13.489809036254883,38.559974670410156
1634125173647264300,19.73926416015625,27.004180908203125,-13.500650405883789,38.320980072021484
1634125173667144200,19.759144287109375,27.571136474609375,-13.301214218139648,38.18406677246094
1634125173687024400,19.7790244140625,27.190460205078125,-13.196714401245117,38.47105407714844
1634125173706904000,19.798904052734375,27.255401611328125,-13.13807487487793,38.413230895996094
1634125173726784300,19.8187841796875,27.430633544921875,-13.085447311401367,38.61507797241211
1634125173746663400,19.838663330078123,27.39154052734375,-13.160848617553711,38.58271408081055
1634125173766543000,19.858543212890623,27.41400146484375,-13.084402084350586,38.83111572265625
1634125173786423300,19.87842333984375,27.405181884765625,-13.191793441772461,38.701107025146484
1634125173806303200,19.89830322265625,27.679168701171875,-12.82398796081543,38.78197479248047
1634125173826183400,19.918183349609375,27.92889404296875,-13.04115104675293,38.85786056518555
1634125173846062000,19.93806201171875,27.52618408203125,-13.003866195678711,38.97438430786133
1634125173865942300,19.9579423828125,27.06890869140625,-12.992818832397461,39.254539489746094
1634125173885822200,19.977822265625,26.9725341796875,-12.787942886352539,39.261505126953125
1634125173905702400,19.997702392578127,27.192474365234375,-12.815916061401367,39.069786071777344
1634125173925582000,20.01758203125,27.417694091796875,-12.717107772827148,39.01947784423828
1634125173945461200,20.037461181640627,27.2786865234375,-12.521886825561523,38.86762237548828
1634125173965341400,20.057341552734375,26.80810546875,-12.529176712036133,39.026641845703125
1634125173985221400,20.077221435546875,27.03472900390625,-12.276422500610352,39.22347640991211
1634125174005101300,20.097101318359375,27.069183349609375,-12.578619003295898,39.03773498535156
1634125174024981200,20.116981201171875,26.846954345703125,-12.43144416809082,39.31787872314453
1634125174044861400,20.136861328125,26.727325439453125,-12.035886764526367,39.35072326660156
1634125174064740000,20.156739990234374,27.029083251953125,-11.981935501098633,39.642112731933594
1634125174084620300,20.176620361328126,26.575958251953125,-11.788915634155273,39.53369903564453
1634125174104500200,20.196500244140626,26.529571533203125,-11.876958847045898,39.80104064941406
1634125174124380400,20.21638037109375,26.51971435546875,-11.966176986694336,39.93515396118164
1634125174144260000,20.236260009765626,26.564727783203125,-12.211786270141602,39.63981628417969
1634125174164139300,20.25613916015625,26.5211181640625,-11.997808456420898,39.82084274291992
1634125174184019200,20.276019287109374,26.100860595703125,-12.001176834106445,39.922637939453125
1634125174203899400,20.2958994140625,26.538909912109375,-11.920236587524414,39.761383056640625
1634125174223779300,20.315779296875,26.168731689453125,-11.935823440551758,39.847923278808594
1634125174243659300,20.3356591796875,26.467620849609375,-11.845808029174805,39.887962341308594
1634125174263538200,20.3555380859375,26.2681884765625,-12.174680709838867,39.6306266784668
1634125174283418000,20.375418212890626,26.58203125,-12.035638809204102,39.76799774169922
1634125174303298300,20.39529833984375,26.1558837890625,-11.78358268737793,39.80220413208008
1634125174323178000,20.415177978515626,26.1304931640625,-11.97822380065918,40.153160095214844
1634125174343058200,20.43505810546875,26.259613037109375,-11.895074844360352,39.982093811035156
1634125174362937000,20.45493701171875,26.642486572265625,-11.857400894165039,39.996360778808594
1634125174382817000,20.474817138671874,26.68438720703125,-11.755926132202148,39.84828186035156
1634125174402697000,20.494697021484374,26.8863525390625,-11.877447128295898,39.527587890625
1634125174422577200,20.5145771484375,26.869384765625,-11.74601936340332,39.941619873046875
1634125174442457000,20.53445703125,26.417816162109375,-11.884916305541992,39.996578216552734
