Acc_timestamp,Accx,Accy,Accz,Gyro_timestamp,Gyrox,Gyroy,Gyroz,Baro_timestamp,Pressure_Reading
 485912480.000000, 0.698704 , 3.972085, 8.662018, 0.000000, 0.000000,  0.000000,  0.000000, 0.000000,  0.000000
 0.000000, 0.662812 , 4.027121, 8.664411, 0.000000, 0.000000,  0.000000,  0.000000, 0.000000,  0.000000 
 20000.000000, 0.825524 , 4.046263, 8.657232, 485933280.000000, -0.070000,  -0.070000,  -0.070000, 0.000000,  0.000000 
 39968.000000, 0.849452 , 4.041477, 8.585447, 485953280.000000, -0.070000,  -0.070000,  -0.070000, 0.000000,  0.000000 
 59968.000000, 0.976272 , 4.197011, 8.360522, 485973280.000000, -0.350000,  6.720000,  3.850000, 0.000000,  0.000000 
 80288.000000, 1.103091 , 4.484150, 8.087741, 485993248.000000, 4.970000,  0.210000,  -3.850000, 0.000000,  0.000000 
 99936.000000, 1.081556 , 4.543970, 8.075776, 486013568.000000, 6.580000,  0.350000,  -5.110000, 0.000000,  0.000000 
 119936.000000, 0.926022 , 4.414758, 8.161918, 486033248.000000, 2.730000,  1.120000,  -6.930000, 0.000000,  0.000000 
 139936.000000, 0.861416 , 4.431508, 8.283953, 486053216.000000, -0.770000,  1.750000,  -9.170000, 0.000000,  0.000000 
 159904.000000, 0.839881 , 4.323831, 8.518449, 486073216.000000, -4.830000,  1.120000,  -11.410000, 0.000000,  0.000000 
 180224.000000, 0.734596 , 4.079762, 8.736196, 486093216.000000, -9.660000,  0.980000,  -11.900000, 0.000000,  0.000000 
 199904.000000, 0.638884 , 3.981657, 8.846266, 486113536.000000, -13.580000,  1.400000,  -9.520000, 0.000000,  0.000000 
 219872.000000, 0.713061 , 3.948158, 8.827123, 486133184.000000, -17.080000,  1.260000,  -6.300000, 0.000000,  0.000000 
 239872.000000, 1.007378 , 4.271189, 8.772088, 486153184.000000, -18.270000,  1.120000,  -0.980000, 0.000000,  0.000000 
 259872.000000, 1.435694 , 4.855037, 8.578269, 486173152.000000, -13.300000,  2.170000,  5.110000, 0.000000,  0.000000 
 280160.000000, 1.622334 , 5.288138, 8.391629, 486193152.000000, -3.920000,  6.510000,  11.760000, 0.000000,  0.000000 
 299840.000000, 1.488336 , 5.599205, 8.137990, 486213472.000000, 2.870000,  13.160000,  13.300000, 0.000000,  0.000000 
 319840.000000, -0.248854 , 5.544170, 7.415358, 486233120.000000, 11.620000,  22.680000,  12.390000, 0.000000,  0.000000 
 339808.000000, 0.294317 , 5.694918, 7.159326, 486253120.000000, 24.430000,  26.320000,  -27.719999, 0.000000,  0.000000 
 359808.000000, 0.449851 , 5.455636, 6.575477, 486273120.000000, 21.280001,  10.220000,  -0.420000, 0.000000,  0.000000 
 380128.000000, 0.691526 , 6.345766, 5.970093, 486293088.000000, 18.200001,  10.220000,  28.630001, 0.000000,  0.000000 
 399776.000000, 0.777667 , 6.537192, 5.539384, 486313408.000000, 14.420000,  19.320000,  24.990000, 0.000000,  0.000000 
 419776.000000, 0.636491 , 5.771489, 5.781059, 486333088.000000, -8.540000,  17.010000,  36.259998, 0.000000,  0.000000 
 439744.000000, 0.535992 , 4.721039, 5.965307, 486353056.000000, -41.299999,  23.940001,  38.990002, 0.000000,  0.000000 
 459744.000000, 0.782453 , 4.673182, 5.771489, 486373056.000000, -48.860001,  30.660000,  42.700001, 0.000000,  0.000000 
 480064.000000, 1.086342 , 5.544170, 5.429315, 486393056.000000, -30.240000,  39.900002,  50.959999, 0.000000,  0.000000 
 499776.000000, 1.048056 , 5.764310, 4.869394, 486413344.000000, -5.600000,  54.880001,  57.330002, 0.000000,  0.000000 
 519712.000000, 0.887737 , 5.790630, 4.618148, 486433056.000000, 0.280000,  69.930000,  58.310001, 0.000000,  0.000000 
 539712.000000, 0.710668 , 5.572884, 4.398008, 486452992.000000, -15.260000,  84.769997,  57.470001, 0.000000,  0.000000 
 559680.000000, 0.208176 , 5.187639, 4.357330, 486472992.000000, -36.540001,  99.750000,  59.150002, 0.000000,  0.000000 
 580000.000000, -0.531207 , 4.924429, 4.307081, 486492992.000000, -56.770000,  120.400002,  63.770000, 0.000000,  0.000000 
 599680.000000, -1.890330 , 4.309474, 4.063013, 486513280.000000, -67.059998,  146.720001,  72.239998, 0.000000,  0.000000 
 619648.000000, -4.316652 , 3.010171, 4.153940, 486532960.000000, -85.260002,  161.490005,  78.330002, 0.000000,  0.000000 
 639648.000000, -7.465607 , 1.289732, 4.055835, 486552960.000000, -106.540001,  201.669998,  94.080002, 0.000000,  0.000000 
 659648.000000, -9.442079 , 0.382852, 2.622534, 486572928.000000, -139.300003,  259.769989,  113.610001, 0.000000,  0.000000 
 679936.000000, -15.857236 , -2.474179, -0.648455, 486592928.000000, -178.289993,  313.390015,  123.620003, 0.000000,  0.000000 
 699616.000000, -17.941383 , -3.275774, -1.653440, 486613248.000000, -216.720001,  344.959991,  124.739998, 0.000000,  0.000000 
 719616.000000, -21.494726 , -4.398008, -1.998007, 486632896.000000, -265.790009,  348.110016,  139.860001, 0.000000,  0.000000 
 739584.000000, -23.234308 , -3.962514, 0.588634, 486652896.000000, -330.750000,  318.429993,  154.770004, 0.000000,  0.000000 
 759584.000000, -23.988047 , -2.586641, 5.218746, 486672896.000000, -393.540009,  311.709991,  169.820007, 0.000000,  0.000000 
 779904.000000, -22.669601 , -2.720639, 5.797810, 486692864.000000, -411.390015,  322.000000,  170.800003, 0.000000,  0.000000 
 799552.000000, -22.564318 , -2.768496, 5.795416, 486713184.000000, -352.170013,  370.299988,  167.789993, 0.000000,  0.000000 
 819552.000000, -22.229322 , -5.670990, 4.713861, 486732864.000000, -252.839996,  409.010010,  160.369995, 0.000000,  0.000000 
 839552.000000, -18.723837 , -8.896514, 1.727618, 486772832.000000, 23.590000,  315.630005,  129.149994, 546771008.000000,  1010.398315 
 859520.000000, -14.809179 , -6.903293, 0.492921, 0.000000, 0.000000,  0.000000,  0.000000, 0.000000,  0.000000 
 879840.000000, -12.244074 , -2.842674, -0.780060, 486792832.000000, 85.190002,  210.979996,  107.800003, 0.000000,  0.000000 
 899520.000000, -12.803994 , 0.380459, -0.430708, 486813120.000000, 125.510002,  159.389999,  102.410004, 0.000000,  0.000000 
 919488.000000, -13.442878 , 1.299303, 0.162712, 486832800.000000, 130.130005,  136.639999,  63.420002, 0.000000,  0.000000 
 939488.000000, -12.672389 , 0.727418, 1.162912, 486852800.000000, 105.559998,  103.879997,  18.340000, 0.000000,  0.000000 
 959488.000000, -10.975878 , 0.162712, 1.933401, 486872768.000000, 58.099998,  57.820000,  -13.090000, 0.000000,  0.000000 
 979776.000000, -9.583255 , 0.562313, 2.435893, 486892768.000000, 17.010000,  31.219999,  -22.960001, 0.000000,  0.000000 
 999456.000000, -8.166703 , 1.043271, 1.835295, 486913088.000000, -14.980000,  18.830000,  -29.750000, 0.000000,  0.000000 
 1019456.000000, -6.764510 , 0.878166, 1.655833, 486932736.000000, -45.080002,  10.220000,  -35.000000, 0.000000,  0.000000 
 1039424.000000, -5.603990 , 0.315853, 1.722832, 486952736.000000, -79.800003,  0.280000,  -38.150002, 0.000000,  0.000000 
 1059424.000000, -4.907679 , -0.315853, 1.710868, 486972736.000000, -115.220001,  -2.870000,  -31.360001, 0.000000,  0.000000 
 1079712.000000, -5.520242 , -0.646062, 1.581656, 486992704.000000, -145.039993,  11.900000,  -19.950001, 0.000000,  0.000000 
 1099392.000000, -7.130611 , -0.894916, 1.351945, 487013024.000000, -166.250000,  38.360001,  -15.050000, 0.000000,  0.000000 
 1119392.000000, -8.894121 , -1.667797, 1.261017, 487032704.000000, -174.720001,  68.739998,  -4.900000, 0.000000,  0.000000 
 1139392.000000, -10.413565 , -2.431108, 1.026521, 487052672.000000, -173.669998,  74.269997,  15.890000, 0.000000,  0.000000 
 1159360.000000, -11.246266 , -2.555535, 2.677568, 487072672.000000, -173.110001,  63.490002,  31.360001, 0.000000,  0.000000 
 1179680.000000, -10.686346 , -2.543570, 3.505485, 487092672.000000, -184.800003,  51.310001,  38.360001, 0.000000,  0.000000 
 1199360.000000, -10.808380 , -3.125026, 4.570292, 487112960.000000, -199.919998,  29.960001,  36.049999, 0.000000,  0.000000 
 1219328.000000, -12.074183 , -4.043870, 5.852845, 487132640.000000, -210.279999,  23.170000,  19.950001, 0.000000,  0.000000 
 1239328.000000, -13.878372 , -5.484349, 6.824330, 487152640.000000, -202.509995,  21.210001,  0.280000, 0.000000,  0.000000 
 1259296.000000, -15.610775 , -7.092326, 7.415358, 487172608.000000, -161.419998,  12.390000,  -30.380001, 0.000000,  0.000000 
 1279616.000000, -17.862421 , -7.625926, 6.994221, 487192608.000000, -81.340004,  -3.360000,  -49.490002, 0.000000,  0.000000 
 1299296.000000, -19.515860 , -5.647062, 4.601398, 487212896.000000, 47.810001,  -12.180000,  -50.119999, 0.000000,  0.000000 
 1319296.000000, -16.094126 , -2.407180, 1.347159, 487232576.000000, 194.740005,  -36.330002,  -57.260002, 0.000000,  0.000000 
 1339264.000000, -12.713067 , -0.021535, 0.129212, 487252576.000000, 272.160004,  -90.860001,  -56.490002, 0.000000,  0.000000 
 1359264.000000, -11.550155 , 0.914058, 0.830309, 487272576.000000, 232.889999,  -155.330002,  -70.559998, 0.000000,  0.000000 
 1379552.000000, -13.194024 , 0.308674, 1.753939, 487292544.000000, 130.339996,  -190.330002,  -97.090004, 0.000000,  0.000000 
 1399232.000000, -14.888142 , -0.978664, 0.976272, 487312864.000000, 43.330002,  -189.979996,  -132.160004, 0.000000,  0.000000 
 1419232.000000, -14.510076 , -1.816152, 0.239282, 487332544.000000, 2.310000,  -191.800003,  -159.460007, 0.000000,  0.000000 
 1439232.000000, -13.696517 , -2.108077, -0.009571, 487352544.000000, -5.460000,  -205.729996,  -155.259995, 0.000000,  0.000000 
 1459200.000000, -12.734602 , -2.019542, -0.193819, 487372512.000000, 2.660000,  -212.869995,  -140.000000, 0.000000,  0.000000 
 1479488.000000, -11.471190 , -1.998007, -0.267996, 487392512.000000, 17.500000,  -207.970001,  -125.650002, 0.000000,  0.000000 
 1499232.000000, -10.133603 , -2.014757, -0.387637, 487412800.000000, 36.540001,  -202.720001,  -115.989998, 0.000000,  0.000000 
 1519168.000000, -9.056834 , -2.117648, -0.488136, 487432512.000000, 55.369999,  -196.979996,  -108.430000, 0.000000,  0.000000 
 1539168.000000, -8.267202 , -1.966900, -0.753739, 487452480.000000, 72.169998,  -191.169998,  -100.169998, 0.000000,  0.000000 
 1559168.000000, -7.666604 , -1.713261, -1.026521, 487472448.000000, 88.410004,  -180.809998,  -90.370003, 0.000000,  0.000000 
 1579456.000000, -7.487142 , -1.722832, -1.651048, 487492448.000000, 101.989998,  -168.000000,  -80.010002, 0.000000,  0.000000 
 1599136.000000, -7.836494 , -2.005185, -1.538585, 487512736.000000, 103.599998,  -153.789993,  -71.120003, 0.000000,  0.000000 
 1619104.000000, -7.738388 , -1.627119, -1.383051, 487532416.000000, 86.099998,  -138.880005,  -61.670002, 0.000000,  0.000000 
 1639104.000000, -7.231110 , -0.729811, -1.031307, 487552416.000000, 71.050003,  -120.120003,  -37.520000, 0.000000,  0.000000 
 1659104.000000, -7.147361 , -0.066999, -0.631705, 487572416.000000, 78.889999,  -95.480003,  -9.800000, 0.000000,  0.000000 
 1679392.000000, -7.424929 , -0.138784, -0.880559, 487592384.000000, 80.709999,  -67.480003,  3.290000, 0.000000,  0.000000 
 1699072.000000, -7.357929 , -0.181855, -1.481157, 487612704.000000, 63.700001,  -31.290001,  11.270000, 0.000000,  0.000000 
 1719072.000000, -7.027720 , 0.332602, -1.856830, 487632352.000000, 35.070000,  -1.330000,  22.750000, 0.000000,  0.000000 
 1739040.000000, -7.793423 , 0.567099, -1.320838, 487652352.000000, 6.020000,  26.670000,  32.340000, 0.000000,  0.000000 
 1759040.000000, -9.856036 , -0.179462, -0.823131, 487672352.000000, -27.020000,  63.910000,  25.830000, 0.000000,  0.000000 
 1779328.000000, -12.098111 , -0.787239, -0.464208, 487692320.000000, -51.660000,  112.770004,  16.660000, 0.000000,  0.000000 
 1799008.000000, -13.902299 , -0.923629, 0.232104, 487712640.000000, -47.459999,  154.910004,  16.870001, 0.000000,  0.000000 
 1819008.000000, -16.711473 , -0.559920, 1.552942, 487732320.000000, -9.660000,  187.600006,  28.490000, 0.000000,  0.000000 
 1839008.000000, -17.804993 , -0.693919, 1.938186, 487752288.000000, 38.779999,  227.850006,  44.730000, 0.000000,  0.000000 
 1858976.000000, -15.586846 , -0.535992, 1.162912, 487772288.000000, 87.500000,  272.160004,  66.430000, 547770432.000000,  1010.387512 
 1879296.000000, -14.158331 , 0.114855, -0.126820, 487792256.000000, 128.309998,  300.579987,  84.629997, 0.000000,  0.000000 
 1898944.000000, -14.493326 , -0.184247, -0.382852, 487812576.000000, 134.610001,  304.640015,  91.279999, 0.000000,  0.000000 
 1918944.000000, -15.357137 , -0.303888, 0.586242, 487832256.000000, 90.300003,  296.239990,  84.769997, 0.000000,  0.000000 
 1938944.000000, -16.034306 , 0.047856, 1.761117, 487852224.000000, 23.170000,  285.179993,  78.959999, 0.000000,  0.000000 
 1958912.000000, -15.739986 , 0.234497, 2.495714, 487872224.000000, 1.750000,  271.739990,  78.470001, 0.000000,  0.000000 
 1979232.000000, -14.081761 , 0.442672, 2.292324, 487892224.000000, 33.810001,  238.070007,  57.889999, 0.000000,  0.000000 
 1998912.000000, -11.952149 , 1.497907, 1.040878, 487912544.000000, 70.769997,  189.210007,  34.020000, 0.000000,  0.000000 
 2018880.000000, -10.040283 , 2.567499, 0.287139, 487932192.000000, 78.680000,  139.020004,  10.640000, 0.000000,  0.000000 
 2038880.000000, -8.767302 , 2.701497, 0.291924, 487952192.000000, 46.410000,  94.919998,  -14.070000, 0.000000,  0.000000 
 2058880.000000, -8.145168 , 2.380858, 0.409173, 487972160.000000, -8.120000,  64.540001,  -38.570000, 0.000000,  0.000000 
 2079168.000000, -7.994420 , 1.866402, 0.550349, 487992160.000000, -58.869999,  52.220001,  -53.900002, 0.000000,  0.000000 
 2098848.000000, -7.922636 , 1.421337, 0.985843, 488012480.000000, -99.680000,  46.759998,  -62.369999, 0.000000,  0.000000 
 2118848.000000, -7.702496 , 0.691526, 1.368695, 488032128.000000, -133.839996,  38.080002,  -61.459999, 0.000000,  0.000000 
 2138816.000000, -7.401000 , -0.277567, 1.737189, 488052128.000000, -165.690002,  31.990000,  -52.150002, 0.000000,  0.000000 
 2158816.000000, -7.271788 , -1.646262, 2.007578, 488072128.000000, -199.779999,  30.240000,  -35.560001, 0.000000,  0.000000 
 2179136.000000, -8.214561 , -2.847459, 2.493321, 488092096.000000, -229.949997,  39.900002,  -11.410000, 0.000000,  0.000000 
 2198784.000000, -10.011569 , -3.541377, 2.739782, 488112416.000000, -243.110001,  64.470001,  16.100000, 0.000000,  0.000000 
 2218784.000000, -12.114861 , -4.063013, 3.419343, 488132096.000000, -225.399994,  92.750000,  47.459999, 0.000000,  0.000000 
 2238784.000000, -13.892728 , -4.742575, 4.663611, 488152064.000000, -177.100006,  100.940002,  76.440002, 0.000000,  0.000000 
 2258752.000000, -15.153747 , -5.103891, 5.632704, 488172064.000000, -107.590004,  95.269997,  104.160004, 0.000000,  0.000000 
 2279072.000000, -15.649059 , -4.685147, 5.010571, 488192064.000000, -27.650000,  92.050003,  120.330002, 0.000000,  0.000000 
 2298752.000000, -14.840286 , -4.115655, 3.299703, 488212352.000000, 45.779999,  80.570000,  116.900002, 0.000000,  0.000000 
 2318720.000000, -15.665810 , -3.065206, 3.041277, 488232032.000000, 94.220001,  51.029999,  93.660004, 0.000000,  0.000000 
 2338720.000000, -17.252251 , -0.990629, 1.770689, 488252032.000000, 108.709999,  14.070000,  43.959999, 0.000000,  0.000000 
 2358720.000000, -19.025333 , 0.509671, 0.605384, 488272000.000000, 130.619995,  -18.969999,  0.070000, 0.000000,  0.000000 
 2379008.000000, -18.046667 , 0.593420, -0.856631, 488292000.000000, 147.770004,  -73.080002,  -52.290001, 0.000000,  0.000000 
 2398688.000000, -14.256437 , -0.059821, -1.189233, 488312288.000000, 125.510002,  -150.149994,  -89.669998, 0.000000,  0.000000 
 2418656.000000, -12.461821 , -0.504886, -0.887737, 488331968.000000, 76.160004,  -232.190002,  -103.879997, 0.000000,  0.000000 
 2438656.000000, -13.067204 , -0.605384, -0.550349, 488351968.000000, 51.310001,  -261.940002,  -114.239998, 0.000000,  0.000000 
 2458656.000000, -14.471791 , -0.528814, -0.452243, 488371968.000000, 61.740002,  -257.390015,  -118.160004, 0.000000,  0.000000 
 2478944.000000, -14.861821 , -0.538385, -0.256032, 488391936.000000, 87.360001,  -259.140015,  -115.989998, 0.000000,  0.000000 
 2498656.000000, -14.072189 , -0.634098, -0.102891, 488412256.000000, 101.989998,  -265.649994,  -102.970001, 0.000000,  0.000000 
 2518624.000000, -13.155738 , -1.055235, -0.390030, 488431968.000000, 129.990005,  -277.899994,  -93.099998, 0.000000,  0.000000 
 2538592.000000, -12.342178 , -1.313660, -0.662812, 488451904.000000, 144.550003,  -268.239990,  -71.820000, 0.000000,  0.000000 
 2558592.000000, -11.940186 , -1.339981, -0.794417, 488471904.000000, 136.220001,  -243.320007,  -51.380001, 0.000000,  0.000000 
 2578912.000000, -10.348958 , -1.162912, -1.191626, 488491872.000000, 115.220001,  -214.339996,  -32.549999, 0.000000,  0.000000 
 2598560.000000, -9.987641 , -1.048056, -1.268196, 488512192.000000, 97.230003,  -193.690002,  -19.110001, 0.000000,  0.000000 
 2618560.000000, -9.276974 , -0.981057, -1.397408, 488531872.000000, 82.250000,  -181.860001,  -14.770000, 0.000000,  0.000000 
 2638560.000000, -8.630912 , -1.103091, -1.505085, 488551872.000000, 70.139999,  -173.809998,  -13.650000, 0.000000,  0.000000 
 2658528.000000, -8.145168 , -1.339981, -1.308874, 488571840.000000, 58.660000,  -166.880005,  -14.350000, 0.000000,  0.000000 
 2678848.000000, -7.860423 , -1.493121, -1.222732, 488591840.000000, 46.900002,  -160.860001,  -14.840000, 0.000000,  0.000000 
 2698528.000000, -7.934600 , -1.194018, -1.648655, 488612128.000000, 39.340000,  -150.360001,  -8.820000, 0.000000,  0.000000 
 2718496.000000, -7.714460 , -0.741775, -2.158326, 488631808.000000, 37.029999,  -133.000000,  1.610000, 0.000000,  0.000000 
 2738560.000000, -7.515855 , -0.253639, -2.505285, 488651808.000000, 36.820000,  -118.230003,  15.330000, 0.000000,  0.000000 
 2759776.000000, -7.329216 , 0.093320, -2.818745, 488671872.000000, 19.110001,  -103.739998,  24.430000, 0.000000,  0.000000 
 2779328.000000, -7.149754 , -0.078963, -3.093920, 488693056.000000, -16.660000,  -83.090004,  29.960001, 0.000000,  0.000000 
 2798976.000000, -7.142576 , -0.339781, -3.244668, 488712640.000000, -63.560001,  -59.779999,  29.190001, 0.000000,  0.000000 
 2819232.000000, -7.240681 , -0.497707, -3.105884, 488732288.000000, -120.540001,  -34.720001,  16.100000, 0.000000,  0.000000 
 2839008.000000, -8.008778 , -0.571885, -2.069792, 488752544.000000, -168.490005,  -3.570000,  4.760000, 0.000000,  0.000000 
 2859456.000000, -9.485149 , -0.832702, -0.667598, 488772288.000000, -190.470001,  31.920000,  -5.460000, 548770432.000000,  1010.372253 
 2879648.000000, -11.605190 , -1.545763, -0.409173, 488792736.000000, -181.229996,  78.820000,  -10.430000, 0.000000,  0.000000 
 2899360.000000, -14.268401 , -2.237289, -1.081556, 488812960.000000, -142.240005,  129.009995,  -1.610000, 0.000000,  0.000000 
 2919424.000000, -17.103895 , -3.069991, -0.468993, 488832672.000000, -84.070000,  186.130005,  19.180000, 0.000000,  0.000000 
 2939360.000000, -17.922241 , -3.639483, 1.179662, 488852704.000000, -18.340000,  225.190002,  46.480000, 0.000000,  0.000000 
 2959744.000000, -16.192232 , -3.069991, 1.866402, 488872640.000000, 51.380001,  252.490005,  77.209999, 0.000000,  0.000000 
 2979936.000000, -14.885750 , -2.282753, 1.483550, 488893024.000000, 129.080002,  268.239990,  113.050003, 0.000000,  0.000000 
 2999648.000000, -15.227923 , -1.497907, 0.545564, 488913248.000000, 208.809998,  266.769989,  125.090004, 0.000000,  0.000000 
 3019712.000000, -15.565310 , -0.143569, 0.521635, 488932928.000000, 246.330002,  255.850006,  105.419998, 0.000000,  0.000000 
 3039584.000000, -15.055640 , 1.564906, 1.406980, 488952992.000000, 213.850006,  234.149994,  87.080002, 0.000000,  0.000000 
 3059424.000000, -14.411970 , 2.804388, 2.062613, 488972896.000000, 137.970001,  204.539993,  67.199997, 0.000000,  0.000000 
 3080992.000000, -13.459626 , 2.916851, 2.024328, 488992704.000000, 54.740002,  176.680008,  33.599998, 0.000000,  0.000000 
 3100704.000000, -12.277573 , 2.490928, 1.923829, 489014272.000000, -26.460001,  147.839996,  -9.030000, 0.000000,  0.000000 
 3120704.000000, -10.961520 , 1.409373, 1.794617, 489033984.000000, -109.900002,  118.650002,  -43.189999, 0.000000,  0.000000 
 3140672.000000, -9.779467 , 0.217747, 2.045863, 489054016.000000, -176.889999,  91.629997,  -58.939999, 0.000000,  0.000000 
 3160736.000000, -8.997013 , -0.509671, 2.821138, 489073952.000000, -220.149994,  69.160004,  -64.120003, 0.000000,  0.000000 
 3180928.000000, -8.310273 , -0.725025, 3.105884, 489094016.000000, -236.110001,  57.400002,  -54.250000, 0.000000,  0.000000 
 3200608.000000, -7.750352 , -0.744168, 3.115455, 489114240.000000, -218.820007,  51.590000,  -34.160000, 0.000000,  0.000000 
 3220704.000000, -7.209574 , -0.727418, 3.275774, 489133888.000000, -185.430008,  49.209999,  -14.280000, 0.000000,  0.000000 
 3240608.000000, -6.745367 , -0.789631, 3.311667, 489153984.000000, -153.860001,  47.529999,  11.550000, 0.000000,  0.000000 
 3260672.000000, -6.829116 , -0.937986, 3.464807, 489173888.000000, -131.389999,  55.720001,  39.130001, 0.000000,  0.000000 
 3280864.000000, -7.764710 , -1.275374, 3.359523, 489193952.000000, -113.959999,  68.389999,  65.309998, 0.000000,  0.000000 
 3300576.000000, -9.841680 , -1.416551, 3.457629, 489214176.000000, -96.250000,  86.800003,  86.099998, 0.000000,  0.000000 
 3320640.000000, -12.299109 , -1.780260, 3.952943, 489233856.000000, -81.269997,  108.080002,  100.029999, 0.000000,  0.000000 
 3340512.000000, -14.294723 , -2.237289, 4.893322, 489253920.000000, -63.209999,  115.849998,  109.059998, 0.000000,  0.000000 
 3360608.000000, -14.629718 , -2.845066, 5.096712, 489273824.000000, -41.439999,  104.300003,  109.480003, 0.000000,  0.000000 
 3380832.000000, -14.483756 , -3.163311, 4.599005, 489293920.000000, -13.090000,  80.989998,  105.980003, 0.000000,  0.000000 
 3400512.000000, -13.505091 , -2.627320, 4.335794, 489314112.000000, 11.970000,  53.060001,  84.629997, 0.000000,  0.000000 
 3420544.000000, -12.588640 , -1.301696, 4.007978, 489333824.000000, 21.559999,  4.340000,  47.670002, 0.000000,  0.000000 
 3440512.000000, -13.883157 , -0.538385, 4.319045, 489353856.000000, 21.420000,  -40.950001,  -1.960000, 0.000000,  0.000000 
 3460544.000000, -17.111074 , -1.694118, 4.754539, 489373792.000000, 25.690001,  -65.449997,  -57.959999, 0.000000,  0.000000 
 3480768.000000, -19.018154 , -3.046063, 3.022135, 489393856.000000, 47.250000,  -77.980003,  -105.279999, 0.000000,  0.000000 
 3500480.000000, -17.292929 , -2.194218, 1.325624, 489414048.000000, 100.379997,  -96.739998,  -111.650002, 0.000000,  0.000000 
 3520512.000000, -13.842479 , -0.550349, 0.055035, 489433760.000000, 168.070007,  -136.500000,  -86.379997, 0.000000,  0.000000 
 3540448.000000, -12.679568 , 0.593420, -0.160319, 489453824.000000, 200.550003,  -186.270004,  -60.549999, 0.000000,  0.000000 
 3560512.000000, -13.758730 , 1.246661, 0.378066, 489473728.000000, 175.559998,  -209.300003,  -57.470001, 0.000000,  0.000000 
 3580832.000000, -15.299707 , 1.253839, 0.334995, 489493792.000000, 122.080002,  -208.600006,  -63.000000, 0.000000,  0.000000 
 3600416.000000, -15.572490 , 0.308674, -0.559920, 489514112.000000, 80.570000,  -208.880005,  -68.739998, 0.000000,  0.000000 
 3620448.000000, -14.665611 , -0.533599, -0.770489, 489533696.000000, 53.970001,  -217.839996,  -69.300003, 0.000000,  0.000000 
 3640384.000000, -13.854443 , -1.012164, -0.820738, 489553728.000000, 21.280001,  -224.770004,  -54.740002, 0.000000,  0.000000 
 3660416.000000, -13.519447 , -1.062413, -0.497707, 489573696.000000, -4.970000,  -218.750000,  -36.680000, 0.000000,  0.000000 
 3680672.000000, -12.856635 , -0.983450, -0.495314, 489593696.000000, -16.870001,  -211.259995,  -28.559999, 0.000000,  0.000000 
 3700352.000000, -11.705689 , -0.940379, -0.610170, 489613952.000000, -14.560000,  -207.759995,  -27.370001, 0.000000,  0.000000 
 3720416.000000, -10.310673 , -0.851845, -0.725025, 489633632.000000, -8.260000,  -207.479996,  -34.860001, 0.000000,  0.000000 
 3740320.000000, -9.080762 , -0.758525, -0.643669, 489653696.000000, -6.790000,  -208.180008,  -44.520000, 0.000000,  0.000000 
 3760256.000000, -8.015956 , -0.461815, -0.937986, 489673600.000000, -8.330000,  -205.520004,  -56.490002, 0.000000,  0.000000 
 3780544.000000, -7.030113 , 0.263210, -1.730011, 489693568.000000, -7.630000,  -199.009995,  -69.019997, 0.000000,  0.000000 
 3800256.000000, -6.094519 , 1.107877, -2.053042, 489713856.000000, -2.380000,  -189.770004,  -75.879997, 0.000000,  0.000000 
 3820224.000000, -5.178068 , 1.316052, -1.777867, 489733536.000000, -0.420000,  -180.529999,  -75.250000, 0.000000,  0.000000 
 3840224.000000, -4.910072 , 0.591027, -1.249053, 489773504.000000, -20.160000,  -140.139999,  -54.670002, 0.000000,  0.000000 
 3860224.000000, -5.757132 , -0.416351, -1.186840, 0.000000, 0.000000,  0.000000,  0.000000, 549771648.000000,  1010.355896 
 3880512.000000, -7.111469 , -0.995414, -1.603191, 489793504.000000, -21.210001,  -93.099998,  -37.590000, 0.000000,  0.000000 
 3900192.000000, -7.910671 , -0.782453, -2.227718, 489813792.000000, -10.570000,  -48.580002,  -11.900000, 0.000000,  0.000000 
 3920192.000000, -7.692925 , -0.368495, -2.220540, 489833472.000000, -3.990000,  -18.830000,  16.660000, 0.000000,  0.000000 
 3940160.000000, -7.609176 , -0.421137, -2.720639, 489853472.000000, -8.890000,  3.780000,  36.330002, 0.000000,  0.000000 
 3960160.000000, -9.714860 , 0.088534, -1.679761, 489873472.000000, -19.460001,  33.459999,  42.279999, 0.000000,  0.000000 
 3980448.000000, -12.059827 , 0.014357, -2.007578, 489893440.000000, -33.810001,  90.160004,  35.630001, 0.000000,  0.000000 
 4000128.000000, -14.127225 , -0.787239, -1.928615, 489913728.000000, -29.330000,  144.690002,  38.920002, 0.000000,  0.000000 
 4020128.000000, -15.400207 , -1.789831, -0.736989, 489933440.000000, -23.170000,  177.380005,  37.660000, 0.000000,  0.000000 
 4040096.000000, -16.709082 , -2.234896, 1.270589, 489953408.000000, -19.879999,  217.699997,  52.009998, 0.000000,  0.000000 
 4060096.000000, -17.237894 , -2.249253, 1.981257, 489973408.000000, -7.910000,  267.610016,  84.699997, 0.000000,  0.000000 
 4080384.000000, -16.441084 , -2.254039, 1.208375, 489993376.000000, 27.930000,  310.869995,  118.790001, 0.000000,  0.000000 
 4100064.000000, -16.500904 , -1.947758, 0.452243, 490013696.000000, 89.320000,  324.029999,  143.500000, 0.000000,  0.000000 
 4120064.000000, -17.022539 , -0.894916, 1.246661, 490033376.000000, 137.270004,  312.480011,  138.389999, 0.000000,  0.000000 
 4140032.000000, -16.467405 , 0.330210, 2.060220, 490053344.000000, 129.990005,  293.860016,  119.840004, 0.000000,  0.000000 
 4160032.000000, -15.629916 , 1.184447, 1.897508, 490073344.000000, 78.750000,  269.010010,  97.440002, 0.000000,  0.000000 
 4180352.000000, -14.151153 , 1.854438, 1.366302, 490093344.000000, 19.950001,  241.149994,  57.470001, 0.000000,  0.000000 
 4200000.000000, -12.784851 , 2.261217, 1.261017, 490113632.000000, -17.219999,  201.529999,  22.889999, 0.000000,  0.000000 
 4220000.000000, -11.854043 , 2.213361, 1.447658, 490133312.000000, -38.290001,  151.759995,  -11.690000, 0.000000,  0.000000 
 4240000.000000, -10.770095 , 1.517050, 1.306481, 490153280.000000, -70.209999,  113.120003,  -49.630001, 0.000000,  0.000000 
 4259968.000000, -9.693325 , 0.581456, 1.612763, 490173280.000000, -119.419998,  82.529999,  -68.599998, 0.000000,  0.000000 
 4280288.000000, -8.994620 , -0.378066, 2.175076, 490193280.000000, -168.070007,  62.650002,  -70.699997, 0.000000,  0.000000 
 4299968.000000, -8.556733 , -1.014557, 2.945565, 490213600.000000, -195.020004,  51.730000,  -61.320000, 0.000000,  0.000000 
 4319936.000000, -8.166703 , -1.237089, 3.144169, 490233248.000000, -191.940002,  48.509998,  -42.279999, 0.000000,  0.000000 
 4339936.000000, -7.733603 , -1.325624, 3.242275, 490253248.000000, -160.930008,  48.509998,  -11.760000, 0.000000,  0.000000 
 4359936.000000, -7.389036 , -1.318445, 3.421736, 490273216.000000, -119.559998,  46.900002,  18.129999, 0.000000,  0.000000 
 4380224.000000, -7.434500 , -1.258625, 3.065206, 490293216.000000, -87.500000,  47.880001,  46.970001, 0.000000,  0.000000 
 4399904.000000, -8.812766 , -1.311267, 3.189633, 490313536.000000, -66.989998,  61.389999,  74.059998, 0.000000,  0.000000 
 4419904.000000, -10.815558 , -1.507478, 3.426522, 490333184.000000, -52.990002,  81.690002,  89.110001, 0.000000,  0.000000 
 4439872.000000, -12.598210 , -1.785046, 4.029513, 490353184.000000, -40.599998,  95.970001,  95.620003, 0.000000,  0.000000 
 4459872.000000, -13.268202 , -2.189433, 4.194618, 490373184.000000, -26.250000,  89.250000,  98.139999, 0.000000,  0.000000 
 4480192.000000, -12.835101 , -2.476572, 3.438486, 490393152.000000, -3.570000,  70.910004,  95.970001, 0.000000,  0.000000 
 4499872.000000, -12.433105 , -2.160719, 3.158526, 490413472.000000, 20.930000,  44.939999,  83.790001, 0.000000,  0.000000 
 4519840.000000, -12.339786 , -1.100698, 2.845066, 490433184.000000, 33.599998,  11.270000,  56.490002, 0.000000,  0.000000 
 4539840.000000, -13.179667 , -0.145962, 2.443072, 490453120.000000, 33.389999,  -20.160000,  20.440001, 0.000000,  0.000000 
 4559808.000000, -15.409778 , -0.502493, 2.586641, 490473120.000000, 24.430000,  -43.750000,  -25.830000, 0.000000,  0.000000 
 4580128.000000, -18.331415 , -1.854438, 2.112862, 490493120.000000, 18.549999,  -60.900002,  -72.169998, 0.000000,  0.000000 
 4599808.000000, -20.015961 , -2.665605, 1.954936, 490513408.000000, 29.049999,  -74.129997,  -99.610001, 0.000000,  0.000000 
 4619776.000000, -17.824135 , -2.254039, 1.710868, 490533088.000000, 64.680000,  -100.239998,  -98.349998, 0.000000,  0.000000 
 4639776.000000, -14.172688 , -0.964308, 0.789631, 490553088.000000, 120.470001,  -137.970001,  -76.300003, 0.000000,  0.000000 
 4659776.000000, -12.461821 , -0.318245, -0.069392, 490573056.000000, 165.619995,  -175.210007,  -59.220001, 0.000000,  0.000000 
 4680064.000000, -13.153346 , 0.203390, -0.086142, 490593056.000000, 179.199997,  -193.479996,  -61.180000, 0.000000,  0.000000 
 4699744.000000, -15.043676 , 0.775275, -0.476172, 490613344.000000, 166.809998,  -196.979996,  -68.250000, 0.000000,  0.000000 
 4719744.000000, -15.672989 , 0.799203, -1.304088, 490633024.000000, 150.570007,  -201.669998,  -70.489998, 0.000000,  0.000000 
 4739712.000000, -14.799608 , 0.406780, -1.540978, 490653024.000000, 130.130005,  -224.210007,  -68.669998, 0.000000,  0.000000 
 4759712.000000, -13.627125 , -0.277567, -1.586441, 490673024.000000, 89.459999,  -243.250000,  -58.730000, 0.000000,  0.000000 
 4781216.000000, -12.832708 , -0.928415, -1.481157, 490692992.000000, 44.730000,  -243.880005,  -46.340000, 0.000000,  0.000000 
 4800160.000000, -12.007183 , -1.134198, -1.119841, 490714496.000000, 14.700000,  -236.180008,  -41.439999, 0.000000,  0.000000 
 4820160.000000, -10.803595 , -1.031307, -1.052842, 490733440.000000, 3.500000,  -228.550003,  -39.830002, 0.000000,  0.000000 
 4840160.000000, -9.719646 , -0.885344, -0.906880, 490773472.000000, 12.180000,  -214.130005,  -45.990002, 550771584.000000,  1010.337708 
 4860128.000000, -8.652447 , -0.894916, -0.904487, 0.000000, 0.000000,  0.000000,  0.000000, 0.000000,  0.000000 
 4880256.000000, -7.747960 , -0.990629, -0.514457, 490793408.000000, 14.490000,  -202.020004,  -51.730000, 0.000000,  0.000000 
 4901216.000000, -7.168896 , -0.660419, -1.244268, 490813536.000000, 14.350000,  -193.690002,  -53.340000, 0.000000,  0.000000 
 4921184.000000, -6.271588 , 0.045464, -2.254039, 490834496.000000, 17.080000,  -164.220001,  -53.480000, 0.000000,  0.000000 
 4941280.000000, -5.522634 , 0.581456, -1.907080, 490854496.000000, 27.719999,  -144.690002,  -42.770000, 0.000000,  0.000000 
 4961216.000000, -5.254639 , 0.160319, -1.404587, 490874560.000000, 21.770000,  -132.930008,  -33.810001, 0.000000,  0.000000 
 4981536.000000, -5.893522 , -0.617348, -0.861416, 490894496.000000, -2.240000,  -108.010002,  -23.170000, 0.000000,  0.000000 
 5001152.000000, -6.979864 , -1.253839, -1.275374, 490914816.000000, -35.770000,  -66.500000,  -11.060000, 0.000000,  0.000000 
 5021184.000000, -7.743174 , -1.194018, -1.957329, 490934432.000000, -50.119999,  -26.040001,  5.530000, 0.000000,  0.000000 
 5041184.000000, -7.915457 , -0.904487, -2.318645, 490954464.000000, -46.759998,  -4.970000,  25.480000, 0.000000,  0.000000 
 5061152.000000, -8.228917 , -0.926022, -2.002793, 490974496.000000, -45.430000,  4.830000,  38.990002, 0.000000,  0.000000 
 5081472.000000, -8.946764 , -0.832702, -1.016950, 490994432.000000, -56.840000,  24.570000,  40.250000, 0.000000,  0.000000 
 5101120.000000, -10.262815 , -1.076770, -1.629512, 491014784.000000, -63.840000,  61.040001,  36.820000, 0.000000,  0.000000 
 5121088.000000, -13.170096 , -1.002593, -2.024328, 491034432.000000, -58.939999,  77.419998,  35.630001, 0.000000,  0.000000 
 5141184.000000, -16.321442 , -1.253839, -1.986043, 491054368.000000, -44.380001,  120.750000,  31.920000, 0.000000,  0.000000 
 5161056.000000, -17.240288 , -1.466800, -0.394816, 491074464.000000, -39.689999,  169.539993,  34.090000, 0.000000,  0.000000 
 5181440.000000, -16.577475 , -1.837688, 1.722832, 491094336.000000, -39.549999,  197.330002,  44.660000, 0.000000,  0.000000 
 5201056.000000, -16.113268 , -1.464408, 2.065006, 491114720.000000, -19.250000,  227.220001,  68.529999, 0.000000,  0.000000 
 5221056.000000, -15.419350 , -1.026521, 0.033500, 491134368.000000, 26.670000,  254.869995,  95.690002, 0.000000,  0.000000 
 5241088.000000, -15.527027 , -0.445065, -1.079163, 491154336.000000, 83.370003,  274.399994,  111.230003, 0.000000,  0.000000 
 5261024.000000, -15.651453 , -0.184247, 0.138784, 491174368.000000, 103.180000,  262.779999,  109.900002, 0.000000,  0.000000 
 5281376.000000, -15.534204 , -0.028714, 2.333002, 491194336.000000, 77.349998,  240.940002,  100.940002, 0.000000,  0.000000 
 5300992.000000, -15.373885 , 0.296710, 3.857230, 491214656.000000, 36.750000,  227.570007,  85.190002, 0.000000,  0.000000 
 5320960.000000, -14.232510 , 0.672383, 3.299703, 491234304.000000, 29.820000,  216.440002,  64.889999, 0.000000,  0.000000 
 5341056.000000, -12.686745 , 1.588834, 2.414358, 491254272.000000, 57.400002,  193.690002,  40.110001, 0.000000,  0.000000 
 5360928.000000, -11.260624 , 2.892922, 1.725225, 491274336.000000, 64.190002,  157.570007,  15.890000, 0.000000,  0.000000 
 5381312.000000, -9.858429 , 2.921637, 1.452443, 491294240.000000, 28.770000,  121.660004,  -2.520000, 0.000000,  0.000000 
 5400928.000000, -8.740981 , 2.062613, 1.646262, 491314624.000000, -40.110001,  94.360001,  -22.190001, 0.000000,  0.000000 
 5420928.000000, -8.327023 , 0.993021, 2.141576, 491334208.000000, -117.809998,  77.139999,  -37.099998, 0.000000,  0.000000 
 5440960.000000, -8.343772 , 0.277567, 2.806781, 491354240.000000, -170.100006,  74.129997,  -39.410000, 0.000000,  0.000000 
 5460928.000000, -8.499306 , -0.162712, 2.900101, 491374272.000000, -187.039993,  76.720001,  -29.750000, 0.000000,  0.000000 
 5481280.000000, -8.504091 , -0.559920, 3.007778, 491394208.000000, -177.240005,  78.680000,  -11.410000, 0.000000,  0.000000 
 5500928.000000, -8.518449 , -1.170090, 3.110669, 491414560.000000, -157.500000,  79.309998,  11.480000, 0.000000,  0.000000 
 5520896.000000, -9.169296 , -1.579263, 3.192025, 491434240.000000, -138.320007,  81.690002,  37.799999, 0.000000,  0.000000 
 5540896.000000, -10.813165 , -2.005185, 3.921836, 491454176.000000, -116.900002,  93.590004,  65.449997, 0.000000,  0.000000 
 5560864.000000, -13.301701 , -2.481357, 4.534399, 491474208.000000, -86.519997,  108.570000,  88.970001, 0.000000,  0.000000 
 5581216.000000, -14.634504 , -2.746960, 4.280759, 491494144.000000, -49.209999,  116.410004,  99.750000, 0.000000,  0.000000 
 5600832.000000, -13.921442 , -2.703890, 3.658626, 491514496.000000, -6.020000,  102.340004,  105.279999, 0.000000,  0.000000 
 5620800.000000, -12.559926 , -1.950150, 3.821337, 491534144.000000, 37.240002,  67.830002,  101.150002, 0.000000,  0.000000 
 5640896.000000, -11.334801 , -0.559920, 2.816352, 491554080.000000, 55.299999,  22.610001,  73.639999, 0.000000,  0.000000 
 5660800.000000, -11.566904 , 0.801596, 2.335395, 491574176.000000, 39.410000,  -10.850000,  35.910000, 0.000000,  0.000000 
 5681152.000000, -13.581660 , 0.409173, 2.335395, 491594112.000000, 4.620000,  -32.480000,  -14.210000, 0.000000,  0.000000 
 5700768.000000, -17.041683 , -0.885344, 2.447858, 491614464.000000, -11.830000,  -47.040001,  -64.470001, 0.000000,  0.000000 
 5720768.000000, -19.341187 , -2.091327, 1.531406, 491634048.000000, 1.120000,  -65.239998,  -102.340004, 0.000000,  0.000000 
 5740832.000000, -18.384056 , -1.497907, 1.050449, 491654080.000000, 31.290001,  -101.010002,  -112.209999, 0.000000,  0.000000 
 5760768.000000, -15.129817 , -0.337388, 0.808774, 491674112.000000, 57.959999,  -143.220001,  -92.330002, 0.000000,  0.000000 
 5781120.000000, -13.311273 , 0.729811, 0.413958, 491694048.000000, 79.029999,  -183.399994,  -73.290001, 0.000000,  0.000000 
 5800672.000000, -13.244273 , 0.909273, 0.174676, 491714400.000000, 92.120003,  -205.729996,  -72.870003, 0.000000,  0.000000 
 5820640.000000, -14.359328 , 0.756132, 0.533599, 491733952.000000, 80.779999,  -213.570007,  -85.610001, 0.000000,  0.000000 
 5840640.000000, -15.479170 , 0.009571, 0.593420, 491773920.000000, 11.340000,  -211.399994,  -105.419998, 551772096.000000,  1010.316711 
 5860640.000000, -16.252050 , -0.902094, 0.574277, 0.000000, 0.000000,  0.000000,  0.000000, 0.000000,  0.000000 
 5880928.000000, -15.780666 , -1.543371, -0.129212, 491793920.000000, 11.410000,  -216.509995,  -106.610001, 0.000000,  0.000000 
 5900608.000000, -14.663218 , -1.584049, -0.471386, 491814240.000000, 34.160000,  -223.300003,  -93.099998, 0.000000,  0.000000 
 5920608.000000, -13.615161 , -1.256232, -0.760918, 491833888.000000, 61.529999,  -231.910004,  -79.169998, 0.000000,  0.000000 
 5940576.000000, -12.394822 , -0.708275, -1.138984, 491853888.000000, 85.260002,  -234.919998,  -71.190002, 0.000000,  0.000000 
 5960576.000000, -10.889735 , -0.232104, -1.445265, 491873888.000000, 99.610001,  -236.600006,  -67.760002, 0.000000,  0.000000 
 5980864.000000, -9.425328 , -0.229711, -1.646262, 491893856.000000, 101.360001,  -240.169998,  -69.720001, 0.000000,  0.000000 
 6000544.000000, -7.970492 , 0.102891, -2.297110, 491914176.000000, 95.830002,  -242.270004,  -73.500000, 0.000000,  0.000000 
 6020544.000000, -6.486942 , 0.945165, -2.770889, 491933856.000000, 84.070000,  -235.970001,  -74.269997, 0.000000,  0.000000 
 6040544.000000, -4.941179 , 1.517050, -3.017349, 491953824.000000, 68.529999,  -227.779999,  -68.040001, 0.000000,  0.000000 
 6060512.000000, -3.696911 , 1.301696, -2.395216, 491973824.000000, 42.000000,  -219.100006,  -59.920002, 0.000000,  0.000000 
 6080832.000000, -3.761517 , 0.416351, -1.026521, 491993824.000000, -6.720000,  -199.779999,  -56.770000, 0.000000,  0.000000 
 6100480.000000, -5.314459 , -0.758525, -0.380459, 492014112.000000, -66.919998,  -147.839996,  -51.520000, 0.000000,  0.000000 
 6120480.000000, -7.269395 , -1.351945, -0.576670, 492033792.000000, -106.610001,  -79.519997,  -39.830002, 0.000000,  0.000000 
 6140480.000000, -7.946564 , -1.210768, -1.399801, 492053792.000000, -113.750000,  -31.080000,  -20.860001, 0.000000,  0.000000 
 6160480.000000, -7.561320 , -0.890130, -2.426322, 492073760.000000, -99.120003,  -9.170000,  9.240000, 0.000000,  0.000000 
 6180768.000000, -7.441679 , -0.868595, -3.000600, 492093760.000000, -87.989998,  9.240000,  36.889999, 0.000000,  0.000000 
 6200448.000000, -8.097312 , -1.234696, -2.603391, 492114048.000000, -95.970001,  39.270000,  47.389999, 0.000000,  0.000000 
 6220416.000000, -8.640482 , -1.720440, -1.438086, 492133728.000000, -107.029999,  77.559998,  48.020000, 0.000000,  0.000000 
 6240416.000000, -10.298709 , -2.112862, -0.591027, 492153728.000000, -101.360001,  116.059998,  53.480000, 0.000000,  0.000000 
 6260416.000000, -13.239488 , -2.359323, -1.105484, 492173728.000000, -72.800003,  158.970001,  63.349998, 0.000000,  0.000000 
 6280704.000000, -17.213966 , -2.754139, -0.112463, 492193696.000000, -30.450001,  223.649994,  78.260002, 0.000000,  0.000000 
 6300384.000000, -19.403399 , -4.000800, 1.584049, 492214016.000000, 12.530000,  273.489990,  105.980003, 0.000000,  0.000000 
 6320384.000000, -17.721243 , -4.599005, 1.629512, 492233696.000000, 80.430000,  312.200012,  144.759995, 0.000000,  0.000000 
 6340352.000000, -15.986448 , -3.862016, 0.236889, 492253664.000000, 178.500000,  334.600006,  191.240005, 0.000000,  0.000000 
 6360352.000000, -15.696917 , -1.868794, -1.076770, 492293632.000000, 314.160004,  332.010010,  185.570007, 0.000000,  0.000000 
 6380672.000000, -16.610975 , 1.079163, -1.000200, 0.000000, 0.000000,  0.000000,  0.000000, 0.000000,  0.000000 
 6400320.000000, -17.115860 , 2.550749, -0.035892, 492313952.000000, 275.660004,  318.079987,  153.580002, 0.000000,  0.000000 
 6420320.000000, -16.448263 , 2.349752, 0.538385, 492333632.000000, 214.970001,  282.309998,  103.599998, 0.000000,  0.000000 
 6440320.000000, -15.050854 , 2.330609, 0.387637, 492353600.000000, 140.839996,  229.460007,  36.119999, 0.000000,  0.000000 
 6460320.000000, -13.694124 , 3.263810, 0.090927, 492373600.000000, 66.570000,  175.000000,  -17.010000, 0.000000,  0.000000 
 6480608.000000, -12.725031 , 4.151547, -0.399601, 492393600.000000, 9.170000,  122.989998,  -59.990002, 0.000000,  0.000000 
 6500320.000000, -10.872985 , 3.620341, -0.401994, 492413888.000000, -49.980000,  74.970001,  -97.580002, 0.000000,  0.000000 
 6520288.000000, -9.025726 , 2.364109, 0.229711, 492433600.000000, -130.899994,  31.639999,  -122.290001, 0.000000,  0.000000 
 6540256.000000, -8.128418 , 0.983450, 1.332802, 492453568.000000, -221.339996,  2.660000,  -135.449997, 0.000000,  0.000000 
 6560256.000000, -7.889136 , -0.047856, 2.136791, 492473568.000000, -284.760010,  0.280000,  -134.889999, 0.000000,  0.000000 
 6580544.000000, -7.611568 , -0.825524, 2.318645, 492513856.000000, -297.149994,  5.320000,  -95.550003, 0.000000,  0.000000 
 6600224.000000, -7.015756 , -1.318445, 2.383251, 0.000000, 0.000000,  0.000000,  0.000000, 0.000000,  0.000000 
 6620224.000000, -6.266802 , -1.722832, 2.280360, 492533536.000000, -274.329987,  -6.790000,  -58.240002, 0.000000,  0.000000 
 6640192.000000, -5.958128 , -2.045863, 2.299503, 492553504.000000, -244.790009,  -16.799999,  -14.420000, 0.000000,  0.000000 
 6660192.000000, -6.654440 , -2.493321, 2.110470, 492573504.000000, -213.430008,  -15.120000,  25.549999, 0.000000,  0.000000 
 6680480.000000, -8.587841 , -2.682354, 2.050649, 492593504.000000, -178.220001,  6.580000,  61.880001, 0.000000,  0.000000 
 6700160.000000, -11.229517 , -2.636890, 2.321038, 492613792.000000, -142.240005,  40.320000,  88.269997, 0.000000,  0.000000 
 6720160.000000, -13.777873 , -2.694318, 2.550749, 492633472.000000, -106.190002,  58.380001,  108.849998, 0.000000,  0.000000 
 6740160.000000, -14.517255 , -2.801995, 2.706282, 492653440.000000, -64.889999,  57.470001,  120.400002, 0.000000,  0.000000 
 6760128.000000, -13.622340 , -2.560320, 3.017349, 492673440.000000, -27.020000,  39.619999,  120.330002, 0.000000,  0.000000 
 6780608.000000, -12.193825 , -2.132005, 2.947958, 492693440.000000, 5.390000,  25.340000,  108.220001, 0.000000,  0.000000 
 6800128.000000, -11.392227 , -1.567299, 2.797210, 492713920.000000, 38.709999,  13.720000,  77.980003, 0.000000,  0.000000 
 6820352.000000, -12.196217 , -1.067199, 2.081756, 492733408.000000, 65.800003,  0.280000,  33.389999, 0.000000,  0.000000 
 6840128.000000, -15.225531 , -1.368695, 1.328017, 492753632.000000, 88.970001,  -11.900000,  -11.900000, 0.000000,  0.000000 
 6860864.000000, -18.111275 , -2.031506, -0.050249, 492773440.000000, 106.190002,  -13.370000,  -47.810001, 552771584.000000,  1010.290405 
 6880416.000000, -18.123240 , -1.887937, -0.002393, 492813728.000000, 117.809998,  -93.169998,  -56.490002, 0.000000,  0.000000 
 6900576.000000, -15.357137 , -0.768096, 0.363709, 0.000000, 0.000000,  0.000000,  0.000000, 0.000000,  0.000000 
 6920512.000000, -12.509676 , 0.069392, 0.315853, 492833888.000000, 132.720001,  -146.440002,  -41.439999, 0.000000,  0.000000 
 6940512.000000, -11.255837 , 0.361316, -0.086142, 492853824.000000, 141.119995,  -178.080002,  -40.950001, 0.000000,  0.000000 
 6960512.000000, -11.976077 , 0.514457, -0.007178, 492873792.000000, 130.970001,  -186.759995,  -52.639999, 0.000000,  0.000000 
 6980768.000000, -13.749159 , 0.349352, -0.253639, 492893824.000000, 111.020004,  -179.830002,  -67.690002, 0.000000,  0.000000 
 7000608.000000, -14.428720 , 0.023928, -0.564706, 492914048.000000, 96.669998,  -177.100006,  -77.000000, 0.000000,  0.000000 
 7020544.000000, -14.191832 , 0.155533, 0.313460, 492933920.000000, 87.639999,  -192.080002,  -78.610001, 0.000000,  0.000000 
 7040512.000000, -13.895120 , 0.856631, 1.043271, 492953856.000000, 79.309998,  -205.869995,  -71.330002, 0.000000,  0.000000 
 7060608.000000, -13.031311 , 0.949951, -0.315853, 492973792.000000, 73.709999,  -207.339996,  -61.740002, 0.000000,  0.000000 
 7080800.000000, -12.923635 , 1.873580, 0.122034, 492993888.000000, 64.889999,  -204.399994,  -54.810001, 0.000000,  0.000000 
 7100320.000000, -12.739388 , 2.469393, 0.847059, 493014080.000000, 50.820000,  -206.990005,  -52.849998, 0.000000,  0.000000 
 7121568.000000, -10.813165 , 3.005385, -0.354138, 493033600.000000, 8.960000,  -209.089996,  -46.270000, 0.000000,  0.000000 
 7141568.000000, -8.719445 , 1.732404, -1.004985, 493054848.000000, -39.130001,  -216.860001,  -33.320000, 0.000000,  0.000000 
 7161632.000000, -6.790830 , 0.069392, -0.887737, 493074880.000000, -96.250000,  -229.529999,  -46.060001, 0.000000,  0.000000 
 7181856.000000, -5.601598 , -1.067199, -0.291924, 493094944.000000, -150.430008,  -232.050003,  -51.590000, 0.000000,  0.000000 
 7201568.000000, -5.134997 , -1.627119, 0.193819, 493115136.000000, -171.570007,  -220.220001,  -58.099998, 0.000000,  0.000000 
 7221536.000000, -5.431707 , -1.722832, 0.366102, 493134880.000000, -155.960007,  -199.500000,  -65.940002, 0.000000,  0.000000 
 7241536.000000, -6.266802 , -1.605584, 0.179462, 493154816.000000, -112.980003,  -171.850006,  -71.610001, 0.000000,  0.000000 
 7261568.000000, -7.039684 , -1.339981, -0.181855, 493174816.000000, -59.220001,  -142.589996,  -70.279999, 0.000000,  0.000000 
 7281792.000000, -7.525427 , -1.182054, -0.270389, 493194880.000000, -9.940000,  -118.090004,  -59.150002, 0.000000,  0.000000 
 7301568.000000, -7.439285 , -1.170090, 0.323031, 493215072.000000, 8.400000,  -99.050003,  -42.349998, 0.000000,  0.000000 
 7321472.000000, -7.345965 , -1.201197, 0.710668, 493234848.000000, 25.410000,  -88.129997,  -33.040001, 0.000000,  0.000000 
 7341472.000000, -7.317252 , -1.246661, 0.323031, 493254784.000000, 22.820000,  -55.650002,  -11.620000, 0.000000,  0.000000 
 7361504.000000, -7.302894 , -1.184447, -0.124427, 493274752.000000, 16.799999,  -11.690000,  9.030000, 0.000000,  0.000000 
 7381728.000000, -8.504091 , -1.081556, -0.425922, 493294784.000000, 11.130000,  28.770000,  24.639999, 0.000000,  0.000000 
 7401504.000000, -9.480364 , -1.201197, -0.598206, 493315040.000000, 3.780000,  65.590004,  40.320000, 0.000000,  0.000000 
 7421440.000000, -11.777473 , -1.428515, -1.081556, 493334816.000000, -6.930000,  110.949997,  53.689999, 0.000000,  0.000000 
 7441376.000000, -13.775480 , -1.730011, -1.186840, 493354720.000000, -19.879999,  157.009995,  66.080002, 0.000000,  0.000000 
 7461472.000000, -15.227923 , -1.926222, 0.038285, 493374688.000000, -28.280001,  185.779999,  86.870003, 0.000000,  0.000000 
 7481696.000000, -15.108281 , -2.471786, 1.134198, 493394752.000000, -27.299999,  215.529999,  113.610001, 0.000000,  0.000000 
 7501504.000000, -14.297115 , -2.868994, 2.017149, 493414976.000000, -6.440000,  248.009995,  144.270004, 0.000000,  0.000000 
 7521376.000000, -14.033905 , -2.354537, 2.632105, 493434784.000000, 25.270000,  273.279999,  162.399994, 0.000000,  0.000000 
 7541376.000000, -14.560326 , -1.995614, 1.093520, 493454656.000000, 61.320000,  292.179993,  170.309998, 0.000000,  0.000000 
 7561408.000000, -15.536596 , -1.201197, 0.497707, 493474656.000000, 107.449997,  311.989990,  162.820007, 0.000000,  0.000000 
 7581632.000000, -15.945770 , -0.179462, 0.978664, 493494720.000000, 135.309998,  305.760010,  137.270004, 0.000000,  0.000000 
 7601408.000000, -15.230316 , 1.284946, 0.705883, 493514912.000000, 152.949997,  277.059998,  106.540001, 0.000000,  0.000000 
 7621312.000000, -13.550553 , 3.136991, -0.555135, 493534688.000000, 167.580002,  229.389999,  68.180000, 0.000000,  0.000000 
 7641312.000000, -11.540584 , 4.290331, -1.074377, 493554624.000000, 153.300003,  170.520004,  25.480000, 0.000000,  0.000000 
 7661344.000000, -9.805787 , 4.091727, -0.583849, 493574624.000000, 85.889999,  114.239998,  -17.360001, 0.000000,  0.000000 
 7681568.000000, -8.848659 , 3.263810, 0.500100, 493594624.000000, -9.800000,  75.250000,  -54.110001, 0.000000,  0.000000 
 7701344.000000, -8.645268 , 2.431108, 1.249053, 493614880.000000, -95.059998,  57.260002,  -78.470001, 0.000000,  0.000000 
 7721280.000000, -8.465806 , 1.361516, 1.636691, 493634656.000000, -153.649994,  52.009998,  -88.269997, 0.000000,  0.000000 
 7741216.000000, -8.011170 , 0.258425, 2.242075, 493654560.000000, -192.570007,  42.349998,  -85.330002, 0.000000,  0.000000 
 7761312.000000, -7.484749 , -0.736989, 2.823531, 493674528.000000, -219.380005,  28.630001,  -72.169998, 0.000000,  0.000000 
 7781504.000000, -7.140182 , -1.732404, 3.215954, 493694624.000000, -228.759995,  19.600000,  -47.389999, 0.000000,  0.000000 
 7801280.000000, -7.635497 , -2.584249, 3.428915, 493714816.000000, -221.479996,  23.450001,  -11.760000, 0.000000,  0.000000 
 7821184.000000, -9.339187 , -3.213561, 3.672983, 493734592.000000, -203.279999,  44.170002,  27.370001, 0.000000,  0.000000 
 7841152.000000, -11.736795 , -3.792624, 4.180261, 493774432.000000, -118.790001,  96.879997,  98.840004, 553772608.000000,  1010.268250 
 7861120.000000, -13.971692 , -4.103691, 4.828716, 0.000000, 0.000000,  0.000000,  0.000000, 0.000000,  0.000000 
 7881408.000000, -14.660825 , -4.216154, 4.733003, 493794432.000000, -47.670002,  96.809998,  127.330002, 0.000000,  0.000000 
 7901088.000000, -14.086546 , -3.361916, 3.909872, 493814720.000000, 32.549999,  85.750000,  145.809998, 0.000000,  0.000000 
 7921088.000000, -13.062418 , -1.617548, 3.194418, 493834400.000000, 107.239998,  73.430000,  149.240005, 0.000000,  0.000000 
 7941056.000000, -12.581462 , 0.301496, 2.301895, 493854400.000000, 162.889999,  54.320000,  133.139999, 0.000000,  0.000000 
 7961056.000000, -14.009976 , 1.806581, 0.547956, 493874368.000000, 196.279999,  33.880001,  103.110001, 0.000000,  0.000000 
 7981376.000000, -16.953148 , 2.857030, -1.373480, 493894368.000000, 206.360001,  15.050000,  61.320000, 0.000000,  0.000000 
 8001024.000000, -18.195023 , 2.883351, -2.902494, 493914656.000000, 187.039993,  1.890000,  20.930000, 0.000000,  0.000000 
 8021024.000000, -15.692131 , 2.165504, -2.065006, 493934336.000000, 123.620003,  -55.510002,  -15.330000, 0.000000,  0.000000 
 8041024.000000, -12.571891 , 1.040878, -0.232104, 493954304.000000, 23.450001,  -140.630005,  -37.660000, 0.000000,  0.000000 
 8060992.000000, -10.664811 , 0.107677, 1.134198, 493974304.000000, -60.200001,  -198.589996,  -54.459999, 0.000000,  0.000000 
 8081312.000000, -10.210175 , -0.748954, 1.636691, 493994304.000000, -110.320000,  -220.220001,  -79.940002, 0.000000,  0.000000 
 8100992.000000, -11.442478 , -1.445265, 1.663012, 494014624.000000, -127.400002,  -214.550003,  -102.830002, 0.000000,  0.000000 
 8120960.000000, -13.107882 , -2.112862, 1.131805, 494034272.000000, -110.389999,  -193.619995,  -122.220001, 0.000000,  0.000000 
 8140960.000000, -13.689339 , -2.629712, 0.512064, 494054272.000000, -58.240002,  -182.000000,  -130.550003, 0.000000,  0.000000 
 8160960.000000, -12.863814 , -2.845066, 0.186640, 494074240.000000, 9.240000,  -190.050003,  -120.330002, 0.000000,  0.000000 
 8181248.000000, -11.813366 , -2.615355, 0.078963, 494094240.000000, 74.059998,  -197.259995,  -95.830002, 0.000000,  0.000000 
 8200928.000000, -10.805987 , -2.189433, -0.155533, 494114560.000000, 120.680000,  -191.729996,  -70.419998, 0.000000,  0.000000 
 8220928.000000, -9.966106 , -1.619941, -0.323031, 494134208.000000, 142.520004,  -179.550003,  -49.349998, 0.000000,  0.000000 
 8240896.000000, -9.066404 , -1.143769, -0.440279, 494154208.000000, 137.479996,  -166.669998,  -38.150002, 0.000000,  0.000000 
 8260896.000000, -8.346166 , -0.775275, -0.466600, 494174208.000000, 111.510002,  -156.169998,  -35.770000, 0.000000,  0.000000 
 8281216.000000, -7.779066 , -0.837488, -0.614955, 494194176.000000, 77.349998,  -148.330002,  -41.160000, 0.000000,  0.000000 
 8300864.000000, -7.422535 , -1.071985, -0.787239, 494214496.000000, 48.439999,  -138.529999,  -51.799999, 0.000000,  0.000000 
 8320864.000000, -7.188039 , -1.330409, -0.775275, 494234176.000000, 26.389999,  -133.210007,  -63.840000, 0.000000,  0.000000 
 8340864.000000, -7.259824 , -1.531406, -0.291924, 494254144.000000, 9.590000,  -130.970001,  -71.260002, 0.000000,  0.000000 
 8360832.000000, -7.542177 , -1.450050, -0.191426, 494274144.000000, -2.450000,  -125.300003,  -70.910004, 0.000000,  0.000000 
 8381152.000000, -7.781459 , -1.409373, -0.622134, 494294144.000000, -10.150000,  -117.809998,  -65.800003, 0.000000,  0.000000 
 8400832.000000, -8.020741 , -1.311267, -0.282353, 494314432.000000, -16.940001,  -111.300003,  -58.170002, 0.000000,  0.000000 
 8420800.000000, -7.704889 , -1.210768, 1.007378, 494334112.000000, -32.340000,  -101.639999,  -46.340000, 0.000000,  0.000000 
 8440800.000000, -7.168896 , -1.378266, 1.603191, 494354112.000000, -49.000000,  -91.349998,  -29.820000, 0.000000,  0.000000 
 8460800.000000, -6.831509 , -1.890330, 1.134198, 494374080.000000, -53.689999,  -78.959999,  -16.730000, 0.000000,  0.000000 
 8481088.000000, -6.965507 , -1.880759, 1.229911, 494394080.000000, -48.580002,  -51.799999,  -9.170000, 0.000000,  0.000000 
 8500800.000000, -7.384251 , -1.737189, 1.744368, 494414400.000000, -44.240002,  -20.020000,  -0.700000, 0.000000,  0.000000 
 8520768.000000, -8.080563 , -1.490728, 2.986243, 494434080.000000, -29.540001,  13.020000,  5.040000, 0.000000,  0.000000 
 8540736.000000, -9.300901 , -1.031307, 3.907479, 494454048.000000, 1.470000,  45.360001,  5.670000, 0.000000,  0.000000 
 8560736.000000, -10.394422 , -0.851845, 3.290131, 494474048.000000, 58.380001,  79.029999,  11.060000, 0.000000,  0.000000 
 8581152.000000, -11.425728 , -0.866202, 0.710668, 494494016.000000, 134.680008,  115.570000,  24.570000, 0.000000,  0.000000 
 8600704.000000, -13.256237 , -0.380459, -1.004985, 494514432.000000, 196.139999,  139.649994,  35.840000, 0.000000,  0.000000 
 8620704.000000, -14.864214 , 0.452243, -1.000200, 494534016.000000, 203.559998,  163.520004,  35.000000, 0.000000,  0.000000 
 8640672.000000, -14.455042 , 1.155733, -0.253639, 494553984.000000, 164.360001,  182.000000,  44.590000, 0.000000,  0.000000 
 8660672.000000, -12.945170 , 1.564906, 0.579063, 494573984.000000, 110.949997,  187.110001,  58.730000, 0.000000,  0.000000 
 8680992.000000, -12.428321 , 1.615155, 1.459622, 494593984.000000, 53.480000,  187.110001,  59.990002, 0.000000,  0.000000 
 8700640.000000, -13.239488 , 0.926022, 1.746760, 494614272.000000, -1.540000,  205.100006,  53.060001, 0.000000,  0.000000 
 8720640.000000, -14.292330 , 0.071785, 2.321038, 494633952.000000, -36.889999,  225.610001,  42.139999, 0.000000,  0.000000 
 8740640.000000, -14.050655 , -0.538385, 2.720639, 494653952.000000, -48.580002,  230.229996,  35.000000, 0.000000,  0.000000 
 8760608.000000, -12.746566 , -0.524028, 2.584249, 494673920.000000, -32.340000,  211.960007,  38.360001, 0.000000,  0.000000 
 8780928.000000, -11.289338 , 0.122034, 2.062613, 494693920.000000, 3.080000,  176.960007,  37.799999, 0.000000,  0.000000 
 8800608.000000, -10.128819 , 1.462015, 1.299303, 494714208.000000, 34.860001,  137.130005,  28.559999, 0.000000,  0.000000 
 8820576.000000, -9.233903 , 2.522035, 0.504886, 494733888.000000, 48.439999,  101.360001,  13.790000, 0.000000,  0.000000 
 8840576.000000, -8.171489 , 2.737389, 0.222532, 494753888.000000, 34.790001,  65.660004,  -7.070000, 0.000000,  0.000000 
 8860640.000000, -7.149754 , 2.187040, 0.358923, 494773888.000000, -9.450000,  29.820000,  -30.030001, 554772032.000000,  1010.244446 
 8881632.000000, -6.575477 , 1.526621, 0.739382, 494793920.000000, -63.420002,  3.430000,  -47.740002, 0.000000,  0.000000 
 8900608.000000, -6.463014 , 0.933201, 1.021735, 494814944.000000, -110.599998,  -10.360000,  -59.570000, 0.000000,  0.000000 
 8921600.000000, -6.427122 , 0.401994, 1.194018, 494833920.000000, -142.660004,  -15.260000,  -62.860001, 0.000000,  0.000000 
 8941536.000000, -6.386444 , -0.308674, 1.402194, 494854912.000000, -163.100006,  -19.040001,  -59.500000, 0.000000,  0.000000 
 8961536.000000, -6.451050 , -0.973879, 1.761117, 494874848.000000, -179.899994,  -23.590000,  -51.450001, 0.000000,  0.000000 
 8981856.000000, -6.805188 , -1.691726, 2.234896, 494894816.000000, -193.130005,  -21.840000,  -34.650002, 0.000000,  0.000000 
 9001472.000000, -7.771888 , -2.383251, 2.440679, 494915168.000000, -199.990005,  -8.190000,  -11.760000, 0.000000,  0.000000 
 9021952.000000, -9.171689 , -2.873780, 2.493321, 494934784.000000, -196.419998,  13.090000,  12.040000, 0.000000,  0.000000 
 9041888.000000, -10.439885 , -3.081956, 2.318645, 494975168.000000, -148.750000,  47.040001,  59.290001, 0.000000,  0.000000 
 9061856.000000, -11.404193 , -2.955136, 2.608176, 0.000000, 0.000000,  0.000000,  0.000000, 0.000000,  0.000000 
 9082208.000000, -11.820543 , -2.452643, 2.725425, 494995168.000000, -108.989998,  50.959999,  80.360001, 0.000000,  0.000000 
 9101856.000000, -11.633904 , -1.971686, 2.409572, 495015520.000000, -67.269997,  54.459999,  92.610001, 0.000000,  0.000000 
 9122240.000000, -10.801201 , -1.215554, 2.560320, 495035136.000000, -25.410000,  59.220001,  95.199997, 0.000000,  0.000000 
 9142176.000000, -9.829715 , -0.378066, 2.976671, 495055552.000000, 10.500000,  54.320000,  83.019997, 0.000000,  0.000000 
 9162144.000000, -9.229117 , 0.289532, 2.438286, 495075456.000000, 39.759998,  45.220001,  64.400002, 0.000000,  0.000000 
 9182496.000000, -9.643075 , 0.926022, 1.557728, 495095424.000000, 63.700001,  41.790001,  42.560001, 0.000000,  0.000000 
 9202144.000000, -10.578669 , 1.076770, 1.124627, 495115776.000000, 69.230003,  41.439999,  16.379999, 0.000000,  0.000000 
 9221920.000000, -11.633904 , 0.595813, 1.167697, 495135424.000000, 51.450001,  39.689999,  -4.480000, 0.000000,  0.000000 
 9243168.000000, -11.916256 , -0.143569, 1.155733, 495155200.000000, 21.280001,  31.360001,  -19.250000, 0.000000,  0.000000 
 9263200.000000, -13.397413 , -0.863809, 2.280360, 495176480.000000, -10.780000,  9.940000,  -24.150000, 0.000000,  0.000000 
 9283552.000000, -16.383656 , -1.593620, 4.051049, 495196512.000000, -30.520000,  6.160000,  -20.860001, 0.000000,  0.000000 
 9303168.000000, -15.902699 , -2.658426, 3.768696, 495216832.000000, -19.740000,  25.620001,  -7.280000, 0.000000,  0.000000 
 9323200.000000, -12.808779 , -2.981457, 3.101098, 495236480.000000, 12.460000,  -6.440000,  8.120000, 0.000000,  0.000000 
 9343168.000000, -11.155338 , -2.598605, 2.553142, 495256512.000000, 51.939999,  -55.369999,  16.660000, 0.000000,  0.000000 
 9363136.000000, -10.904092 , -1.732404, 1.655833, 495276448.000000, 96.879997,  -64.470001,  17.990000, 0.000000,  0.000000 
 9383488.000000, -11.727223 , -0.591027, 0.576670, 495296448.000000, 139.369995,  -66.360001,  9.170000, 0.000000,  0.000000 
 9403104.000000, -13.371094 , -0.385244, -0.277567, 495316768.000000, 172.690002,  -77.629997,  -6.300000, 0.000000,  0.000000 
 9423168.000000, -15.266209 , -0.823131, -0.806381, 495336384.000000, 194.529999,  -86.940002,  -20.230000, 0.000000,  0.000000 
 9443104.000000, -15.428921 , -0.684347, -0.720240, 495356480.000000, 195.860001,  -106.470001,  -26.389999, 0.000000,  0.000000 
 9463104.000000, -13.521841 , 0.208176, -0.612563, 495376384.000000, 183.539993,  -144.339996,  -18.969999, 0.000000,  0.000000 
 9483424.000000, -11.219944 , 0.789631, -0.765703, 495396384.000000, 168.910004,  -188.649994,  -13.930000, 0.000000,  0.000000 
 9503104.000000, -9.590433 , 1.009771, -0.669990, 495416736.000000, 137.970001,  -213.500000,  -18.059999, 0.000000,  0.000000 
 9523104.000000, -8.987441 , 0.614955, -0.540778, 495436416.000000, 83.790001,  -218.259995,  -26.460001, 0.000000,  0.000000 
 9543008.000000, -9.296116 , -0.160319, -0.684347, 495456384.000000, 27.790001,  -209.720001,  -44.730000, 0.000000,  0.000000 
 9563040.000000, -9.824929 , -0.961915, -0.859023, 495476288.000000, -13.650000,  -196.210007,  -63.490002, 0.000000,  0.000000 
 9583392.000000, -10.310673 , -1.651048, -0.899701, 495496320.000000, -35.980000,  -184.309998,  -73.290001, 0.000000,  0.000000 
 9602976.000000, -10.439885 , -2.165504, -0.689133, 495516672.000000, -40.389999,  -175.699997,  -74.340004, 0.000000,  0.000000 
 9623040.000000, -10.315458 , -2.366502, -0.366102, 495536256.000000, -30.380001,  -169.539993,  -66.919998, 0.000000,  0.000000 
 9642976.000000, -10.236496 , -1.655833, 0.071785, 495556320.000000, -11.060000,  -160.089996,  -55.160000, 0.000000,  0.000000 
 9662976.000000, -10.057034 , -1.203590, -1.048056, 495576288.000000, 7.910000,  -145.600006,  -43.049999, 0.000000,  0.000000 
 9683328.000000, -9.963714 , -0.933201, -2.194218, 495596256.000000, 16.030001,  -129.639999,  -35.770000, 0.000000,  0.000000 
 9702912.000000, -9.166903 , 0.035892, -3.275774, 495616608.000000, -3.920000,  -115.779999,  -36.959999, 0.000000,  0.000000 
 9723008.000000, -8.147561 , 2.007578, -3.562913, 495636224.000000, -19.740000,  -109.900002,  -37.730000, 0.000000,  0.000000 
 9742944.000000, -7.235896 , 3.158526, -2.617748, 495656288.000000, -51.450001,  -100.239998,  -37.939999, 0.000000,  0.000000 
 9762912.000000, -7.338787 , 2.486143, -0.488136, 495676224.000000, -83.790001,  -90.090004,  -40.529999, 0.000000,  0.000000 
 9783264.000000, -9.458827 , 0.866202, 1.899901, 495696224.000000, -111.790001,  -61.880001,  -48.580002, 0.000000,  0.000000 
 9802912.000000, -10.911271 , 0.196211, 2.574677, 495716576.000000, -124.110001,  -11.970000,  -62.090000, 0.000000,  0.000000 
 9822944.000000, -13.660624 , -1.071985, 2.385644, 495736192.000000, -101.849998,  51.170002,  -50.680000, 0.000000,  0.000000 
 9842848.000000, -15.048461 , -1.500300, 2.256432, 495756256.000000, -45.849998,  107.870003,  -6.650000, 0.000000,  0.000000 
 9862848.000000, -14.411970 , -1.225125, 0.531207, 495776128.000000, 7.070000,  158.199997,  41.860001, 555774272.000000,  1010.223145 
 9883104.000000, -14.380865 , -0.557528, -0.658026, 495796128.000000, 46.060001,  196.210007,  99.050003, 0.000000,  0.000000 
 9902784.000000, -14.445471 , -0.179462, -0.267996, 495816416.000000, 52.220001,  232.540009,  125.020004, 0.000000,  0.000000 
 9922752.000000, -14.230117 , -0.184247, 0.571885, 495836064.000000, 37.939999,  248.220001,  143.220001, 0.000000,  0.000000 
 9942752.000000, -14.385650 , -0.471386, 1.832902, 495856064.000000, 33.459999,  249.830002,  148.399994, 0.000000,  0.000000 
 9962752.000000, -14.763715 , -0.248854, 2.057827, 495876032.000000, 63.490002,  245.910004,  136.289993, 0.000000,  0.000000 
 9983040.000000, -14.232510 , 0.500100, 0.509671, 495896032.000000, 127.260002,  232.470001,  122.080002, 0.000000,  0.000000 
 10002720.000000, -12.430713 , 1.828116, -0.133998, 495916352.000000, 183.960007,  201.389999,  99.820000, 0.000000,  0.000000 
 10022720.000000, -10.169496 , 2.847459, -0.193819, 495936000.000000, 171.639999,  141.750000,  73.220001, 0.000000,  0.000000 
 10042688.000000, -8.394022 , 3.244668, 0.141177, 495956000.000000, 95.340004,  90.580002,  50.470001, 0.000000,  0.000000 
 10062688.000000, -7.424929 , 2.938386, 0.265603, 495976000.000000, -6.510000,  57.470001,  24.500000, 0.000000,  0.000000 
 10082976.000000, -7.018148 , 2.213361, 0.043071, 495995968.000000, -97.370003,  37.730000,  -5.390000, 0.000000,  0.000000 
 10102656.000000, -6.685547 , 1.402194, -0.019143, 496016288.000000, -163.380005,  21.490000,  -30.799999, 0.000000,  0.000000 
 10122656.000000, -6.455836 , 0.581456, -0.107677, 496035968.000000, -213.500000,  5.110000,  -47.880001, 0.000000,  0.000000 
 10142656.000000, -6.352944 , -0.165105, -0.265603, 496055936.000000, -250.529999,  -13.720000,  -57.260002, 0.000000,  0.000000 
 10162624.000000, -6.623333 , -0.971486, -0.196211, 496075936.000000, -271.040009,  -23.309999,  -58.380001, 0.000000,  0.000000 
 10182944.000000, -7.271788 , -1.832902, -0.047856, 496095936.000000, -280.350006,  -21.980000,  -48.509998, 0.000000,  0.000000 
 10202624.000000, -8.949157 , -2.718246, 0.600598, 496116224.000000, -275.450012,  -17.920000,  -28.000000, 0.000000,  0.000000 
 10222592.000000, -11.052447 , -3.512664, 1.031307, 496135904.000000, -255.360001,  -4.270000,  -4.550000, 0.000000,  0.000000 
 10242592.000000, -11.667403 , -4.146761, 1.263410, 496155904.000000, -217.139999,  7.700000,  23.170000, 0.000000,  0.000000 
 10262560.000000, -10.466206 , -3.902694, 1.727618, 496175872.000000, -161.910004,  -1.890000,  60.900002, 0.000000,  0.000000 
 10282880.000000, -9.923036 , -3.294917, 2.072184, 496195872.000000, -103.669998,  -2.660000,  98.699997, 0.000000,  0.000000 
 10302560.000000, -10.925629 , -2.352145, 3.077170, 496216160.000000, -50.540001,  24.080000,  121.590004, 0.000000,  0.000000 
 10322528.000000, -11.889936 , -1.586441, 3.778267, 496235840.000000, -4.480000,  68.459999,  122.010002, 0.000000,  0.000000 
 10342528.000000, -12.098111 , -1.390230, 3.835695, 496255840.000000, 54.180000,  100.800003,  111.300003, 0.000000,  0.000000 
 10362528.000000, -13.043276 , -1.873580, 3.184847, 496275808.000000, 131.389999,  113.190002,  87.989998, 0.000000,  0.000000 
 10382816.000000, -15.215960 , -2.191825, 1.710868, 496295808.000000, 202.089996,  115.080002,  57.610001, 0.000000,  0.000000 
 10402496.000000, -17.015362 , -1.696511, 0.748954, 496316128.000000, 230.509995,  111.160004,  27.440001, 0.000000,  0.000000 
 10422496.000000, -15.809379 , -0.928415, 0.586242, 496335776.000000, 211.680008,  90.300003,  10.500000, 0.000000,  0.000000 
 10442464.000000, -13.127025 , 0.026321, 0.930808, 496355776.000000, 167.369995,  34.790001,  8.890000, 0.000000,  0.000000 
 10462464.000000, -10.612168 , 0.571885, 1.581656, 496395776.000000, 85.190002,  -78.050003,  -17.290001, 0.000000,  0.000000 
 10482784.000000, -9.403792 , 0.289532, 1.698904, 0.000000, 0.000000,  0.000000,  0.000000, 0.000000,  0.000000 
 10502496.000000, -10.219746 , -0.210568, 1.658226, 496416064.000000, 68.040001,  -103.599998,  -49.209999, 0.000000,  0.000000 
 10522432.000000, -11.751152 , -0.516850, 1.287339, 496435776.000000, 74.480003,  -108.919998,  -80.639999, 0.000000,  0.000000 
 10542432.000000, -12.631711 , -0.684347, 0.770489, 496455712.000000, 95.480003,  -116.760002,  -90.230003, 0.000000,  0.000000 
 10562400.000000, -12.081362 , -0.564706, 0.504886, 496475712.000000, 118.790001,  -140.630005,  -86.099998, 0.000000,  0.000000 
 10582720.000000, -10.841879 , -0.287139, 0.303888, 496495712.000000, 136.430008,  -168.559998,  -74.340004, 0.000000,  0.000000 
 10602400.000000, -9.961320 , -0.050249, 0.086142, 496516000.000000, 143.990005,  -186.970001,  -62.369999, 0.000000,  0.000000 
 10622368.000000, -9.521042 , 0.198604, 0.026321, 496535680.000000, 139.300003,  -187.460007,  -55.020000, 0.000000,  0.000000 
 10642368.000000, -9.303294 , 0.681954, 0.526421, 496555680.000000, 120.959999,  -180.809998,  -49.070000, 0.000000,  0.000000 
 10662368.000000, -8.863015 , 0.698704, 0.150748, 496575648.000000, 96.040001,  -174.440002,  -43.889999, 0.000000,  0.000000 
 10682656.000000, -8.496914 , 0.260818, -0.224925, 496595648.000000, 75.250000,  -168.559998,  -38.779999, 0.000000,  0.000000 
 10702336.000000, -8.434700 , 0.052642, 0.677169, 496615936.000000, 49.349998,  -163.100006,  -38.290001, 0.000000,  0.000000 
 10722336.000000, -8.721838 , 0.399601, 1.007378, 496635616.000000, 25.200001,  -153.440002,  -31.360001, 0.000000,  0.000000 
 10742304.000000, -9.370294 , 0.145962, 0.007178, 496655616.000000, 18.059999,  -141.050003,  -15.750000, 0.000000,  0.000000 
 10762304.000000, -9.925428 , -0.512064, -0.803988, 496675616.000000, 17.500000,  -124.879997,  -4.270000, 0.000000,  0.000000 
 10782592.000000, -10.399208 , -1.184447, -0.978664, 496695616.000000, -0.350000,  -115.570000,  6.300000, 0.000000,  0.000000 
 10802272.000000, -11.004591 , -1.055235, -0.344566, 496715904.000000, -26.880001,  -107.379997,  20.440001, 0.000000,  0.000000 
 10822432.000000, -11.155338 , -1.069592, -0.894916, 496735584.000000, -47.389999,  -98.279999,  32.200001, 0.000000,  0.000000 
 10842272.000000, -10.884951 , -0.794417, -1.232304, 496755744.000000, -59.010002,  -87.570000,  35.980000, 0.000000,  0.000000 
 10862240.000000, -9.982857 , -0.267996, -0.885344, 496795552.000000, -88.900002,  -67.900002,  19.389999, 556773696.000000,  1010.201965 
 10882560.000000, -9.399008 , 0.035892, -0.287139, 0.000000, 0.000000,  0.000000,  0.000000, 0.000000,  0.000000 
 10902240.000000, -10.901700 , 0.215354, 0.435494, 496815840.000000, -90.650002,  -50.189999,  1.750000, 0.000000,  0.000000 
 10922208.000000, -13.574483 , -0.227318, 0.275175, 496855520.000000, -79.379997,  37.730000,  -26.180000, 0.000000,  0.000000 
 10942208.000000, -13.801801 , -1.404587, -0.763310, 0.000000, 0.000000,  0.000000,  0.000000, 0.000000,  0.000000 
 10962208.000000, -12.124433 , -2.007578, -0.784846, 496875520.000000, -62.860001,  58.939999,  -17.150000, 0.000000,  0.000000 
 10982496.000000, -11.102697 , -1.706082, 0.179462, 496895488.000000, -50.049999,  64.120003,  8.540000, 0.000000,  0.000000 
 11002176.000000, -10.657632 , -0.990629, 0.445065, 496915776.000000, -39.759998,  88.340004,  37.240002, 0.000000,  0.000000 
 11022176.000000, -10.140782 , -0.622134, 0.217747, 496935456.000000, -30.240000,  114.169998,  57.680000, 0.000000,  0.000000 
 11042144.000000, -9.848858 , -0.423530, 0.323031, 496955456.000000, -31.290001,  129.009995,  67.269997, 0.000000,  0.000000 
 11062144.000000, -10.030712 , -0.655633, 0.806381, 496995424.000000, -52.150002,  152.600006,  74.199997, 0.000000,  0.000000 
 11082432.000000, -10.530812 , -1.167697, 1.749153, 0.000000, 0.000000,  0.000000,  0.000000, 0.000000,  0.000000 
 11102112.000000, -10.604989 , -1.586441, 2.536392, 497015744.000000, -54.599998,  163.240005,  73.150002, 0.000000,  0.000000 
 11122112.000000, -10.059426 , -1.701297, 2.672783, 497035424.000000, -35.700001,  165.270004,  73.709999, 0.000000,  0.000000 
 11142112.000000, -9.413363 , -0.866202, 2.591427, 497055392.000000, 3.780000,  158.899994,  71.820000, 0.000000,  0.000000 
 11162080.000000, -8.611769 , 0.122034, 1.395016, 497075392.000000, 44.170002,  144.270004,  66.010002, 0.000000,  0.000000 
 11182400.000000, -7.850852 , 1.232304, 0.679562, 497095392.000000, 72.239998,  127.400002,  56.279999, 0.000000,  0.000000 
 11202048.000000, -7.176075 , 1.940579, 0.406780, 497115680.000000, 63.139999,  102.900002,  40.459999, 0.000000,  0.000000 
 11222048.000000, -6.843473 , 1.607977, 0.217747, 497135360.000000, 22.049999,  80.500000,  23.590000, 0.000000,  0.000000 
 11242048.000000, -7.415358 , 0.928415, 0.366102, 497155328.000000, -34.160000,  70.070000,  7.700000, 0.000000,  0.000000 
 11262016.000000, -8.394022 , 0.370888, 0.315853, 497175328.000000, -89.599998,  70.769997,  -1.680000, 0.000000,  0.000000 
 11282336.000000, -9.561719 , -0.181855, 0.275175, 497195328.000000, -130.199997,  72.029999,  -3.500000, 0.000000,  0.000000 
 11302016.000000, -10.966305 , -0.725025, 0.543171, 497215616.000000, -155.399994,  65.099998,  -0.840000, 0.000000,  0.000000 
 11321984.000000, -12.758532 , -1.356731, 0.997807, 497235296.000000, -172.339996,  60.270000,  7.140000, 0.000000,  0.000000 
 11341984.000000, -13.909478 , -1.861616, 1.734797, 497275264.000000, -182.210007,  49.490002,  36.470001, 0.000000,  0.000000 
 11361984.000000, -13.442878 , -2.318645, 1.715654, 0.000000, 0.000000,  0.000000,  0.000000, 0.000000,  0.000000 
 11382272.000000, -12.708281 , -2.213361, 1.782653, 497295264.000000, -168.210007,  39.200001,  53.480000, 0.000000,  0.000000 
 11401952.000000, -11.978470 , -1.887937, 2.376073, 497315584.000000, -150.220001,  43.189999,  63.560001, 0.000000,  0.000000 
 11421952.000000, -11.339586 , -1.670190, 3.414558, 497335232.000000, -125.720001,  52.009998,  65.660004, 0.000000,  0.000000 
 11441920.000000, -11.131411 , -1.596013, 4.070191, 497355232.000000, -89.250000,  58.380001,  59.290001, 0.000000,  0.000000 
 11461920.000000, -11.746366 , -1.756332, 3.945765, 497375232.000000, -36.189999,  67.340004,  50.330002, 0.000000,  0.000000 
 11482240.000000, -13.217952 , -1.926222, 3.314059, 497395200.000000, 27.580000,  80.430000,  40.250000, 0.000000,  0.000000 
 11501920.000000, -14.952748 , -2.024328, 2.809174, 497415520.000000, 88.480003,  88.970001,  34.930000, 0.000000,  0.000000 
 11521888.000000, -16.441084 , -1.820938, 2.677568, 497435232.000000, 138.389999,  87.360001,  35.070000, 0.000000,  0.000000 
 11541856.000000, -16.254444 , -1.270589, 2.277967, 497455168.000000, 175.000000,  72.660004,  38.849998, 0.000000,  0.000000 
 11561856.000000, -13.356737 , -0.480957, 1.677369, 497475168.000000, 195.509995,  40.040001,  42.420002, 0.000000,  0.000000 
 11582176.000000, -10.035499 , 0.179462, 1.158126, 497495168.000000, 188.930008,  -20.860001,  41.369999, 0.000000,  0.000000 
 11601824.000000, -8.425128 , 0.416351, 0.739382, 497515456.000000, 176.889999,  -82.599998,  31.360001, 0.000000,  0.000000 
 11621824.000000, -9.298509 , 0.567099, 0.260818, 497535136.000000, 150.009995,  -101.849998,  21.210001, 0.000000,  0.000000 
 11641824.000000, -11.784652 , 0.844666, -0.421137, 497555136.000000, 136.500000,  -108.430000,  -5.950000, 0.000000,  0.000000 
 11661792.000000, -13.028918 , 0.971486, -1.251446, 497575104.000000, 140.070007,  -94.779999,  -27.230000, 0.000000,  0.000000 
 11682112.000000, -13.612768 , 0.574277, -1.464408, 497595104.000000, 143.009995,  -106.260002,  -37.029999, 0.000000,  0.000000 
 11701792.000000, -12.622139 , 0.445065, -1.215554, 497615424.000000, 130.830002,  -153.580002,  -33.389999, 0.000000,  0.000000 
 11721760.000000, -10.683953 , 0.215354, -0.404387, 497635072.000000, 97.160004,  -211.960007,  -24.150000, 0.000000,  0.000000 
 11741760.000000, -9.683753 , 0.153141, 0.531207, 497655072.000000, 56.139999,  -238.070007,  -20.860001, 0.000000,  0.000000 
 11761760.000000, -9.358330 , 0.155533, 0.945165, 497675040.000000, 14.910000,  -229.880005,  -31.990000, 0.000000,  0.000000 
 11782048.000000, -8.925228 , -0.193819, 0.789631, 497695040.000000, -25.340000,  -209.860001,  -48.650002, 0.000000,  0.000000 
 11801728.000000, -8.458629 , -0.669990, 0.337388, 497715360.000000, -45.430000,  -192.639999,  -59.990002, 0.000000,  0.000000 
 11821728.000000, -7.817351 , -1.129412, 0.007178, 497735008.000000, -47.180000,  -177.240005,  -74.199997, 0.000000,  0.000000 
 11841696.000000, -7.415358 , -1.612763, -0.172283, 497775008.000000, -37.099998,  -151.059998,  -74.550003, 557773120.000000,  1010.182251 
 11861696.000000, -7.357929 , -1.931008, -0.356531, 0.000000, 0.000000,  0.000000,  0.000000, 0.000000,  0.000000 
 11882016.000000, -7.702496 , -2.076970, -0.569492, 497794976.000000, -20.510000,  -134.680008,  -65.379997, 0.000000,  0.000000 
 11901664.000000, -8.092526 , -1.933401, -0.713061, 497815296.000000, 0.840000,  -119.349998,  -51.590000, 0.000000,  0.000000 
 11921664.000000, -8.233703 , -1.744368, -0.856631, 497834976.000000, 21.980000,  -108.849998,  -35.000000, 0.000000,  0.000000 
 11941664.000000, -8.324631 , -1.421337, -1.119841, 497854944.000000, 37.660000,  -100.730003,  -18.480000, 0.000000,  0.000000 
 11961632.000000, -8.583055 , -1.308874, -1.368695, 497874944.000000, 41.020000,  -89.879997,  -5.180000, 0.000000,  0.000000 
 11981952.000000, -8.898908 , -1.227518, -1.414158, 497894944.000000, 28.070000,  -72.590004,  2.450000, 0.000000,  0.000000 
 12001632.000000, -9.360723 , -1.055235, -1.287339, 497915232.000000, 3.850000,  -54.599998,  5.250000, 0.000000,  0.000000 
 12021600.000000, -9.999605 , -0.976272, -1.217947, 497934912.000000, -20.299999,  -35.070000,  4.760000, 0.000000,  0.000000 
 12041600.000000, -11.119448 , -0.937986, -1.060020, 497954912.000000, -41.160000,  -12.740000,  -0.350000, 0.000000,  0.000000 
 12061600.000000, -12.047862 , -1.045663, -0.622134, 497974880.000000, -61.040001,  16.309999,  -7.560000, 0.000000,  0.000000 
 12081888.000000, -12.780065 , -1.351945, -0.263210, 497994880.000000, -72.029999,  43.959999,  -12.040000, 0.000000,  0.000000 
 12101568.000000, -14.151153 , -1.359123, 0.579063, 498015168.000000, -68.040001,  71.330002,  -12.040000, 0.000000,  0.000000 
 12121568.000000, -15.187245 , -1.404587, 1.002593, 498034848.000000, -52.639999,  106.470001,  -5.390000, 0.000000,  0.000000 
 12141536.000000, -14.488542 , -1.531406, 0.705883, 498054848.000000, -21.420000,  141.190002,  9.730000, 0.000000,  0.000000 
 12161536.000000, -12.715459 , -1.304088, 0.736989, 498074848.000000, 12.670000,  163.380005,  27.719999, 0.000000,  0.000000 
 12181824.000000, -11.660224 , -0.579063, 1.543371, 498094816.000000, 33.110001,  167.580002,  45.639999, 0.000000,  0.000000 
 12201504.000000, -11.382657 , 0.050249, 1.234696, 498115136.000000, 41.790001,  170.169998,  55.160000, 0.000000,  0.000000 
 12221504.000000, -11.906685 , 0.713061, 0.952343, 498134816.000000, 51.099998,  178.850006,  58.799999, 0.000000,  0.000000 
 12241472.000000, -12.217752 , 1.225125, 1.191626, 498174784.000000, 42.209999,  172.550003,  46.480000, 0.000000,  0.000000 
 12261472.000000, -11.940186 , 1.299303, 1.378266, 0.000000, 0.000000,  0.000000,  0.000000, 0.000000,  0.000000 
 12281792.000000, -11.193624 , 1.445265, 1.368695, 498215072.000000, 20.510000,  121.940002,  31.850000, 0.000000,  0.000000 
 12301440.000000, -10.049855 , 1.871187, 1.129412, 0.000000, 0.000000,  0.000000,  0.000000, 0.000000,  0.000000 
 12321440.000000, -8.846266 , 1.978864, 1.122234, 498234752.000000, -5.320000,  91.349998,  25.340000, 0.000000,  0.000000 
 12341440.000000, -7.889136 , 1.438086, 1.203590, 498254752.000000, -40.459999,  63.560001,  16.799999, 0.000000,  0.000000 
 12361440.000000, -7.412964 , 1.115055, 1.749153, 498274720.000000, -72.800003,  43.470001,  1.190000, 0.000000,  0.000000 
 12381728.000000, -7.283752 , 0.868595, 1.667797, 498294720.000000, -96.739998,  31.360001,  -5.670000, 0.000000,  0.000000 
 12401408.000000, -7.398607 , 0.447458, 1.270589, 498315008.000000, -108.919998,  27.510000,  -6.790000, 0.000000,  0.000000 
 12421376.000000, -7.470392 , -0.169890, 1.131805, 498334688.000000, -117.949997,  22.889999,  -8.750000, 0.000000,  0.000000 
 12441376.000000, -7.623533 , -0.648455, 1.275374, 498354688.000000, -127.750000,  13.650000,  -4.340000, 0.000000,  0.000000 
 12461376.000000, -7.960921 , -1.148555, 1.651048, 498374688.000000, -134.190002,  8.610000,  8.190000, 0.000000,  0.000000 
 12481664.000000, -8.683553 , -1.392623, 2.258825, 498394656.000000, -136.009995,  13.230000,  23.379999, 0.000000,  0.000000 
 12501376.000000, -9.564112 , -1.667797, 2.254039, 498414976.000000, -134.119995,  20.299999,  39.060001, 0.000000,  0.000000 
 12521344.000000, -10.351351 , -1.825724, 2.076970, 498434688.000000, -124.529999,  29.190001,  53.900002, 0.000000,  0.000000 
 12541312.000000, -10.932807 , -1.933401, 1.957329, 498454624.000000, -111.510002,  36.610001,  64.610001, 0.000000,  0.000000 
 12561312.000000, -11.629118 , -1.495514, 2.304288, 498474624.000000, -94.500000,  39.060001,  72.730003, 0.000000,  0.000000 
 12581632.000000, -11.913863 , -1.330409, 1.739582, 498494592.000000, -78.959999,  44.240002,  74.690002, 0.000000,  0.000000 
 12601312.000000, -11.612368 , -1.150948, 1.725225, 498514912.000000, -60.900002,  48.580002,  71.540001, 0.000000,  0.000000 
 12621280.000000, -10.796415 , -1.277767, 2.005185, 498534592.000000, -49.139999,  40.810001,  59.290001, 0.000000,  0.000000 
 12641280.000000, -10.880164 , -1.457229, 2.005185, 498554592.000000, -34.020000,  31.639999,  45.500000, 0.000000,  0.000000 
 12661280.000000, -12.284752 , -1.502693, 1.727618, 498574560.000000, -10.570000,  33.950001,  27.860001, 0.000000,  0.000000 
 12681568.000000, -14.689538 , -1.617548, 1.550549, 498594560.000000, 20.230000,  42.700001,  9.450000, 0.000000,  0.000000 
 12701248.000000, -17.197216 , -1.806581, 1.634298, 498614848.000000, 53.410000,  44.240002,  -3.360000, 0.000000,  0.000000 
 12721248.000000, -17.943777 , -1.911865, 1.497907, 498634528.000000, 89.040001,  37.170002,  -8.120000, 0.000000,  0.000000 
 12741216.000000, -15.507884 , -1.500300, 1.241875, 498654528.000000, 121.309998,  10.010000,  -5.880000, 0.000000,  0.000000 
 12761216.000000, -11.925828 , -0.533599, 1.165305, 498674528.000000, 137.270004,  -30.520000,  -2.940000, 0.000000,  0.000000 
 12781504.000000, -9.066404 , 0.122034, 0.926022, 498694496.000000, 133.490005,  -78.610001,  -4.970000, 0.000000,  0.000000 
 12801184.000000, -8.551948 , 0.361316, 0.746561, 498714784.000000, 117.879997,  -109.129997,  -20.790001, 0.000000,  0.000000 
 12821184.000000, -10.363315 , 0.198604, 0.375673, 498734496.000000, 101.779999,  -109.970001,  -50.889999, 0.000000,  0.000000 
 12841152.000000, -12.997812 , -0.222532, -0.267996, 498754464.000000, 101.290001,  -91.000000,  -77.209999, 0.000000,  0.000000 
 12861152.000000, -13.892728 , -0.619741, -0.705883, 498774464.000000, 112.910004,  -93.029999,  -91.349998, 558772608.000000,  1010.160217 
 12881440.000000, -12.480963 , -0.806381, -0.490529, 498794432.000000, 126.629997,  -129.149994,  -84.980003, 0.000000,  0.000000 
 12901120.000000, -10.937593 , -0.756132, 0.021535, 498814752.000000, 137.339996,  -171.850006,  -68.180000, 0.000000,  0.000000 
 12921120.000000, -10.365707 , -0.208176, 0.241675, 498834432.000000, 142.800003,  -188.649994,  -54.880001, 0.000000,  0.000000 
 12941120.000000, -9.985250 , 0.150748, 0.241675, 498854400.000000, 137.759995,  -179.339996,  -46.200001, 0.000000,  0.000000 
 12961088.000000, -8.970692 , 0.270389, -0.059821, 498874400.000000, 118.020004,  -165.759995,  -40.180000, 0.000000,  0.000000 
 12981408.000000, -7.800602 , -0.028714, -0.145962, 498894400.000000, 85.680000,  -162.050003,  -40.320000, 0.000000,  0.000000 
 13001056.000000, -6.898508 , -0.440279, -0.112463, 498914688.000000, 54.459999,  -156.940002,  -44.450001, 0.000000,  0.000000 
 13021056.000000, -6.259624 , -0.885344, -0.208176, 498934368.000000, 29.889999,  -145.529999,  -48.790001, 0.000000,  0.000000 
 13041056.000000, -6.123233 , -1.205983, -0.339781, 498954336.000000, 14.070000,  -131.809998,  -52.150002, 0.000000,  0.000000 
 13061024.000000, -6.319445 , -1.385444, -0.368495, 498974336.000000, 9.590000,  -117.879997,  -53.130001, 0.000000,  0.000000 
 13081344.000000, -6.702296 , -1.359123, -0.500100, 498994336.000000, 15.820000,  -102.970001,  -49.420002, 0.000000,  0.000000 
 13101024.000000, -7.216753 , -1.342373, -0.531207, 499014624.000000, 27.930000,  -89.389999,  -40.320000, 0.000000,  0.000000 
 13120992.000000, -7.886744 , -1.246661, -0.607777, 499034304.000000, 38.709999,  -75.529999,  -27.230000, 0.000000,  0.000000 
 13140992.000000, -8.461020 , -1.194018, -0.949951, 499054304.000000, 42.000000,  -59.990002,  -11.830000, 0.000000,  0.000000 
 13160992.000000, -8.879765 , -1.256232, -1.105484, 499074272.000000, 32.410000,  -44.660000,  2.520000, 0.000000,  0.000000 
 13181280.000000, -9.238688 , -1.177269, -1.067199, 499094272.000000, 7.350000,  -30.309999,  14.280000, 0.000000,  0.000000 
 13200960.000000, -9.492328 , -1.253839, -1.237089, 499114592.000000, -26.880001,  -11.900000,  23.590000, 0.000000,  0.000000 
 13220960.000000, -10.243673 , -1.268196, -1.689333, 499134240.000000, -61.389999,  8.120000,  25.480000, 0.000000,  0.000000 
 13240928.000000, -11.880364 , -1.354338, -1.622334, 499154240.000000, -96.389999,  27.090000,  21.420000, 0.000000,  0.000000 
 13260928.000000, -14.531611 , -1.428515, -0.789631, 499174240.000000, -124.389999,  59.500000,  16.590000, 0.000000,  0.000000 
 13281248.000000, -15.878771 , -1.892723, -0.090927, 499194208.000000, -138.600006,  91.209999,  13.160000, 0.000000,  0.000000 
 13300896.000000, -15.792630 , -2.311467, 1.691726, 499214528.000000, -127.330002,  117.739998,  16.379999, 0.000000,  0.000000 
 13320896.000000, -15.565310 , -2.165504, 2.653640, 499234208.000000, -91.139999,  140.699997,  32.759998, 0.000000,  0.000000 
 13340896.000000, -14.751752 , -1.830509, 1.899901, 499254176.000000, -30.730000,  177.240005,  56.349998, 0.000000,  0.000000 
 13360864.000000, -13.014563 , -1.217947, 1.330409, 499274176.000000, 31.850000,  204.190002,  74.199997, 0.000000,  0.000000 
 13381184.000000, -11.471190 , -0.698704, 1.289732, 499294176.000000, 70.070000,  201.740005,  85.260002, 0.000000,  0.000000 
 13400864.000000, -11.124231 , -0.203390, 1.691726, 499314464.000000, 83.930000,  188.649994,  85.470001, 0.000000,  0.000000 
 13420832.000000, -11.672189 , 0.538385, 1.758725, 499334144.000000, 83.300003,  186.270004,  79.730003, 0.000000,  0.000000 
 13440832.000000, -11.801401 , 1.083949, 1.115055, 499354144.000000, 78.889999,  184.449997,  70.489998, 0.000000,  0.000000 
 13460832.000000, -11.078769 , 1.311267, 0.325424, 499374112.000000, 73.919998,  159.250000,  56.630001, 0.000000,  0.000000 
 13481120.000000, -9.930215 , 1.607977, 0.136391, 499394112.000000, 57.680000,  114.449997,  40.810001, 0.000000,  0.000000 
 13500832.000000, -8.958728 , 2.096112, 0.543171, 499414432.000000, 43.259998,  92.050003,  26.950001, 0.000000,  0.000000 
 13520768.000000, -8.109276 , 2.292324, 0.887737, 499434144.000000, 3.990000,  54.459999,  20.440001, 0.000000,  0.000000 
 13540768.000000, -7.379465 , 1.696511, 0.835095, 499454080.000000, -41.230000,  25.059999,  5.390000, 0.000000,  0.000000 
 13560768.000000, -7.135397 , 1.414158, 0.880559, 499474080.000000, -86.519997,  3.500000,  -11.900000, 0.000000,  0.000000 
 13581184.000000, -6.750153 , 0.198604, 1.048056, 499494048.000000, -132.020004,  -14.000000,  -27.650000, 0.000000,  0.000000 
 13600736.000000, -6.754939 , -0.181855, 1.138984, 499514464.000000, -167.789993,  -23.590000,  -36.750000, 0.000000,  0.000000 
 13620736.000000, -6.910471 , -0.947558, 1.371087, 499534048.000000, -190.119995,  -25.549999,  -39.759998, 0.000000,  0.000000 
 13640704.000000, -7.066005 , -1.564906, 1.627119, 499554016.000000, -200.619995,  -25.270000,  -37.099998, 0.000000,  0.000000 
 13660896.000000, -7.121039 , -2.108077, 1.883151, 499574016.000000, -199.009995,  -25.059999,  -26.320000, 0.000000,  0.000000 
 13681024.000000, -7.671390 , -2.529213, 2.277967, 499594176.000000, -184.729996,  -24.010000,  -8.820000, 0.000000,  0.000000 
 13700672.000000, -9.245867 , -2.605784, 2.258825, 499614304.000000, -161.419998,  -13.090000,  10.570000, 0.000000,  0.000000 
 13720672.000000, -10.935200 , -2.589034, 1.543371, 499633984.000000, -130.059998,  12.530000,  29.120001, 0.000000,  0.000000 
 13740672.000000, -12.035898 , -2.215754, 1.730011, 499653952.000000, -93.519997,  30.240000,  45.920002, 0.000000,  0.000000 
 13760640.000000, -11.631511 , -1.947758, 1.792224, 499673952.000000, -66.430000,  26.950001,  56.279999, 0.000000,  0.000000 
 13780960.000000, -11.093125 , -1.517050, 1.818545, 499693952.000000, -42.560001,  18.760000,  63.560001, 0.000000,  0.000000 
 13800640.000000, -10.908878 , -0.971486, 1.529014, 499714240.000000, -19.320000,  19.110001,  58.029999, 0.000000,  0.000000 
 13820608.000000, -10.631311 , -0.342174, 1.272982, 499733920.000000, 4.270000,  27.160000,  42.000000, 0.000000,  0.000000 
 13840608.000000, -10.530812 , -0.069392, 0.904487, 499773888.000000, 45.150002,  17.010000,  -1.260000, 559772032.000000,  1010.134949 
 13860608.000000, -11.456835 , -0.045464, 0.464208, 0.000000, 0.000000,  0.000000,  0.000000, 0.000000,  0.000000 
 13880896.000000, -12.906885 , -0.212961, -0.172283, 499793888.000000, 52.570000,  20.790001,  -20.860001, 0.000000,  0.000000 
 13900576.000000, -14.656039 , -0.677169, 0.011964, 499814208.000000, 46.900002,  17.710001,  -35.840000, 0.000000,  0.000000 
 13920576.000000, -15.153747 , -0.997807, 0.512064, 499833856.000000, 36.889999,  12.880000,  -39.619999, 0.000000,  0.000000 
 13940544.000000, -13.682159 , -1.146162, 1.330409, 499853856.000000, 28.770000,  -2.800000,  -32.060001, 0.000000,  0.000000 
 13960544.000000, -11.609976 , -1.337588, 2.067399, 499873856.000000, 21.420000,  -21.629999,  -23.240000, 0.000000,  0.000000 
 13980832.000000, -9.777073 , -1.356731, 2.356930, 499893824.000000, 18.760000,  -31.080000,  -16.379999, 0.000000,  0.000000 
 14000512.000000, -8.997013 , -1.435694, 2.187040, 499914144.000000, 27.650000,  -33.740002,  -15.610000, 0.000000,  0.000000 
 14020512.000000, -9.853643 , -1.572084, 1.885544, 499933824.000000, 54.880001,  -30.940001,  -24.360001, 0.000000,  0.000000 
 14040512.000000, -11.528620 , -1.462015, 1.509871, 499953792.000000, 99.120003,  -17.360001,  -34.650002, 0.000000,  0.000000 
 14060480.000000, -12.248858 , -1.220340, 0.770489, 499973792.000000, 147.699997,  -11.410000,  -34.650002, 0.000000,  0.000000 
 14080800.000000, -11.662617 , -0.844666, 0.026321, 499993792.000000, 185.080002,  -34.299999,  -27.510000, 0.000000,  0.000000 
 14100480.000000, -10.703095 , -0.447458, -0.165105, 500014080.000000, 196.419998,  -67.970001,  -17.850000, 0.000000,  0.000000 
 14120448.000000, -9.961320 , -0.002393, -0.148355, 500033760.000000, 179.479996,  -91.559998,  -10.430000, 0.000000,  0.000000 
 14140448.000000, -9.552148 , 0.485743, -0.098106, 500053760.000000, 147.210007,  -105.559998,  -6.300000, 0.000000,  0.000000 
 14160448.000000, -9.183653 , 0.495314, 0.004786, 500073728.000000, 109.760002,  -113.260002,  -10.290000, 0.000000,  0.000000 
 14180736.000000, -8.807980 , 0.074178, -0.028714, 500093728.000000, 73.080002,  -119.349998,  -20.440001, 0.000000,  0.000000 
 14200416.000000, -8.276773 , -0.315853, 0.074178, 500114016.000000, 46.200001,  -125.930000,  -31.290001, 0.000000,  0.000000 
 14220416.000000, -7.934600 , -0.464208, 0.516850, 500133696.000000, 32.900002,  -130.619995,  -37.380001, 0.000000,  0.000000 
 14240384.000000, -7.800602 , -0.452243, 1.177269, 500153696.000000, 27.230000,  -129.430008,  -37.099998, 0.000000,  0.000000 
 14260384.000000, -7.836494 , -0.459422, 0.832702, 500173696.000000, 24.290001,  -124.809998,  -33.599998, 0.000000,  0.000000 
 14280672.000000, -7.987241 , -0.581456, 0.524028, 500193664.000000, 23.170000,  -115.849998,  -27.510000, 0.000000,  0.000000 
 14300352.000000, -7.982457 , -0.677169, 1.198804, 500213984.000000, 15.050000,  -104.019997,  -21.070000, 0.000000,  0.000000 
 14320352.000000, -8.087741 , -0.141177, 2.246860, 500233664.000000, 3.500000,  -94.989998,  -11.270000, 0.000000,  0.000000 
 14340320.000000, -8.331808 , -0.189033, 1.572084, 500253632.000000, 2.240000,  -85.260002,  -0.840000, 0.000000,  0.000000 
 14360320.000000, -8.803195 , -0.356531, 0.887737, 500273632.000000, 16.240000,  -65.029999,  9.240000, 0.000000,  0.000000 
 14380640.000000, -8.867801 , -0.540778, 0.818345, 500293632.000000, 17.780001,  -49.700001,  15.680000, 0.000000,  0.000000 
 14400320.000000, -8.506484 , -0.480957, 1.246661, 500313920.000000, 10.570000,  -41.930000,  24.780001, 0.000000,  0.000000 
 14420288.000000, -8.504091 , -0.495314, 1.308874, 500333600.000000, 4.620000,  -35.420002,  34.160000, 0.000000,  0.000000 
 14440288.000000, -9.114261 , -0.452243, 1.100698, 500353600.000000, 2.940000,  -19.250000,  36.750000, 0.000000,  0.000000 
 14460288.000000, -9.954143 , -0.571885, 1.136591, 500393568.000000, -2.520000,  20.230000,  32.830002, 0.000000,  0.000000 
 14480576.000000, -10.939985 , -0.823131, 0.780060, 0.000000, 0.000000,  0.000000,  0.000000, 0.000000,  0.000000 
 14500288.000000, -11.681760 , -1.004985, 0.246461, 500413856.000000, -0.840000,  33.950001,  28.350000, 0.000000,  0.000000 
 14520256.000000, -12.234503 , -1.043271, -0.270389, 500433600.000000, 0.840000,  42.840000,  25.129999, 0.000000,  0.000000 
 14540224.000000, -13.584054 , -0.839881, -0.437887, 500453536.000000, 1.610000,  49.490002,  21.070000, 0.000000,  0.000000 
 14560224.000000, -15.474383 , -0.294317, -0.660419, 500473536.000000, -2.870000,  60.760002,  13.510000, 0.000000,  0.000000 
 14580512.000000, -15.876379 , 0.122034, -0.792024, 500493504.000000, -8.260000,  75.879997,  6.230000, 0.000000,  0.000000 
 14600192.000000, -13.957335 , 0.040678, -0.112463, 500513824.000000, -12.600000,  75.669998,  1.820000, 0.000000,  0.000000 
 14620192.000000, -11.832507 , -0.272782, 0.894916, 500533504.000000, -28.139999,  66.080002,  1.330000, 0.000000,  0.000000 
 14640192.000000, -10.497313 , -0.349352, 1.414158, 500553472.000000, -47.250000,  69.019997,  3.150000, 0.000000,  0.000000 
 14660160.000000, -9.817751 , -0.461815, 1.330409, 500593472.000000, -56.000000,  93.730003,  7.630000, 0.000000,  0.000000 
 14680480.000000, -10.018748 , -0.562313, 1.277767, 0.000000, 0.000000,  0.000000,  0.000000, 0.000000,  0.000000 
 14700160.000000, -10.423136 , -0.648455, 1.514657, 500613760.000000, -52.990002,  104.300003,  7.630000, 0.000000,  0.000000 
 14720128.000000, -10.059426 , -0.509671, 1.782653, 500633440.000000, -42.840000,  107.940002,  9.870000, 0.000000,  0.000000 
 14740128.000000, -9.403792 , -0.287139, 1.816152, 500653440.000000, -26.250000,  97.090004,  13.160000, 0.000000,  0.000000 
 14760128.000000, -8.731410 , -0.071785, 1.603191, 500673408.000000, -9.660000,  83.790001,  14.140000, 0.000000,  0.000000 
 14780416.000000, -8.118847 , 0.043071, 1.521835, 500693408.000000, -0.070000,  74.199997,  11.830000, 0.000000,  0.000000 
 14800096.000000, -7.664211 , 0.416351, 1.835295, 500713696.000000, 0.980000,  63.279999,  7.000000, 0.000000,  0.000000 
 14820256.000000, -7.183254 , 0.691526, 1.536192, 500733376.000000, -1.890000,  51.590000,  0.980000, 0.000000,  0.000000 
 14840064.000000, -6.752545 , 0.720240, 1.490728, 500753536.000000, -7.070000,  41.790001,  -4.270000, 0.000000,  0.000000 
 14860032.000000, -6.451050 , 0.461815, 1.438086, 500773344.000000, -22.820000,  31.010000,  -10.780000, 560771520.000000,  1010.111328 
 14880352.000000, -6.680761 , 0.265603, 1.438086, 500793344.000000, -41.369999,  24.360001,  -14.210000, 0.000000,  0.000000 
 14900032.000000, -7.183254 , 0.143569, 1.153341, 500813632.000000, -56.070000,  26.670000,  -14.490000, 0.000000,  0.000000 
 14920000.000000, -7.922636 , -0.043071, 1.131805, 500833312.000000, -66.080002,  30.730000,  -10.360000, 0.000000,  0.000000 
 14940000.000000, -8.757731 , -0.227318, 1.387837, 500853312.000000, -78.400002,  32.130001,  -5.110000, 0.000000,  0.000000 
 14960000.000000, -9.449257 , -0.366102, 1.351945, 500873312.000000, -90.580002,  33.320000,  1.680000, 0.000000,  0.000000 
 14980320.000000, -9.875179 , -0.741775, 1.146162, 500893280.000000, -98.279999,  34.930000,  9.730000, 0.000000,  0.000000 
 14999968.000000, -10.420743 , -0.672383, 1.818545, 500913600.000000, -104.230003,  33.950001,  15.050000, 0.000000,  0.000000 
 15019968.000000, -11.617154 , -0.263210, 2.414358, 500933248.000000, -106.680000,  34.930000,  20.020000, 0.000000,  0.000000 
 15039936.000000, -12.514462 , -0.117248, 1.892723, 500953248.000000, -96.529999,  44.450001,  22.469999, 0.000000,  0.000000 
 15059936.000000, -12.062220 , -0.181855, 1.634298, 500973248.000000, -79.379997,  49.700001,  20.370001, 0.000000,  0.000000 
 15080256.000000, -10.861022 , 0.160319, 1.763510, 500993216.000000, -68.110001,  33.459999,  16.240000, 0.000000,  0.000000 
 15099904.000000, -10.303494 , 1.069592, 0.844666, 501013536.000000, -56.560001,  14.000000,  15.120000, 0.000000,  0.000000 
 15119904.000000, -11.097912 , 2.165504, 0.119641, 501033216.000000, -39.970001,  13.790000,  12.040000, 0.000000,  0.000000 
 15139904.000000, -11.913863 , 2.995814, -0.361316, 501053184.000000, -33.110001,  19.180000,  5.460000, 0.000000,  0.000000 
 15159872.000000, -12.399607 , 2.895315, -0.653241, 501073184.000000, -43.820000,  14.420000,  -0.350000, 0.000000,  0.000000 
 15180192.000000, -13.916656 , 1.545763, -0.370888, 501093184.000000, -73.430000,  5.040000,  -2.730000, 0.000000,  0.000000 
 15199872.000000, -16.046268 , -0.583849, 0.964308, 501113504.000000, -114.309998,  9.730000,  -5.530000, 0.000000,  0.000000 
 15219840.000000, -16.656439 , -2.505285, 2.065006, 501133152.000000, -143.919998,  18.969999,  -1.120000, 0.000000,  0.000000 
 15239840.000000, -14.435899 , -2.914458, 2.316252, 501153152.000000, -132.930008,  15.400000,  21.139999, 0.000000,  0.000000 
 15259840.000000, -11.040483 , -1.883151, 2.330609, 501173120.000000, -76.510002,  4.130000,  49.630001, 0.000000,  0.000000 
 15280128.000000, -8.372486 , -0.909273, 1.818545, 501193120.000000, -10.990000,  -16.730000,  64.750000, 0.000000,  0.000000 
 15299808.000000, -7.489535 , -0.799203, 1.713261, 501213440.000000, 45.779999,  -27.650000,  59.990002, 0.000000,  0.000000 
 15319808.000000, -8.623734 , -1.237089, 2.031506, 501233088.000000, 90.930000,  -16.379999,  44.310001, 0.000000,  0.000000 
 15339776.000000, -10.253245 , -2.105684, 2.459821, 501253088.000000, 124.879997,  14.210000,  35.000000, 0.000000,  0.000000 
 15359776.000000, -10.468598 , -3.160919, 3.347559, 501273088.000000, 150.289993,  26.250000,  40.670002, 0.000000,  0.000000 
 15380096.000000, -9.533006 , -5.008178, 4.168297, 501293056.000000, 158.619995,  5.460000,  63.209999, 0.000000,  0.000000 
 15399744.000000, -8.860621 , -6.305088, 4.627719, 501313376.000000, 171.360001,  -5.180000,  77.279999, 0.000000,  0.000000 
 15419744.000000, -8.370094 , -5.259424, 2.378466, 501333056.000000, 176.539993,  -23.309999,  92.470001, 0.000000,  0.000000 
 15439712.000000, -8.492127 , -3.677768, 0.725025, 501353024.000000, 191.169998,  -42.770000,  90.160004, 0.000000,  0.000000 
 15459712.000000, -9.030513 , -0.215354, -0.086142, 501373024.000000, 232.540009,  -58.380001,  80.220001, 0.000000,  0.000000 
 15480032.000000, -9.040084 , 2.292324, -1.694118, 501393024.000000, 266.420013,  -75.040001,  73.500000, 0.000000,  0.000000 
 15499744.000000, -8.724231 , 2.373680, -1.844866, 501413312.000000, 250.880005,  -112.699997,  54.459999, 0.000000,  0.000000 
 15519680.000000, -8.544770 , 2.055435, -1.871187, 501433024.000000, 185.850006,  -154.699997,  22.750000, 0.000000,  0.000000 
 15539680.000000, -9.480364 , 1.820938, -1.040878, 501452992.000000, 100.379997,  -178.570007,  -5.110000, 0.000000,  0.000000 
 15559680.000000, -11.107484 , 1.127020, -0.937986, 501472960.000000, 19.180000,  -182.910004,  -30.730000, 0.000000,  0.000000 
 15579968.000000, -12.679568 , 0.275175, -0.346959, 501492960.000000, -46.900002,  -187.180008,  -53.900002, 0.000000,  0.000000 
 15599648.000000, -12.827922 , -0.849452, 0.581456, 501513248.000000, -114.449997,  -214.270004,  -87.150002, 0.000000,  0.000000 
 15619616.000000, -12.043077 , -1.813759, 2.127219, 501532928.000000, -165.410004,  -239.119995,  -108.360001, 0.000000,  0.000000 
 15639616.000000, -11.868401 , -1.832902, 3.627519, 501552928.000000, -182.559998,  -234.430008,  -120.330002, 0.000000,  0.000000 
 15659616.000000, -12.055040 , -1.399801, 3.108276, 501572928.000000, -157.710007,  -199.289993,  -128.800003, 0.000000,  0.000000 
 15679904.000000, -11.684153 , -0.981057, 1.679761, 501592896.000000, -93.800003,  -155.190002,  -124.110001, 0.000000,  0.000000 
 15699584.000000, -10.731809 , -0.251246, 0.634098, 501613216.000000, -23.940001,  -125.020004,  -113.540001, 0.000000,  0.000000 
 15719584.000000, -9.700503 , 0.416351, 0.222532, 501632864.000000, 26.389999,  -114.449997,  -99.610001, 0.000000,  0.000000 
 15739552.000000, -8.961121 , 0.973879, 0.131605, 501652864.000000, 60.410000,  -102.340004,  -85.050003, 0.000000,  0.000000 
 15759552.000000, -8.927622 , 1.392623, 0.136391, 501672864.000000, 78.190002,  -87.639999,  -71.400002, 0.000000,  0.000000 
 15779872.000000, -9.736395 , 1.521835, 0.241675, 501692832.000000, 82.879997,  -65.099998,  -58.520000, 0.000000,  0.000000 
 15799520.000000, -11.353944 , 1.050449, 0.040678, 501713152.000000, 80.010002,  -37.310001,  -43.820000, 0.000000,  0.000000 
 15819520.000000, -12.265609 , 0.574277, 0.050249, 501732832.000000, 65.169998,  -4.410000,  -32.900002, 0.000000,  0.000000 
 15839520.000000, -12.107682 , 0.217747, -0.435494, 501752800.000000, 36.400002,  16.799999,  -18.059999, 0.000000,  0.000000 
 15859488.000000, -12.339786 , 0.112463, -0.492921, 501772800.000000, 7.560000,  35.279999,  1.890000, 561770944.000000,  1010.087524 
 15879808.000000, -12.100503 , 0.105284, 0.110070, 501792800.000000, -23.799999,  65.940002,  16.100000, 0.000000,  0.000000 
 15899488.000000, -10.549955 , -0.066999, 0.705883, 501813088.000000, -53.060001,  91.910004,  30.380001, 0.000000,  0.000000 
 15919456.000000, -9.281759 , -0.157926, 1.203590, 501832768.000000, -64.680000,  101.220001,  40.180000, 0.000000,  0.000000 
 15939456.000000, -9.071191 , -0.373280, 0.926022, 501852768.000000, -60.970001,  110.180000,  44.029999, 0.000000,  0.000000 
 15959456.000000, -9.822537 , -0.586242, 0.571885, 501872736.000000, -49.349998,  130.690002,  47.040001, 0.000000,  0.000000 
 15979744.000000, -10.205389 , -0.691526, 0.636491, 501892736.000000, -41.650002,  153.229996,  47.529999, 0.000000,  0.000000 
 15999424.000000, -9.879964 , -0.598206, 1.138984, 501913024.000000, -37.869999,  154.630005,  48.930000, 0.000000,  0.000000 
 16019424.000000, -9.291330 , -0.258425, 1.387837, 501932704.000000, -27.930000,  142.240005,  50.470001, 0.000000,  0.000000 
 16039392.000000, -8.884550 , -0.119641, 1.282553, 501952704.000000, -16.379999,  134.889999,  51.590000, 0.000000,  0.000000 
 16059392.000000, -8.669197 , 0.045464, 1.234696, 501972704.000000, -13.300000,  130.199997,  48.860001, 0.000000,  0.000000 
 16079680.000000, -8.391629 , 0.167498, 1.265803, 501992672.000000, -20.440001,  122.919998,  42.349998, 0.000000,  0.000000 
 16099360.000000, -8.231310 , 0.641276, 1.258625, 502012992.000000, -28.490000,  112.139999,  35.349998, 0.000000,  0.000000 
 16119360.000000, -8.185846 , 0.758525, 0.811167, 502032672.000000, -37.869999,  100.309998,  29.540001, 0.000000,  0.000000 
 16139360.000000, -8.434700 , 0.308674, 0.708275, 502052640.000000, -52.220001,  92.959999,  26.180000, 0.000000,  0.000000 
 16159328.000000, -9.042477 , -0.191426, 0.935594, 502072640.000000, -77.489998,  87.080002,  22.400000, 0.000000,  0.000000 
 16179648.000000, -9.856036 , -0.533599, 1.009771, 502112928.000000, -114.800003,  83.930000,  30.240000, 0.000000,  0.000000 
 16199328.000000, -10.734202 , -0.638884, 1.241875, 0.000000, 0.000000,  0.000000,  0.000000, 0.000000,  0.000000 
 16219296.000000, -11.385050 , -0.803988, 1.363909, 502132608.000000, -123.970001,  82.180000,  39.759998, 0.000000,  0.000000 
 16239296.000000, -11.913863 , -1.033699, 1.897508, 502152608.000000, -130.690002,  79.169998,  49.349998, 0.000000,  0.000000 
 16259296.000000, -12.476178 , -0.988236, 2.316252, 502172576.000000, -136.779999,  78.610001,  55.230000, 0.000000,  0.000000 
 16279584.000000, -12.792030 , -0.643669, 2.488536, 502192576.000000, -137.759995,  80.150002,  58.099998, 0.000000,  0.000000 
 16299264.000000, -12.401999 , -0.390030, 2.335395, 502212864.000000, -134.399994,  78.260002,  54.740002, 0.000000,  0.000000 
 16319264.000000, -11.612368 , 0.193819, 2.904887, 502232544.000000, -128.309998,  68.110001,  45.849998, 0.000000,  0.000000 
 16339232.000000, -11.361122 , 1.162912, 3.708875, 502252544.000000, -120.400002,  49.560001,  32.900002, 0.000000,  0.000000 
 16359232.000000, -11.511869 , 1.897508, 3.017349, 502272544.000000, -102.199997,  37.730000,  20.299999, 0.000000,  0.000000 
 16379520.000000, -11.248660 , 1.789831, 1.820938, 502292512.000000, -79.239998,  30.590000,  7.140000, 0.000000,  0.000000 
 16399200.000000, -10.746166 , 1.354338, 0.969093, 502312832.000000, -75.320000,  6.020000,  -8.680000, 0.000000,  0.000000 
 16419200.000000, -10.549955 , 1.222732, 0.232104, 502332512.000000, -88.480003,  -18.270000,  -17.710001, 0.000000,  0.000000 
 16439200.000000, -10.703095 , 1.095913, 0.062213, 502352480.000000, -97.720001,  -31.990000,  -18.969999, 0.000000,  0.000000 
 16459168.000000, -11.289338 , 0.153141, 0.155533, 502372480.000000, -106.750000,  -42.070000,  -19.320000, 0.000000,  0.000000 
 16479488.000000, -12.940384 , -1.450050, 1.105484, 502392480.000000, -116.270004,  -48.299999,  -15.890000, 0.000000,  0.000000 
 16499200.000000, -14.301902 , -2.790031, 2.177469, 502412768.000000, -120.959999,  -47.950001,  -12.880000, 0.000000,  0.000000 
 16519136.000000, -14.031512 , -3.383451, 3.014957, 502432480.000000, -106.050003,  -49.349998,  3.150000, 0.000000,  0.000000 
 16539136.000000, -11.966506 , -2.995814, 3.780660, 502452448.000000, -66.500000,  -51.590000,  26.740000, 0.000000,  0.000000 
 16559136.000000, -9.382257 , -2.244468, 3.838088, 502472416.000000, -16.100000,  -47.950001,  45.500000, 0.000000,  0.000000 
 16579424.000000, -7.654640 , -1.758725, 2.959922, 502492416.000000, 39.130001,  -38.290001,  50.959999, 0.000000,  0.000000 
 16599104.000000, -7.611568 , -1.418944, 1.919044, 502512704.000000, 86.519997,  -25.830000,  39.410000, 0.000000,  0.000000 
 16619104.000000, -9.305687 , -1.359123, 1.239482, 502532384.000000, 116.690002,  -5.040000,  18.480000, 0.000000,  0.000000 
 16639072.000000, -11.447264 , -1.770689, 0.705883, 502552384.000000, 133.699997,  16.870001,  -5.110000, 0.000000,  0.000000 
 16659072.000000, -11.858829 , -2.438286, 0.076570, 502572352.000000, 139.580002,  14.770000,  -23.100000, 0.000000,  0.000000 
 16679360.000000, -10.746166 , -2.476572, -0.349352, 502592352.000000, 141.399994,  -23.870001,  -32.410000, 0.000000,  0.000000 
 16699040.000000, -9.784252 , -1.981257, -0.787239, 502612672.000000, 145.880005,  -70.139999,  -36.610001, 0.000000,  0.000000 
 16719040.000000, -9.734003 , -1.328017, -0.880559, 502632320.000000, 153.089996,  -99.610001,  -44.939999, 0.000000,  0.000000 
 16739008.000000, -10.124033 , -0.894916, -1.016950, 502652320.000000, 158.059998,  -115.500000,  -59.010002, 0.000000,  0.000000 
 16759008.000000, -10.200603 , -0.507278, -1.129412, 502672320.000000, 160.860001,  -127.330002,  -74.340004, 0.000000,  0.000000 
 16779328.000000, -9.736395 , -0.035892, -0.830309, 502692288.000000, 161.979996,  -146.440002,  -85.680000, 0.000000,  0.000000 
 16798976.000000, -9.219545 , 0.373280, -0.581456, 502712608.000000, 156.800003,  -165.550003,  -95.620003, 0.000000,  0.000000 
 16818976.000000, -8.870193 , 0.519243, -0.392423, 502732288.000000, 140.770004,  -175.419998,  -107.870003, 0.000000,  0.000000 
 16838976.000000, -8.602197 , 0.189033, -0.291924, 502752256.000000, 110.879997,  -172.899994,  -120.540001, 0.000000,  0.000000 
 16858944.000000, -8.583055 , -0.244068, 0.043071, 502772256.000000, 70.769997,  -161.279999,  -130.059998, 562770432.000000,  1010.065063 
 16879264.000000, -8.520842 , -0.435494, 0.782453, 502792256.000000, 31.150000,  -142.520004,  -133.979996, 0.000000,  0.000000 
 16898912.000000, -8.616554 , -0.591027, 1.323231, 502812544.000000, 2.310000,  -119.840004,  -129.990005, 0.000000,  0.000000 
 16918912.000000, -8.633304 , -0.638884, 1.679761, 502832224.000000, -9.520000,  -93.449997,  -117.879997, 0.000000,  0.000000 
 16938912.000000, -8.618947 , -0.557528, 2.261217, 502852224.000000, -6.090000,  -66.779999,  -100.449997, 0.000000,  0.000000 
 16958880.000000, -8.726624 , -0.294317, 3.089134, 502872192.000000, 10.500000,  -42.490002,  -78.050003, 0.000000,  0.000000 
 16979200.000000, -8.877372 , -0.062213, 3.148954, 502892192.000000, 36.049999,  -20.930000,  -54.880001, 0.000000,  0.000000 
 16998880.000000, -8.918050 , 0.246461, 2.237289, 502912512.000000, 70.419998,  -1.680000,  -31.850000, 0.000000,  0.000000 
 17018848.000000, -8.819944 , 0.839881, 1.636691, 502932160.000000, 103.739998,  12.880000,  -14.210000, 0.000000,  0.000000 
 17038848.000000, -8.791230 , 1.478764, 1.172483, 502952160.000000, 116.059998,  17.290001,  -0.420000, 0.000000,  0.000000 
 17058848.000000, -9.226725 , 1.871187, 0.870987, 502972128.000000, 110.250000,  22.750000,  11.340000, 0.000000,  0.000000 
 17079136.000000, -10.150353 , 1.966900, 0.849452, 502992128.000000, 94.080002,  35.209999,  16.730000, 0.000000,  0.000000 
 17098816.000000, -11.071590 , 2.060220, 0.940379, 503012448.000000, 72.590004,  44.799999,  16.240000, 0.000000,  0.000000 
 17118816.000000, -11.947363 , 1.981257, 0.334995, 503032096.000000, 52.220001,  47.040001,  17.010000, 0.000000,  0.000000 
 17138784.000000, -13.311273 , 1.174876, -0.624527, 503052096.000000, 31.850000,  51.520000,  17.290001, 0.000000,  0.000000 
 17158784.000000, -14.950355 , 0.306281, -1.179662, 503072096.000000, 0.420000,  65.239998,  16.450001, 0.000000,  0.000000 
 17179104.000000, -16.668402 , -0.275175, -0.823131, 503092064.000000, -42.349998,  75.389999,  19.389999, 0.000000,  0.000000 
 17198752.000000, -16.582260 , -0.579063, 0.126820, 503112384.000000, -81.269997,  84.139999,  27.790001, 0.000000,  0.000000 
 17218752.000000, -13.856836 , -0.923629, 0.782453, 503132064.000000, -104.440002,  87.430000,  45.500000, 0.000000,  0.000000 
 17238752.000000, -11.052447 , -1.241875, 0.969093, 503152032.000000, -116.970001,  81.269997,  62.299999, 0.000000,  0.000000 
 17258720.000000, -9.341579 , -1.478764, 0.902094, 503172032.000000, -126.770004,  79.800003,  68.040001, 0.000000,  0.000000 
 17279040.000000, -9.487542 , -1.210768, 0.646062, 503192032.000000, -128.309998,  80.709999,  61.670002, 0.000000,  0.000000 
 17298720.000000, -10.755738 , -0.815953, -0.028714, 503212320.000000, -119.770004,  87.570000,  54.810001, 0.000000,  0.000000 
 17318688.000000, -11.260624 , -0.717847, -0.291924, 503232000.000000, -98.279999,  104.510002,  42.070000, 0.000000,  0.000000 
 17338688.000000, -10.906486 , -0.777667, -0.141177, 503252000.000000, -74.410004,  103.599998,  31.570000, 0.000000,  0.000000 
 17358688.000000, -9.635897 , -1.021735, 0.349352, 503271968.000000, -60.340000,  76.440002,  21.000000, 0.000000,  0.000000 
 17378976.000000, -8.556733 , -0.981057, 0.631705, 503291968.000000, -55.930000,  51.099998,  15.330000, 0.000000,  0.000000 
 17398656.000000, -8.353344 , -0.672383, 0.569492, 503312256.000000, -59.150002,  40.040001,  8.610000, 0.000000,  0.000000 
 17418656.000000, -7.996813 , -0.265603, 0.811167, 503331936.000000, -66.430000,  36.820000,  1.890000, 0.000000,  0.000000 
 17438624.000000, -7.446464 , -0.052642, 0.914058, 503351936.000000, -77.139999,  29.120001,  -4.970000, 0.000000,  0.000000 
 17458624.000000, -6.948757 , -0.100499, 1.057628, 503371936.000000, -88.690002,  19.600000,  -10.080000, 0.000000,  0.000000 
 17478912.000000, -6.659225 , -0.411566, 1.019342, 503391904.000000, -100.730003,  17.010000,  -14.840000, 0.000000,  0.000000 
 17498624.000000, -6.568298 , -0.679562, 0.825524, 503412224.000000, -110.389999,  16.170000,  -16.730000, 0.000000,  0.000000 
 17518592.000000, -6.927221 , -0.600598, 0.607777, 503431936.000000, -113.959999,  17.570000,  -13.860000, 0.000000,  0.000000 
 17538560.000000, -7.501499 , -0.461815, 0.148355, 503451872.000000, -113.610001,  25.340000,  -6.300000, 0.000000,  0.000000 
 17558560.000000, -8.094919 , -0.524028, -0.052642, 503471872.000000, -114.239998,  32.130001,  4.900000, 0.000000,  0.000000 
 17578880.000000, -9.284152 , -0.669990, 0.114855, 503491872.000000, -122.150002,  35.000000,  15.820000, 0.000000,  0.000000 
 17598528.000000, -11.334801 , -0.514457, 0.220140, 503512160.000000, -136.779999,  43.820000,  27.580000, 0.000000,  0.000000 
 17618528.000000, -12.442677 , -0.526421, -0.208176, 503531840.000000, -148.960007,  63.139999,  39.410000, 0.000000,  0.000000 
 17638528.000000, -11.808580 , -0.887737, 0.189033, 503551840.000000, -152.110001,  62.580002,  55.230000, 0.000000,  0.000000 
 17658496.000000, -11.794223 , -1.320838, 0.952343, 503571808.000000, -155.960007,  49.139999,  67.830002, 0.000000,  0.000000 
 17678816.000000, -12.660425 , -1.220340, 1.505085, 503591808.000000, -153.229996,  59.920002,  74.550003, 0.000000,  0.000000 
 17698496.000000, -12.418750 , -0.636491, 2.187040, 503612096.000000, -127.120003,  83.510002,  75.250000, 0.000000,  0.000000 
 17718464.000000, -11.956935 , -0.485743, 2.165504, 503631776.000000, -73.570000,  84.910004,  75.809998, 0.000000,  0.000000 
 17738464.000000, -12.468999 , -0.636491, 1.732404, 503651776.000000, -9.520000,  85.190002,  71.540001, 0.000000,  0.000000 
 17758464.000000, -13.172488 , -0.669990, 1.134198, 503671776.000000, 41.090000,  93.519997,  63.139999, 0.000000,  0.000000 
 17778752.000000, -14.517255 , -0.844666, 1.263410, 503691744.000000, 73.849998,  96.180000,  59.990002, 0.000000,  0.000000 
 17798432.000000, -16.340586 , -1.268196, 2.100898, 503712064.000000, 92.959999,  93.449997,  59.360001, 0.000000,  0.000000 
 17818432.000000, -16.070196 , -1.454836, 2.299503, 503731712.000000, 108.709999,  92.260002,  59.500000, 0.000000,  0.000000 
 17838400.000000, -13.007384 , -0.842274, 2.354537, 503751712.000000, 132.369995,  69.230003,  62.369999, 0.000000,  0.000000 
 17858400.000000, -9.628718 , -0.294317, 2.266003, 503771712.000000, 151.899994,  20.580000,  62.369999, 563769856.000000,  1010.041626 
 17878720.000000, -7.611568 , -0.019143, 1.909473, 503791712.000000, 156.100006,  -26.600000,  52.709999, 0.000000,  0.000000 
 17898368.000000, -7.757531 , 0.277567, 1.430908, 503812000.000000, 148.259995,  -52.920002,  30.799999, 0.000000,  0.000000 
 17918368.000000, -10.059426 , 0.349352, 0.820738, 503831680.000000, 144.130005,  -46.970001,  4.830000, 0.000000,  0.000000 
 17938368.000000, -12.602997 , 0.299103, 0.153141, 503851648.000000, 146.300003,  -27.160000,  -12.880000, 0.000000,  0.000000 
 17958336.000000, -13.124631 , 0.112463, -0.050249, 503871648.000000, 145.110001,  -39.480000,  -16.660000, 0.000000,  0.000000 
 17978656.000000, -11.203196 , -0.114855, 0.291924, 503891648.000000, 132.789993,  -89.180000,  -4.340000, 0.000000,  0.000000 
 17998336.000000, -9.360723 , -0.468993, 0.813560, 503911936.000000, 106.540001,  -144.759995,  14.910000, 0.000000,  0.000000 
 18018304.000000, -8.657232 , -0.593420, 1.196411, 503931616.000000, 69.019997,  -170.869995,  21.840000, 0.000000,  0.000000 
 18038304.000000, -8.906086 , -0.332602, 1.356731, 503951616.000000, 28.980000,  -167.300003,  17.920000, 0.000000,  0.000000 
 18058304.000000, -9.346365 , -0.191426, 1.074377, 503971616.000000, -5.460000,  -153.789993,  7.350000, 0.000000,  0.000000 
 18078592.000000, -9.401401 , -0.401994, 0.397209, 503991584.000000, -26.110001,  -151.690002,  -11.690000, 0.000000,  0.000000 
 18098272.000000, -9.267403 , -0.894916, -0.287139, 504011872.000000, -29.540001,  -160.089996,  -34.090000, 0.000000,  0.000000 
 18118272.000000, -9.552148 , -1.438086, -0.789631, 504031584.000000, -25.620001,  -165.339996,  -50.330002, 0.000000,  0.000000 
 18138240.000000, -10.037891 , -1.919044, -1.002593, 504051552.000000, -21.559999,  -163.729996,  -62.790001, 0.000000,  0.000000 
 18158240.000000, -10.356135 , -1.998007, -1.009771, 504071552.000000, -14.070000,  -162.050003,  -70.419998, 0.000000,  0.000000 
 18178528.000000, -10.518847 , -2.007578, -1.031307, 504091552.000000, -1.680000,  -162.050003,  -70.769997, 0.000000,  0.000000 
 18198208.000000, -10.674382 , -1.651048, -0.655633, 504111840.000000, 13.300000,  -160.789993,  -67.199997, 0.000000,  0.000000 
 18218208.000000, -10.736595 , -1.007378, -0.741775, 504131520.000000, 22.680000,  -153.509995,  -63.910000, 0.000000,  0.000000 
 18238208.000000, -10.509278 , -0.591027, -1.165305, 504151488.000000, 21.490000,  -143.639999,  -63.630001, 0.000000,  0.000000 
 18258176.000000, -9.796216 , -0.401994, -1.605584, 504171488.000000, 3.990000,  -129.639999,  -67.059998, 0.000000,  0.000000 
 18278496.000000, -8.946764 , -0.373280, -1.545763, 504191488.000000, -23.309999,  -115.919998,  -71.400002, 0.000000,  0.000000 
 18298176.000000, -8.662018 , -0.093320, -0.890130, 504211776.000000, -45.920002,  -95.830002,  -76.300003, 0.000000,  0.000000 
 18318144.000000, -9.327222 , 0.105284, -0.205783, 504231456.000000, -58.240002,  -68.809998,  -81.059998, 0.000000,  0.000000 
 18338144.000000, -10.403993 , -0.241675, 0.461815, 504251456.000000, -57.470001,  -35.420002,  -81.830002, 0.000000,  0.000000 
 18358144.000000, -11.653046 , -1.043271, 0.339781, 504271424.000000, -42.209999,  1.330000,  -72.590004, 0.000000,  0.000000 
 18378432.000000, -13.820943 , -1.655833, -0.559920, 504291424.000000, -15.540000,  30.520000,  -52.990002, 0.000000,  0.000000 
 18398112.000000, -15.503098 , -1.294517, -1.021735, 504311712.000000, 5.600000,  68.110001,  -29.750000, 0.000000,  0.000000 
 18418112.000000, -14.146368 , -0.882952, -1.170090, 504331392.000000, 16.590000,  98.840004,  1.470000, 0.000000,  0.000000 
 18438080.000000, -11.765509 , -0.567099, -0.705883, 504351392.000000, 22.400000,  105.559998,  36.680000, 0.000000,  0.000000 
 18458080.000000, -10.439885 , -0.014357, -0.035892, 504371392.000000, 13.230000,  106.610001,  57.049999, 0.000000,  0.000000 
 18478368.000000, -9.923036 , 0.449851, -0.186640, 504391360.000000, -3.920000,  118.230003,  62.230000, 0.000000,  0.000000 
 18498080.000000, -10.384850 , 0.655633, -0.547956, 504411680.000000, -12.040000,  131.320007,  63.139999, 0.000000,  0.000000 
 18518048.000000, -11.844472 , 0.334995, -1.038485, 504431392.000000, -18.340000,  143.500000,  55.369999, 0.000000,  0.000000 
 18538016.000000, -12.473784 , 0.150748, -1.138984, 504451328.000000, -24.080000,  153.020004,  45.500000, 0.000000,  0.000000 
 18558016.000000, -11.227123 , 0.512064, -0.875773, 504471328.000000, -27.160000,  145.600006,  41.369999, 0.000000,  0.000000 
 18578432.000000, -9.777073 , 0.543171, -0.452243, 504491296.000000, -26.670000,  121.449997,  45.709999, 0.000000,  0.000000 
 18597984.000000, -9.415757 , 0.131605, -0.105284, 504511712.000000, -30.240000,  105.769997,  45.639999, 0.000000,  0.000000 
 18617984.000000, -10.210175 , -0.033500, -0.126820, 504531296.000000, -37.869999,  108.639999,  38.080002, 0.000000,  0.000000 
 18637984.000000, -9.942179 , 0.581456, 0.473779, 504551264.000000, -36.470001,  120.540001,  30.590000, 0.000000,  0.000000 
 18657952.000000, -8.518449 , 0.229711, 0.691526, 504571264.000000, -33.599998,  112.840004,  35.139999, 0.000000,  0.000000 
 18678272.000000, -7.542177 , -0.418744, 1.301696, 504591264.000000, -23.940001,  94.709999,  36.330002, 0.000000,  0.000000 
 18697952.000000, -7.563712 , -0.236889, 1.514657, 504611552.000000, -13.090000,  88.620003,  37.590000, 0.000000,  0.000000 
 18717920.000000, -8.307880 , 0.023928, 1.064806, 504631232.000000, 2.030000,  99.750000,  45.570000, 0.000000,  0.000000 
 18737920.000000, -9.142976 , 0.114855, 1.057628, 504651232.000000, 11.970000,  112.699997,  51.099998, 0.000000,  0.000000 
 18757920.000000, -9.516255 , -0.181855, 1.375873, 504671200.000000, -4.270000,  111.020004,  54.599998, 0.000000,  0.000000 
 18778208.000000, -9.796216 , -0.500100, 1.789831, 504691200.000000, -32.970001,  103.250000,  59.639999, 0.000000,  0.000000 
 18797888.000000, -10.344172 , -0.696311, 1.856830, 504711520.000000, -56.349998,  96.809998,  63.770000, 0.000000,  0.000000 
 18818048.000000, -10.995021 , -0.801596, 1.701297, 504731168.000000, -67.550003,  95.269997,  63.000000, 0.000000,  0.000000 
 18837856.000000, -11.217552 , -1.016950, 1.371087, 504771168.000000, -64.889999,  71.750000,  54.670002, 564769280.000000,  1010.016113 
 18857856.000000, -11.021341 , -1.069592, 1.493121, 0.000000, 0.000000,  0.000000,  0.000000, 0.000000,  0.000000 
