 Acc_timestamp,Accx,Accy,Accz,Gyro_timestamp,Gyrox,Gyroy,Gyroz,Baro_timestamp,Pressure_Reading
 131701760.000000, 1.392623 , 2.277967, 9.119047, 0.000000, 0.000000,  0.000000,  0.000000, 0.000000,  0.000000
 19456.000000, 1.411765 , 3.493521, 8.492127, 0.000000, 0.000000,  0.000000,  0.000000, 0.000000,  0.000000 
 39936.000000, 1.622334 , 3.436093, 8.281559, 0.000000, 0.000000,  0.000000,  0.000000, 0.000000,  0.000000 
 59904.000000, 2.017149 , 2.873780, 7.652246, 3608520960.000000, -22.610001,  15.470000,  16.940001, 0.000000,  0.000000 
 79360.000000, 2.316252 , 3.699304, 7.814958, 3608540928.000000, -22.610001,  15.470000,  16.940001, 0.000000,  0.000000 
 101888.000000, 3.084348 , 4.283153, 7.776673, 3608560896.000000, -20.930000,  9.030000,  0.840000, 0.000000,  0.000000 
 120832.000000, 3.158526 , 4.268795, 8.317451, 3608582912.000000, -13.300000,  3.010000,  -2.520000, 0.000000,  0.000000 
 140800.000000, 2.404787 , 3.546163, 8.863015, 3608601856.000000, -13.160000,  9.660000,  -5.740000, 0.000000,  0.000000 
 160768.000000, 2.079363 , 3.007778, 8.841480, 3608622336.000000, -12.250000,  18.690001,  -4.970000, 0.000000,  0.000000 
 180736.000000, 2.435893 , 2.988636, 8.451449, 3608641792.000000, 2.590000,  20.090000,  4.200000, 0.000000,  0.000000 
 201728.000000, 2.756532 , 3.144169, 8.178668, 3608662272.000000, 18.270000,  15.680000,  14.070000, 0.000000,  0.000000 
 220672.000000, 2.605784 , 2.900101, 8.568698, 3608682752.000000, 16.730000,  14.420000,  20.510000, 0.000000,  0.000000 
 240640.000000, 2.653640 , 2.732604, 8.853443, 3608702208.000000, 2.240000,  13.580000,  21.000000, 0.000000,  0.000000 
 260608.000000, 2.732604 , 2.890530, 8.925228, 3608722176.000000, -2.730000,  10.080000,  21.210001, 0.000000,  0.000000 
 280576.000000, 2.969493 , 3.038885, 8.645268, 3608742144.000000, -0.140000,  5.250000,  17.010000, 0.000000,  0.000000 
 303616.000000, 3.029313 , 3.146562, 8.403593, 3608762112.000000, 2.310000,  1.120000,  10.780000, 0.000000,  0.000000 
 320512.000000, 2.888137 , 3.168097, 8.396415, 3608784640.000000, -1.540000,  -0.350000,  4.550000, 0.000000,  0.000000 
 340480.000000, 2.986243 , 3.347559, 8.298308, 3608802048.000000, -10.570000,  -0.980000,  -1.330000, 0.000000,  0.000000 
 360448.000000, 3.125026 , 3.555735, 8.212167, 3608822016.000000, -13.650000,  -3.220000,  -4.620000, 0.000000,  0.000000 
 380928.000000, 2.935993 , 3.536592, 8.164310, 3608841984.000000, -13.230000,  -3.920000,  -5.950000, 0.000000,  0.000000 
 401408.000000, 2.804388 , 3.328416, 8.214561, 3608861952.000000, -21.559999,  -2.870000,  -7.700000, 0.000000,  0.000000 
 420864.000000, 2.849852 , 3.134598, 8.195417, 3608882944.000000, -32.200001,  -4.060000,  -7.420000, 0.000000,  0.000000 
 440832.000000, 2.818745 , 3.148954, 8.087741, 3608901888.000000, -31.219999,  -6.370000,  -6.300000, 0.000000,  0.000000 
 460800.000000, 3.005385 , 3.122634, 7.910671, 3608921856.000000, -24.150000,  -7.700000,  -7.070000, 0.000000,  0.000000 
 480768.000000, 2.935993 , 3.208775, 7.769495, 3608941824.000000, -19.040001,  -9.170000,  -8.820000, 0.000000,  0.000000 
 501248.000000, 2.682354 , 3.189633, 7.585248, 3608961792.000000, -17.920000,  -9.240000,  -11.550000, 0.000000,  0.000000 
 520704.000000, 2.457429 , 2.974278, 7.501499, 3608982784.000000, -16.590000,  -7.560000,  -13.720000, 0.000000,  0.000000 
 540672.000000, 1.988436 , 2.840281, 7.446464, 3609001728.000000, -17.010000,  -6.860000,  -15.890000, 0.000000,  0.000000 
 560640.000000, 1.548156 , 2.663212, 6.778866, 3609021696.000000, -24.500000,  -6.160000,  -17.570000, 0.000000,  0.000000 
 580608.000000, 0.693919 , 2.175076, 6.668797, 3609041664.000000, -29.400000,  -3.850000,  -11.270000, 0.000000,  0.000000 
 601600.000000, -0.741775 , 2.151148, 6.707082, 3609062144.000000, -39.830002,  1.680000,  -10.010000, 0.000000,  0.000000 
 620544.000000, -2.282753 , 1.567299, 6.580262, 3609082624.000000, -52.500000,  9.870000,  -7.490000, 5871495680.000000,  1006.132874 
 640512.000000, -3.412165 , 2.055435, 7.405786, 3609101568.000000, -71.889999,  18.690001,  -3.010000, 0.000000,  0.000000 
 660480.000000, -3.775874 , 1.263410, 9.533006, 3609122048.000000, -95.830002,  17.080000,  -1.470000, 0.000000,  0.000000 
 680448.000000, -5.704489 , -0.454636, 11.097912, 3609142016.000000, -115.779999,  10.220000,  8.750000, 0.000000,  0.000000 
 701440.000000, -7.226324 , -2.770889, 12.593425, 3609161984.000000, -143.289993,  16.309999,  -0.700000, 0.000000,  0.000000 
 720384.000000, -6.929615 , -2.859423, 12.090932, 3609182464.000000, -127.820000,  18.410000,  6.160000, 0.000000,  0.000000 
 740352.000000, -3.388237 , -0.004786, 10.971091, 3609201920.000000, -62.439999,  17.780001,  53.060001, 0.000000,  0.000000 
 760320.000000, 1.048056 , -0.186640, 7.728817, 3609221888.000000, -9.520000,  12.950000,  114.800003, 0.000000,  0.000000 
 780288.000000, 2.493321 , -0.186640, 7.771888, 3609241856.000000, -18.200001,  42.139999,  163.520004, 0.000000,  0.000000 
 801280.000000, 1.569692 , -0.198604, 9.176475, 3609261824.000000, -118.860001,  94.360001,  173.809998, 0.000000,  0.000000 
 820224.000000, -0.904487 , -1.720440, 11.638690, 3609282816.000000, -182.350006,  144.199997,  200.759995, 0.000000,  0.000000 
 840704.000000, -2.234896 , -5.426922, 13.631909, 3609301760.000000, -226.380005,  175.770004,  218.889999, 0.000000,  0.000000 
 860160.000000, -2.062613 , -10.995021, 18.032312, 3609321728.000000, -244.790009,  183.889999,  232.820007, 0.000000,  0.000000 
 880128.000000, -1.387837 , -14.120047, 22.375286, 3609341696.000000, -186.479996,  185.080002,  248.570007, 0.000000,  0.000000 
 901120.000000, 0.973879 , -13.593626, 22.997417, 3609361664.000000, -103.180000,  170.240005,  242.199997, 0.000000,  0.000000 
 920064.000000, 2.550749 , -11.382657, 20.152353, 3609382656.000000, -41.650002,  144.339996,  209.930008, 0.000000,  0.000000 
 940032.000000, 3.816552 , -8.121240, 16.249659, 3609401600.000000, -15.680000,  106.470001,  147.139999, 0.000000,  0.000000 
 960000.000000, 4.668397 , -4.754539, 12.569498, 3609421568.000000, -2.100000,  56.070000,  100.239998, 0.000000,  0.000000 
 980480.000000, 4.981857 , -1.986043, 9.190832, 3609441536.000000, 1.470000,  6.930000,  71.050003, 0.000000,  0.000000 
 1000960.000000, 4.967500 , -0.332602, 6.271588, 3609461504.000000, -22.190001,  -30.100000,  42.209999, 0.000000,  0.000000 
 1020416.000000, 5.347959 , 0.973879, 4.419543, 3609482496.000000, -71.190002,  -54.180000,  18.200001, 0.000000,  0.000000 
 1040384.000000, 6.831509 , 1.337588, 3.763910, 3609501440.000000, -127.260002,  -69.160004,  1.330000, 0.000000,  0.000000 
 1060352.000000, 9.135797 , 0.524028, 3.220739, 3609521408.000000, -145.389999,  -82.459999,  -9.030000, 0.000000,  0.000000 
 1080320.000000, 11.083554 , 0.854238, 4.905287, 3609541376.000000, -109.830002,  -94.709999,  -24.850000, 0.000000,  0.000000 
 1101312.000000, 10.997414 , 1.964507, 7.204789, 3609561344.000000, -37.450001,  -98.279999,  -40.599998, 0.000000,  0.000000 
 1120256.000000, 8.654840 , 0.794417, 10.932807, 3609582336.000000, 66.150002,  -88.410004,  -57.119999, 0.000000,  0.000000 
 1140224.000000, 5.919843 , -3.675375, 14.266008, 3609601280.000000, 90.860001,  -76.930000,  -98.139999, 0.000000,  0.000000 
 1160192.000000, 5.754738 , -12.689137, 16.852650, 3609621248.000000, -3.220000,  -108.989998,  -165.199997, 0.000000,  0.000000 
 1180160.000000, 6.774081 , -24.717857, 22.777277, 3609641216.000000, -115.919998,  -172.059998,  -249.059998, 0.000000,  0.000000 
 1201152.000000, 6.374479 , -35.138599, 23.265417, 3609661184.000000, -234.360001,  -218.680008,  -310.029999, 0.000000,  0.000000 
 1220096.000000, 1.710868 , -31.099516, 20.748165, 3609682176.000000, -190.119995,  -251.790009,  -367.640015, 0.000000,  0.000000 
 1240064.000000, -3.565305 , -19.996819, 16.108482, 3609701632.000000, 18.830000,  -243.949997,  -457.519989, 0.000000,  0.000000 
 1260032.000000, -6.288338 , -12.961920, 9.571291, 3609721600.000000, 162.330002,  -259.140015,  -479.989990, 0.000000,  0.000000 
 1280000.000000, -6.436693 , -7.812566, 5.328816, 3609741568.000000, 200.830002,  -287.420013,  -449.119995, 0.000000,  0.000000 
 1303040.000000, -2.952743 , -1.907080, 2.845066, 3609761536.000000, 192.500000,  -286.440002,  -403.970001, 0.000000,  0.000000 
 1319936.000000, 1.179662 , 3.292524, 0.464208, 3609784064.000000, 178.289993,  -251.369995,  -320.179993, 0.000000,  0.000000 
 1339904.000000, 1.383051 , 5.316852, -1.366302, 3609801472.000000, 152.389999,  -195.229996,  -228.830002, 0.000000,  0.000000 
 1359872.000000, -0.794417 , 6.135197, -1.564906, 3609821440.000000, 103.809998,  -114.800003,  -172.479996, 0.000000,  0.000000 
 1379840.000000, -1.935793 , 6.989435, -2.251646, 3609841408.000000, 33.110001,  -37.240002,  -147.630005, 0.000000,  0.000000 
 1400832.000000, -1.466800 , 6.008378, -3.962514, 3609861376.000000, -22.610001,  28.770000,  -112.419998, 0.000000,  0.000000 
 1419776.000000, -2.782853 , 3.522235, -4.163511, 3609882368.000000, -70.699997,  93.099998,  -46.900002, 0.000000,  0.000000 
 1439744.000000, -7.793423 , 1.811367, -4.512863, 3609901312.000000, -152.529999,  157.990005,  7.420000, 0.000000,  0.000000 
 1460224.000000, -15.184854 , 0.744168, -6.532406, 3609921280.000000, -238.210007,  207.970001,  59.570000, 0.000000,  0.000000 
 1480192.000000, -17.848064 , 0.576670, -5.642276, 3609941248.000000, -324.799988,  215.669998,  130.759995, 0.000000,  0.000000 
 1500672.000000, -13.605590 , -1.954936, -3.177669, 3609961216.000000, -424.480011,  176.399994,  219.029999, 0.000000,  0.000000 
 1520128.000000, -13.505091 , -5.809773, -0.705883, 3609982208.000000, -476.489990,  85.050003,  256.690002, 0.000000,  0.000000 
 1540096.000000, -14.663218 , -14.622539, 3.483950, 3610001152.000000, -486.220001,  34.930000,  296.239990, 0.000000,  0.000000 
 1560064.000000, -17.032110 , -34.468609, 5.180461, 3610021120.000000, -437.149994,  -16.450001,  371.489990, 0.000000,  0.000000 
 1580032.000000, -11.492726 , -39.876389, 10.368099, 3610041088.000000, -316.470001,  -48.230000,  462.140015, 0.000000,  0.000000 
 1601024.000000, -9.580862 , -42.613777, 9.851252, 3610082048.000000, -118.720001,  -12.320000,  473.480011, 5872495104.000000,  1006.127991 
 1619968.000000, -6.295516 , -45.662231, 10.492528, 0.000000, 0.000000,  0.000000,  0.000000, 0.000000,  0.000000 
 1639936.000000, -0.174676 , -36.143585, 13.378270, 3610100992.000000, -228.339996,  56.630001,  346.850006, 0.000000,  0.000000 
 1659904.000000, 2.325824 , -29.137402, 9.839286, 3610120960.000000, -79.449997,  60.410000,  312.269989, 0.000000,  0.000000 
 1679872.000000, 2.720639 , -23.361128, 7.889136, 3610140928.000000, 25.200001,  59.150002,  282.309998, 0.000000,  0.000000 
 1700864.000000, 3.395415 , -15.917056, 5.625526, 3610161408.000000, 130.410004,  41.930000,  262.989990, 0.000000,  0.000000 
 1719808.000000, 5.273781 , -10.423136, 3.249453, 3610181888.000000, 135.800003,  3.010000,  226.869995, 0.000000,  0.000000 
 1739776.000000, 6.443871 , -8.207381, 2.529213, 3610201344.000000, 91.209999,  -45.849998,  186.970001, 0.000000,  0.000000 
 1759744.000000, 9.272188 , -4.548756, 2.840281, 3610221312.000000, 8.890000,  -78.540001,  153.160004, 0.000000,  0.000000 
 1779712.000000, 13.797016 , -2.569891, 4.264010, 3610241280.000000, -73.010002,  -86.590004,  130.410004, 0.000000,  0.000000 
 1800704.000000, 18.386450 , -2.505285, 5.130211, 3610261248.000000, -101.080002,  -94.010002,  115.570000, 0.000000,  0.000000 
 1819648.000000, 17.776279 , -2.127219, 6.367301, 3610282240.000000, -57.049999,  -108.639999,  89.599998, 0.000000,  0.000000 
 1839616.000000, 14.749359 , -1.610370, 5.209175, 3610301184.000000, 31.219999,  -105.559998,  15.330000, 0.000000,  0.000000 
 1859584.000000, 12.756138 , -0.614955, 3.072384, 3610321152.000000, 164.850006,  -101.080002,  -58.450001, 0.000000,  0.000000 
 1879552.000000, 10.435099 , 1.107877, 1.359123, 3610341120.000000, 274.540009,  -94.080002,  -108.570000, 0.000000,  0.000000 
 1900544.000000, 9.245867 , -0.210568, 2.967100, 3610361088.000000, 271.600006,  -70.279999,  -158.619995, 0.000000,  0.000000 
 1919488.000000, 8.425128 , -12.555140, 10.999805, 3610382080.000000, 126.699997,  -53.480000,  -189.419998, 0.000000,  0.000000 
 1939968.000000, 9.635897 , -40.917267, 19.221544, 3610401024.000000, -102.970001,  -47.950001,  -218.190002, 0.000000,  0.000000 
 1959936.000000, 3.093920 , -58.222164, 19.826929, 3610420992.000000, -274.820007,  -53.549999,  -253.610001, 0.000000,  0.000000 
 1979904.000000, -2.711068 , -46.076191, 17.850456, 3610440960.000000, -172.550003,  -42.420002,  -385.000000, 0.000000,  0.000000 
 2000384.000000, -3.065206 , -35.485558, 13.962120, 3610460928.000000, 40.880001,  -56.349998,  -479.920013, 0.000000,  0.000000 
 2019840.000000, -5.082355 , -26.143980, 9.044869, 3610481920.000000, 81.830002,  -121.029999,  -507.429993, 0.000000,  0.000000 
 2039808.000000, -8.939585 , -18.740587, 6.898508, 3610500864.000000, 144.970001,  -140.490005,  -560.210022, 0.000000,  0.000000 
 2059776.000000, -11.126624 , -11.265409, 5.436492, 3610520832.000000, 178.919998,  -123.690002,  -553.070007, 0.000000,  0.000000 
 2079744.000000, -9.229117 , -5.048856, 3.345166, 3610540800.000000, 218.330002,  -88.129997,  -484.119995, 0.000000,  0.000000 
 2100736.000000, -8.475377 , -0.112463, 0.186640, 3610560768.000000, 263.410004,  -71.959999,  -367.850006, 0.000000,  0.000000 
 2119680.000000, -8.858230 , 4.240082, -1.332802, 3610581760.000000, 283.290009,  -50.959999,  -281.820007, 0.000000,  0.000000 
 2139648.000000, -6.726225 , 4.682754, -2.175076, 3610600704.000000, 249.970001,  -36.610001,  -227.710007, 0.000000,  0.000000 
 2159616.000000, -4.890929 , 4.206582, -3.804588, 3610620672.000000, 178.990005,  -16.030001,  -160.089996, 0.000000,  0.000000 
 2179584.000000, -6.168696 , 4.606184, -5.089533, 3610640640.000000, 86.730003,  14.840000,  -91.559998, 0.000000,  0.000000 
 2200576.000000, -11.387443 , 3.694518, -4.618148, 3610681600.000000, -208.809998,  95.129997,  7.980000, 0.000000,  0.000000 
 2219520.000000, -14.742181 , 1.825724, -3.242275, 0.000000, 0.000000,  0.000000,  0.000000, 0.000000,  0.000000 
 2239488.000000, -11.497513 , -0.708275, -0.473779, 3610701056.000000, -315.839996,  109.830002,  53.760002, 0.000000,  0.000000 
 2259456.000000, -8.166703 , -2.108077, 0.318245, 3610721024.000000, -266.769989,  103.320000,  131.669998, 0.000000,  0.000000 
 2279424.000000, -7.259824 , -0.471386, 3.850052, 3610740992.000000, -119.559998,  91.559998,  223.509995, 0.000000,  0.000000 
 2302464.000000, -10.167104 , -2.356930, 5.391029, 3610760960.000000, 16.240000,  102.340004,  332.570007, 0.000000,  0.000000 
 2319360.000000, -12.186646 , -13.947763, 9.999605, 3610783488.000000, 100.730003,  138.949997,  401.940002, 0.000000,  0.000000 
 2339328.000000, -13.351951 , -32.465816, 20.501705, 3610800896.000000, -13.510000,  178.639999,  421.260010, 0.000000,  0.000000 
 2359296.000000, -11.574083 , -52.945988, 28.570303, 3610820864.000000, -307.369995,  198.940002,  449.679993, 0.000000,  0.000000 
 2379264.000000, -1.792224 , -38.447876, 24.495325, 3610840832.000000, -521.710022,  148.960007,  394.519989, 0.000000,  0.000000 
 2400256.000000, 8.219346 , -24.370899, 20.733807, 3610860800.000000, -253.119995,  57.889999,  360.640015, 0.000000,  0.000000 
 2419200.000000, 9.114261 , -19.905893, 15.117853, 3610881792.000000, -3.570000,  75.529999,  342.649994, 0.000000,  0.000000 
 2439680.000000, 3.584448 , -15.613168, 11.621940, 3610900736.000000, 100.239998,  106.610001,  256.899994, 0.000000,  0.000000 
 2459648.000000, 3.747160 , -9.760324, 10.482956, 3610920704.000000, 101.989998,  119.419998,  164.990005, 0.000000,  0.000000 
 2479616.000000, 7.200003 , -4.539185, 10.243673, 3610940672.000000, 34.299999,  75.250000,  158.970001, 0.000000,  0.000000 
 2500096.000000, 8.401200 , -4.118048, 7.381857, 3610960640.000000, -26.880001,  0.140000,  192.080002, 0.000000,  0.000000 
 2519552.000000, 9.059227 , -4.242475, 4.646862, 3610981632.000000, 9.520000,  -41.020000,  192.779999, 0.000000,  0.000000 
 2539520.000000, 11.983256 , -2.462214, 3.000600, 3611000576.000000, 56.349998,  -58.660000,  181.930008, 0.000000,  0.000000 
 2559488.000000, 15.086747 , 0.782453, 2.151148, 3611020544.000000, 79.590004,  -80.360001,  174.509995, 0.000000,  0.000000 
 2579456.000000, 15.007784 , 2.658426, 1.799403, 3611040512.000000, 79.029999,  -98.209999,  142.589996, 0.000000,  0.000000 
 2600448.000000, 13.921442 , 1.816152, 1.002593, 3611060480.000000, 64.260002,  -97.930000,  62.369999, 0.000000,  0.000000 
 2619392.000000, 12.648461 , -0.988236, 3.407379, 3611081472.000000, -3.150000,  -99.820000,  -38.220001, 5873494528.000000,  1006.125732 
 2639360.000000, 10.889735 , -6.577869, 6.661618, 3611100416.000000, -100.940002,  -107.590004,  -130.410004, 0.000000,  0.000000 
 2659328.000000, 9.449257 , -15.220744, 8.949157, 3611120384.000000, -109.199997,  -99.470001,  -214.690002, 0.000000,  0.000000 
 2679296.000000, 11.794223 , -28.264021, 15.273388, 3611140864.000000, -62.020000,  -84.629997,  -289.450012, 0.000000,  0.000000 
 2700288.000000, 10.578669 , -37.380676, 20.571095, 3611160832.000000, -71.330002,  -103.040001,  -310.380005, 0.000000,  0.000000 
 2719232.000000, 5.185246 , -32.463425, 20.257637, 3611181312.000000, -66.849998,  -122.430000,  -366.799988, 0.000000,  0.000000 
 2739200.000000, 2.132005 , -24.368505, 16.280766, 3611200768.000000, 59.920002,  -134.470001,  -434.279999, 0.000000,  0.000000 
 2759168.000000, 1.249053 , -19.123438, 14.100904, 3611220736.000000, 109.690002,  -173.600006,  -430.570007, 0.000000,  0.000000 
 2779136.000000, -1.024128 , -14.584253, 15.366707, 3611260672.000000, 42.000000,  -209.020004,  -409.640015, 0.000000,  0.000000 
 2800128.000000, -5.008178 , -10.317852, 12.930815, 0.000000, 0.000000,  0.000000,  0.000000, 0.000000,  0.000000 
 2819072.000000, -4.692325 , -5.362316, 8.640482, 3611281664.000000, 55.369999,  -179.339996,  -389.899994, 0.000000,  0.000000 
 2839040.000000, -5.584848 , -0.794417, 5.860023, 3611300608.000000, 91.419998,  -145.110001,  -308.420013, 0.000000,  0.000000 
 2859008.000000, -7.944171 , 1.758725, 3.744767, 3611320576.000000, 88.199997,  -107.590004,  -250.460007, 0.000000,  0.000000 
 2878976.000000, -8.353344 , 1.763510, 2.151148, 3611340544.000000, 51.730000,  -66.080002,  -212.940002, 0.000000,  0.000000 
 2899968.000000, -10.557133 , 1.514657, 0.124427, 3611360512.000000, 22.330000,  -29.400000,  -161.630005, 0.000000,  0.000000 
 2919424.000000, -13.945370 , 0.784846, -3.134598, 3611381504.000000, 5.880000,  -4.760000,  -100.870003, 0.000000,  0.000000 
 2939904.000000, -13.715660 , 0.267996, -2.481357, 3611400448.000000, -67.199997,  12.250000,  -42.209999, 0.000000,  0.000000 
 2959360.000000, -12.169895 , -0.866202, -0.117248, 3611421440.000000, -173.250000,  38.779999,  21.700001, 0.000000,  0.000000 
 2979328.000000, -10.715059 , -1.469193, 2.199004, 3611440384.000000, -184.800003,  65.730003,  65.590004, 0.000000,  0.000000 
 3000320.000000, -7.965706 , -2.002793, 4.754539, 3611460352.000000, -110.949997,  86.239998,  130.759995, 0.000000,  0.000000 
 3019264.000000, -6.573084 , -5.508278, 5.994020, 3611481344.000000, -15.750000,  107.099998,  219.869995, 0.000000,  0.000000 
 3039232.000000, -4.795217 , -9.396614, 9.327222, 3611500288.000000, 26.530001,  135.240005,  288.329987, 0.000000,  0.000000 
 3059200.000000, -4.194618 , -13.512270, 15.060425, 3611520768.000000, -14.980000,  171.990005,  359.799988, 0.000000,  0.000000 
 3079168.000000, -11.203196 , -22.401608, 17.965311, 3611540224.000000, -162.680008,  215.529999,  429.170013, 0.000000,  0.000000 
 3100160.000000, -13.543377 , -37.684563, 18.309877, 3611560704.000000, -319.829987,  228.759995,  428.260010, 0.000000,  0.000000 
 3119104.000000, -5.443672 , -39.577286, 19.063618, 3611581184.000000, -395.010010,  199.990005,  420.420013, 0.000000,  0.000000 
 3139072.000000, 1.988436 , -33.310486, 19.046867, 3611600640.000000, -309.959991,  129.220001,  452.339996, 0.000000,  0.000000 
 3159040.000000, 1.268196 , -27.943384, 16.187445, 3611620608.000000, -148.889999,  89.529999,  442.399994, 0.000000,  0.000000 
 3179008.000000, 2.354537 , -21.951756, 10.585848, 3611640576.000000, -27.930000,  52.709999,  350.350006, 0.000000,  0.000000 
 3200000.000000, 6.862615 , -16.055840, 5.441278, 3611660544.000000, 55.510002,  1.890000,  295.190002, 0.000000,  0.000000 
 3219968.000000, 11.626726 , -10.456635, 3.852444, 3611681024.000000, 81.059998,  -41.160000,  288.540009, 0.000000,  0.000000 
 3239936.000000, 14.610575 , -6.910471, 4.460221, 3611701504.000000, 43.959999,  -58.240002,  272.299988, 0.000000,  0.000000 
 3259904.000000, 17.553747 , -5.603990, 5.357530, 3611720960.000000, 3.640000,  -63.770000,  236.460007, 0.000000,  0.000000 
 3279872.000000, 21.430119 , -4.603791, 5.247460, 3611741440.000000, 16.450001,  -76.790001,  199.360001, 0.000000,  0.000000 
 3302912.000000, 23.318056 , -3.991228, 5.532206, 3611761408.000000, 31.710001,  -103.739998,  123.900002, 0.000000,  0.000000 
 3320320.000000, 17.125431 , -5.369494, 7.999206, 3611783936.000000, 17.500000,  -123.270004,  -2.520000, 0.000000,  0.000000 
 3340288.000000, 10.889735 , -7.905886, 8.327023, 3611801856.000000, 14.840000,  -116.340004,  -154.699997, 0.000000,  0.000000 
 3360256.000000, 6.585048 , -11.432907, 6.659225, 3611821312.000000, 85.050003,  -125.930000,  -270.829987, 0.000000,  0.000000 
 3380224.000000, 7.673782 , -17.316856, 8.539984, 3611841280.000000, 128.380005,  -154.490005,  -364.209991, 0.000000,  0.000000 
 3401216.000000, 10.073784 , -25.428526, 14.452648, 3611861760.000000, 97.580002,  -191.589996,  -387.869995, 0.000000,  0.000000 
 3420672.000000, 5.690133 , -32.506493, 18.345772, 3611882240.000000, 54.740002,  -210.839996,  -370.089996, 0.000000,  0.000000 
 3440640.000000, 3.438486 , -29.448467, 17.972490, 3611901696.000000, 10.920000,  -198.100006,  -423.779999, 0.000000,  0.000000 
 3461120.000000, 0.143569 , -23.861227, 14.998212, 3611921664.000000, 34.650002,  -194.320007,  -406.140015, 0.000000,  0.000000 
 3480576.000000, -3.306881 , -19.032511, 14.093725, 3611942144.000000, 35.139999,  -200.130005,  -410.899994, 0.000000,  0.000000 
 3501568.000000, -6.283553 , -14.246865, 13.203594, 3611962112.000000, -7.210000,  -194.809998,  -423.570007, 0.000000,  0.000000 
 3520512.000000, -9.217153 , -8.300702, 10.028319, 3611982592.000000, -30.100000,  -160.649994,  -395.360016, 0.000000,  0.000000 
 3541504.000000, -8.906086 , -2.380858, 4.510471, 3612001536.000000, 12.670000,  -100.660004,  -324.309998, 0.000000,  0.000000 
 3561472.000000, -7.700103 , 2.165504, 4.381258, 3612023040.000000, 44.099998,  -57.959999,  -239.119995, 0.000000,  0.000000 
 3581440.000000, -11.466407 , 3.172883, 3.751946, 3612043008.000000, 12.530000,  -2.800000,  -201.250000, 0.000000,  0.000000 
 3602432.000000, -12.447463 , 2.268396, 2.876173, 3612083968.000000, -6.650000,  85.680000,  -106.190002, 5874496512.000000,  1006.125305 
 3621376.000000, -10.870593 , 3.594020, 1.624727, 0.000000, 0.000000,  0.000000,  0.000000, 0.000000,  0.000000 
 3641344.000000, -10.516455 , 5.292924, -0.289532, 3612102912.000000, 56.560001,  84.629997,  -25.760000, 0.000000,  0.000000 
 3661312.000000, -10.375278 , 5.704489, -0.404387, 3612122880.000000, 65.730003,  81.550003,  35.980000, 0.000000,  0.000000 
 3681792.000000, -9.542577 , 4.271189, -0.279960, 3612142848.000000, 3.990000,  104.860001,  101.919998, 0.000000,  0.000000 
 3702272.000000, -8.645268 , 2.507678, 0.023928, 3612162816.000000, -55.930000,  131.669998,  165.899994, 0.000000,  0.000000 
 3721728.000000, -10.447062 , 1.057628, 0.854238, 3612183808.000000, -79.940002,  147.839996,  237.369995, 0.000000,  0.000000 
 3741696.000000, -12.162716 , -2.041078, 3.723232, 3612202752.000000, -90.790001,  164.570007,  317.100006, 0.000000,  0.000000 
 3761664.000000, -17.137396 , -13.911870, 10.131211, 3612222720.000000, -126.139999,  183.889999,  400.750000, 0.000000,  0.000000 
 3781632.000000, -21.513868 , -36.126835, 21.925432, 3612242688.000000, -225.119995,  178.919998,  432.880005, 0.000000,  0.000000 
 3802112.000000, -9.090333 , -44.228935, 25.234707, 3612262656.000000, -355.179993,  142.240005,  413.070007, 0.000000,  0.000000 
 3821568.000000, -6.726225 , -39.701714, 24.713072, 3612283648.000000, -307.510010,  103.739998,  469.700012, 0.000000,  0.000000 
 3841536.000000, 1.916651 , -29.338400, 21.700508, 3612302592.000000, -160.369995,  95.129997,  399.420013, 0.000000,  0.000000 
 3861504.000000, 5.292924 , -22.528425, 17.723637, 3612322560.000000, 13.580000,  113.680000,  360.429993, 0.000000,  0.000000 
 3881472.000000, 4.467400 , -17.764317, 12.868600, 3612342528.000000, 70.769997,  113.959999,  286.230011, 0.000000,  0.000000 
 3902464.000000, 6.530013 , -12.669996, 8.336594, 3612363008.000000, 91.629997,  84.559998,  211.119995, 0.000000,  0.000000 
 3921408.000000, 9.934999 , -7.958528, 6.537192, 3612384000.000000, 62.439999,  48.439999,  182.630005, 0.000000,  0.000000 
 3941376.000000, 11.085947 , -4.194618, 7.314859, 3612402944.000000, -27.860001,  20.230000,  148.259995, 0.000000,  0.000000 
 3961344.000000, 11.399406 , -3.885944, 5.924629, 3612422400.000000, -105.279999,  4.060000,  102.620003, 0.000000,  0.000000 
 3981312.000000, 12.751352 , -3.967300, 4.725825, 3612442368.000000, -91.209999,  -15.050000,  90.300003, 0.000000,  0.000000 
 4002304.000000, 13.081561 , -1.418944, 5.479564, 3612462336.000000, -27.230000,  -46.689999,  86.660004, 0.000000,  0.000000 
 4021248.000000, 13.194024 , 0.930808, 4.867002, 3612483328.000000, 32.060001,  -68.809998,  48.720001, 0.000000,  0.000000 
 4041216.000000, 13.031311 , 0.500100, 3.560520, 3612502784.000000, 50.540001,  -85.820000,  -14.070000, 0.000000,  0.000000 
 4061184.000000, 10.576276 , -3.414558, 5.467600, 3612522752.000000, 10.640000,  -98.559998,  -82.389999, 0.000000,  0.000000 
 4081152.000000, 8.523234 , -10.521241, 9.135797, 3612542720.000000, -79.590004,  -101.570000,  -161.630005, 0.000000,  0.000000 
 4102144.000000, 6.692725 , -21.157337, 12.531212, 3612562688.000000, -115.290001,  -105.910004,  -243.529999, 0.000000,  0.000000 
 4121088.000000, 5.544170 , -27.924240, 15.337994, 3612583168.000000, -121.379997,  -113.610001,  -284.760010, 0.000000,  0.000000 
 4141056.000000, 6.558727 , -31.874790, 15.625132, 3612602624.000000, -50.259998,  -126.840004,  -361.549988, 0.000000,  0.000000 
 4161024.000000, 7.731210 , -32.910885, 17.680567, 3612622592.000000, 59.150002,  -156.380005,  -416.989990, 0.000000,  0.000000 
 4180992.000000, 3.409772 , -30.058636, 18.463020, 3612642560.000000, 73.150002,  -188.160004,  -437.010010, 0.000000,  0.000000 
 4201984.000000, -2.163112 , -20.508883, 13.514663, 3612662528.000000, 63.349998,  -179.830002,  -469.279999, 0.000000,  0.000000 
 4220928.000000, -3.866802 , -18.235701, 14.220546, 3612683520.000000, 55.020000,  -172.899994,  -485.799988, 0.000000,  0.000000 
 4240896.000000, -7.980063 , -13.083955, 12.516854, 3612702464.000000, 23.940001,  -151.970001,  -470.190002, 0.000000,  0.000000 
 4261376.000000, -7.618747 , -7.424929, 8.197811, 3612722432.000000, 35.000000,  -87.849998,  -450.100006, 0.000000,  0.000000 
 4281344.000000, -6.259624 , -1.875973, 4.290331, 3612742400.000000, 120.889999,  -54.459999,  -361.480011, 0.000000,  0.000000 
 4303872.000000, -7.465607 , 3.603590, 0.725025, 3612762368.000000, 190.259995,  -50.680000,  -280.350006, 0.000000,  0.000000 
 4321280.000000, -7.432107 , 5.812167, -0.734596, 3612785408.000000, 186.830002,  -31.360001,  -236.880005, 0.000000,  0.000000 
 4341248.000000, -7.144968 , 4.285545, -0.686740, 3612802304.000000, 121.449997,  15.470000,  -160.229996, 0.000000,  0.000000 
 4361216.000000, -12.071791 , 1.548156, 1.727618, 3612822272.000000, 35.840000,  60.060001,  -80.080002, 0.000000,  0.000000 
 4381184.000000, -14.541183 , -2.134398, 4.225725, 3612842240.000000, -21.139999,  102.269997,  -28.700001, 0.000000,  0.000000 
 4402176.000000, -12.361321 , -4.543970, 7.453642, 3612862208.000000, -52.709999,  140.279999,  40.459999, 0.000000,  0.000000 
 4421120.000000, -9.126225 , -5.120641, 5.328816, 3612883200.000000, -35.139999,  164.220001,  128.309998, 0.000000,  0.000000 
 4441088.000000, -6.345766 , -2.201397, 4.141976, 3612902144.000000, 120.470001,  147.139999,  186.970001, 0.000000,  0.000000 
 4461056.000000, -2.256432 , 0.631705, 6.008378, 3612922112.000000, 270.200012,  128.940002,  219.660004, 0.000000,  0.000000 
 4481024.000000, 2.199004 , 2.931208, 9.257831, 3612942080.000000, 300.230011,  140.210007,  245.279999, 0.000000,  0.000000 
 4502016.000000, 3.244668 , 1.823331, 17.575283, 3612962560.000000, 207.479996,  197.539993,  294.070007, 0.000000,  0.000000 
 4520960.000000, -0.806381 , -3.570091, 23.408983, 3612983040.000000, 40.670002,  287.279999,  308.140015, 0.000000,  0.000000 
 4540928.000000, -2.605784 , -9.432507, 28.304699, 3613002496.000000, -136.009995,  347.619995,  303.309998, 0.000000,  0.000000 
 4560896.000000, 0.744168 , -10.777272, 26.866613, 3613022464.000000, -162.190002,  348.670013,  317.029999, 0.000000,  0.000000 
 4580864.000000, 4.522435 , -4.347759, 21.293728, 3613042432.000000, -83.790001,  307.440002,  291.200012, 0.000000,  0.000000 
 4601856.000000, 2.794817 , -3.115455, 16.218552, 3613083392.000000, -46.689999,  211.259995,  184.660004, 5875495936.000000,  1006.118835 
 4620800.000000, 0.772882 , -5.345565, 11.858829, 0.000000, 0.000000,  0.000000,  0.000000, 0.000000,  0.000000 
 4640768.000000, 3.957729 , -7.087541, 8.346166, 3613102336.000000, -107.520004,  162.539993,  149.169998, 0.000000,  0.000000 
 4660736.000000, 6.695118 , -6.484549, 6.228518, 3613122304.000000, -124.739998,  105.699997,  169.680008, 0.000000,  0.000000 
 4680704.000000, 9.346365 , -5.867201, 4.084548, 3613142272.000000, -100.099998,  67.830002,  167.300003, 0.000000,  0.000000 
 4701696.000000, 14.708681 , -4.421937, 1.179662, 3613162240.000000, -21.770000,  53.549999,  171.500000, 0.000000,  0.000000 
 4720640.000000, 23.667408 , -1.998007, -1.502693, 3613183232.000000, 40.110001,  26.809999,  172.270004, 0.000000,  0.000000 
 4741120.000000, 22.676779 , -1.409373, 1.375873, 3613202176.000000, 48.020000,  -3.850000,  143.990005, 0.000000,  0.000000 
 4761088.000000, 16.936398 , -2.672783, 10.181459, 3613222144.000000, -46.130001,  17.570000,  13.650000, 0.000000,  0.000000 
 4781056.000000, 13.344771 , -8.650054, 15.110674, 3613262080.000000, -308.140015,  -3.710000,  -303.589996, 0.000000,  0.000000 
 4801536.000000, 7.841280 , -22.023540, 21.288942, 0.000000, 0.000000,  0.000000,  0.000000, 0.000000,  0.000000 
 4820992.000000, 1.935793 , -37.859241, 31.458437, 3613283072.000000, -288.049988,  -53.619999,  -439.040009, 0.000000,  0.000000 
 4840960.000000, -2.947958 , -32.559139, 29.101509, 3613302016.000000, -91.840004,  -99.330002,  -477.330017, 0.000000,  0.000000 
 4860928.000000, -2.050649 , -30.156744, 26.723043, 3613321984.000000, 101.220001,  -169.820007,  -493.149994, 0.000000,  0.000000 
 4880896.000000, -7.044470 , -21.583260, 20.300707, 3613341952.000000, 82.040001,  -258.929993,  -448.420013, 0.000000,  0.000000 
 4901888.000000, -10.951948 , -13.349558, 14.653646, 3613361920.000000, 127.680000,  -295.049988,  -457.799988, 0.000000,  0.000000 
 4920832.000000, -11.653046 , -8.472985, 14.390435, 3613382912.000000, 124.739998,  -312.269989,  -432.670013, 0.000000,  0.000000 
 4940800.000000, -8.949157 , -5.008178, 9.851252, 3613401856.000000, 59.570000,  -257.179993,  -364.839996, 0.000000,  0.000000 
 4960768.000000, -6.989435 , -2.086541, 2.392823, 3613421824.000000, 102.830002,  -191.240005,  -275.100006, 0.000000,  0.000000 
 4980736.000000, -5.709275 , 0.320638, -0.997807, 3613442304.000000, 138.320007,  -161.419998,  -203.979996, 0.000000,  0.000000 
 5002240.000000, -7.458428 , 4.199404, -0.167498, 3613462272.000000, 82.739998,  -119.419998,  -176.610001, 0.000000,  0.000000 
 5020672.000000, -9.396614 , 4.400401, -0.126820, 3613483776.000000, -33.320000,  -45.779999,  -157.289993, 0.000000,  0.000000 
 5040640.000000, -10.097712 , 2.744568, -0.478565, 3613502208.000000, -94.430000,  24.290001,  -129.220001, 0.000000,  0.000000 
 5060608.000000, -11.152946 , 2.708675, -3.491128, 3613522176.000000, -95.410004,  73.080002,  -79.449997, 0.000000,  0.000000 
 5080576.000000, -9.829715 , 3.251846, -2.459821, 3613542144.000000, -53.689999,  90.790001,  -3.640000, 0.000000,  0.000000 
 5101568.000000, -7.467999 , 2.333002, -1.435694, 3613562112.000000, -31.430000,  92.889999,  68.879997, 0.000000,  0.000000 
 5120512.000000, -6.262017 , 1.270589, -1.100698, 3613583104.000000, -48.580002,  108.639999,  121.449997, 0.000000,  0.000000 
 5141504.000000, -6.594619 , 0.777667, 0.342174, 3613602048.000000, -56.420002,  137.270004,  196.770004, 0.000000,  0.000000 
 5161472.000000, -8.513663 , -2.337788, 6.989435, 3613623040.000000, -28.280001,  161.770004,  288.119995, 0.000000,  0.000000 
 5181440.000000, -12.375679 , -14.952748, 14.971891, 3613643008.000000, -69.650002,  201.250000,  355.950012, 0.000000,  0.000000 
 5202432.000000, -14.036297 , -41.259441, 29.470003, 3613662976.000000, -198.800003,  226.520004,  380.799988, 0.000000,  0.000000 
 5221888.000000, -7.003791 , -34.222149, 31.073193, 3613683968.000000, -211.119995,  217.419998,  434.559998, 0.000000,  0.000000 
 5241856.000000, 1.730011 , -26.443083, 28.493731, 3613702912.000000, -79.449997,  131.110001,  402.850006, 0.000000,  0.000000 
 5261824.000000, 6.362515 , -21.530619, 30.312277, 3613723392.000000, -121.449997,  128.449997,  343.000000, 0.000000,  0.000000 
 5282304.000000, 7.628319 , -15.783059, 26.758936, 3613743360.000000, -112.770004,  126.349998,  243.809998, 0.000000,  0.000000 
 5304832.000000, 12.004791 , -8.973085, 17.735601, 3613763840.000000, 15.540000,  103.669998,  189.419998, 0.000000,  0.000000 
 5322240.000000, 9.341579 , -0.428315, 10.593026, 3613786368.000000, 150.009995,  21.559999,  231.630005, 0.000000,  0.000000 
 5342208.000000, 9.018548 , -1.371087, 1.543371, 3613803264.000000, 195.720001,  -2.310000,  243.250000, 0.000000,  0.000000 
 5362176.000000, 15.010178 , 0.184247, -0.308674, 3613823744.000000, 190.259995,  -68.809998,  41.860001, 0.000000,  0.000000 
 5382144.000000, 12.854243 , -1.347159, -0.289532, 3613843712.000000, 71.610001,  -36.400002,  255.779999, 0.000000,  0.000000 
 5403136.000000, 11.107484 , 0.258425, -0.497707, 3613863680.000000, 46.549999,  -61.250000,  150.639999, 0.000000,  0.000000 
 5422080.000000, 11.746366 , 2.469393, -2.435893, 3613884672.000000, 67.129997,  -58.590000,  139.020004, 0.000000,  0.000000 
 5442048.000000, 13.043276 , 3.725625, -2.801995, 3613903616.000000, 94.290001,  -82.529999,  97.650002, 0.000000,  0.000000 
 5463552.000000, 12.959527 , 1.622334, 2.809174, 3613923584.000000, 37.170002,  -94.150002,  21.629999, 0.000000,  0.000000 
 5483520.000000, 11.418550 , -4.551149, 8.173882, 3613944576.000000, -116.270004,  -109.340004,  -79.239998, 0.000000,  0.000000 
 5504512.000000, 10.892128 , -14.232510, 10.329816, 3613964544.000000, -243.389999,  -133.350006,  -183.190002, 0.000000,  0.000000 
 5523456.000000, 14.055440 , -28.252056, 19.042084, 3613985536.000000, -251.509995,  -166.809998,  -270.200012, 0.000000,  0.000000 
 5543424.000000, 9.410972 , -31.300510, 22.494925, 3614004480.000000, -211.610001,  -186.690002,  -282.450012, 0.000000,  0.000000 
 5563392.000000, 4.508078 , -23.681765, 21.245872, 3614024448.000000, -98.769997,  -187.529999,  -343.559998, 0.000000,  0.000000 
 5583360.000000, 3.326023 , -16.984255, 17.929420, 3614044416.000000, 67.129997,  -208.809998,  -384.720001, 0.000000,  0.000000 
 5604352.000000, -0.038285 , -11.286944, 13.940585, 3614085376.000000, 34.439999,  -247.660004,  -354.760010, 5876498432.000000,  1006.110291 
 5623296.000000, -0.693919 , -6.900900, 14.306686, 0.000000, 0.000000,  0.000000,  0.000000, 0.000000,  0.000000 
 5643264.000000, -3.079563 , -3.680161, 12.093326, 3614104320.000000, -2.520000,  -207.130005,  -308.279999, 0.000000,  0.000000 
 5663232.000000, -4.539185 , -0.045464, 6.080163, 3614124800.000000, 39.480000,  -132.789993,  -259.700012, 0.000000,  0.000000 
 5683200.000000, -2.967100 , 3.268596, 2.009971, 3614144768.000000, 90.300003,  -86.519997,  -204.750000, 0.000000,  0.000000 
 5704192.000000, -4.352544 , 5.280960, 1.607977, 3614164736.000000, 61.880001,  -47.180000,  -154.419998, 0.000000,  0.000000 
 5723136.000000, -9.126225 , 3.060420, 2.438286, 3614185728.000000, -22.400000,  11.900000,  -137.619995, 0.000000,  0.000000 
 5743104.000000, -12.882957 , 1.459622, 3.639483, 3614204672.000000, -79.660004,  69.160004,  -138.039993, 0.000000,  0.000000 
 5763072.000000, -14.567505 , 1.292124, 2.287539, 3614224640.000000, -91.629997,  100.870003,  -80.220001, 0.000000,  0.000000 
 5783040.000000, -13.974084 , -1.780260, 3.921836, 3614244608.000000, -114.099998,  109.900002,  -8.680000, 0.000000,  0.000000 
 5804032.000000, -11.686546 , -4.340580, 7.168896, 3614264576.000000, -151.970001,  128.449997,  31.990000, 0.000000,  0.000000 
 5822976.000000, -6.549156 , -5.187639, 6.955935, 3614285568.000000, -131.180008,  132.440002,  87.430000, 0.000000,  0.000000 
 5843456.000000, -1.450050 , -4.498507, 5.769095, 3614304512.000000, -26.320000,  120.750000,  204.259995, 0.000000,  0.000000 
 5862912.000000, 4.031906 , -6.132804, 8.843873, 3614324480.000000, 47.320000,  116.760002,  279.790009, 0.000000,  0.000000 
 5882880.000000, 6.369694 , -7.649854, 20.743380, 3614344448.000000, 76.300003,  162.259995,  359.450012, 0.000000,  0.000000 
 5903872.000000, 0.976272 , -13.012171, 27.010181, 3614364416.000000, 5.250000,  245.210007,  416.079987, 0.000000,  0.000000 
 5923328.000000, -7.353144 , -17.838493, 22.047468, 3614385408.000000, -62.930000,  308.559998,  396.480011, 0.000000,  0.000000 
 5943296.000000, -2.560320 , -18.139988, 24.985855, 3614404352.000000, -84.840004,  318.500000,  290.570007, 0.000000,  0.000000 
 5963264.000000, 7.917850 , -12.595818, 22.473389, 3614424320.000000, -110.389999,  260.049988,  263.269989, 0.000000,  0.000000 
 5983232.000000, 6.716653 , -8.480164, 13.761123, 3614444288.000000, -147.630005,  187.389999,  285.320007, 0.000000,  0.000000 
 6003712.000000, 2.988636 , -4.713861, 9.226725, 3614464256.000000, -99.610001,  153.580002,  143.009995, 0.000000,  0.000000 
 6023168.000000, 2.687140 , -3.060420, 8.006385, 3614485248.000000, -117.739998,  115.290001,  161.210007, 0.000000,  0.000000 
 6043136.000000, 5.608776 , -2.100898, 5.934200, 3614504192.000000, -125.720001,  57.540001,  154.699997, 0.000000,  0.000000 
 6063104.000000, 8.798409 , -2.132005, 3.019742, 3614524160.000000, -98.279999,  21.840000,  182.630005, 0.000000,  0.000000 
 6083072.000000, 11.990433 , -2.163112, 2.184647, 3614544128.000000, -55.860001,  -9.380000,  176.750000, 0.000000,  0.000000 
 6104064.000000, 13.026526 , -0.710668, 5.807381, 3614564096.000000, -44.450001,  -27.440001,  169.610001, 0.000000,  0.000000 
 6123008.000000, 12.823137 , -2.263610, 7.704889, 3614585088.000000, -18.410000,  -26.600000,  151.550003, 0.000000,  0.000000 
 6142976.000000, 14.242079 , -6.364908, 8.877372, 3614604032.000000, 4.130000,  -27.930000,  90.370003, 0.000000,  0.000000 
 6162944.000000, 13.624733 , -14.464613, 14.919249, 3614624000.000000, -111.440002,  -56.630001,  -4.970000, 0.000000,  0.000000 
 6182912.000000, 9.702895 , -24.303902, 18.250059, 3614644480.000000, -181.089996,  -82.320000,  -104.930000, 0.000000,  0.000000 
 6203904.000000, 3.278167 , -26.885756, 13.052847, 3614664448.000000, -24.639999,  -97.300003,  -239.050003, 0.000000,  0.000000 
 6222848.000000, 6.384050 , -29.592037, 15.670596, 3614684928.000000, 85.610001,  -136.009995,  -448.279999, 0.000000,  0.000000 
 6242816.000000, 3.933800 , -32.910885, 19.513470, 3614704384.000000, 11.060000,  -185.639999,  -434.910004, 0.000000,  0.000000 
 6262784.000000, -2.495714 , -27.749563, 18.436699, 3614724352.000000, 13.230000,  -205.029999,  -495.809998, 0.000000,  0.000000 
 6282752.000000, -4.419543 , -20.776880, 14.191832, 3614744320.000000, 102.269997,  -206.779999,  -546.559998, 0.000000,  0.000000 
 6305792.000000, -4.453043 , -15.859629, 14.407186, 3614764288.000000, 145.110001,  -227.990005,  -517.440002, 0.000000,  0.000000 
 6322688.000000, -7.386643 , -11.179268, 14.895321, 3614786816.000000, 97.019997,  -228.970001,  -485.170013, 0.000000,  0.000000 
 6342656.000000, -11.112268 , -5.517848, 8.721838, 3614804224.000000, 81.690002,  -178.919998,  -418.040009, 0.000000,  0.000000 
 6362624.000000, -10.542776 , -0.835095, 1.222732, 3614824192.000000, 149.449997,  -152.740005,  -320.390015, 0.000000,  0.000000 
 6382592.000000, -8.348558 , 5.481956, 0.937986, 3614864128.000000, 25.690001,  -86.590004,  -151.130005, 0.000000,  0.000000 
 6403584.000000, -11.428121 , 6.515656, -0.401994, 0.000000, 0.000000,  0.000000,  0.000000, 0.000000,  0.000000 
 6422528.000000, -14.297115 , 3.785445, 0.026321, 3614885120.000000, -67.059998,  -5.530000,  -133.699997, 0.000000,  0.000000 
 6443008.000000, -13.749159 , 1.983650, 0.318245, 3614904064.000000, -122.360001,  69.930000,  -100.239998, 0.000000,  0.000000 
 6462976.000000, -12.928421 , 3.148954, -1.019342, 3614924032.000000, -91.000000,  111.860001,  -8.050000, 0.000000,  0.000000 
 6482944.000000, -10.963913 , 1.122234, -0.339781, 3614944000.000000, -32.480000,  116.690002,  87.919998, 0.000000,  0.000000 
 6503424.000000, -8.834301 , -2.589034, 1.488336, 3614963968.000000, -34.509998,  136.639999,  159.949997, 0.000000,  0.000000 
 6522880.000000, -6.618547 , -3.594020, 3.876373, 3614984960.000000, -69.790001,  151.410004,  226.520004, 0.000000,  0.000000 
 6542848.000000, -6.415157 , -9.387043, 10.198210, 3615003904.000000, -98.489998,  152.250000,  311.709991, 0.000000,  0.000000 
 6562816.000000, -7.281359 , -17.422142, 15.723237, 3615023872.000000, -96.949997,  156.520004,  342.440002, 0.000000,  0.000000 
 6582784.000000, -2.325824 , -21.702902, 21.434904, 3615043840.000000, -117.739998,  184.660004,  360.850006, 0.000000,  0.000000 
 6603776.000000, -1.596013 , -26.289944, 23.844477, 3615084800.000000, -169.259995,  181.229996,  487.339996, 5877497856.000000,  1006.110291 
 6622720.000000, -4.780859 , -28.216164, 22.236502, 0.000000, 0.000000,  0.000000,  0.000000, 0.000000,  0.000000 
 6642688.000000, -6.489335 , -26.467010, 19.582861, 3615103744.000000, -211.750000,  209.440002,  395.220001, 0.000000,  0.000000 
 6662656.000000, 2.689533 , -21.681366, 17.898314, 3615123712.000000, -196.000000,  206.360001,  327.179993, 0.000000,  0.000000 
 6682624.000000, 7.448857 , -17.187645, 12.823137, 3615144192.000000, -175.490005,  136.850006,  316.119995, 0.000000,  0.000000 
 6703616.000000, 7.530212 , -11.294124, 8.020741, 3615164160.000000, -112.419998,  104.370003,  236.880005, 0.000000,  0.000000 
 6722560.000000, 7.542177 , -6.285945, 5.178068, 3615184640.000000, -43.330002,  88.620003,  170.169998, 0.000000,  0.000000 
 6742528.000000, 10.042676 , -4.070191, 4.668397, 3615204096.000000, -24.710001,  82.389999,  127.610001, 0.000000,  0.000000 
 6762496.000000, 13.004992 , -2.268396, 8.262416, 3615224064.000000, -42.770000,  71.470001,  125.230003, 0.000000,  0.000000 
 6782464.000000, 15.787844 , -0.636491, 8.688338, 3615244032.000000, -39.200001,  55.160000,  130.410004, 0.000000,  0.000000 
 6803456.000000, 15.605989 , 1.301696, 7.812566, 3615264000.000000, 70.489998,  23.590000,  124.250000, 0.000000,  0.000000 
 6822400.000000, 13.227524 , 4.065405, 7.764710, 3615284992.000000, 203.000000,  -8.400000,  71.889999, 0.000000,  0.000000 
 6842368.000000, 13.095919 , 6.843473, 7.592427, 3615303936.000000, 214.059998,  -29.610001,  0.630000, 0.000000,  0.000000 
 6862336.000000, 11.672189 , -2.098505, 8.985049, 3615323904.000000, 74.550003,  -59.010002,  -32.340000, 0.000000,  0.000000 
 6882304.000000, 10.265208 , -22.281963, 16.297516, 3615343872.000000, -139.509995,  -79.239998,  -87.430000, 0.000000,  0.000000 
 6903296.000000, 4.668397 , -48.667614, 30.367313, 3615363840.000000, -278.320007,  -108.709999,  -162.330002, 0.000000,  0.000000 
 6922752.000000, -11.100305 , -44.164322, 20.331816, 3615384832.000000, -208.529999,  -124.250000,  -231.000000, 0.000000,  0.000000 
 6942720.000000, -3.151347 , -36.997822, 22.554747, 3615403776.000000, 165.199997,  -155.750000,  -430.570007, 0.000000,  0.000000 
 6962688.000000, -7.245467 , -27.840490, 15.404992, 3615423744.000000, 194.460007,  -265.440002,  -341.600006, 0.000000,  0.000000 
 6982656.000000, -9.477970 , -21.413368, 10.114462, 3615443712.000000, 246.119995,  -293.369995,  -424.200012, 0.000000,  0.000000 
 7003648.000000, -9.956534 , -13.739587, 10.478169, 3615463680.000000, 187.110001,  -291.130005,  -429.730011, 0.000000,  0.000000 
 7023104.000000, -12.196217 , -8.733803, 9.920642, 3615484672.000000, 68.320000,  -246.259995,  -397.320007, 0.000000,  0.000000 
 7042560.000000, -9.841680 , -5.441278, 5.309673, 3615504640.000000, -0.350000,  -155.750000,  -383.600006, 0.000000,  0.000000 
 7062528.000000, -9.683753 , -1.658226, 2.014757, 3615523584.000000, 35.000000,  -86.940002,  -319.410004, 0.000000,  0.000000 
 7082496.000000, -10.894521 , 1.124627, 0.978664, 3615544064.000000, 36.610001,  -45.220001,  -285.739990, 0.000000,  0.000000 
 7103488.000000, -11.732009 , 1.787439, 0.882952, 3615564032.000000, -8.540000,  -5.460000,  -252.070007, 0.000000,  0.000000 
 7122432.000000, -12.306287 , 2.254039, 0.488136, 3615584512.000000, -30.100000,  32.689999,  -199.779999, 0.000000,  0.000000 
 7142400.000000, -14.892928 , 3.249453, -1.890330, 3615603968.000000, -22.820000,  53.549999,  -158.339996, 0.000000,  0.000000 
 7163392.000000, -15.806986 , 4.043870, -4.273581, 3615623936.000000, -8.120000,  65.029999,  -100.940002, 0.000000,  0.000000 
 7183360.000000, -11.995219 , 4.651647, -2.397608, 3615644416.000000, -0.770000,  75.180000,  -14.000000, 0.000000,  0.000000 
 7204352.000000, -8.626125 , 4.314260, -1.780260, 3615664384.000000, -23.520000,  82.320000,  76.650002, 0.000000,  0.000000 
 7223296.000000, -7.791030 , 3.720839, -1.351945, 3615685376.000000, -21.840000,  102.550003,  177.589996, 0.000000,  0.000000 
 7243264.000000, -9.434900 , 2.098505, 0.839881, 3615704832.000000, -36.820000,  141.119995,  269.149994, 0.000000,  0.000000 
 7263744.000000, -13.079168 , -4.381258, 3.763910, 3615724800.000000, -81.970001,  196.279999,  360.850006, 0.000000,  0.000000 
 7283712.000000, -18.989441 , -15.318851, 11.420943, 3615744768.000000, -174.580002,  243.669998,  439.880005, 0.000000,  0.000000 
 7306240.000000, -31.953753 , -48.813583, 28.220951, 3615764736.000000, -328.440002,  273.279999,  478.730011, 0.000000,  0.000000 
 7323648.000000, -12.095718 , -46.078587, 30.903303, 3615787776.000000, -400.119995,  258.579987,  482.860016, 0.000000,  0.000000 
 7343616.000000, -4.888536 , -31.307692, 25.373489, 3615805184.000000, -113.750000,  206.639999,  466.760010, 0.000000,  0.000000 
 7364096.000000, -1.636691 , -25.294527, 22.892136, 3615825152.000000, 55.160000,  197.190002,  323.119995, 0.000000,  0.000000 
 7384064.000000, 0.241675 , -16.366907, 18.814764, 3615845120.000000, -16.730000,  190.330002,  174.300003, 0.000000,  0.000000 
 7405056.000000, 2.471786 , -10.315458, 12.509676, 3615865088.000000, 25.059999,  143.220001,  117.529999, 0.000000,  0.000000 
 7424000.000000, 5.716454 , -5.486742, 8.621340, 3615886080.000000, 59.920002,  81.059998,  91.489998, 0.000000,  0.000000 
 7443968.000000, 8.848659 , -0.945165, 8.269595, 3615905536.000000, 26.040001,  32.619999,  97.440002, 0.000000,  0.000000 
 7463936.000000, 11.952149 , 0.591027, 8.707481, 3615924992.000000, -41.860001,  -1.960000,  113.540001, 0.000000,  0.000000 
 7484928.000000, 15.675381 , 0.758525, 9.013763, 3615944960.000000, -66.500000,  -36.750000,  122.989998, 0.000000,  0.000000 
 7505920.000000, 17.984455 , 0.863809, 7.343572, 3615966464.000000, -48.720001,  -78.190002,  134.539993, 0.000000,  0.000000 
 7524864.000000, 16.900507 , -2.510071, 8.152347, 3615986944.000000, -37.029999,  -132.930008,  97.930000, 0.000000,  0.000000 
 7544832.000000, 15.062819 , -5.649454, 10.456635, 3616006400.000000, -55.510002,  -171.779999,  19.530001, 0.000000,  0.000000 
 7564800.000000, 11.586047 , -8.611769, 10.681561, 3616026368.000000, -37.590000,  -188.930008,  -59.990002, 0.000000,  0.000000 
 7584768.000000, 7.295716 , -15.952950, 13.770694, 3616046336.000000, 22.049999,  -189.070007,  -184.029999, 0.000000,  0.000000 
 7605760.000000, 4.484150 , -29.053652, 23.394629, 3616087296.000000, -20.790001,  -201.180008,  -349.720001, 5878500352.000000,  1006.108276 
 7625216.000000, -0.602991 , -35.866020, 24.722643, 0.000000, 0.000000,  0.000000,  0.000000, 0.000000,  0.000000 
 7645184.000000, -1.957329 , -28.357340, 23.866013, 3616106240.000000, 77.209999,  -226.309998,  -406.980011, 0.000000,  0.000000 
 7665152.000000, -6.482157 , -21.535404, 19.310080, 3616126208.000000, 175.490005,  -244.089996,  -383.529999, 0.000000,  0.000000 
 7685120.000000, -11.265409 , -18.510876, 16.929220, 3616146176.000000, 137.619995,  -261.239990,  -388.149994, 0.000000,  0.000000 
 7705600.000000, -14.110476 , -11.090734, 12.406786, 3616166144.000000, 92.959999,  -248.430008,  -391.510010, 0.000000,  0.000000 
 7725568.000000, -12.299109 , -4.328616, 7.393822, 3616187136.000000, 79.239998,  -213.430008,  -359.519989, 0.000000,  0.000000 
 7745024.000000, -10.877771 , -0.638884, 2.914458, 3616206592.000000, 62.230000,  -163.660004,  -296.450012, 0.000000,  0.000000 
 7764992.000000, -9.576077 , 2.244468, 0.117248, 3616226048.000000, 43.470001,  -113.540001,  -241.710007, 0.000000,  0.000000 
 7784960.000000, -10.277173 , 4.256832, 0.626920, 3616246016.000000, 6.160000,  -61.250000,  -207.619995, 0.000000,  0.000000 
 7805952.000000, -12.471392 , 2.909672, -0.287139, 3616265984.000000, -63.420002,  -9.100000,  -178.430008, 0.000000,  0.000000 
 7824896.000000, -11.109876 , 3.079563, -2.543570, 3616286976.000000, -63.840000,  43.119999,  -148.960007, 0.000000,  0.000000 
 7844864.000000, -8.659625 , 4.821537, -4.003192, 3616306432.000000, -13.790000,  67.129997,  -63.910000, 0.000000,  0.000000 
 7864832.000000, -6.991827 , 5.123034, -3.337988, 3616325888.000000, 15.890000,  66.570000,  32.900002, 0.000000,  0.000000 
 7884800.000000, -5.778666 , 3.637090, -2.196611, 3616346368.000000, -17.710001,  81.760002,  90.510002, 0.000000,  0.000000 
 7905792.000000, -6.187840 , 2.337788, -1.519442, 3616366336.000000, -73.080002,  109.340004,  153.580002, 0.000000,  0.000000 
 7924736.000000, -8.513663 , 0.964308, 2.572284, 3616387328.000000, -96.809998,  139.300003,  232.470001, 0.000000,  0.000000 
 7944704.000000, -10.248460 , -8.492127, 10.576276, 3616406272.000000, -120.330002,  172.690002,  303.730011, 0.000000,  0.000000 
 7964672.000000, -14.143975 , -24.246473, 20.487347, 3616426240.000000, -151.199997,  188.229996,  364.700012, 0.000000,  0.000000 
 7984640.000000, -9.655040 , -38.344982, 27.129822, 3616446208.000000, -205.449997,  196.210007,  410.690002, 0.000000,  0.000000 
 8005632.000000, -3.452843 , -30.352957, 24.368505, 3616466176.000000, -197.470001,  160.300003,  426.720001, 0.000000,  0.000000 
 8024576.000000, 2.981457 , -24.557539, 23.815762, 3616486656.000000, -194.039993,  129.710007,  342.089996, 0.000000,  0.000000 
 8044544.000000, 4.443472 , -17.178074, 20.800808, 3616506112.000000, -179.410004,  141.680008,  247.520004, 0.000000,  0.000000 
 8064512.000000, 3.641876 , -12.725031, 15.414563, 3616526080.000000, -63.840000,  138.949997,  169.119995, 0.000000,  0.000000 
 8084480.000000, 3.828516 , -6.750153, 11.559726, 3616546048.000000, 91.489998,  105.559998,  109.620003, 0.000000,  0.000000 
 8105472.000000, 7.032506 , -3.022135, 7.135397, 3616566016.000000, 146.089996,  56.279999,  95.900002, 0.000000,  0.000000 
 8124416.000000, 9.750752 , 0.263210, 4.443472, 3616587008.000000, 142.800003,  10.640000,  116.690002, 0.000000,  0.000000 
 8144384.000000, 10.698310 , 2.062613, 4.476971, 3616605952.000000, 74.830002,  -12.460000,  128.869995, 0.000000,  0.000000 
 8164352.000000, 11.478370 , 2.533999, 5.666204, 3616625920.000000, -20.930000,  -24.780001,  129.570007, 0.000000,  0.000000 
 8184320.000000, 13.512270 , 2.081756, 5.414958, 3616645888.000000, -74.059998,  -57.610001,  123.199997, 0.000000,  0.000000 
 8205312.000000, 15.354744 , 1.832902, 3.708875, 3616665856.000000, -22.330000,  -99.610001,  96.809998, 0.000000,  0.000000 
 8224768.000000, 13.722836 , 2.770889, 5.060820, 3616686848.000000, 36.259998,  -119.629997,  20.020000, 0.000000,  0.000000 
 8244736.000000, 10.167104 , -1.928615, 10.289137, 3616705792.000000, -4.130000,  -108.570000,  -73.919998, 0.000000,  0.000000 
 8264704.000000, 10.547562 , -12.870994, 15.022141, 3616725760.000000, -71.610001,  -92.750000,  -149.309998, 0.000000,  0.000000 
 8284672.000000, 14.165509 , -31.877184, 21.824934, 3616745728.000000, -83.370003,  -122.639999,  -204.539993, 0.000000,  0.000000 
 8307200.000000, 6.606583 , -36.567116, 23.435307, 3616765696.000000, -52.500000,  -158.339996,  -231.070007, 0.000000,  0.000000 
 8324608.000000, 2.055435 , -29.424540, 21.609581, 3616788736.000000, -30.309999,  -168.139999,  -349.579987, 0.000000,  0.000000 
 8344576.000000, -1.804188 , -20.461027, 14.215759, 3616805632.000000, 34.230000,  -198.869995,  -381.850006, 0.000000,  0.000000 
 8364544.000000, -1.921437 , -15.603597, 9.963714, 3616825600.000000, 56.279999,  -212.869995,  -402.429993, 0.000000,  0.000000 
 8384512.000000, -2.842674 , -11.691331, 10.803595, 3616845568.000000, 55.020000,  -204.399994,  -394.450012, 0.000000,  0.000000 
 8405504.000000, -8.956335 , -8.554340, 8.767302, 3616865536.000000, 20.719999,  -152.600006,  -358.119995, 0.000000,  0.000000 
 8424448.000000, -9.664611 , -5.491528, 3.211168, 3616886528.000000, 21.350000,  -72.099998,  -328.299988, 0.000000,  0.000000 
 8444416.000000, -7.551748 , -2.230111, 2.258825, 3616905472.000000, 39.340000,  -29.469999,  -259.910004, 0.000000,  0.000000 
 8464384.000000, -11.164910 , 0.722632, 1.167697, 3616925952.000000, 47.950001,  -5.880000,  -186.550003, 0.000000,  0.000000 
 8484352.000000, -15.022141 , 2.739782, 0.220140, 3616945920.000000, 36.540001,  11.340000,  -166.949997, 0.000000,  0.000000 
 8505344.000000, -12.442677 , 2.364109, -0.914058, 3616965888.000000, -12.040000,  31.639999,  -138.949997, 0.000000,  0.000000 
 8524288.000000, -12.961920 , 2.711068, -2.136791, 3616986368.000000, -41.509998,  47.389999,  -72.660004, 0.000000,  0.000000 
 8544256.000000, -12.222539 , 1.854438, -1.289732, 3617005824.000000, -63.910000,  50.680000,  -13.720000, 0.000000,  0.000000 
 8564224.000000, -8.188239 , 1.519442, 0.906880, 3617025792.000000, -82.250000,  56.700001,  62.160000, 0.000000,  0.000000 
 8584192.000000, -6.068198 , 1.493121, 4.086941, 3617045760.000000, -84.699997,  65.870003,  140.979996, 0.000000,  0.000000 
 8605184.000000, -6.991827 , -2.653640, 8.968300, 3617086720.000000, -83.440002,  124.879997,  280.489990, 5879499264.000000,  1006.109741 
 8624128.000000, -9.844072 , -13.509877, 11.851650, 0.000000, 0.000000,  0.000000,  0.000000, 0.000000,  0.000000 
 8644096.000000, -8.157133 , -27.093929, 19.080368, 3617105664.000000, -132.440002,  150.919998,  346.640015, 0.000000,  0.000000 
 8664064.000000, -7.156933 , -43.317268, 26.859436, 3617125632.000000, -266.140015,  152.600006,  411.880005, 0.000000,  0.000000 
 8684032.000000, -2.462214 , -38.971901, 24.303902, 3617145600.000000, -397.459991,  130.130005,  402.010010, 0.000000,  0.000000 
 8705024.000000, 9.214760 , -22.406391, 21.808184, 3617165568.000000, -242.970001,  73.010002,  359.100006, 0.000000,  0.000000 
 8724480.000000, 7.235896 , -15.352350, 17.448462, 3617186560.000000, -140.279999,  90.370003,  342.579987, 0.000000,  0.000000 
 8744448.000000, 8.267202 , -13.186846, 12.945170, 3617205504.000000, -175.139999,  64.750000,  217.139999, 0.000000,  0.000000 
 8764416.000000, 11.746366 , -8.408379, 8.209774, 3617245440.000000, 3.500000,  -48.790001,  169.680008, 0.000000,  0.000000 
 8784384.000000, 13.761123 , -2.672783, 5.584848, 0.000000, 0.000000,  0.000000,  0.000000, 0.000000,  0.000000 
 8805376.000000, 14.124832 , -0.296710, 2.620141, 3617265408.000000, 101.919998,  -94.080002,  144.690002, 0.000000,  0.000000 
 8824320.000000, 13.134203 , 0.311067, 1.174876, 3617286400.000000, 146.229996,  -130.830002,  112.910004, 0.000000,  0.000000 
 8844288.000000, 11.155338 , 0.906880, 0.351745, 3617305344.000000, 132.789993,  -154.070007,  90.440002, 0.000000,  0.000000 
 8864256.000000, 10.155140 , 0.935594, 0.619741, 3617325312.000000, 97.510002,  -164.990005,  52.150002, 0.000000,  0.000000 
 8884224.000000, 9.851252 , -0.887737, 0.859023, 3617345280.000000, 62.650002,  -162.259995,  -2.730000, 0.000000,  0.000000 
 8905216.000000, 9.719646 , -4.225725, 2.220540, 3617365248.000000, 39.270000,  -147.419998,  -74.550003, 0.000000,  0.000000 
 8924160.000000, 8.140383 , -8.520842, 3.412165, 3617386240.000000, 40.810001,  -128.589996,  -148.190002, 0.000000,  0.000000 
 8944128.000000, 10.344172 , -15.998412, 5.982057, 3617405696.000000, 29.750000,  -110.739998,  -236.809998, 0.000000,  0.000000 
 8964096.000000, 13.471591 , -29.307291, 12.990634, 3617425664.000000, -9.380000,  -104.790001,  -277.130005, 0.000000,  0.000000 
 8984064.000000, 6.953543 , -35.791840, 17.501104, 3617445632.000000, -40.250000,  -98.070000,  -261.519989, 0.000000,  0.000000 
 9005056.000000, 1.849652 , -26.471796, 16.201803, 3617465600.000000, -120.820000,  -97.300003,  -308.070007, 0.000000,  0.000000 
 9024000.000000, 1.440479 , -16.900507, 11.837293, 3617486080.000000, -74.830002,  -88.760002,  -363.860016, 0.000000,  0.000000 
 9044992.000000, 1.957329 , -14.143975, 10.291530, 3617505536.000000, 22.330000,  -104.019997,  -355.739990, 0.000000,  0.000000 
 9063936.000000, 1.299303 , -8.932407, 11.368300, 3617526016.000000, 56.560001,  -114.379997,  -340.410004, 0.000000,  0.000000 
 9084416.000000, -2.256432 , -6.020342, 10.861022, 3617545472.000000, -2.310000,  -98.699997,  -323.610016, 0.000000,  0.000000 
 9105408.000000, -2.155933 , -3.170490, 8.807980, 3617565952.000000, -39.689999,  -50.680000,  -296.589996, 0.000000,  0.000000 
 9124352.000000, -2.804388 , -0.830309, 7.054041, 3617586944.000000, 22.610001,  -9.870000,  -234.779999, 0.000000,  0.000000 
 9144320.000000, -5.654240 , 2.902494, 6.735795, 3617605888.000000, 89.040001,  6.580000,  -189.630005, 0.000000,  0.000000 
 9164288.000000, -10.262815 , 3.297310, 4.417150, 3617625856.000000, 86.379997,  24.780001,  -172.059998, 0.000000,  0.000000 
 9184768.000000, -15.340386 , 0.918844, 0.390030, 3617645824.000000, 41.090000,  45.849998,  -150.080002, 0.000000,  0.000000 
 9205760.000000, -14.060226 , 1.217947, 1.464408, 3617666304.000000, -9.380000,  69.580002,  -131.180008, 0.000000,  0.000000 
 9224704.000000, -12.524034 , 1.172483, 1.033699, 3617686784.000000, -35.910000,  64.610001,  -74.199997, 0.000000,  0.000000 
 9244672.000000, -9.042477 , -0.234497, -0.406780, 3617706240.000000, -28.770000,  34.230000,  -5.040000, 0.000000,  0.000000 
 9264640.000000, -6.372087 , -3.294917, 1.119841, 3617726208.000000, -35.420002,  30.730000,  59.779999, 0.000000,  0.000000 
 9285120.000000, -4.847858 , -4.254438, 4.668397, 3617746176.000000, -39.619999,  32.759998,  146.369995, 0.000000,  0.000000 
 9307648.000000, -1.971686 , -6.649654, 8.925228, 3617766144.000000, -27.719999,  44.660000,  238.279999, 0.000000,  0.000000 
 9325056.000000, 0.710668 , -12.899707, 12.490535, 3617789184.000000, 10.990000,  60.270000,  328.089996, 0.000000,  0.000000 
 9345024.000000, 1.593620 , -17.730816, 17.735601, 3617806080.000000, -2.100000,  107.800003,  391.860016, 0.000000,  0.000000 
 9364992.000000, -2.854637 , -21.466013, 20.274387, 3617826048.000000, -87.779999,  162.399994,  445.200012, 0.000000,  0.000000 
 9384448.000000, -4.127619 , -23.588446, 21.284159, 3617846016.000000, -160.649994,  213.500000,  408.309998, 0.000000,  0.000000 
 9406976.000000, 6.223732 , -20.224136, 19.963318, 3617865984.000000, -211.470001,  217.139999,  331.450012, 0.000000,  0.000000 
 9425920.000000, 6.884151 , -18.501305, 18.039490, 3617888000.000000, -199.779999,  178.710007,  323.959991, 0.000000,  0.000000 
 9445888.000000, 6.092126 , -13.009777, 14.050655, 3617906944.000000, -88.410004,  130.059998,  240.660004, 0.000000,  0.000000 
 9465856.000000, 7.121039 , -8.839087, 8.705089, 3617927424.000000, 36.400002,  79.519997,  179.759995, 0.000000,  0.000000 
 9485824.000000, 9.114261 , -5.678168, 4.742575, 3617947392.000000, 108.010002,  22.610001,  171.639999, 0.000000,  0.000000 
 9506816.000000, 9.635897 , -3.428915, 3.735196, 3617967360.000000, 87.430000,  -19.879999,  165.619995, 0.000000,  0.000000 
 9525760.000000, 8.762517 , -2.237289, 5.118248, 3617987840.000000, 3.850000,  -39.549999,  143.710007, 0.000000,  0.000000 
 9545728.000000, 9.281759 , -1.679761, 5.197211, 3618007296.000000, -65.309998,  -58.869999,  118.440002, 0.000000,  0.000000 
 9565696.000000, 12.287145 , -0.023928, 3.775874, 3618027264.000000, -52.080002,  -88.970001,  89.459999, 0.000000,  0.000000 
 9585664.000000, 13.670196 , 0.973879, 3.775874, 3618047232.000000, 30.590000,  -113.330002,  47.250000, 0.000000,  0.000000 
 9606656.000000, 10.061819 , 1.596013, 3.948158, 3618067200.000000, 119.349998,  -113.889999,  -40.740002, 0.000000,  0.000000 
 9625600.000000, 9.090333 , -0.212961, 2.184647, 3618088192.000000, 128.240005,  -84.139999,  -151.130005, 5880500736.000000,  1006.110107 
 9645568.000000, 13.430914 , -8.927622, 4.914857, 3618107136.000000, 71.470001,  -84.279999,  -204.889999, 0.000000,  0.000000 
 9665536.000000, 16.419548 , -28.292736, 14.397614, 3618127104.000000, -99.820000,  -103.949997,  -224.210007, 0.000000,  0.000000 
 9686016.000000, 8.762517 , -42.343391, 22.466211, 3618147072.000000, -278.950012,  -93.870003,  -210.000000, 0.000000,  0.000000 
 9706496.000000, -2.361716 , -34.315472, 16.304693, 3618167040.000000, -234.710007,  -47.180000,  -283.920013, 0.000000,  0.000000 
 9725440.000000, -1.868794 , -22.382463, 13.402200, 3618188032.000000, 8.190000,  -35.700001,  -426.649994, 0.000000,  0.000000 
 9745920.000000, -0.655633 , -16.273586, 11.361122, 3618206976.000000, 69.300003,  -101.989998,  -356.089996, 0.000000,  0.000000 
 9765888.000000, -1.904687 , -11.239087, 10.561919, 3618226944.000000, 89.389999,  -125.650002,  -352.589996, 0.000000,  0.000000 
 9785856.000000, -4.558327 , -7.190433, 10.820344, 3618246912.000000, 47.599998,  -100.870003,  -346.360016, 0.000000,  0.000000 
 9806336.000000, -5.005785 , -4.646862, 8.398808, 3618266880.000000, 23.799999,  -48.790001,  -297.079987, 0.000000,  0.000000 
 9825792.000000, -3.960121 , -1.983650, 6.711867, 3618287872.000000, 55.160000,  -15.260000,  -230.790009, 0.000000,  0.000000 
 9845760.000000, -5.400600 , 0.124427, 5.216353, 3618306816.000000, 77.489998,  5.880000,  -189.839996, 0.000000,  0.000000 
 9865728.000000, -8.752945 , 1.292124, 3.488736, 3618326784.000000, 90.860001,  34.860001,  -176.050003, 0.000000,  0.000000 
 9885696.000000, -9.585647 , 1.854438, 1.665405, 3618346752.000000, 114.870003,  58.310001,  -148.399994, 0.000000,  0.000000 
 9906688.000000, -9.209974 , 2.914458, -0.557528, 3618366720.000000, 139.720001,  54.389999,  -85.750000, 0.000000,  0.000000 
 9925632.000000, -10.200603 , 3.783052, -2.526821, 3618387712.000000, 121.520004,  39.270000,  -28.280001, 0.000000,  0.000000 
 9945600.000000, -9.954143 , 2.947958, -2.538785, 3618406656.000000, 43.119999,  40.740002,  8.960000, 0.000000,  0.000000 
 9965568.000000, -7.099504 , 1.079163, -1.363909, 3618427136.000000, -65.309998,  42.349998,  37.520000, 0.000000,  0.000000 
 9985536.000000, -5.312066 , 0.167498, -0.468993, 3618446592.000000, -128.309998,  29.820000,  88.059998, 0.000000,  0.000000 
 10006528.000000, -3.646662 , -0.354138, 2.792424, 3618467072.000000, -125.440002,  29.260000,  151.899994, 0.000000,  0.000000 
 10025472.000000, -2.036292 , -4.948357, 5.694918, 3618487552.000000, -91.000000,  41.090000,  233.869995, 0.000000,  0.000000 
 10045440.000000, -3.330809 , -15.012569, 11.016556, 3618507008.000000, -49.490002,  68.180000,  326.899994, 0.000000,  0.000000 
 10065408.000000, -8.353344 , -27.105894, 20.370100, 3618526976.000000, -93.239998,  121.660004,  403.690002, 0.000000,  0.000000 
 10085376.000000, -8.638089 , -37.028931, 22.198217, 3618546944.000000, -233.800003,  162.750000,  422.450012, 0.000000,  0.000000 
 10106368.000000, 1.170090 , -27.316463, 20.973089, 3618566912.000000, -255.710007,  136.360001,  349.230011, 0.000000,  0.000000 
 10125312.000000, 8.224132 , -19.018154, 21.336800, 3618587392.000000, -188.369995,  92.889999,  303.869995, 0.000000,  0.000000 
 10145280.000000, 9.042477 , -17.001005, 17.994026, 3618606848.000000, -140.770004,  92.820000,  252.419998, 0.000000,  0.000000 
 10165248.000000, 5.546563 , -13.641481, 13.615161, 3618626816.000000, -29.889999,  87.430000,  179.410004, 0.000000,  0.000000 
 10185216.000000, 4.883751 , -8.449057, 11.523834, 3618646784.000000, 88.059998,  73.849998,  125.160004, 0.000000,  0.000000 
 10206208.000000, 6.975078 , -4.591826, 9.083155, 3618666752.000000, 144.619995,  33.880001,  113.470001, 0.000000,  0.000000 
 10225152.000000, 8.149954 , -2.050649, 5.831308, 3618687744.000000, 159.949997,  -17.639999,  132.580002, 0.000000,  0.000000 
 10245120.000000, 8.310273 , -0.303888, 3.751946, 3618706688.000000, 147.279999,  -48.160000,  130.830002, 0.000000,  0.000000 
 10265088.000000, 8.102098 , 0.916451, 4.146761, 3618726656.000000, 101.150002,  -61.040001,  124.669998, 0.000000,  0.000000 
 10285568.000000, 9.248260 , 1.320838, 4.106083, 3618746624.000000, 36.820000,  -77.559998,  112.349998, 0.000000,  0.000000 
 10308096.000000, 12.863814 , 0.753739, 0.818345, 3618766592.000000, 24.850000,  -112.910004,  87.779999, 0.000000,  0.000000 
 10325504.000000, 14.577076 , 1.622334, -1.239482, 3618789632.000000, 71.680000,  -158.619995,  40.250000, 0.000000,  0.000000 
 10345472.000000, 10.765309 , 0.098106, -0.327817, 3618806528.000000, 50.610001,  -162.750000,  -55.930000, 0.000000,  0.000000 
 10365440.000000, 9.128618 , -6.156733, 3.981657, 3618826496.000000, -59.990002,  -116.199997,  -164.080002, 0.000000,  0.000000 
 10385408.000000, 12.193825 , -15.515062, 11.973685, 3618846464.000000, -154.279999,  -112.910004,  -239.259995, 0.000000,  0.000000 
 10406400.000000, 14.620146 , -26.132017, 15.381063, 3618866432.000000, -101.220001,  -129.430008,  -237.860001, 0.000000,  0.000000 
 10425344.000000, 7.913064 , -27.931417, 15.668202, 3618887424.000000, 9.660000,  -118.020004,  -211.119995, 0.000000,  0.000000 
 10445312.000000, 3.572484 , -22.317858, 16.666008, 3618906368.000000, 9.800000,  -117.459999,  -304.079987, 0.000000,  0.000000 
 10465280.000000, 1.545763 , -15.869200, 13.004992, 3618926336.000000, 14.280000,  -125.020004,  -300.720001, 0.000000,  0.000000 
 10485248.000000, 0.626920 , -11.047661, 10.753345, 3618946304.000000, -8.120000,  -137.410004,  -294.630005, 0.000000,  0.000000 
 10506240.000000, -1.026521 , -7.156933, 11.018949, 3618966784.000000, -24.010000,  -119.419998,  -286.299988, 0.000000,  0.000000 
 10525184.000000, -3.199204 , -4.264010, 9.951750, 3618987264.000000, -52.990002,  -67.550003,  -268.869995, 0.000000,  0.000000 
 10545152.000000, -2.383251 , -2.254039, 7.704889, 3619006720.000000, -37.520000,  -4.200000,  -225.540009, 0.000000,  0.000000 
 10565120.000000, -1.399801 , 0.701097, 6.137590, 3619026688.000000, 34.439999,  35.770000,  -162.119995, 0.000000,  0.000000 
 10585088.000000, -2.761317 , 3.053242, 4.936393, 3619046656.000000, 71.050003,  61.950001,  -125.160004, 0.000000,  0.000000 
 10606080.000000, -5.123034 , 3.620341, 3.467200, 3619066624.000000, 70.349998,  89.599998,  -112.070000, 0.000000,  0.000000 
 10625024.000000, -5.340781 , 2.368894, 1.875973, 3619087616.000000, 55.439999,  107.169998,  -92.610001, 5881500160.000000,  1006.112427 
 10644992.000000, -6.077770 , 1.363909, 0.457029, 3619106560.000000, 30.870001,  112.209999,  -46.200001, 0.000000,  0.000000 
 10664960.000000, -7.795816 , 1.660619, 0.232104, 3619126528.000000, -20.580000,  112.910004,  -3.360000, 0.000000,  0.000000 
 10684928.000000, -7.776673 , 2.330609, -0.040678, 3619146496.000000, -89.459999,  111.020004,  25.129999, 0.000000,  0.000000 
 10705920.000000, -6.254838 , 1.619941, 1.088734, 3619166464.000000, -150.919998,  94.360001,  47.180000, 0.000000,  0.000000 
 10724864.000000, -5.434100 , -0.260818, 2.184647, 3619187456.000000, -172.759995,  71.120003,  61.110001, 0.000000,  0.000000 
 10744832.000000, -4.376472 , -0.952343, 3.840480, 3619206400.000000, -142.169998,  55.650002,  88.199997, 0.000000,  0.000000 
 10765312.000000, -2.213361 , -2.770889, 5.716454, 3619226368.000000, -67.129997,  50.470001,  153.020004, 0.000000,  0.000000 
 10785280.000000, -3.847659 , -9.521042, 9.463614, 3619246336.000000, 12.250000,  46.759998,  239.259995, 0.000000,  0.000000 
 10805760.000000, -11.200804 , -20.518454, 17.237894, 3619266304.000000, -33.180000,  87.570000,  289.380005, 0.000000,  0.000000 
 10825216.000000, -13.978869 , -31.561333, 21.731615, 3619287296.000000, -207.270004,  122.500000,  296.239990, 0.000000,  0.000000 
 10845184.000000, -5.324030 , -26.402405, 17.403000, 3619306240.000000, -300.019989,  108.360001,  280.000000, 0.000000,  0.000000 
 10865152.000000, 2.172683 , -17.484356, 16.835899, 3619326208.000000, -217.139999,  43.400002,  263.200012, 0.000000,  0.000000 
 10885120.000000, 5.912664 , -13.722836, 17.764317, 3619346176.000000, -125.300003,  38.920002,  253.119995, 0.000000,  0.000000 
 10906112.000000, 4.543970 , -13.990833, 17.254644, 3619366144.000000, -56.000000,  75.529999,  215.949997, 0.000000,  0.000000 
 10925056.000000, 1.540978 , -12.471392, 13.789837, 3619387136.000000, 40.950001,  93.449997,  180.600006, 0.000000,  0.000000 
 10945024.000000, 3.050849 , -9.305687, 9.839286, 3619406080.000000, 142.869995,  83.580002,  156.380005, 0.000000,  0.000000 
 10964992.000000, 6.623333 , -5.690133, 6.563512, 3619426048.000000, 192.149994,  36.889999,  178.710007, 0.000000,  0.000000 
 10984960.000000, 9.609575 , -2.505285, 5.718846, 3619446016.000000, 147.559998,  -4.900000,  193.899994, 0.000000,  0.000000 
 11005952.000000, 10.724631 , -1.155733, 7.202396, 3619466496.000000, 31.990000,  -20.160000,  175.979996, 0.000000,  0.000000 
 11024896.000000, 11.612368 , -1.497907, 7.025328, 3619486976.000000, -67.550003,  -28.630001,  149.589996, 0.000000,  0.000000 
 11044864.000000, 13.500306 , -2.000400, 6.147161, 3619506432.000000, -70.209999,  -49.840000,  116.690002, 0.000000,  0.000000 
 11064832.000000, 13.976478 , -1.237089, 5.876772, 3619526400.000000, -7.210000,  -70.840004,  63.700001, 0.000000,  0.000000 
 11084800.000000, 12.002398 , -1.356731, 5.912664, 3619546368.000000, 38.709999,  -72.660004,  -19.530001, 0.000000,  0.000000 
 11105792.000000, 8.724231 , -5.304887, 6.376873, 3619566336.000000, 67.129997,  -61.389999,  -102.340004, 0.000000,  0.000000 
 11124736.000000, 7.774280 , -13.229917, 8.257630, 3619587328.000000, 76.370003,  -61.880001,  -180.180008, 0.000000,  0.000000 
 11144704.000000, 8.791230 , -22.796421, 14.778071, 3619606272.000000, 38.920002,  -75.739998,  -244.089996, 0.000000,  0.000000 
 11164672.000000, 6.678369 , -31.173693, 20.396420, 3619626240.000000, -27.299999,  -93.590004,  -251.300003, 0.000000,  0.000000 
 11184640.000000, 1.641476 , -31.429724, 21.946968, 3619646208.000000, -25.480000,  -122.919998,  -310.589996, 0.000000,  0.000000 
 11205632.000000, -3.278167 , -22.609779, 16.584654, 3619666176.000000, 96.809998,  -154.979996,  -368.059998, 0.000000,  0.000000 
 11224576.000000, -3.905087 , -14.306686, 10.753345, 3619687168.000000, 231.279999,  -192.220001,  -376.040009, 0.000000,  0.000000 
 11245056.000000, -1.811367 , -8.394022, 9.312866, 3619706112.000000, 254.940002,  -238.699997,  -331.940002, 0.000000,  0.000000 
 11265024.000000, -1.514657 , -4.225725, 10.401600, 3619726080.000000, 212.520004,  -251.649994,  -293.440002, 0.000000,  0.000000 
 11284992.000000, -3.574877 , -3.017349, 8.657232, 3619746048.000000, 63.980000,  -234.779999,  -281.119995, 0.000000,  0.000000 
 11307520.000000, -4.965107 , -1.390230, 5.584848, 3619766016.000000, -40.880001,  -166.529999,  -260.399994, 0.000000,  0.000000 
 11324928.000000, -5.752346 , -0.452243, 4.079762, 3619789056.000000, -66.150002,  -94.360001,  -227.990005, 0.000000,  0.000000 
 11344896.000000, -7.152147 , 2.122434, 4.453043, 3619805952.000000, -62.299999,  -42.560001,  -187.180008, 0.000000,  0.000000 
 11364864.000000, -7.432107 , 2.916851, 5.170890, 3619825920.000000, -106.330002,  -3.150000,  -182.210007, 0.000000,  0.000000 
 11384832.000000, -8.212167 , 2.557927, 4.398008, 3619845888.000000, -143.850006,  35.980000,  -171.919998, 0.000000,  0.000000 
 11405824.000000, -8.398808 , 3.244668, 2.979064, 3619865856.000000, -117.809998,  70.769997,  -143.430008, 0.000000,  0.000000 
 11424768.000000, -9.418150 , 3.361916, 2.337788, 3619886848.000000, -67.620003,  78.959999,  -81.690002, 0.000000,  0.000000 
 11444736.000000, -9.628718 , 2.813959, 1.808974, 3619905792.000000, -39.759998,  73.779999,  -33.040001, 0.000000,  0.000000 
 11464704.000000, -7.503892 , 2.366502, 1.275374, 3619925760.000000, -33.459999,  68.110001,  -6.860000, 0.000000,  0.000000 
 11484672.000000, -5.570491 , 1.677369, 1.153341, 3619945728.000000, -29.960001,  61.040001,  43.889999, 0.000000,  0.000000 
 11505664.000000, -4.728218 , 0.937986, 4.177868, 3619966208.000000, -23.730000,  61.389999,  101.150002, 0.000000,  0.000000 
 11524608.000000, -5.422136 , -1.789831, 6.049056, 3619986688.000000, -33.599998,  74.900002,  163.940002, 0.000000,  0.000000 
 11544576.000000, -6.185446 , -8.020741, 8.693125, 3620006144.000000, -72.519997,  103.599998,  242.619995, 0.000000,  0.000000 
 11564544.000000, -10.985448 , -20.082958, 18.025133, 3620026112.000000, -171.779999,  133.210007,  306.600006, 0.000000,  0.000000 
 11584512.000000, -14.964713 , -35.411381, 22.470997, 3620046080.000000, -311.850006,  152.949997,  344.329987, 0.000000,  0.000000 
 11605504.000000, -3.627519 , -24.952356, 17.714066, 3620066048.000000, -310.799988,  124.459999,  344.540009, 0.000000,  0.000000 
 11624448.000000, 1.555335 , -15.560526, 15.294923, 3620087040.000000, -90.370003,  84.769997,  403.480011, 5882499584.000000,  1006.111877 
 11644416.000000, -5.704489 , -16.007982, 14.885750, 3620125952.000000, -69.930000,  180.180008,  313.179993, 0.000000,  0.000000 
 11664384.000000, -3.227918 , -17.599211, 16.273586, 0.000000, 0.000000,  0.000000,  0.000000, 0.000000,  0.000000 
 11684352.000000, 2.567499 , -12.492928, 12.134004, 3620145920.000000, -66.290001,  173.110001,  325.010010, 0.000000,  0.000000 
 11705344.000000, 5.850451 , -8.683553, 9.279366, 3620165888.000000, 33.180000,  157.779999,  327.529999, 0.000000,  0.000000 
 11724288.000000, 9.061620 , -8.547162, 10.088140, 3620186880.000000, 23.170000,  149.940002,  277.549988, 0.000000,  0.000000 
 11744768.000000, 11.550155 , -9.329616, 11.947363, 3620205824.000000, -46.480000,  128.520004,  224.210007, 0.000000,  0.000000 
 11764736.000000, 13.536198 , -8.549555, 11.461621, 3620225792.000000, -71.050003,  85.190002,  172.830002, 0.000000,  0.000000 
 11784704.000000, 13.215559 , -7.903493, 10.966305, 3620245760.000000, -42.770000,  36.259998,  115.080002, 0.000000,  0.000000 
 11805184.000000, 12.021541 , -6.903293, 13.383057, 3620265728.000000, -66.849998,  -10.150000,  24.710001, 0.000000,  0.000000 
 11824640.000000, 9.504292 , -6.482157, 15.340386, 3620286720.000000, -107.730003,  -66.709999,  -66.080002, 0.000000,  0.000000 
 11844608.000000, 5.891129 , -7.996813, 16.347765, 3620305664.000000, -37.240002,  -122.290001,  -141.820007, 0.000000,  0.000000 
 11864576.000000, 3.146562 , -9.566505, 17.142181, 3620325632.000000, 50.750000,  -171.850006,  -217.979996, 0.000000,  0.000000 
 11884544.000000, 1.792224 , -13.933406, 20.654846, 3620345600.000000, 67.830002,  -242.899994,  -289.100006, 0.000000,  0.000000 
 11905536.000000, -0.172283 , -18.821943, 22.564318, 3620365568.000000, 109.480003,  -323.329987,  -327.600006, 0.000000,  0.000000 
 11924480.000000, -1.428515 , -21.528227, 17.592033, 3620386560.000000, 181.020004,  -415.589996,  -335.089996, 0.000000,  0.000000 
 11944448.000000, 2.584249 , -20.166712, 13.600803, 3620405504.000000, 178.639999,  -496.019989,  -334.320007, 0.000000,  0.000000 
 11964416.000000, 2.433501 , -17.982061, 11.612368, 3620425472.000000, 82.180000,  -524.650024,  -278.110016, 0.000000,  0.000000 
 11984384.000000, 0.323031 , -15.950556, 9.812965, 3620445952.000000, -40.599998,  -489.929993,  -280.839996, 0.000000,  0.000000 
 12005376.000000, 0.574277 , -13.136597, 7.697710, 3620465920.000000, -86.169998,  -420.420013,  -313.250000, 0.000000,  0.000000 
 12024320.000000, -1.737189 , -7.518249, 5.714060, 3620486400.000000, -60.060001,  -293.160004,  -301.350006, 0.000000,  0.000000 
 12044288.000000, -2.904887 , -3.474378, 1.320838, 3620505856.000000, -11.480000,  -153.089996,  -273.279999, 0.000000,  0.000000 
 12064256.000000, -6.362515 , -0.299103, 0.878166, 3620525824.000000, 3.920000,  -42.139999,  -235.270004, 0.000000,  0.000000 
 12084224.000000, -10.738988 , 1.576870, 2.763710, 3620545792.000000, -61.180000,  34.860001,  -245.350006, 0.000000,  0.000000 
 12105216.000000, -11.772687 , 2.959922, 3.390630, 3620565760.000000, -102.970001,  97.160004,  -225.820007, 0.000000,  0.000000 
 12124160.000000, -13.619946 , 3.361916, 1.127020, 3620586752.000000, -76.230003,  148.960007,  -166.320007, 0.000000,  0.000000 
 12144128.000000, -16.998611 , 1.194018, -1.562513, 3620605696.000000, -31.500000,  170.800003,  -85.470001, 0.000000,  0.000000 
 12164096.000000, -16.070196 , 2.285146, -1.344766, 3620625664.000000, -33.950001,  185.850006,  -42.000000, 0.000000,  0.000000 
 12184064.000000, -12.715459 , 4.366901, 0.485743, 3620645632.000000, -103.250000,  217.839996,  29.960001, 0.000000,  0.000000 
 12205056.000000, -12.162716 , 1.823331, -0.880559, 3620665600.000000, -169.680008,  252.910004,  125.720001, 0.000000,  0.000000 
 12224512.000000, -12.691531 , -1.864009, 1.830509, 3620686592.000000, -171.009995,  274.470001,  184.169998, 0.000000,  0.000000 
 12244480.000000, -12.703495 , -7.908278, 11.052447, 3620705536.000000, -191.449997,  279.649994,  264.809998, 0.000000,  0.000000 
 12264448.000000, -15.034104 , -25.371098, 20.025534, 3620725504.000000, -269.500000,  281.540009,  353.709991, 0.000000,  0.000000 
 12284416.000000, -13.143774 , -40.476986, 27.948168, 3620765440.000000, -207.899994,  239.050003,  427.769989, 0.000000,  0.000000 
 12306944.000000, -5.173282 , -34.535610, 28.163523, 0.000000, 0.000000,  0.000000,  0.000000, 0.000000,  0.000000 
 12324352.000000, -0.524028 , -26.763721, 24.507290, 3620788480.000000, -76.510002,  154.910004,  417.130005, 0.000000,  0.000000 
 12344320.000000, 2.586641 , -21.700508, 23.535805, 3620825344.000000, -247.940002,  122.500000,  195.580002, 0.000000,  0.000000 
 12364288.000000, 4.697111 , -18.044275, 21.181267, 0.000000, 0.000000,  0.000000,  0.000000, 0.000000,  0.000000 
 12384256.000000, 4.027121 , -13.531413, 16.115660, 3620845312.000000, -189.070007,  99.750000,  147.419998, 0.000000,  0.000000 
 12405248.000000, 2.924029 , -7.738388, 12.227324, 3620865280.000000, -35.700001,  65.940002,  100.730003, 0.000000,  0.000000 
 12424192.000000, 3.517449 , -1.832902, 9.418150, 3620886272.000000, 42.279999,  23.379999,  59.150002, 0.000000,  0.000000 
 12444160.000000, 6.082555 , 2.632105, 6.240481, 3620905216.000000, 49.840000,  -31.010000,  48.790001, 0.000000,  0.000000 
 12464128.000000, 9.114261 , 3.615555, 4.965107, 3620925696.000000, 58.029999,  -79.379997,  68.809998, 0.000000,  0.000000 
 12484096.000000, 10.238889 , 0.796810, 4.512863, 3620945664.000000, 60.270000,  -114.379997,  77.769997, 0.000000,  0.000000 
 12505088.000000, 11.705689 , 1.048056, 3.280560, 3620965632.000000, 45.009998,  -129.289993,  72.800003, 0.000000,  0.000000 
 12524032.000000, 12.521641 , 3.945765, 2.416751, 3620986112.000000, 49.349998,  -137.199997,  75.739998, 0.000000,  0.000000 
 12544000.000000, 9.741181 , 4.223332, 3.783052, 3621005568.000000, 70.840004,  -135.660004,  45.990002, 0.000000,  0.000000 
 12563968.000000, 8.427521 , 0.265603, 5.395815, 3621025536.000000, 32.549999,  -115.500000,  -6.510000, 0.000000,  0.000000 
 12583936.000000, 9.296116 , -7.791030, 8.707481, 3621045504.000000, -65.099998,  -112.559998,  -55.439999, 0.000000,  0.000000 
 12604928.000000, 9.518648 , -25.024137, 15.383456, 3621065472.000000, -164.149994,  -127.540001,  -112.910004, 0.000000,  0.000000 
 12623872.000000, 5.711668 , -43.341198, 24.918856, 3621086464.000000, -226.869995,  -122.570000,  -185.710007, 5883499520.000000,  1006.110413 
 12643840.000000, -2.864209 , -35.085957, 16.723438, 3621105408.000000, -174.300003,  -117.110001,  -275.869995, 0.000000,  0.000000 
 12663808.000000, -0.765703 , -27.397820, 14.548362, 3621125376.000000, 126.910004,  -108.220001,  -415.869995, 0.000000,  0.000000 
 12683776.000000, -2.134398 , -20.470596, 11.387443, 3621145344.000000, 129.360001,  -188.930008,  -363.230011, 0.000000,  0.000000 
 12704768.000000, -8.377272 , -14.656039, 7.611568, 3621165312.000000, 92.190002,  -187.669998,  -376.390015, 0.000000,  0.000000 
 12724224.000000, -13.648660 , -8.145168, 4.546363, 3621186304.000000, 76.019997,  -132.509995,  -381.010010, 0.000000,  0.000000 
 12744192.000000, -10.305886 , -2.744568, 3.534199, 3621205248.000000, 39.549999,  -103.809998,  -326.970001, 0.000000,  0.000000 
 12764160.000000, -5.527420 , -0.241675, 2.029114, 3621225216.000000, -13.720000,  -63.560001,  -222.110001, 0.000000,  0.000000 
 12784128.000000, -3.247060 , 2.376073, 1.859223, 3621245184.000000, -21.070000,  -8.610000,  -167.860001, 0.000000,  0.000000 
 12804608.000000, -3.259024 , 4.543970, 2.737389, 3621265152.000000, -15.610000,  60.410000,  -145.460007, 0.000000,  0.000000 
 12824064.000000, -7.027720 , 5.611169, 3.182454, 3621286144.000000, -27.510000,  131.389999,  -117.529999, 0.000000,  0.000000 
 12844032.000000, -10.624132 , 4.986642, 2.067399, 3621305088.000000, -21.840000,  183.960007,  -93.169998, 0.000000,  0.000000 
 12864000.000000, -11.554940 , 4.828716, 1.167697, 3621325056.000000, 21.280001,  197.399994,  -31.219999, 0.000000,  0.000000 
 12883968.000000, -9.190832 , 5.230711, 1.040878, 3621345024.000000, 23.379999,  178.080002,  29.049999, 0.000000,  0.000000 
 12904960.000000, -7.807780 , 3.558127, 1.004985, 3621364992.000000, -17.430000,  139.930008,  80.849998, 0.000000,  0.000000 
 12923904.000000, -8.956335 , 0.669990, 2.155933, 3621385984.000000, -69.230003,  115.779999,  129.289993, 0.000000,  0.000000 
 12943872.000000, -8.508877 , -5.175675, 5.491528, 3621405440.000000, -146.089996,  114.379997,  177.520004, 0.000000,  0.000000 
 12963840.000000, -12.971491 , -17.350357, 12.423534, 3621425408.000000, -190.119995,  93.169998,  251.720001, 0.000000,  0.000000 
 12983808.000000, -16.297516 , -34.705502, 15.826129, 3621445376.000000, -217.419998,  74.269997,  283.429993, 0.000000,  0.000000 
 13004800.000000, -8.209774 , -32.298317, 18.376879, 3621465344.000000, -195.649994,  56.000000,  330.820007, 0.000000,  0.000000 
 13023744.000000, -3.479164 , -24.346970, 17.680567, 3621485824.000000, -117.180000,  -3.360000,  353.709991, 0.000000,  0.000000 
 13043712.000000, -1.328017 , -17.283358, 13.926227, 3621505280.000000, -118.790001,  -2.310000,  288.959991, 0.000000,  0.000000 
 13063680.000000, 1.770689 , -12.928421, 13.497912, 3621525248.000000, -104.650002,  26.389999,  215.600006, 0.000000,  0.000000 
 13083648.000000, 2.584249 , -12.086146, 10.679168, 3621545216.000000, -50.330002,  38.920002,  231.419998, 0.000000,  0.000000 
 13104640.000000, 1.428515 , -8.973085, 7.235896, 3621565184.000000, 33.670002,  24.010000,  234.009995, 0.000000,  0.000000 
 13123584.000000, 2.744568 , -5.295317, 5.998806, 3621586176.000000, 62.090000,  5.040000,  229.250000, 0.000000,  0.000000 
 13143552.000000, 6.185446 , -4.170690, 3.972085, 3621605120.000000, 4.410000,  -25.549999,  236.110001, 0.000000,  0.000000 
 13163520.000000, 8.384450 , -4.211368, 1.902294, 3621625088.000000, -69.440002,  -66.220001,  228.410004, 0.000000,  0.000000 
 13183488.000000, 10.186246 , -3.242275, 0.691526, 3621645056.000000, -91.559998,  -79.660004,  191.520004, 0.000000,  0.000000 
 13204480.000000, 12.031113 , -3.058028, 2.782853, 3621665024.000000, -130.199997,  -83.160004,  172.479996, 0.000000,  0.000000 
 13223936.000000, 13.485948 , -6.515656, 6.041877, 3621686016.000000, -169.610001,  -72.309998,  134.399994, 0.000000,  0.000000 
 13243904.000000, 14.266008 , -8.501699, 7.341179, 3621704960.000000, -166.110001,  -57.680000,  93.029999, 0.000000,  0.000000 
 13263872.000000, 14.096118 , -11.011770, 8.903693, 3621724928.000000, -89.739998,  -28.910000,  37.660000, 0.000000,  0.000000 
 13283840.000000, 9.982857 , -12.138789, 10.889735, 3621744896.000000, 7.910000,  -1.470000,  -60.130001, 0.000000,  0.000000 
 13306368.000000, 6.362515 , -16.469799, 11.389835, 3621764864.000000, 60.549999,  16.730000,  -188.160004, 0.000000,  0.000000 
 13323776.000000, 4.685147 , -22.325035, 12.854243, 3621787904.000000, 72.870003,  -3.360000,  -289.869995, 0.000000,  0.000000 
 13343744.000000, 4.689932 , -27.254250, 14.837894, 3621804800.000000, 47.599998,  -36.889999,  -358.049988, 0.000000,  0.000000 
 13363712.000000, 3.110669 , -30.077780, 15.184854, 3621824768.000000, 7.980000,  -73.010002,  -388.220001, 0.000000,  0.000000 
 13383680.000000, -0.473779 , -27.426535, 13.804193, 3621844736.000000, -6.230000,  -97.370003,  -424.339996, 0.000000,  0.000000 
 13404672.000000, -3.943372 , -23.499910, 11.267801, 3621864704.000000, -5.320000,  -87.150002,  -437.010010, 0.000000,  0.000000 
 13423616.000000, -5.532206 , -20.171494, 10.478169, 3621885696.000000, 25.900000,  -82.669998,  -438.200012, 0.000000,  0.000000 
 13443584.000000, -8.195417 , -17.072790, 10.896914, 3621905152.000000, 61.950001,  -71.610001,  -413.000000, 0.000000,  0.000000 
 13463552.000000, -10.078569 , -14.086546, 7.259824, 3621925120.000000, 110.110001,  -28.559999,  -377.649994, 0.000000,  0.000000 
 13484032.000000, -10.777272 , -8.269595, 0.251246, 3621945088.000000, 224.770004,  -2.240000,  -303.309998, 0.000000,  0.000000 
 13504512.000000, -11.736795 , -1.112662, -2.833102, 3621965056.000000, 298.200012,  -20.299999,  -213.009995, 0.000000,  0.000000 
 13523456.000000, -13.313664 , 3.433701, -2.926422, 3621985536.000000, 212.800003,  -42.490002,  -156.449997, 0.000000,  0.000000 
 13543424.000000, -14.462219 , 1.347159, -2.328217, 3622004992.000000, 3.780000,  -8.470000,  -142.240005, 0.000000,  0.000000 
 13563392.000000, -12.574283 , -1.761117, 0.574277, 3622024960.000000, -161.070007,  46.549999,  -139.649994, 0.000000,  0.000000 
 13583360.000000, -10.782058 , -1.222732, 3.486342, 3622044928.000000, -189.210007,  63.910000,  -86.590004, 0.000000,  0.000000 
 13604352.000000, -9.372685 , 0.205783, 4.206582, 3622064896.000000, -108.220001,  54.599998,  4.410000, 0.000000,  0.000000 
 13623296.000000, -7.276574 , -0.241675, 4.335794, 3622085888.000000, -56.910000,  47.529999,  58.240002, 5884498432.000000,  1006.111877 
 13643264.000000, -5.309673 , -0.906880, 5.338387, 3622104832.000000, -61.599998,  26.389999,  87.849998, 0.000000,  0.000000 
 13663232.000000, -3.349952 , -2.620141, 9.387043, 3622124800.000000, -85.400002,  4.550000,  132.720001, 0.000000,  0.000000 
 13683200.000000, -1.311267 , -6.879365, 9.190832, 3622144768.000000, -83.160004,  -15.750000,  194.600006, 0.000000,  0.000000 
 13704192.000000, 0.792024 , -13.138988, 6.960721, 3622164736.000000, -46.970001,  -26.880001,  271.600006, 0.000000,  0.000000 
 13723648.000000, 1.234696 , -23.511873, 11.909079, 3622185728.000000, -47.740002,  -22.049999,  374.779999, 0.000000,  0.000000 
 13743616.000000, -3.921836 , -31.788649, 20.233707, 3622204672.000000, -188.860001,  27.790001,  445.619995, 0.000000,  0.000000 
 13763584.000000, -1.897508 , -27.730423, 14.718252, 3622224640.000000, -258.299988,  44.799999,  382.339996, 0.000000,  0.000000 
 13783552.000000, 8.023134 , -26.557940, 15.383456, 3622244608.000000, -54.670002,  34.299999,  327.880005, 0.000000,  0.000000 
 13804544.000000, 10.277173 , -21.341587, 12.856635, 3622264576.000000, -42.490002,  3.080000,  323.470001, 0.000000,  0.000000 
 13823488.000000, 4.905287 , -11.059627, 10.511670, 3622285568.000000, 73.150002,  1.400000,  233.729996, 0.000000,  0.000000 
 13843456.000000, 3.113062 , -5.895915, 7.075576, 3622304512.000000, 135.660004,  0.140000,  130.199997, 0.000000,  0.000000 
 13863424.000000, 4.807181 , -3.359523, 3.694518, 3622324480.000000, 113.610001,  -46.689999,  114.239998, 0.000000,  0.000000 
 13883392.000000, 6.113662 , -1.313660, 0.136391, 3622344448.000000, 99.330002,  -89.110001,  133.419998, 0.000000,  0.000000 
 13904384.000000, 7.082755 , 0.078963, -0.564706, 3622364416.000000, 66.639999,  -100.519997,  125.440002, 0.000000,  0.000000 
 13923328.000000, 8.453842 , 1.689333, 2.294717, 3622385408.000000, 23.100000,  -90.090004,  115.570000, 0.000000,  0.000000 
 13943296.000000, 10.497313 , 1.387837, 4.086941, 3622404864.000000, -32.130001,  -88.760002,  103.040001, 0.000000,  0.000000 
 13963264.000000, 12.758532 , 0.595813, 2.313859, 3622424832.000000, 11.200000,  -106.889999,  85.750000, 0.000000,  0.000000 
 13983232.000000, 12.571891 , 2.931208, 0.445065, 3622444800.000000, 140.279999,  -117.809998,  52.290001, 0.000000,  0.000000 
 14004224.000000, 10.423136 , 4.625326, 0.725025, 3622464768.000000, 204.960007,  -93.449997,  -20.580000, 0.000000,  0.000000 
 14023168.000000, 10.301102 , -0.835095, 1.730011, 3622485248.000000, 137.830002,  -71.959999,  -97.720001, 0.000000,  0.000000 
 14043136.000000, 14.545969 , -11.619547, 6.941578, 3622504704.000000, -43.750000,  -96.739998,  -155.470001, 0.000000,  0.000000 
 14063104.000000, 20.343777 , -37.395031, 13.165311, 3622524672.000000, -275.589996,  -138.740005,  -198.169998, 0.000000,  0.000000 
 14083072.000000, 9.853643 , -40.634914, 17.575283, 3622544640.000000, -374.989990,  -119.840004,  -180.389999, 0.000000,  0.000000 
 14104064.000000, 3.546163 , -28.096525, 14.242079, 3622564608.000000, -227.430008,  -38.220001,  -355.390015, 0.000000,  0.000000 
 14123008.000000, 4.275974 , -22.052256, 11.315658, 3622585600.000000, -20.299999,  -60.410000,  -421.470001, 0.000000,  0.000000 
 14142976.000000, 4.460221 , -16.967505, 10.782058, 3622604544.000000, -2.660000,  -104.090004,  -370.860016, 0.000000,  0.000000 
 14162944.000000, 1.330409 , -12.526425, 11.631511, 3622624512.000000, 17.080000,  -99.540001,  -376.110016, 0.000000,  0.000000 
 14183424.000000, -3.002992 , -9.841680, 9.863215, 3622644480.000000, 9.450000,  -42.700001,  -355.880005, 0.000000,  0.000000 
 14203904.000000, -6.537192 , -5.161318, 6.876972, 3622664448.000000, 45.080002,  22.469999,  -298.200012, 0.000000,  0.000000 
 14223360.000000, -8.382057 , -0.308674, 5.067998, 3622685440.000000, 91.000000,  46.270000,  -224.419998, 0.000000,  0.000000 
 14243328.000000, -9.047262 , 2.505285, 3.653840, 3622704384.000000, 105.349998,  36.400002,  -174.860001, 0.000000,  0.000000 
 14263296.000000, -10.743774 , 3.512664, 2.916851, 3622724352.000000, 85.050003,  58.799999,  -134.399994, 0.000000,  0.000000 
 14283264.000000, -12.600604 , 3.244668, 2.577070, 3622744320.000000, 49.910000,  92.190002,  -98.209999, 0.000000,  0.000000 
 14305792.000000, -13.916656 , 2.892922, 1.648655, 3622764288.000000, 36.119999,  106.400002,  -57.610001, 0.000000,  0.000000 
 14323200.000000, -11.420943 , 3.002992, 0.981057, 3622787328.000000, 49.139999,  96.739998,  -16.730000, 0.000000,  0.000000 
 14343168.000000, -8.169096 , 2.110470, 0.780060, 3622804224.000000, 42.840000,  81.620003,  49.840000, 0.000000,  0.000000 
 14363136.000000, -6.958328 , -0.540778, 1.641476, 3622824192.000000, 10.780000,  79.239998,  120.400002, 0.000000,  0.000000 
 14383104.000000, -7.451250 , -3.242275, 7.195218, 3622844160.000000, -38.779999,  96.949997,  176.399994, 0.000000,  0.000000 
 14404096.000000, -6.905686 , -9.781858, 11.626726, 3622864128.000000, -101.639999,  115.500000,  232.050003, 0.000000,  0.000000 
 14423040.000000, -4.835894 , -18.960728, 16.139589, 3622885120.000000, -106.190002,  125.370003,  303.380005, 0.000000,  0.000000 
 14443008.000000, -2.376073 , -25.916660, 21.798615, 3622904576.000000, -93.940002,  142.940002,  383.390015, 0.000000,  0.000000 
 14462976.000000, -3.964907 , -24.983461, 21.269800, 3622924544.000000, -124.529999,  148.470001,  420.489990, 0.000000,  0.000000 
 14482944.000000, 0.052642 , -19.805393, 20.394028, 3622944512.000000, -85.400002,  155.960007,  347.899994, 0.000000,  0.000000 
 14503936.000000, 6.549156 , -17.479570, 20.994625, 3622964480.000000, -81.059998,  152.740005,  321.230011, 0.000000,  0.000000 
 14522880.000000, 7.776673 , -16.429121, 17.087147, 3622985472.000000, -114.169998,  135.169998,  295.329987, 0.000000,  0.000000 
 14542848.000000, 4.192225 , -10.609775, 13.998013, 3623004416.000000, -60.900002,  111.300003,  206.710007, 0.000000,  0.000000 
 14562816.000000, 4.259224 , -6.494121, 9.820145, 3623024384.000000, 11.410000,  90.510002,  135.169998, 0.000000,  0.000000 
 14582784.000000, 7.702496 , -3.481557, 5.603990, 3623044352.000000, 56.000000,  35.070000,  133.630005, 0.000000,  0.000000 
 14603776.000000, 10.418350 , -0.973879, 3.211168, 3623064320.000000, 49.209999,  -26.389999,  156.729996, 0.000000,  0.000000 
 14622720.000000, 10.827522 , 0.399601, 4.862216, 3623085312.000000, -7.980000,  -48.439999,  144.270004, 5885498368.000000,  1006.111023 
 14642688.000000, 11.440084 , -0.129212, 5.130211, 3623104256.000000, -81.410004,  -56.070000,  117.389999, 0.000000,  0.000000 
 14663168.000000, 15.127424 , -0.835095, 3.297310, 3623124224.000000, -81.199997,  -87.989998,  90.790001, 0.000000,  0.000000 
 14683136.000000, 17.190037 , 0.019143, 1.607977, 3623144192.000000, 6.720000,  -132.789993,  42.910000, 0.000000,  0.000000 
 14703616.000000, 12.870994 , -0.504886, 3.357130, 3623164160.000000, 55.369999,  -133.699997,  -49.000000, 0.000000,  0.000000 
 14723072.000000, 10.557133 , -7.384251, 5.663811, 3623185152.000000, -25.760000,  -92.959999,  -156.520004, 0.000000,  0.000000 
 14743040.000000, 12.827922 , -19.719254, 9.128618, 3623204096.000000, -144.339996,  -96.739998,  -227.850006, 0.000000,  0.000000 
 14763008.000000, 15.067604 , -33.635906, 14.414362, 3623224064.000000, -176.610001,  -127.680000,  -287.070007, 0.000000,  0.000000 
 14782976.000000, 6.226124 , -36.327831, 16.888542, 3623244032.000000, -96.180000,  -109.480003,  -313.529999, 0.000000,  0.000000 
 14803968.000000, 3.400201 , -28.845474, 20.896519, 3623264000.000000, 59.080002,  -99.540001,  -457.239990, 0.000000,  0.000000 
 14822912.000000, 2.316252 , -20.693129, 17.125431, 3623284992.000000, 182.979996,  -154.000000,  -424.760010, 0.000000,  0.000000 
 14842880.000000, -2.208575 , -15.675381, 16.036697, 3623303936.000000, 216.649994,  -215.740005,  -397.390015, 0.000000,  0.000000 
 14862848.000000, -7.386643 , -8.319844, 15.821342, 3623323904.000000, 156.240005,  -229.529999,  -391.369995, 0.000000,  0.000000 
 14882816.000000, -5.632704 , -2.792424, 12.459428, 3623343872.000000, 44.869999,  -200.059998,  -373.100006, 0.000000,  0.000000 
 14903808.000000, -5.438886 , 1.045663, 7.716853, 3623364352.000000, 0.560000,  -141.050003,  -268.029999, 0.000000,  0.000000 
 14922752.000000, -6.685547 , 3.888337, 4.426722, 3623384832.000000, -9.660000,  -94.430000,  -208.389999, 0.000000,  0.000000 
 14942720.000000, -7.142576 , 5.525027, 3.613162, 3623404288.000000, -56.770000,  -47.880001,  -178.710007, 0.000000,  0.000000 
 14962688.000000, -8.322237 , 5.716454, 2.895315, 3623424256.000000, -107.099998,  5.390000,  -150.570007, 0.000000,  0.000000 
 14982656.000000, -10.411172 , 3.426522, 2.029114, 3623444224.000000, -97.650002,  44.730000,  -128.169998, 0.000000,  0.000000 
 15003648.000000, -11.985649 , 2.268396, -0.248854, 3623464192.000000, -41.090000,  67.480003,  -82.459999, 0.000000,  0.000000 
 15022592.000000, -10.626525 , 2.569891, -1.320838, 3623485184.000000, -16.170000,  82.389999,  -24.290001, 0.000000,  0.000000 
 15042560.000000, -8.889337 , 0.748954, -0.155533, 3623504128.000000, -29.960001,  96.669998,  31.150000, 0.000000,  0.000000 
 15062528.000000, -8.248059 , -0.351745, 3.402594, 3623524096.000000, -35.349998,  103.809998,  80.919998, 0.000000,  0.000000 
 15082496.000000, -6.262017 , -1.799403, 6.608976, 3623544064.000000, -29.049999,  120.610001,  171.639999, 0.000000,  0.000000 
 15103488.000000, -5.572884 , -8.386844, 7.731210, 3623564032.000000, 6.510000,  130.830002,  221.970001, 0.000000,  0.000000 
 15122432.000000, -5.943772 , -16.199409, 16.663616, 3623585024.000000, 13.090000,  158.130005,  290.920013, 0.000000,  0.000000 
 15142400.000000, -5.723632 , -20.889341, 25.875984, 3623603968.000000, -33.180000,  194.529999,  339.850006, 0.000000,  0.000000 
 15162880.000000, -7.865208 , -27.639494, 26.512474, 3623623936.000000, -111.930000,  212.449997,  428.540009, 0.000000,  0.000000 
 15182848.000000, -2.617748 , -27.259035, 24.473791, 3623643904.000000, -153.789993,  214.479996,  409.010010, 0.000000,  0.000000 
 15203328.000000, 5.905487 , -18.221344, 25.138996, 3623663872.000000, -65.169998,  197.889999,  365.959991, 0.000000,  0.000000 
 15222784.000000, 7.305287 , -13.617554, 22.863419, 3623684864.000000, 28.700001,  212.449997,  336.140015, 0.000000,  0.000000 
 15242752.000000, 4.333402 , -10.765309, 19.056440, 3623703808.000000, 95.830002,  221.479996,  226.869995, 0.000000,  0.000000 
 15262720.000000, 5.663811 , -5.977271, 13.220345, 3623723776.000000, 211.889999,  195.860001,  144.759995, 0.000000,  0.000000 
 15282688.000000, 11.093125 , -1.744368, 7.219146, 3623743744.000000, 288.119995,  147.630005,  137.270004, 0.000000,  0.000000 
 15305216.000000, 11.186446 , 1.629512, 5.453243, 3623763712.000000, 247.449997,  108.849998,  140.839996, 0.000000,  0.000000 
 15322624.000000, 8.678767 , 2.151148, 7.625926, 3623786752.000000, 68.669998,  94.570000,  97.790001, 0.000000,  0.000000 
 15342592.000000, 11.246266 , 1.387837, 6.362515, 3623803648.000000, -110.389999,  67.970001,  82.389999, 0.000000,  0.000000 
 15362560.000000, 13.665410 , 2.359323, 5.907879, 3623823616.000000, -139.369995,  -3.010000,  103.599998, 0.000000,  0.000000 
 15382528.000000, 11.636297 , 3.787838, 4.864608, 3623843584.000000, -65.519997,  -78.470001,  106.750000, 0.000000,  0.000000 
 15403520.000000, 11.418550 , 4.022335, 2.251646, 3623864064.000000, -15.330000,  -122.360001,  57.330002, 0.000000,  0.000000 
 15422464.000000, 11.480762 , 2.282753, 4.465007, 3623884544.000000, -21.910000,  -159.460007,  17.360001, 0.000000,  0.000000 
 15442432.000000, 10.243673 , -3.936193, 9.408579, 3623904000.000000, -90.860001,  -185.990005,  -26.600000, 0.000000,  0.000000 
 15462400.000000, 11.736795 , -16.689938, 18.577875, 3623923968.000000, -199.009995,  -191.729996,  -101.779999, 0.000000,  0.000000 
 15482368.000000, 12.224932 , -37.490742, 31.613972, 3623943936.000000, -275.450012,  -205.449997,  -182.279999, 0.000000,  0.000000 
 15503360.000000, 0.827917 , -34.794033, 27.182467, 3623963904.000000, -248.220001,  -215.389999,  -239.680008, 0.000000,  0.000000 
 15522304.000000, -1.359123 , -23.760729, 22.526033, 3623984896.000000, -21.139999,  -210.490005,  -413.209991, 0.000000,  0.000000 
 15542272.000000, -2.572284 , -16.345371, 15.873986, 3624003840.000000, 45.570000,  -228.550003,  -379.890015, 0.000000,  0.000000 
 15562240.000000, -6.369694 , -10.085747, 14.758930, 3624023808.000000, 34.369999,  -225.119995,  -382.619995, 0.000000,  0.000000 
 15582208.000000, -8.382057 , -6.652047, 12.985848, 3624043776.000000, -0.210000,  -180.669998,  -387.100006, 0.000000,  0.000000 
 15603200.000000, -8.219346 , -3.242275, 8.343772, 3624084736.000000, 72.029999,  -65.940002,  -247.240005, 5886497792.000000,  1006.109680 
 15622144.000000, -8.130811 , 0.227318, 2.699104, 0.000000, 0.000000,  0.000000,  0.000000, 0.000000,  0.000000 
 15642624.000000, -6.159126 , 4.658825, 2.091327, 3624103680.000000, 115.500000,  -52.990002,  -202.229996, 0.000000,  0.000000 
 15662592.000000, -6.235696 , 6.699903, 1.172483, 3624123648.000000, 65.590004,  -28.700001,  -161.279999, 0.000000,  0.000000 
 15682560.000000, -7.537392 , 5.032106, 0.102891, 3624143616.000000, -2.870000,  32.130001,  -131.110001, 0.000000,  0.000000 
 15703040.000000, -9.157332 , 2.553142, -1.660619, 3624163584.000000, -42.420002,  73.150002,  -99.610001, 0.000000,  0.000000 
 15722496.000000, -11.648260 , 2.390430, -1.028914, 3624184576.000000, -73.849998,  93.590004,  -42.070000, 0.000000,  0.000000 
 15742464.000000, -9.310472 , 2.756532, 0.203390, 3624203520.000000, -107.940002,  92.470001,  3.710000, 0.000000,  0.000000 
 15762432.000000, -6.293124 , 2.249253, 0.416351, 3624223488.000000, -98.419998,  74.059998,  82.949997, 0.000000,  0.000000 
 15782400.000000, -5.922236 , 0.669990, 1.160519, 3624243456.000000, -65.870003,  68.320000,  143.850006, 0.000000,  0.000000 
 15803392.000000, -5.974878 , -2.292324, 6.025128, 3624263424.000000, -51.660000,  87.290001,  197.889999, 0.000000,  0.000000 
 15822336.000000, -5.718846 , -9.750752, 11.531013, 3624284416.000000, -74.059998,  111.090004,  248.430008, 0.000000,  0.000000 
 15842304.000000, -4.515256 , -20.104498, 17.814566, 3624303360.000000, -90.160004,  122.080002,  283.079987, 0.000000,  0.000000 
 15862272.000000, -1.153341 , -28.637302, 24.346970, 3624323328.000000, -98.070000,  135.100006,  347.549988, 0.000000,  0.000000 
 15882240.000000, -1.651048 , -23.301306, 21.243477, 3624343808.000000, -95.620003,  114.730003,  406.489990, 0.000000,  0.000000 
 15903232.000000, 2.141576 , -17.618353, 18.625732, 3624363776.000000, -49.209999,  101.639999,  313.600006, 0.000000,  0.000000 
 15922176.000000, 9.111869 , -12.598210, 20.231316, 3624384768.000000, -46.689999,  92.820000,  277.549988, 0.000000,  0.000000 
 15942144.000000, 8.915657 , -10.365707, 17.840885, 3624403712.000000, -71.190002,  104.300003,  277.899994, 0.000000,  0.000000 
 15962112.000000, 4.139583 , -9.243474, 14.811572, 3624423680.000000, -24.780001,  105.419998,  212.800003, 0.000000,  0.000000 
 15982080.000000, 4.388437 , -6.259624, 11.452050, 3624443648.000000, 53.340000,  95.199997,  131.460007, 0.000000,  0.000000 
 16003072.000000, 8.628519 , -3.397808, 7.757531, 3624463616.000000, 115.709999,  49.770000,  148.960007, 0.000000,  0.000000 
 16022016.000000, 11.669796 , -0.559920, 5.161318, 3624484608.000000, 151.479996,  -1.820000,  182.210007, 0.000000,  0.000000 
 16041984.000000, 11.375479 , 1.799403, 5.953342, 3624503552.000000, 129.779999,  -23.520000,  171.080002, 0.000000,  0.000000 
 16061952.000000, 10.619347 , 2.196611, 5.065606, 3624523520.000000, 55.369999,  -28.840000,  139.580002, 0.000000,  0.000000 
 16081920.000000, 13.024135 , 0.658026, 3.452843, 3624543488.000000, 32.270000,  -66.430000,  118.160004, 0.000000,  0.000000 
 16102912.000000, 14.349757 , 1.753939, 4.110869, 3624563456.000000, 78.750000,  -134.050003,  84.070000, 0.000000,  0.000000 
 16122368.000000, 10.901700 , 2.009971, 7.159326, 3624584448.000000, 40.320000,  -181.789993,  -8.120000, 0.000000,  0.000000 
 16142336.000000, 8.575876 , -2.505285, 8.740981, 3624603392.000000, -50.119999,  -186.479996,  -104.300003, 0.000000,  0.000000 
 16162304.000000, 10.705488 , -10.801201, 9.276974, 3624623360.000000, -113.050003,  -219.449997,  -181.580002, 0.000000,  0.000000 
 16182272.000000, 15.330814 , -23.155344, 17.005791, 3624643328.000000, -147.770004,  -273.489990,  -240.169998, 0.000000,  0.000000 
 16202752.000000, 9.056834 , -28.486553, 18.041883, 3624663296.000000, -155.820007,  -268.029999,  -211.539993, 0.000000,  0.000000 
 16222208.000000, 4.713861 , -22.990240, 15.153747, 3624684288.000000, -171.360001,  -220.009995,  -288.190002, 0.000000,  0.000000 
 16242176.000000, 1.375873 , -15.629916, 10.987842, 3624703232.000000, -93.660004,  -196.630005,  -308.350006, 0.000000,  0.000000 
 16262144.000000, 0.234497 , -11.200804, 9.678967, 3624723200.000000, -68.110001,  -184.029999,  -310.940002, 0.000000,  0.000000 
 16282112.000000, 0.100499 , -7.666604, 9.477970, 3624743168.000000, -58.170002,  -153.369995,  -291.059998, 0.000000,  0.000000 
 16305152.000000, -1.179662 , -4.374080, 8.470592, 3624763136.000000, -45.080002,  -95.340004,  -247.449997, 0.000000,  0.000000 
 16322048.000000, -2.696711 , -1.335195, 5.486742, 3624786176.000000, -11.690000,  -20.510000,  -196.419998, 0.000000,  0.000000 
 16342016.000000, -3.084348 , 1.146162, 3.852444, 3624803072.000000, 26.880001,  24.500000,  -138.949997, 0.000000,  0.000000 
 16361984.000000, -4.371687 , 4.728218, 4.773681, 3624823552.000000, 38.080002,  55.860001,  -107.239998, 0.000000,  0.000000 
 16381952.000000, -6.551548 , 4.795217, 4.115655, 3624843520.000000, -27.160000,  96.040001,  -110.739998, 0.000000,  0.000000 
 16402944.000000, -8.630912 , 2.739782, 2.854637, 3624883968.000000, -38.290001,  156.589996,  -80.849998, 0.000000,  0.000000 
 16421888.000000, -10.791630 , 4.022335, 3.345166, 0.000000, 0.000000,  0.000000,  0.000000, 0.000000,  0.000000 
 16441856.000000, -9.958927 , 5.517848, 1.964507, 3624903424.000000, -19.879999,  137.759995,  -28.559999, 0.000000,  0.000000 
 16461824.000000, -8.183454 , 4.297509, 0.926022, 3624923392.000000, -24.010000,  123.340004,  23.170000, 0.000000,  0.000000 
 16481792.000000, -7.209574 , 1.564906, -0.349352, 3624943360.000000, -55.720001,  128.240005,  35.910000, 0.000000,  0.000000 
 16502784.000000, -7.128219 , 1.270589, 1.043271, 3624963328.000000, -83.930000,  136.220001,  78.050003, 0.000000,  0.000000 
 16521728.000000, -7.822137 , -0.971486, 6.850651, 3624984320.000000, -126.070000,  148.399994,  159.669998, 0.000000,  0.000000 
 16541696.000000, -11.621940 , -11.054840, 9.784252, 3625003264.000000, -137.830002,  163.589996,  252.070007, 0.000000,  0.000000 
 16561664.000000, -16.536798 , -27.522245, 19.671394, 3625023232.000000, -133.070007,  182.139999,  296.029999, 0.000000,  0.000000 
 16581632.000000, -14.203795 , -43.281376, 28.405197, 3625043200.000000, -266.140015,  194.880005,  328.369995, 0.000000,  0.000000 
 16602624.000000, -3.292524 , -27.833313, 23.873190, 3625063168.000000, -289.100006,  170.589996,  339.709991, 0.000000,  0.000000 
 16622080.000000, 5.472386 , -17.766708, 21.882364, 3625084160.000000, -103.320000,  103.669998,  299.739990, 5887497216.000000,  1006.108459 
 16642048.000000, 8.104490 , -13.155738, 17.745173, 3625103104.000000, -48.509998,  116.270004,  262.500000, 0.000000,  0.000000 
 16662016.000000, 3.227918 , -9.899107, 17.343178, 3625123072.000000, -36.119999,  134.470001,  192.430008, 0.000000,  0.000000 
 16681984.000000, 2.325824 , -8.685946, 14.388042, 3625143040.000000, -45.430000,  139.509995,  101.220001, 0.000000,  0.000000 
 16702464.000000, 7.214360 , -5.364708, 10.076177, 3625163008.000000, 15.610000,  88.690002,  101.779999, 0.000000,  0.000000 
 16721920.000000, 11.265409 , -1.071985, 4.754539, 3625184000.000000, 94.360001,  16.240000,  148.399994, 0.000000,  0.000000 
 16741888.000000, 11.272588 , 2.725425, 2.873780, 3625202944.000000, 93.239998,  -23.870001,  129.779999, 0.000000,  0.000000 
 16761856.000000, 9.253045 , 2.452643, 4.761717, 3625222912.000000, -16.240000,  -24.430000,  89.180000, 0.000000,  0.000000 
 16781824.000000, 11.526227 , 0.126820, 6.479764, 3625242880.000000, -113.050003,  -40.389999,  72.660004, 0.000000,  0.000000 
 16802816.000000, 13.473984 , 0.751346, 3.524628, 3625262848.000000, -82.459999,  -98.209999,  70.980003, 0.000000,  0.000000 
 16821760.000000, 11.095518 , 1.433301, 0.744168, 3625283840.000000, 4.550000,  -131.529999,  39.480000, 0.000000,  0.000000 
 16841728.000000, 9.367901 , 0.162712, 3.687340, 3625302784.000000, 12.880000,  -114.379997,  -37.170002, 0.000000,  0.000000 
 16861696.000000, 10.054641 , -6.865008, 7.716853, 3625323264.000000, -84.699997,  -104.510002,  -79.519997, 0.000000,  0.000000 
 16881664.000000, 11.454442 , -22.382463, 13.674981, 3625343232.000000, -173.669998,  -118.020004,  -129.500000, 0.000000,  0.000000 
 16902656.000000, 10.317852 , -42.642494, 25.663025, 3625363200.000000, -189.559998,  -125.020004,  -209.649994, 0.000000,  0.000000 
 16921600.000000, -1.428515 , -41.675793, 20.322243, 3625383680.000000, -183.610001,  -112.699997,  -285.950012, 0.000000,  0.000000 
 16941568.000000, -2.689533 , -29.716463, 17.448462, 3625403136.000000, 56.840000,  -96.809998,  -446.880005, 0.000000,  0.000000 
 16961536.000000, -0.784846 , -20.630917, 12.887742, 3625423104.000000, 86.660004,  -152.250000,  -425.529999, 0.000000,  0.000000 
 16981504.000000, -2.562713 , -15.024533, 11.983256, 3625443072.000000, 67.970001,  -175.770004,  -412.579987, 0.000000,  0.000000 
 17002496.000000, -7.640282 , -11.411370, 11.590833, 3625463040.000000, 58.099998,  -163.520004,  -415.730011, 0.000000,  0.000000 
 17021440.000000, -9.832108 , -7.666604, 8.513663, 3625484032.000000, 21.770000,  -105.699997,  -417.970001, 0.000000,  0.000000 
 17041408.000000, -8.597411 , -3.285345, 2.857030, 3625502976.000000, 34.160000,  -31.360001,  -364.839996, 0.000000,  0.000000 
 17061376.000000, -7.714460 , -0.988236, 1.708475, 3625522944.000000, 114.660004,  -4.970000,  -249.619995, 0.000000,  0.000000 
 17081856.000000, -6.503692 , 3.821337, 1.849652, 3625542912.000000, 144.899994,  -8.960000,  -196.000000, 0.000000,  0.000000 
 17102336.000000, -9.288938 , 4.677969, -0.579063, 3625563392.000000, 104.790001,  0.140000,  -169.889999, 0.000000,  0.000000 
 17121792.000000, -10.667203 , 3.395415, -0.882952, 3625583872.000000, 63.700001,  55.160000,  -131.250000, 0.000000,  0.000000 
 17141760.000000, -12.856635 , 2.414358, -1.663012, 3625602816.000000, 16.100000,  87.150002,  -96.459999, 0.000000,  0.000000 
 17161728.000000, -12.832708 , 2.005185, -1.143769, 3625622784.000000, -53.970001,  97.019997,  -43.189999, 0.000000,  0.000000 
 17181696.000000, -10.906486 , 0.124427, -0.468993, 3625642752.000000, -84.419998,  86.309998,  26.530001, 0.000000,  0.000000 
 17202688.000000, -8.085347 , -1.804188, -0.265603, 3625662720.000000, -73.430000,  77.769997,  97.790001, 0.000000,  0.000000 
 17221632.000000, -6.912865 , -2.088934, 2.806781, 3625683712.000000, -26.250000,  77.769997,  202.649994, 0.000000,  0.000000 
 17241600.000000, -7.042077 , -5.103891, 7.700103, 3625702656.000000, 17.430000,  92.540001,  276.850006, 0.000000,  0.000000 
 17261568.000000, -6.762117 , -9.927821, 11.710474, 3625722624.000000, 36.610001,  134.960007,  330.890015, 0.000000,  0.000000 
 17281536.000000, -5.606383 , -18.364914, 21.064018, 3625742592.000000, -25.549999,  185.779999,  396.410004, 0.000000,  0.000000 
 17304576.000000, -8.353344 , -33.676586, 26.589045, 3625762560.000000, -201.600006,  216.020004,  428.329987, 0.000000,  0.000000 
 17321472.000000, -7.042077 , -25.830521, 23.614769, 3625785600.000000, -278.320007,  230.229996,  388.989990, 0.000000,  0.000000 
 17341440.000000, 3.634698 , -18.484554, 23.944977, 3625803008.000000, -104.160004,  176.960007,  327.110016, 0.000000,  0.000000 
 17361408.000000, 8.312666 , -15.565310, 18.302702, 3625822976.000000, -36.540001,  130.550003,  331.730011, 0.000000,  0.000000 
 17381376.000000, 5.491528 , -10.181459, 12.064612, 3625842944.000000, 0.560000,  107.449997,  228.410004, 0.000000,  0.000000 
 17402368.000000, 4.551149 , -5.438886, 7.779066, 3625862912.000000, 42.980000,  86.379997,  122.779999, 0.000000,  0.000000 
 17421312.000000, 8.382057 , -2.600998, 4.505685, 3625883392.000000, 19.950001,  52.430000,  95.690002, 0.000000,  0.000000 
 17441280.000000, 12.193825 , -0.758525, 4.876573, 3625902848.000000, -35.700001,  3.990000,  117.669998, 0.000000,  0.000000 
 17461248.000000, 13.584054 , -1.213161, 5.426922, 3625922816.000000, -100.800003,  -21.070000,  100.309998, 0.000000,  0.000000 
 17481216.000000, 13.674981 , -1.780260, 5.620740, 3625942784.000000, -95.340004,  -37.240002,  78.680000, 0.000000,  0.000000 
 17502208.000000, 12.976277 , -1.349552, 4.309474, 3625962752.000000, -10.360000,  -61.320000,  50.470001, 0.000000,  0.000000 
 17521152.000000, 13.031311 , 0.720240, 2.804388, 3625983744.000000, 91.070000,  -80.570000,  -3.570000, 0.000000,  0.000000 
 17541120.000000, 10.212566 , 0.593420, 4.771288, 3626002688.000000, 100.309998,  -83.790001,  -57.959999, 0.000000,  0.000000 
 17561088.000000, 6.994221 , -7.178468, 10.348958, 3626022656.000000, -4.690000,  -63.000000,  -108.779999, 0.000000,  0.000000 
 17581056.000000, 6.539584 , -23.782265, 16.680367, 3626042624.000000, -141.610001,  -59.849998,  -163.940002, 0.000000,  0.000000 
 17602560.000000, 5.067998 , -41.137405, 26.179873, 3626062592.000000, -205.940002,  -94.150002,  -244.930008, 0.000000,  0.000000 
 17621504.000000, -2.749353 , -36.098122, 20.805593, 3626083584.000000, -120.330002,  -117.250000,  -297.500000, 5888496640.000000,  1006.109192 
 17641472.000000, -3.247060 , -29.517860, 20.377277, 3626102528.000000, 118.720001,  -119.559998,  -406.140015, 0.000000,  0.000000 
 17661440.000000, -4.352544 , -19.846071, 13.832907, 3626142464.000000, 87.080002,  -201.669998,  -395.570007, 0.000000,  0.000000 
 17681408.000000, -5.350351 , -14.581861, 12.114861, 0.000000, 0.000000,  0.000000,  0.000000, 0.000000,  0.000000 
 17702400.000000, -7.322037 , -10.298709, 13.397413, 3626162432.000000, 65.099998,  -202.440002,  -384.860016, 0.000000,  0.000000 
 17721344.000000, -10.485349 , -5.886343, 11.684153, 3626183424.000000, 38.080002,  -159.600006,  -354.760010, 0.000000,  0.000000 
 17741312.000000, -9.978070 , -2.600998, 4.208975, 3626202368.000000, 79.519997,  -81.620003,  -289.519989, 0.000000,  0.000000 
 17761280.000000, -6.771688 , 1.473979, 1.268196, 3626222336.000000, 149.869995,  -54.250000,  -202.720001, 0.000000,  0.000000 
 17781248.000000, -5.216353 , 5.326423, 0.459422, 3626242304.000000, 166.809998,  -31.570000,  -148.889999, 0.000000,  0.000000 
 17802240.000000, -6.202196 , 6.252446, -0.485743, 3626262272.000000, 132.369995,  -2.170000,  -121.800003, 0.000000,  0.000000 
 17821184.000000, -7.539784 , 4.878965, -1.155733, 3626283264.000000, 64.470001,  65.730003,  -125.160004, 0.000000,  0.000000 
 17841152.000000, -7.738388 , 3.058028, -2.203789, 3626302720.000000, 6.370000,  95.269997,  -114.379997, 0.000000,  0.000000 
 17861120.000000, -8.214561 , 2.895315, -2.603391, 3626322688.000000, -18.410000,  108.570000,  -59.220001, 0.000000,  0.000000 
 17881088.000000, -8.042276 , 2.976671, -2.667997, 3626342656.000000, -23.450001,  122.639999,  12.180000, 0.000000,  0.000000 
 17902080.000000, -6.530013 , 2.861816, -1.969293, 3626362624.000000, -39.480000,  130.619995,  77.699997, 0.000000,  0.000000 
 17921024.000000, -5.223531 , 2.282753, -0.660419, 3626383104.000000, -79.099998,  125.300003,  130.270004, 0.000000,  0.000000 
 17940992.000000, -6.494121 , -0.028714, 4.079762, 3626402560.000000, -104.860001,  133.350006,  189.699997, 0.000000,  0.000000 
 17960960.000000, -8.635696 , -6.137590, 3.783052, 3626422528.000000, -122.290001,  162.050003,  247.660004, 0.000000,  0.000000 
 17980928.000000, -10.849058 , -15.043676, 12.112469, 3626442496.000000, -162.119995,  181.369995,  312.829987, 0.000000,  0.000000 
 18001920.000000, -19.683359 , -32.851059, 24.686750, 3626462464.000000, -199.149994,  188.300003,  391.019989, 0.000000,  0.000000 
 18020864.000000, -9.042477 , -38.206200, 27.984060, 3626483456.000000, -301.700012,  168.210007,  412.369995, 0.000000,  0.000000 
 18040832.000000, -4.218546 , -23.167307, 21.619152, 3626502400.000000, -248.990005,  115.430000,  369.529999, 0.000000,  0.000000 
 18060800.000000, 2.943172 , -14.794822, 21.068802, 3626522368.000000, -20.160000,  81.410004,  355.320007, 0.000000,  0.000000 
 18081280.000000, 0.851845 , -10.183852, 17.855244, 3626542336.000000, -17.710001,  118.300003,  218.259995, 0.000000,  0.000000 
 18101760.000000, 0.811167 , -7.319644, 11.473583, 3626562304.000000, 20.370001,  115.570000,  105.349998, 0.000000,  0.000000 
 18121216.000000, 4.443472 , -4.967500, 6.309873, 3626583296.000000, 92.959999,  89.110001,  88.480003, 0.000000,  0.000000 
 18141184.000000, 6.632904 , -0.827917, 5.431707, 3626602240.000000, 137.830002,  61.180000,  116.550003, 0.000000,  0.000000 
 18161152.000000, 9.049655 , 1.296910, 6.089733, 3626622208.000000, 89.459999,  51.240002,  133.139999, 0.000000,  0.000000 
 18181120.000000, 13.493127 , 1.055235, 7.824530, 3626642176.000000, -5.880000,  43.540001,  132.789993, 0.000000,  0.000000 
 18202112.000000, 15.555739 , 0.323031, 9.473185, 3626662144.000000, -56.700001,  18.549999,  139.789993, 0.000000,  0.000000 
 18221056.000000, 13.885550 , -2.665605, 11.739187, 3626683136.000000, -70.910004,  -19.389999,  108.709999, 0.000000,  0.000000 
 18241024.000000, 13.655839 , -7.448857, 15.462420, 3626702080.000000, -95.900002,  -60.619999,  50.330002, 0.000000,  0.000000 
 18260992.000000, 9.887143 , -11.937792, 15.869200, 3626722048.000000, -75.599998,  -110.529999,  -11.900000, 0.000000,  0.000000 
 18280960.000000, 5.359922 , -16.744972, 16.268801, 3626742016.000000, -9.800000,  -152.320007,  -129.639999, 0.000000,  0.000000 
 18304000.000000, 3.799802 , -23.681765, 19.535004, 3626762496.000000, 10.990000,  -194.740005,  -259.980011, 0.000000,  0.000000 
 18320896.000000, 0.131605 , -29.860031, 21.147766, 3626785024.000000, -11.900000,  -213.430008,  -292.179993, 0.000000,  0.000000 
 18340864.000000, -5.563312 , -25.634308, 19.125832, 3626802432.000000, -3.080000,  -238.279999,  -339.850006, 0.000000,  0.000000 
 18360832.000000, -5.596812 , -18.613768, 15.036497, 3626822400.000000, 58.799999,  -248.430008,  -374.640015, 0.000000,  0.000000 
 18380800.000000, -8.126025 , -13.899906, 11.794223, 3626842368.000000, 79.239998,  -255.009995,  -343.489990, 0.000000,  0.000000 
 18401792.000000, -8.939585 , -8.652447, 9.801002, 3626883328.000000, 55.510002,  -182.210007,  -293.579987, 0.000000,  0.000000 
 18420736.000000, -9.588040 , -4.364508, 5.654240, 0.000000, 0.000000,  0.000000,  0.000000, 0.000000,  0.000000 
 18440704.000000, -8.791230 , -0.777667, 4.005585, 3626902272.000000, 13.650000,  -134.750000,  -261.940002, 0.000000,  0.000000 
 18460672.000000, -8.640482 , 1.627119, 1.859223, 3626922240.000000, -1.330000,  -80.360001,  -220.430008, 0.000000,  0.000000 
 18480640.000000, -8.669197 , 4.213760, 2.179861, 3626942208.000000, 1.400000,  -21.070000,  -183.330002, 0.000000,  0.000000 
 18501632.000000, -10.961520 , 4.981857, 1.239482, 3626962176.000000, -10.500000,  37.869999,  -151.830002, 0.000000,  0.000000 
 18520576.000000, -11.715261 , 4.118048, -1.194018, 3626983168.000000, 0.420000,  75.320000,  -109.690002, 0.000000,  0.000000 
 18540544.000000, -8.539984 , 3.543770, -1.196411, 3627002112.000000, 35.139999,  93.870003,  -55.860001, 0.000000,  0.000000 
 18561024.000000, -7.441679 , 4.728218, -1.758725, 3627022080.000000, 78.889999,  95.760002,  36.750000, 0.000000,  0.000000 
 18580992.000000, -7.221539 , 4.709075, -1.110270, 3627042048.000000, 60.200001,  117.040001,  111.230003, 0.000000,  0.000000 
 18601472.000000, -7.781459 , 1.820938, 3.177669, 3627083008.000000, -153.089996,  176.680008,  186.899994, 5889496064.000000,  1006.109680 
 18620928.000000, -9.300901 , -4.419543, 8.559127, 0.000000, 0.000000,  0.000000,  0.000000, 0.000000,  0.000000 
