 Acc_timestamp,Accx,Accy,Accz,Gyro_timestamp,Gyrox,Gyroy,Gyroz,Baro_timestamp,Pressure_Reading
 20848640.000000, -14.483756 , 1.758725, 0.318245, 1034093312.000000, 21.629999,  240.520004,  -9.310000, 0.000000,  0.000000 
 20868864.000000, -16.252050 , 1.404587, 0.914058, 1034113792.000000, 9.030000,  251.580002,  -6.020000, 0.000000,  0.000000 
 20888064.000000, -17.958134 , 1.725225, 1.265803, 1034134016.000000, -8.820000,  262.709991,  -1.400000, 0.000000,  0.000000 
 20908288.000000, -17.998812 , 1.954936, 1.655833, 1034153472.000000, -12.880000,  269.920013,  12.460000, 0.000000,  0.000000 
 20928256.000000, -17.123037 , 2.074577, 2.390430, 1034173440.000000, -16.379999,  268.380005,  22.889999, 0.000000,  0.000000 
 20948480.000000, -17.221144 , 2.100898, 3.393023, 1034193408.000000, -30.520000,  265.790009,  31.500000, 0.000000,  0.000000 
 20968704.000000, -17.374285 , 2.127219, 5.350351, 1034213632.000000, -52.290001,  270.549988,  27.719999, 0.000000,  0.000000 
 20988160.000000, -17.146967 , 2.277967, 7.889136, 1034233856.000000, -65.870003,  262.850006,  21.350000, 0.000000,  0.000000 
 21008128.000000, -15.428921 , 2.249253, 8.568698, 1034253312.000000, -46.200001,  239.750000,  17.080000, 0.000000,  0.000000 
 21028096.000000, -13.227524 , 2.187040, 7.137790, 1034273280.000000, 5.530000,  194.389999,  19.809999, 0.000000,  0.000000 
 21048320.000000, -12.717852 , 3.354738, 6.498906, 1034293248.000000, 49.420002,  137.690002,  14.840000, 0.000000,  0.000000 
 21068800.000000, -13.749159 , 4.780859, 7.037291, 1034313728.000000, 50.119999,  94.849998,  14.840000, 0.000000,  0.000000 
 21088000.000000, -14.445471 , 4.393222, 7.767102, 1034333952.000000, 18.480000,  64.470001,  -12.040000, 0.000000,  0.000000 
 21107968.000000, -14.431112 , 3.201597, 7.518249, 1034353152.000000, -16.940001,  27.580000,  -20.090000, 0.000000,  0.000000 
 21127936.000000, -13.079168 , 2.459821, 5.850451, 1034373376.000000, -32.410000,  -10.990000,  -15.190001, 0.000000,  0.000000 
 21148416.000000, -11.009377 , 2.428715, 4.773681, 1034393344.000000, -27.790001,  -55.510002,  -3.500000, 0.000000,  0.000000 
 21168640.000000, -9.592826 , 2.526821, 4.486543, 1034413568.000000, -19.809999,  -100.730003,  -0.840000, 0.000000,  0.000000 
 21188096.000000, -9.662218 , 2.167897, 3.792624, 1034433792.000000, -18.690001,  -136.430008,  -8.960000, 0.000000,  0.000000 
 21208064.000000, -11.495120 , 1.246661, 3.766303, 1034453248.000000, -28.630001,  -155.330002,  -17.639999, 0.000000,  0.000000 
 21228032.000000, -13.947763 , 0.421137, 3.909872, 1034473216.000000, -37.310001,  -158.479996,  -28.490000, 0.000000,  0.000000 
 21248256.000000, -15.297315 , 0.052642, 3.275774, 1034493184.000000, -13.230000,  -164.149994,  -31.639999, 0.000000,  0.000000 
 21268480.000000, -14.495720 , 0.339781, 2.096112, 1034513408.000000, 43.049999,  -188.930008,  -25.059999, 0.000000,  0.000000 
 21287936.000000, -13.373486 , 0.756132, 1.052842, 1034533888.000000, 104.160004,  -226.940002,  -12.460000, 0.000000,  0.000000 
 21307904.000000, -12.957134 , 0.837488, 0.320638, 1034553088.000000, 140.000000,  -246.680008,  -3.360000, 0.000000,  0.000000 
 21327872.000000, -12.705888 , 0.815953, -0.172283, 1034573056.000000, 145.180008,  -250.740005,  -3.360000, 0.000000,  0.000000 
 21348352.000000, -12.859028 , 0.856631, -0.090927, 1034593024.000000, 135.800003,  -252.490005,  1.260000, 0.000000,  0.000000 
 21368576.000000, -13.098311 , 1.268196, 0.200997, 1034613504.000000, 122.010002,  -249.059998,  3.290000, 0.000000,  0.000000 
 21388032.000000, -13.433307 , 1.794617, 0.897308, 1034633728.000000, 109.760002,  -241.850006,  11.200000, 0.000000,  0.000000 
 21408000.000000, -13.663017 , 1.940579, 1.359123, 1034653184.000000, 94.709999,  -231.419998,  25.270000, 0.000000,  0.000000 
 21427968.000000, -12.413965 , 1.691726, 1.062413, 1034673152.000000, 78.190002,  -219.029999,  46.200001, 0.000000,  0.000000 
 21448192.000000, -10.918450 , 2.036292, 1.263410, 1034693120.000000, 56.420002,  -210.839996,  69.230003, 0.000000,  0.000000 
 21468416.000000, -11.475977 , 3.007778, 1.763510, 1034713344.000000, 32.200001,  -199.009995,  84.840004, 0.000000,  0.000000 
 21487872.000000, -13.318451 , 3.945765, 0.849452, 1034733568.000000, 2.940000,  -170.589996,  91.769997, 0.000000,  0.000000 
 21507840.000000, -13.086348 , 3.507878, -1.124627, 1034753024.000000, -43.330002,  -144.479996,  96.180000, 0.000000,  0.000000 
 21527808.000000, -10.865808 , 2.299503, -1.031307, 1034772992.000000, -106.750000,  -138.250000,  96.250000, 0.000000,  0.000000 
 21548032.000000, -9.152546 , 1.689333, 0.141177, 1034792960.000000, -172.479996,  -139.649994,  90.019997, 0.000000,  0.000000 
 21568512.000000, -9.020942 , 0.983450, 1.275374, 1034813440.000000, -217.210007,  -125.090004,  78.330002, 0.000000,  0.000000 
 21587712.000000, -9.954143 , 1.045663, 0.480957, 1034833664.000000, -233.940002,  -97.370003,  56.840000, 0.000000,  0.000000 
 21607680.000000, -10.102496 , 0.799203, -1.416551, 1034853120.000000, -219.309998,  -68.949997,  34.580002, 0.000000,  0.000000 
 21627904.000000, -8.896514 , 0.457029, -2.813959, 1034873088.000000, -185.639999,  -50.330002,  13.370000, 0.000000,  0.000000 
 21648128.000000, -8.807980 , 1.284946, -2.574677, 1034913280.000000, -135.240005,  6.720000,  -21.280001, 3296496384.000000,  1005.576721 
 21668352.000000, -9.923036 , 2.337788, -2.050649, 0.000000, 0.000000,  0.000000,  0.000000, 0.000000,  0.000000 
 21687808.000000, -9.477970 , 1.524228, -1.533799, 1034933504.000000, -89.110001,  50.119999,  -13.720000, 0.000000,  0.000000 
 21707776.000000, -7.889136 , 1.600798, -2.081756, 1034952960.000000, -35.209999,  70.769997,  7.350000, 0.000000,  0.000000 
 21727744.000000, -7.302894 , 1.940579, -3.617948, 1034972928.000000, 16.170000,  85.610001,  31.920000, 0.000000,  0.000000 
 21747968.000000, -8.195417 , 2.081756, -3.577270, 1034992896.000000, 36.750000,  109.760002,  43.330002, 0.000000,  0.000000 
 21770240.000000, -9.903893 , 1.684547, -2.251646, 1035013120.000000, 2.240000,  141.680008,  30.730000, 0.000000,  0.000000 
 21787648.000000, -10.805987 , 0.921237, -1.146162, 1035035392.000000, -25.129999,  169.820007,  13.860000, 0.000000,  0.000000 
 21807616.000000, -10.468598 , 0.308674, -0.648455, 1035052800.000000, -16.309999,  182.139999,  6.160000, 0.000000,  0.000000 
 21827584.000000, -10.202995 , 0.358923, -0.232104, 1035072768.000000, 12.250000,  187.740005,  6.020000, 0.000000,  0.000000 
 21848064.000000, -10.959127 , 0.813560, 0.454636, 1035092992.000000, 41.020000,  197.330002,  5.600000, 0.000000,  0.000000 
 21868288.000000, -12.220145 , 0.717847, 0.521635, 1035113216.000000, 51.869999,  211.889999,  2.100000, 0.000000,  0.000000 
 21887744.000000, -13.430914 , 0.308674, 1.002593, 1035133440.000000, 46.549999,  228.899994,  -2.100000, 0.000000,  0.000000 
 21907712.000000, -15.364313 , 0.600598, 2.426322, 1035152896.000000, 40.880001,  239.190002,  -2.240000, 0.000000,  0.000000 
 21927680.000000, -16.699509 , 1.167697, 2.591427, 1035172864.000000, 32.410000,  244.649994,  -0.840000, 0.000000,  0.000000 
 21947904.000000, -15.996019 , 1.540978, 2.694318, 1035192832.000000, 33.389999,  252.559998,  5.250000, 0.000000,  0.000000 
 21968128.000000, -15.596417 , 1.509871, 3.704089, 1035213056.000000, 33.180000,  245.279999,  13.160000, 0.000000,  0.000000 
 21987584.000000, -15.730415 , 1.244268, 4.677969, 1035233280.000000, 15.400000,  237.440002,  19.600000, 0.000000,  0.000000 
 22007552.000000, -16.041483 , 1.134198, 6.862615, 1035252736.000000, -10.150000,  242.059998,  23.240000, 0.000000,  0.000000 
 22027520.000000, -16.476976 , 0.947558, 8.652447, 1035272704.000000, -9.800000,  240.100006,  28.559999, 0.000000,  0.000000 
 22047744.000000, -16.254444 , 1.366302, 8.932407, 1035292672.000000, 32.200001,  229.250000,  31.360001, 0.000000,  0.000000 
 22068224.000000, -14.632111 , 2.840281, 7.482357, 1035313152.000000, 104.090004,  202.229996,  33.459999, 0.000000,  0.000000 
 22087424.000000, -13.308880 , 4.618148, 5.618347, 1035333376.000000, 155.680008,  150.149994,  28.490000, 0.000000,  0.000000 
 22107392.000000, -13.160524 , 5.505885, 5.915058, 1035352832.000000, 132.300003,  99.470001,  15.120000, 0.000000,  0.000000 
 22127616.000000, -13.057633 , 4.560720, 7.020542, 1035372800.000000, 47.529999,  70.769997,  2.800000, 0.000000,  0.000000 
 22147840.000000, -14.019548 , 2.804388, 8.224132, 1035392768.000000, -37.380001,  42.139999,  -5.250000, 0.000000,  0.000000 
 22168064.000000, -15.668202 , 1.366302, 7.951349, 1035412992.000000, -78.120003,  20.719999,  -6.160000, 0.000000,  0.000000 
 22187520.000000, -15.062819 , 1.289732, 6.484549, 1035433216.000000, -66.360001,  0.420000,  4.270000, 0.000000,  0.000000 
 22207488.000000, -11.925828 , 2.009971, 5.326423, 1035452672.000000, -25.549999,  -47.110001,  22.330000, 0.000000,  0.000000 
 22227456.000000, -9.944571 , 1.816152, 4.840680, 1035472640.000000, 2.100000,  -105.629997,  32.900002, 0.000000,  0.000000 
 22247680.000000, -10.674382 , 1.112662, 5.182854, 1035492608.000000, -6.790000,  -135.800003,  22.960001, 0.000000,  0.000000 
 22267904.000000, -13.239488 , 0.416351, 5.221139, 1035512832.000000, -23.450001,  -141.610001,  5.040000, 0.000000,  0.000000 
 22287360.000000, -14.955141 , 0.179462, 4.132405, 1035533312.000000, -13.020000,  -144.199997,  -5.460000, 0.000000,  0.000000 
 22307328.000000, -15.067604 , 0.576670, 2.976671, 1035552512.000000, 24.570000,  -166.180008,  -2.730000, 0.000000,  0.000000 
 22327296.000000, -14.227723 , 1.390230, 2.586641, 1035572480.000000, 59.290001,  -198.309998,  7.420000, 0.000000,  0.000000 
 22347776.000000, -12.916457 , 1.440479, 1.885544, 1035592704.000000, 64.050003,  -223.509995,  16.100000, 0.000000,  0.000000 
 22368000.000000, -12.016755 , 1.043271, 2.266003, 1035612928.000000, 39.480000,  -241.360001,  17.500000, 0.000000,  0.000000 
 22387456.000000, -12.050256 , 1.091127, 2.993421, 1035633152.000000, 0.700000,  -247.029999,  8.470000, 0.000000,  0.000000 
 22407424.000000, -12.878171 , 1.189233, 2.383251, 1035652608.000000, -20.650000,  -247.449997,  1.400000, 0.000000,  0.000000 
 22427392.000000, -13.306486 , 0.358923, 1.227518, 1035672576.000000, -26.740000,  -249.270004,  -0.140000, 0.000000,  0.000000 
 22447616.000000, -13.538590 , -0.550349, 0.868595, 1035692544.000000, -40.670002,  -250.460007,  3.220000, 0.000000,  0.000000 
 22467840.000000, -13.720445 , -0.122034, 1.560120, 1035712768.000000, -54.880001,  -245.839996,  8.820000, 0.000000,  0.000000 
 22487296.000000, -13.062418 , 0.634098, 1.071985, 1035732992.000000, -53.760002,  -239.680008,  14.140000, 0.000000,  0.000000 
 22507264.000000, -12.495319 , 0.512064, -0.538385, 1035752448.000000, -42.980000,  -241.360001,  15.680000, 0.000000,  0.000000 
 22527232.000000, -11.291731 , 0.715454, -2.170290, 1035772416.000000, -57.889999,  -231.210007,  5.460000, 0.000000,  0.000000 
 22547712.000000, -9.006584 , 1.433301, -2.902494, 1035792384.000000, -89.809998,  -217.699997,  -6.720000, 0.000000,  0.000000 
 22567936.000000, -6.348158 , 2.029114, -2.347359, 1035812864.000000, -113.750000,  -206.220001,  -16.100000, 0.000000,  0.000000 
 22587136.000000, -4.993821 , 1.373480, -0.059821, 1035833088.000000, -133.979996,  -186.059998,  -28.350000, 0.000000,  0.000000 
 22607360.000000, -6.489335 , 0.392423, 2.132005, 1035852544.000000, -143.710007,  -137.130005,  -43.259998, 0.000000,  0.000000 
 22627328.000000, -9.480364 , 0.215354, 0.626920, 1035872512.000000, -115.010002,  -67.970001,  -40.320000, 0.000000,  0.000000 
 22647552.000000, -10.444671 , 1.272982, -2.813959, 1035892480.000000, -33.529999,  -13.860000,  -16.660000, 0.000000,  0.000000 
 22667776.000000, -9.456435 , 1.950150, -3.062813, 1035912704.000000, 54.459999,  12.530000,  11.550000, 3297495808.000000,  1005.567139 
 22687232.000000, -9.463614 , 1.476372, -1.612763, 1035932928.000000, 78.260002,  36.049999,  21.490000, 0.000000,  0.000000 
 22707200.000000, -12.445071 , 1.868794, -1.686940, 1035952384.000000, 54.880001,  77.769997,  12.180000, 0.000000,  0.000000 
 22727168.000000, -13.375877 , 2.428715, -2.117648, 1035972352.000000, 33.810001,  134.610001,  2.240000, 0.000000,  0.000000 
 22747392.000000, -10.846665 , 1.485943, -0.890130, 1035992320.000000, 37.240002,  154.419998,  4.690000, 0.000000,  0.000000 
 22769664.000000, -10.169496 , 0.825524, -0.581456, 1036012800.000000, 44.590000,  145.600006,  8.190000, 0.000000,  0.000000 
 22787072.000000, -12.303895 , 1.619941, -1.538585, 1036052224.000000, 59.430000,  194.110001,  10.360000, 0.000000,  0.000000 
 22807040.000000, -14.143975 , 2.411965, -1.940579, 0.000000, 0.000000,  0.000000,  0.000000, 0.000000,  0.000000 
 22827008.000000, -13.378270 , 1.799403, -0.813560, 1036072448.000000, 54.599998,  207.199997,  6.580000, 0.000000,  0.000000 
 22847488.000000, -11.425728 , 1.452443, 0.141177, 1036092416.000000, 36.680000,  197.750000,  -3.080000, 0.000000,  0.000000 
 22867712.000000, -10.547562 , 1.998007, 1.107877, 1036112640.000000, 35.420002,  189.839996,  -7.770000, 0.000000,  0.000000 
 22887168.000000, -11.440084 , 3.349952, 0.476172, 1036132864.000000, 39.759998,  195.720001,  -16.309999, 0.000000,  0.000000 
 22907136.000000, -12.646068 , 2.562713, -0.203390, 1036152320.000000, 22.889999,  206.779999,  -18.340000, 0.000000,  0.000000 
 22927104.000000, -13.720445 , 0.823131, -0.114855, 1036172288.000000, -37.869999,  218.190002,  -19.110001, 0.000000,  0.000000 
 22947584.000000, -15.632310 , -0.026321, 0.801596, 1036192256.000000, -106.610001,  225.050003,  -9.030000, 0.000000,  0.000000 
 22967552.000000, -16.697117 , -0.337388, 2.344966, 1036212736.000000, -145.669998,  238.839996,  14.630000, 0.000000,  0.000000 
 22987008.000000, -15.950556 , -0.327817, 3.790231, 1036232960.000000, -142.940002,  242.830002,  40.950001, 0.000000,  0.000000 
 23006976.000000, -15.751952 , -0.370888, 4.828716, 1036252160.000000, -108.639999,  235.759995,  65.099998, 0.000000,  0.000000 
 23026944.000000, -16.687544 , -0.157926, 6.058627, 1036272128.000000, -67.410004,  242.479996,  82.879997, 0.000000,  0.000000 
 23047424.000000, -17.051254 , 0.689133, 7.001399, 1036292096.000000, -24.290001,  249.830002,  94.430000, 0.000000,  0.000000 
 23067648.000000, -16.436298 , 0.835095, 7.965706, 1036312576.000000, 16.240000,  234.850006,  98.699997, 0.000000,  0.000000 
 23087104.000000, -15.400207 , 1.349552, 8.193025, 1036332800.000000, 42.490002,  204.050003,  95.059998, 0.000000,  0.000000 
 23107072.000000, -13.244273 , 2.239682, 6.709475, 1036352256.000000, 48.160000,  159.389999,  83.300003, 0.000000,  0.000000 
 23127040.000000, -11.796617 , 2.696711, 6.563512, 1036372224.000000, 14.280000,  102.410004,  62.230000, 0.000000,  0.000000 
 23147264.000000, -11.976077 , 1.995614, 7.300502, 1036392192.000000, -59.010002,  59.290001,  31.430000, 0.000000,  0.000000 
 23167488.000000, -12.478570 , 0.133998, 7.640282, 1036412416.000000, -129.710007,  36.680000,  2.100000, 0.000000,  0.000000 
 23186944.000000, -13.514663 , -1.663012, 8.130811, 1036432640.000000, -166.389999,  9.310000,  -16.030001, 0.000000,  0.000000 
 23206912.000000, -13.603197 , -2.371287, 6.809973, 1036452096.000000, -148.610001,  -13.230000,  -18.830000, 0.000000,  0.000000 
 23226880.000000, -12.691531 , -1.840081, 5.383851, 1036472064.000000, -82.739998,  -44.939999,  -9.030000, 0.000000,  0.000000 
 23247104.000000, -11.708081 , -1.033699, 4.826324, 1036492032.000000, -5.250000,  -83.160004,  -5.460000, 0.000000,  0.000000 
 23267584.000000, -11.803794 , -0.648455, 4.558327, 1036512512.000000, 43.189999,  -115.360001,  -11.690000, 0.000000,  0.000000 
 23286784.000000, -13.701303 , -1.036092, 4.409972, 1036532736.000000, 60.619999,  -134.889999,  -25.969999, 0.000000,  0.000000 
 23306752.000000, -16.074982 , -1.450050, 4.063013, 1036552192.000000, 69.230003,  -142.029999,  -39.970001, 0.000000,  0.000000 
 23326976.000000, -16.292728 , -0.995414, 2.687140, 1036572160.000000, 92.330002,  -157.500000,  -50.540001, 0.000000,  0.000000 
 23347200.000000, -15.113067 , -0.102891, 1.296910, 1036592128.000000, 125.650002,  -194.389999,  -53.200001, 0.000000,  0.000000 
 23367424.000000, -14.072189 , 0.607777, 1.122234, 1036612352.000000, 142.520004,  -224.979996,  -52.150002, 0.000000,  0.000000 
 23386880.000000, -12.306287 , 0.380459, 1.268196, 1036632576.000000, 131.110001,  -236.180008,  -50.680000, 0.000000,  0.000000 
 23406848.000000, -11.014162 , 0.028714, 2.411965, 1036652032.000000, 99.959999,  -248.639999,  -44.029999, 0.000000,  0.000000 
 23426816.000000, -11.023734 , -0.076570, 3.565305, 1036672000.000000, 65.309998,  -246.540009,  -35.070000, 0.000000,  0.000000 
 23447040.000000, -11.894722 , -0.437887, 3.067599, 1036691968.000000, 48.299999,  -235.690002,  -22.820000, 0.000000,  0.000000 
 23467264.000000, -13.600803 , -0.598206, 1.907080, 1036712192.000000, 42.139999,  -233.940002,  -13.370000, 0.000000,  0.000000 
 23486720.000000, -15.816557 , -0.519243, 0.655633, 1036732672.000000, 34.090000,  -230.020004,  -10.080000, 0.000000,  0.000000 
 23506688.000000, -15.895520 , -0.143569, 0.693919, 1036751872.000000, 18.969999,  -225.190002,  -7.420000, 0.000000,  0.000000 
 23526656.000000, -14.701502 , 0.356531, -0.299103, 1036771840.000000, 8.120000,  -240.169998,  -5.600000, 0.000000,  0.000000 
 23547136.000000, -13.782660 , 1.653440, -0.337388, 1036791808.000000, -1.610000,  -251.229996,  -8.890000, 0.000000,  0.000000 
 23567360.000000, -12.777672 , 2.395216, -0.985843, 1036812288.000000, -33.810001,  -244.790009,  -18.830000, 0.000000,  0.000000 
 23586816.000000, -11.009377 , 1.974079, -1.198804, 1036832512.000000, -77.139999,  -230.930008,  -30.100000, 0.000000,  0.000000 
 23606784.000000, -9.351151 , 1.543371, 0.090927, 1036851968.000000, -117.250000,  -213.289993,  -41.299999, 0.000000,  0.000000 
 23626752.000000, -9.099905 , 0.978664, 1.536192, 1036871936.000000, -135.449997,  -186.339996,  -47.110001, 0.000000,  0.000000 
 23646976.000000, -10.258030 , 1.433301, 0.571885, 1036891904.000000, -116.620003,  -141.820007,  -42.279999, 0.000000,  0.000000 
 23667200.000000, -10.174281 , 2.076970, -2.155933, 1036912128.000000, -63.770000,  -94.989998,  -30.100000, 3298495232.000000,  1005.563782 
 23686656.000000, -8.841480 , 2.488536, -2.811567, 1036932352.000000, 1.330000,  -69.300003,  -15.400000, 0.000000,  0.000000 
 23706624.000000, -8.595018 , 2.368894, -1.596013, 1036951808.000000, 27.160000,  -44.450001,  -11.620000, 0.000000,  0.000000 
 23726592.000000, -9.923036 , 3.074777, -0.267996, 1036991744.000000, 19.389999,  50.119999,  -17.360001, 0.000000,  0.000000 
 23746816.000000, -9.992428 , 2.907279, 0.028714, 0.000000, 0.000000,  0.000000,  0.000000, 0.000000,  0.000000 
 23769088.000000, -8.525627 , 2.029114, -0.354138, 1037012224.000000, 41.160000,  76.440002,  -3.920000, 0.000000,  0.000000 
 23786496.000000, -8.008778 , 1.813759, -1.146162, 1037034240.000000, 60.900002,  90.510002,  9.870000, 0.000000,  0.000000 
 23806464.000000, -8.807980 , 1.619941, -1.794617, 1037051904.000000, 74.550003,  109.550003,  19.250000, 0.000000,  0.000000 
 23826688.000000, -9.812965 , 1.277767, -1.440479, 1037071872.000000, 72.590004,  120.750000,  20.580000, 0.000000,  0.000000 
 23846912.000000, -9.894321 , 1.043271, -0.684347, 1037091840.000000, 50.750000,  141.330002,  17.500000, 0.000000,  0.000000 
 23867136.000000, -9.233903 , 0.902094, -0.136391, 1037112064.000000, 28.910000,  150.430008,  10.640000, 0.000000,  0.000000 
 23886592.000000, -9.075976 , 0.605384, 0.112463, 1037132288.000000, 26.320000,  147.839996,  2.590000, 0.000000,  0.000000 
 23906560.000000, -9.528220 , 0.390030, 0.547956, 1037151744.000000, 33.180000,  154.350006,  -4.060000, 0.000000,  0.000000 
 23926528.000000, -10.112068 , 0.435494, 0.734596, 1037171712.000000, 41.930000,  171.710007,  -11.410000, 0.000000,  0.000000 
 23946752.000000, -10.559525 , 0.512064, 0.696311, 1037191680.000000, 55.720001,  189.070007,  -14.700000, 0.000000,  0.000000 
 23966976.000000, -11.382657 , 0.440279, 0.851845, 1037211904.000000, 60.830002,  206.080002,  -14.910000, 0.000000,  0.000000 
 23986432.000000, -13.119846 , 0.935594, 0.720240, 1037232384.000000, 53.410000,  226.520004,  -15.190001, 0.000000,  0.000000 
 24006400.000000, -14.904892 , 1.033699, 0.744168, 1037251584.000000, 43.119999,  247.800003,  -9.870000, 0.000000,  0.000000 
 24026368.000000, -16.153946 , 1.205983, 1.064806, 1037271552.000000, 32.410000,  265.720001,  -2.240000, 0.000000,  0.000000 
 24046848.000000, -16.761723 , 1.497907, 1.600798, 1037291776.000000, 14.490000,  274.540009,  6.510000, 0.000000,  0.000000 
 24067072.000000, -17.465212 , 1.818545, 3.656233, 1037312000.000000, -12.530000,  280.209991,  17.430000, 0.000000,  0.000000 
 24086528.000000, -18.360128 , 1.947758, 5.680561, 1037332224.000000, -39.549999,  282.660004,  24.219999, 0.000000,  0.000000 
 24106496.000000, -17.922241 , 1.758725, 7.336394, 1037351680.000000, -49.279999,  276.290009,  25.760000, 0.000000,  0.000000 
 24126464.000000, -16.733009 , 2.029114, 8.135597, 1037371648.000000, -34.930000,  248.570007,  25.059999, 0.000000,  0.000000 
 24146688.000000, -15.122640 , 3.115455, 7.434500, 1037391616.000000, -3.640000,  208.180008,  20.719999, 0.000000,  0.000000 
 24166912.000000, -13.325629 , 4.113262, 5.692525, 1037411840.000000, 22.049999,  155.330002,  10.990000, 0.000000,  0.000000 
 24186368.000000, -11.665009 , 4.130012, 5.237889, 1037432064.000000, 2.520000,  98.629997,  -7.420000, 0.000000,  0.000000 
 24206336.000000, -11.578869 , 2.957529, 6.139983, 1037451520.000000, -70.559998,  57.049999,  -25.760000, 0.000000,  0.000000 
 24226304.000000, -11.114661 , 0.983450, 6.838687, 1037471488.000000, -143.500000,  42.490002,  -40.670002, 0.000000,  0.000000 
 24246528.000000, -11.253445 , -0.081356, 9.025726, 1037491456.000000, -160.649994,  24.430000,  -39.340000, 0.000000,  0.000000 
 24267008.000000, -11.715261 , -0.524028, 9.212367, 1037511936.000000, -113.750000,  11.830000,  -29.820000, 0.000000,  0.000000 
 24286208.000000, -12.461821 , -0.646062, 7.472785, 1037532160.000000, -17.780001,  -1.680000,  -3.360000, 0.000000,  0.000000 
 24306432.000000, -12.708281 , 0.181855, 5.879165, 1037551616.000000, 73.989998,  -19.530001,  14.140000, 0.000000,  0.000000 
 24326400.000000, -12.050256 , 0.933201, 4.855037, 1037571584.000000, 134.050003,  -50.259998,  31.219999, 0.000000,  0.000000 
 24346624.000000, -13.495520 , 1.196411, 4.766503, 1037591552.000000, 147.979996,  -91.139999,  38.220001, 0.000000,  0.000000 
 24366848.000000, -16.297516 , 0.753739, 3.948158, 1037611776.000000, 119.910004,  -113.260002,  29.750000, 0.000000,  0.000000 
 24386304.000000, -16.945971 , 1.000200, 2.660819, 1037632000.000000, 89.389999,  -130.550003,  18.410000, 0.000000,  0.000000 
 24406272.000000, -15.134604 , 2.526821, 1.710868, 1037651456.000000, 78.820000,  -172.550003,  15.470000, 0.000000,  0.000000 
 24426240.000000, -13.861622 , 3.242275, 1.040878, 1037671424.000000, 64.959999,  -228.830002,  14.700000, 0.000000,  0.000000 
 24446464.000000, -13.311273 , 3.433701, 1.423729, 1037691392.000000, 11.340000,  -258.230011,  -1.960000, 0.000000,  0.000000 
 24466944.000000, -13.294522 , 3.373880, 1.978864, 1037711616.000000, -68.669998,  -275.380005,  -24.500000, 0.000000,  0.000000 
 24486144.000000, -14.464613 , 2.677568, 2.390430, 1037732096.000000, -126.209999,  -292.320007,  -47.040001, 0.000000,  0.000000 
 24506112.000000, -15.644274 , 1.610370, 2.120041, 1037751296.000000, -149.729996,  -297.010010,  -65.519997, 0.000000,  0.000000 
 24526080.000000, -15.878771 , 0.701097, 1.875973, 1037771520.000000, -140.770004,  -302.820007,  -70.559998, 0.000000,  0.000000 
 24546560.000000, -14.900107 , 0.476172, 0.942772, 1037791488.000000, -112.279999,  -311.570007,  -63.139999, 0.000000,  0.000000 
 24566784.000000, -13.349558 , 1.698904, -0.181855, 1037811712.000000, -75.739998,  -312.970001,  -39.900002, 0.000000,  0.000000 
 24586240.000000, -11.387443 , 2.840281, -1.406980, 1037831936.000000, -41.230000,  -305.059998,  -18.480000, 0.000000,  0.000000 
 24606208.000000, -9.238688 , 2.799603, -2.273181, 1037851392.000000, -19.389999,  -290.010010,  1.680000, 0.000000,  0.000000 
 24626176.000000, -7.338787 , 2.318645, -2.507678, 1037871360.000000, -28.000000,  -265.019989,  7.910000, 0.000000,  0.000000 
 24646400.000000, -5.843273 , 2.012364, -1.883151, 1037891328.000000, -60.060001,  -227.430008,  4.270000, 0.000000,  0.000000 
 24666624.000000, -5.127820 , 1.689333, -0.445065, 1037911552.000000, -94.360001,  -179.550003,  -3.710000, 3299494656.000000,  1005.567261 
 24686080.000000, -5.680561 , 0.658026, 0.576670, 1037931776.000000, -114.099998,  -125.230003,  -9.590000, 0.000000,  0.000000 
 24706048.000000, -7.688138 , -0.490529, 0.770489, 1037951232.000000, -110.599998,  -67.480003,  -7.210000, 0.000000,  0.000000 
 24726016.000000, -10.150353 , -0.782453, 0.023928, 1037971200.000000, -82.040001,  -10.990000,  5.880000, 0.000000,  0.000000 
 24746496.000000, -11.810973 , -0.090927, -1.909473, 1037991168.000000, -31.850000,  38.570000,  24.360001, 0.000000,  0.000000 
 24768512.000000, -11.566904 , 0.153141, -3.275774, 1038011648.000000, 24.920000,  65.449997,  50.400002, 0.000000,  0.000000 
 24786176.000000, -10.676775 , -0.186640, -3.266203, 1038033920.000000, 48.860001,  81.480003,  72.379997, 0.000000,  0.000000 
 24806144.000000, -11.901899 , -0.205783, -1.942972, 1038051328.000000, 34.369999,  102.059998,  79.309998, 0.000000,  0.000000 
 24826112.000000, -13.500306 , -0.133998, -0.885344, 1038071296.000000, 4.130000,  147.559998,  77.070000, 0.000000,  0.000000 
 24846336.000000, -13.050454 , -0.488136, -0.375673, 1038091264.000000, -8.820000,  185.570007,  74.550003, 0.000000,  0.000000 
 24866560.000000, -13.497912 , -0.260818, -0.751346, 1038111488.000000, -1.330000,  196.350006,  76.300003, 0.000000,  0.000000 
 24886016.000000, -15.103497 , 0.129212, -0.820738, 1038131712.000000, 9.660000,  219.309998,  70.279999, 0.000000,  0.000000 
 24905984.000000, -15.543776 , 0.382852, 1.201197, 1038151168.000000, 6.230000,  250.250000,  59.570000, 0.000000,  0.000000 
 24925952.000000, -14.593824 , 0.437887, 2.517249, 1038171136.000000, 1.330000,  256.690002,  49.980000, 0.000000,  0.000000 
 24946176.000000, -13.371094 , 0.504886, 2.423929, 1038191104.000000, 13.860000,  249.690002,  44.520000, 0.000000,  0.000000 
 24966656.000000, -11.937792 , 0.583849, 2.383251, 1038211584.000000, 23.309999,  238.770004,  35.770000, 0.000000,  0.000000 
 24985856.000000, -11.286944 , 0.567099, 2.067399, 1038231808.000000, 13.440001,  222.740005,  26.600000, 0.000000,  0.000000 
 25005824.000000, -11.760723 , 0.447458, 1.952543, 1038251264.000000, -13.370000,  215.529999,  21.490000, 0.000000,  0.000000 
 25026048.000000, -13.028918 , 0.679562, 2.471786, 1038271232.000000, -43.330002,  218.330002,  19.950001, 0.000000,  0.000000 
 25046272.000000, -13.691730 , 0.222532, 2.701497, 1038291200.000000, -56.700001,  217.000000,  28.350000, 0.000000,  0.000000 
 25066496.000000, -13.832907 , -0.480957, 3.359523, 1038311424.000000, -57.750000,  206.220001,  40.950001, 0.000000,  0.000000 
 25085952.000000, -13.794623 , -0.337388, 4.347759, 1038331648.000000, -56.910000,  196.979996,  54.040001, 0.000000,  0.000000 
 25105920.000000, -13.871193 , 0.011964, 5.795416, 1038351104.000000, -51.240002,  193.270004,  69.090004, 0.000000,  0.000000 
 25125888.000000, -14.380865 , 0.318245, 6.965507, 1038371072.000000, -44.170002,  192.009995,  81.480003, 0.000000,  0.000000 
 25146112.000000, -13.761123 , 0.181855, 8.106883, 1038391040.000000, -29.610001,  187.389999,  89.040001, 0.000000,  0.000000 
 25166336.000000, -12.710674 , 0.088534, 9.870394, 1038411264.000000, -7.280000,  166.600006,  90.019997, 0.000000,  0.000000 
 25185792.000000, -12.543176 , 0.586242, 10.837094, 1038431744.000000, 28.910000,  138.389999,  87.150002, 0.000000,  0.000000 
 25205760.000000, -12.725031 , 1.294517, 9.580862, 1038470912.000000, 101.220001,  70.489998,  62.930000, 0.000000,  0.000000 
 25225728.000000, -11.803794 , 1.928615, 7.487142, 0.000000, 0.000000,  0.000000,  0.000000, 0.000000,  0.000000 
 25246208.000000, -10.619347 , 2.670390, 5.857630, 1038490880.000000, 97.650002,  17.780001,  48.160000, 0.000000,  0.000000 
 25266432.000000, -10.770095 , 3.012564, 5.278566, 1038511360.000000, 63.490002,  -30.309999,  35.349998, 0.000000,  0.000000 
 25285888.000000, -12.074183 , 1.730011, 5.572884, 1038531584.000000, 5.740000,  -55.580002,  20.790001, 0.000000,  0.000000 
 25305856.000000, -14.378471 , 0.124427, 6.410372, 1038551040.000000, -49.980000,  -67.690002,  6.300000, 0.000000,  0.000000 
 25325824.000000, -16.041483 , -0.985843, 5.656632, 1038571008.000000, -70.209999,  -80.080002,  -3.220000, 0.000000,  0.000000 
 25346048.000000, -15.809379 , -1.383051, 4.139583, 1038590976.000000, -46.759998,  -106.889999,  -3.570000, 0.000000,  0.000000 
 25366272.000000, -15.175282 , -1.160519, 3.670590, 1038611200.000000, -2.450000,  -147.000000,  1.330000, 0.000000,  0.000000 
 25385728.000000, -15.570097 , -0.437887, 3.170490, 1038631424.000000, 39.130001,  -179.130005,  -2.170000, 0.000000,  0.000000 
 25405696.000000, -16.962721 , 0.050249, 2.557927, 1038650880.000000, 68.389999,  -195.509995,  -5.460000, 0.000000,  0.000000 
 25425664.000000, -18.807585 , 0.256032, 1.942972, 1038670848.000000, 83.790001,  -205.380005,  -11.760000, 0.000000,  0.000000 
 25445888.000000, -19.046867 , 0.253639, 0.856631, 1038690816.000000, 93.590004,  -214.830002,  -18.410000, 0.000000,  0.000000 
 25466368.000000, -17.498713 , 0.413958, 0.277567, 1038711296.000000, 98.629997,  -235.479996,  -22.190001, 0.000000,  0.000000 
 25485568.000000, -15.538989 , 0.646062, -0.098106, 1038731520.000000, 89.110001,  -259.070007,  -27.930000, 0.000000,  0.000000 
 25505536.000000, -13.706088 , 0.885344, -0.066999, 1038750976.000000, 63.349998,  -273.420013,  -37.380001, 0.000000,  0.000000 
 25526016.000000, -12.413965 , 0.854238, -0.179462, 1038770944.000000, 26.040001,  -283.220001,  -53.619999, 0.000000,  0.000000 
 25545984.000000, -11.844472 , 0.172283, -0.270389, 1038791168.000000, -10.430000,  -286.790009,  -69.720001, 0.000000,  0.000000 
 25566208.000000, -11.657832 , -0.545564, 0.119641, 1038811136.000000, -36.400002,  -280.559998,  -84.489998, 0.000000,  0.000000 
 25585664.000000, -11.947363 , -0.425922, 0.765703, 1038831360.000000, -46.410000,  -268.660004,  -89.459999, 0.000000,  0.000000 
 25605632.000000, -12.208181 , -0.588634, 0.581456, 1038850816.000000, -38.500000,  -252.910004,  -80.639999, 0.000000,  0.000000 
 25625600.000000, -11.600404 , -0.727418, 0.382852, 1038870784.000000, -22.400000,  -235.059998,  -60.830002, 0.000000,  0.000000 
 25645824.000000, -10.346564 , -0.600598, 0.196211, 1038890752.000000, -12.740000,  -222.040009,  -40.810001, 0.000000,  0.000000 
 25666048.000000, -9.389436 , 0.600598, -1.119841, 1038911232.000000, -5.880000,  -213.990005,  -21.980000, 3300494080.000000,  1005.570801 
 25685504.000000, -8.539984 , 2.445465, -2.742175, 1038931456.000000, -5.180000,  -203.630005,  -10.920000, 0.000000,  0.000000 
 25705472.000000, -6.903293 , 2.263610, -3.548556, 1038950656.000000, -24.780001,  -186.619995,  -1.680000, 0.000000,  0.000000 
 25725440.000000, -5.647062 , 1.404587, -2.758924, 1038970624.000000, -47.810001,  -178.990005,  -3.010000, 0.000000,  0.000000 
 25745920.000000, -5.221139 , 1.088734, -0.612563, 1038990848.000000, -119.279999,  -153.369995,  -11.900000, 0.000000,  0.000000 
 25767936.000000, -5.927022 , 1.174876, 0.978664, 1039011072.000000, -174.509995,  -108.570000,  -30.240000, 0.000000,  0.000000 
 25785600.000000, -6.697510 , 1.399801, 1.536192, 1039033344.000000, -175.910004,  -57.540001,  -38.500000, 0.000000,  0.000000 
 25805568.000000, -8.647661 , 1.995614, 0.100499, 1039050752.000000, -130.059998,  -5.460000,  -42.349998, 0.000000,  0.000000 
 25825536.000000, -10.186246 , 1.459622, -1.471586, 1039070720.000000, -48.299999,  36.540001,  -33.459999, 0.000000,  0.000000 
 25845760.000000, -12.272788 , 0.681954, -1.868794, 1039090688.000000, 28.700001,  77.629997,  -16.660000, 0.000000,  0.000000 
 25865984.000000, -13.631909 , 0.574277, -1.531406, 1039110912.000000, 63.770000,  126.840004,  -7.560000, 0.000000,  0.000000 
 25885440.000000, -12.457035 , 0.775275, -0.818345, 1039131136.000000, 74.410004,  167.930008,  7.910000, 0.000000,  0.000000 
 25905408.000000, -11.313265 , 0.521635, -0.016750, 1039150592.000000, 72.449997,  193.479996,  31.780001, 0.000000,  0.000000 
 25925376.000000, -12.792030 , 0.705883, 0.634098, 1039170560.000000, 57.820000,  223.160004,  43.119999, 0.000000,  0.000000 
 25945600.000000, -15.069997 , 0.253639, 1.071985, 1039190528.000000, 39.270000,  264.600006,  44.099998, 0.000000,  0.000000 
 25966080.000000, -16.292728 , -0.277567, 1.588834, 1039211008.000000, 25.969999,  291.549988,  46.270000, 0.000000,  0.000000 
 25985280.000000, -16.441084 , -0.289532, 1.897508, 1039231232.000000, 30.380001,  293.720001,  57.750000, 0.000000,  0.000000 
 26005248.000000, -15.479170 , 0.138784, 2.390430, 1039250688.000000, 52.990002,  284.200012,  67.690002, 0.000000,  0.000000 
 26025472.000000, -14.280365 , 0.763310, 3.110669, 1039270656.000000, 76.160004,  271.739990,  69.650002, 0.000000,  0.000000 
 26045696.000000, -13.706088 , 1.686940, 3.586841, 1039290624.000000, 93.519997,  261.940002,  60.200001, 0.000000,  0.000000 
 26065920.000000, -14.232510 , 1.911865, 3.371487, 1039310848.000000, 102.550003,  258.929993,  38.639999, 0.000000,  0.000000 
 26085376.000000, -14.880964 , 1.957329, 2.636890, 1039331072.000000, 94.220001,  257.250000,  14.490000, 0.000000,  0.000000 
 26105344.000000, -14.744574 , 1.758725, 2.282753, 1039350528.000000, 68.809998,  246.540009,  0.210000, 0.000000,  0.000000 
 26125312.000000, -14.536398 , 1.878366, 3.196811, 1039370496.000000, 42.349998,  228.410004,  -2.730000, 0.000000,  0.000000 
 26145536.000000, -14.177474 , 2.273181, 4.000800, 1039390464.000000, 14.490000,  211.330002,  -3.010000, 0.000000,  0.000000 
 26165760.000000, -13.617554 , 2.397608, 4.479364, 1039410688.000000, -16.100000,  198.800003,  -1.540000, 0.000000,  0.000000 
 26185216.000000, -12.990634 , 1.998007, 5.123034, 1039431168.000000, -45.080002,  189.839996,  1.680000, 0.000000,  0.000000 
 26205184.000000, -12.519248 , 1.512264, 6.204589, 1039450368.000000, -65.239998,  181.789993,  2.380000, 0.000000,  0.000000 
 26225152.000000, -12.081362 , 1.514657, 7.429714, 1039470336.000000, -61.250000,  173.039993,  6.650000, 0.000000,  0.000000 
 26245632.000000, -11.832507 , 1.806581, 8.652447, 1039490560.000000, -30.940001,  158.830002,  14.630000, 0.000000,  0.000000 
 26265856.000000, -11.933006 , 2.349752, 9.408579, 1039510784.000000, 11.550000,  139.300003,  18.900000, 0.000000,  0.000000 
 26285312.000000, -11.729616 , 3.249453, 8.597411, 1039531008.000000, 56.770000,  113.190002,  23.520000, 0.000000,  0.000000 
 26305280.000000, -11.040483 , 3.921836, 7.113862, 1039550464.000000, 83.720001,  70.840004,  26.809999, 0.000000,  0.000000 
 26325248.000000, -11.514263 , 5.053641, 7.625926, 1039570432.000000, 69.300003,  21.629999,  26.740000, 0.000000,  0.000000 
 26345472.000000, -12.023933 , 5.819345, 6.446264, 1039590400.000000, 21.700001,  -14.000000,  20.650000, 0.000000,  0.000000 
 26365696.000000, -12.691531 , 4.532006, 6.027520, 1039610624.000000, -24.080000,  -52.779999,  20.790001, 0.000000,  0.000000 
 26385152.000000, -14.816358 , 2.572284, 5.312066, 1039630848.000000, -76.580002,  -81.690002,  12.390000, 0.000000,  0.000000 
 26405120.000000, -16.082161 , 0.751346, 4.096512, 1039650304.000000, -113.400002,  -93.940002,  8.750000, 0.000000,  0.000000 
 26425088.000000, -16.074982 , -0.244068, 3.471986, 1039670272.000000, -124.110001,  -125.440002,  9.310000, 0.000000,  0.000000 
 26445568.000000, -16.137196 , -0.311067, 3.093920, 1039690240.000000, -114.309998,  -167.369995,  9.660000, 0.000000,  0.000000 
 26465792.000000, -17.015362 , -0.241675, 2.926422, 1039710720.000000, -91.070000,  -195.089996,  5.740000, 0.000000,  0.000000 
 26484992.000000, -19.448862 , -0.062213, 2.696711, 1039730944.000000, -59.220001,  -211.259995,  -7.140000, 0.000000,  0.000000 
 26505216.000000, -21.011375 , -0.275175, 1.696511, 1039750400.000000, -18.200001,  -216.229996,  -20.230000, 0.000000,  0.000000 
 26525184.000000, -19.877178 , -0.248854, 0.897308, 1039770368.000000, 27.719999,  -231.910004,  -25.410000, 0.000000,  0.000000 
 26545408.000000, -17.551353 , 0.851845, 0.605384, 1039790336.000000, 62.650002,  -261.869995,  -29.469999, 0.000000,  0.000000 
 26565632.000000, -16.398014 , 1.976472, 0.038285, 1039810560.000000, 86.519997,  -290.570007,  -34.720001, 0.000000,  0.000000 
 26585088.000000, -15.574883 , 1.895115, -0.990629, 1039830784.000000, 89.320000,  -304.640015,  -45.360001, 0.000000,  0.000000 
 26605056.000000, -14.203795 , 1.306481, -0.624527, 1039850240.000000, 64.470001,  -312.269989,  -64.050003, 0.000000,  0.000000 
 26625024.000000, -13.198811 , 1.256232, -0.019143, 1039870208.000000, 28.980000,  -316.119995,  -77.209999, 0.000000,  0.000000 
 26645504.000000, -12.411572 , 0.973879, 0.270389, 1039910656.000000, 13.720000,  -300.860016,  -68.180000, 3301493504.000000,  1005.565552 
 26665728.000000, -11.485549 , 0.490529, -0.069392, 0.000000, 0.000000,  0.000000,  0.000000, 0.000000,  0.000000 
 26684928.000000, -9.999605 , 0.519243, -0.413958, 1039930880.000000, 18.760000,  -282.940002,  -50.049999, 0.000000,  0.000000 
 26704896.000000, -8.482556 , 1.182054, -0.394816, 1039950080.000000, 22.469999,  -265.369995,  -23.520000, 0.000000,  0.000000 
 26724864.000000, -7.195218 , 1.842474, -1.349552, 1039970304.000000, 23.030001,  -242.619995,  3.570000, 0.000000,  0.000000 
 26745344.000000, -6.147161 , 2.014757, -2.323431, 1039990272.000000, 6.790000,  -215.600006,  23.660000, 0.000000,  0.000000 
 26767616.000000, -5.328816 , 1.777867, -2.390430, 1040010496.000000, -33.810001,  -183.470001,  32.200001, 0.000000,  0.000000 
 26785024.000000, -5.369494 , 1.820938, -1.576870, 1040032768.000000, -93.800003,  -149.869995,  31.360001, 0.000000,  0.000000 
 26804992.000000, -5.816952 , 1.581656, -1.131805, 1040050176.000000, -151.899994,  -110.739998,  22.820000, 0.000000,  0.000000 
 26824960.000000, -5.917450 , 1.045663, -0.189033, 1040070144.000000, -181.020004,  -74.480003,  14.420000, 0.000000,  0.000000 
 26845440.000000, -6.439085 , 0.373280, 0.669990, 1040090112.000000, -184.100006,  -45.290001,  9.940000, 0.000000,  0.000000 
 26865408.000000, -7.848458 , 0.265603, 0.516850, 1040110592.000000, -150.430008,  -9.800000,  13.160000, 0.000000,  0.000000 
 26884864.000000, -9.355937 , 0.227318, -0.949951, 1040130816.000000, -82.529999,  31.920000,  25.620001, 0.000000,  0.000000 
 26904832.000000, -10.923235 , 0.009571, -0.863809, 1040150016.000000, -14.770000,  74.340004,  45.500000, 0.000000,  0.000000 
 26924800.000000, -12.303895 , -0.095713, 0.263210, 1040169984.000000, 15.470000,  129.710007,  60.619999, 0.000000,  0.000000 
 26945280.000000, -12.715459 , 0.466600, 1.691726, 1040189952.000000, 38.150002,  179.899994,  77.419998, 0.000000,  0.000000 
 26965504.000000, -12.277573 , 0.564706, 1.536192, 1040210432.000000, 72.870003,  215.809998,  94.150002, 0.000000,  0.000000 
 26984960.000000, -12.153147 , 0.342174, 1.081556, 1040230656.000000, 115.709999,  239.610001,  99.190002, 0.000000,  0.000000 
 27004928.000000, -12.949955 , 0.342174, 1.512264, 1040250112.000000, 133.630005,  261.380005,  84.559998, 0.000000,  0.000000 
 27024896.000000, -14.431112 , 1.703690, 2.519642, 1040270080.000000, 120.889999,  282.309998,  64.680000, 0.000000,  0.000000 
 27045120.000000, -14.483756 , 2.232504, 2.289931, 1040290048.000000, 96.040001,  287.980011,  42.349998, 0.000000,  0.000000 
 27065344.000000, -13.607983 , 1.524228, 2.950350, 1040310272.000000, 39.759998,  260.329987,  11.480000, 0.000000,  0.000000 
 27084800.000000, -13.220345 , 4.484150, 1.892723, 1040330496.000000, -28.350000,  224.770004,  -14.070000, 0.000000,  0.000000 
 27104768.000000, -11.913863 , 4.460221, 0.184247, 1040349952.000000, -77.419998,  181.930008,  -20.160000, 0.000000,  0.000000 
 27124736.000000, -11.631511 , 2.062613, 0.875773, 1040369920.000000, -144.619995,  145.320007,  -29.330000, 0.000000,  0.000000 
 27144960.000000, -13.143774 , -0.674776, 1.818545, 1040389888.000000, -257.040009,  140.490005,  -32.340000, 0.000000,  0.000000 
 27165440.000000, -14.648861 , -3.199204, 2.648855, 1040410368.000000, -347.549988,  156.869995,  -7.910000, 0.000000,  0.000000 
 27184640.000000, -14.847464 , -5.180461, 3.215954, 1040430592.000000, -381.290009,  155.330002,  34.439999, 0.000000,  0.000000 
 27204608.000000, -13.871193 , -5.656632, 3.830909, 1040450048.000000, -345.380005,  133.139999,  77.699997, 0.000000,  0.000000 
 27224576.000000, -12.985848 , -4.972286, 5.134997, 1040470016.000000, -253.610001,  111.510002,  123.970001, 0.000000,  0.000000 
 27245056.000000, -13.435699 , -3.479164, 6.384050, 1040489984.000000, -142.940002,  112.209999,  163.380005, 0.000000,  0.000000 
 27265280.000000, -13.880764 , -2.914458, 6.829116, 1040510208.000000, -59.220001,  128.240005,  185.360001, 0.000000,  0.000000 
 27284736.000000, -13.720445 , -3.091527, 7.714460, 1040530432.000000, -14.840000,  141.190002,  188.720001, 0.000000,  0.000000 
 27304704.000000, -13.928620 , -4.254438, 8.898908, 1040549888.000000, 24.920000,  141.190002,  181.860001, 0.000000,  0.000000 
 27324672.000000, -14.227723 , -4.852644, 9.047262, 1040569856.000000, 77.840004,  133.770004,  164.639999, 0.000000,  0.000000 
 27344896.000000, -12.693924 , -2.258825, 7.410572, 1040589824.000000, 122.360001,  106.400002,  130.130005, 0.000000,  0.000000 
 27365120.000000, -11.691331 , 0.354138, 7.384251, 1040610048.000000, 110.180000,  50.189999,  78.400002, 0.000000,  0.000000 
 27384576.000000, -12.708281 , -0.212961, 7.264609, 1040630528.000000, 56.349998,  19.879999,  39.480000, 0.000000,  0.000000 
 27404544.000000, -14.254045 , -3.024528, 7.338787, 1040649728.000000, -4.970000,  9.590000,  4.200000, 0.000000,  0.000000 
 27424512.000000, -15.144175 , -4.500899, 6.585048, 1040669696.000000, -40.599998,  -5.950000,  -23.520000, 0.000000,  0.000000 
 27444992.000000, -14.179866 , -3.835695, 5.400600, 1040689664.000000, -16.590000,  -39.410000,  -34.650002, 0.000000,  0.000000 
 27465216.000000, -11.684153 , -2.593820, 4.441079, 1040710144.000000, 27.580000,  -87.010002,  -39.060001, 0.000000,  0.000000 
 27484672.000000, -10.535598 , -1.713261, 4.118048, 1040730368.000000, 64.610001,  -127.680000,  -43.750000, 0.000000,  0.000000 
 27504640.000000, -11.303694 , -1.239482, 3.768696, 1040749824.000000, 86.379997,  -145.039993,  -60.830002, 0.000000,  0.000000 
 27524608.000000, -13.478769 , -1.466800, 3.397808, 1040769792.000000, 92.050003,  -146.930008,  -80.500000, 0.000000,  0.000000 
 27544832.000000, -15.223137 , -1.672583, 2.986243, 1040789760.000000, 96.040001,  -143.990005,  -97.370003, 0.000000,  0.000000 
 27565056.000000, -15.062819 , -0.399601, 3.180061, 1040809984.000000, 106.610001,  -152.600006,  -105.139999, 0.000000,  0.000000 
 27584512.000000, -13.550553 , 1.208375, 2.306681, 1040830208.000000, 116.129997,  -183.680008,  -108.570000, 0.000000,  0.000000 
 27604480.000000, -12.160326 , 1.607977, 1.069592, 1040849664.000000, 105.279999,  -217.279999,  -110.739998, 0.000000,  0.000000 
 27624448.000000, -11.054840 , 0.744168, 0.665205, 1040869632.000000, 83.860001,  -228.059998,  -120.050003, 0.000000,  0.000000 
 27644928.000000, -10.856236 , 0.363709, 1.641476, 1040910080.000000, -27.930000,  -226.380005,  -136.500000, 3302493184.000000,  1005.565857 
 27665152.000000, -10.872985 , 0.856631, 2.438286, 0.000000, 0.000000,  0.000000,  0.000000, 0.000000,  0.000000 
 27684352.000000, -10.786844 , 0.672383, 1.974079, 1040930304.000000, -38.290001,  -217.979996,  -134.259995, 0.000000,  0.000000 
 27704320.000000, -10.537991 , -0.514457, 0.964308, 1040949760.000000, -21.840000,  -216.860001,  -118.930000, 0.000000,  0.000000 
 27724544.000000, -10.602598 , -1.330409, 1.194018, 1040969728.000000, -13.720000,  -208.320007,  -99.190002, 0.000000,  0.000000 
 27744768.000000, -11.009377 , -1.115055, 1.294517, 1040989696.000000, -16.730000,  -190.960007,  -74.760002, 0.000000,  0.000000 
 27767040.000000, -10.738988 , -0.595813, 0.270389, 1041009920.000000, -12.040000,  -174.580002,  -48.580002, 0.000000,  0.000000 
 27784448.000000, -9.832108 , -0.282353, -0.495314, 1041032192.000000, -3.850000,  -162.680008,  -23.870001, 0.000000,  0.000000 
 27804416.000000, -9.339187 , -0.394816, -0.610170, 1041049600.000000, 0.140000,  -147.699997,  -6.790000, 0.000000,  0.000000 
 27824384.000000, -9.468399 , -0.043071, 0.428315, 1041069568.000000, -3.990000,  -122.709999,  -2.940000, 0.000000,  0.000000 
 27844608.000000, -9.499505 , 0.545564, 0.744168, 1041089536.000000, -12.390000,  -94.500000,  -8.400000, 0.000000,  0.000000 
 27864832.000000, -8.554340 , 0.861416, 0.078963, 1041109760.000000, -8.190000,  -73.080002,  -13.510000, 0.000000,  0.000000 
 27884288.000000, -7.793423 , 0.167498, 0.277567, 1041130240.000000, 5.880000,  -59.080002,  -17.010000, 0.000000,  0.000000 
 27904256.000000, -9.324830 , 0.765703, 2.213361, 1041149440.000000, 22.960001,  -33.040001,  -21.070000, 0.000000,  0.000000 
 27924224.000000, -11.231910 , 1.679761, 1.921437, 1041169408.000000, 53.200001,  9.800000,  -21.840000, 0.000000,  0.000000 
 27944704.000000, -11.152946 , 2.622534, -0.574277, 1041189632.000000, 110.250000,  35.980000,  -10.920000, 0.000000,  0.000000 
 27964928.000000, -9.676575 , 2.361716, -1.452443, 1041209856.000000, 164.850006,  34.860001,  6.090000, 0.000000,  0.000000 
 27984384.000000, -9.226725 , 1.732404, -0.772882, 1041230080.000000, 168.350006,  35.070000,  12.390000, 0.000000,  0.000000 
 28004352.000000, -10.621738 , 1.950150, -0.047856, 1041249536.000000, 122.919998,  66.220001,  14.210000, 0.000000,  0.000000 
 28024320.000000, -11.131411 , 1.730011, 0.040678, 1041269504.000000, 75.599998,  113.610001,  17.430000, 0.000000,  0.000000 
 28044544.000000, -10.494920 , 1.208375, 1.095913, 1041289472.000000, 44.450001,  139.789993,  22.120001, 0.000000,  0.000000 
 28064768.000000, -11.619547 , 1.249053, 1.517050, 1041309696.000000, 23.240000,  152.180008,  16.100000, 0.000000,  0.000000 
 28084224.000000, -12.703495 , 1.067199, 1.464408, 1041329920.000000, 30.660000,  181.930008,  9.100000, 0.000000,  0.000000 
 28104192.000000, -12.260822 , 0.387637, 1.048056, 1041349376.000000, 51.939999,  200.899994,  4.620000, 0.000000,  0.000000 
 28124160.000000, -12.220145 , -0.126820, 0.447458, 1041369344.000000, 79.029999,  199.430008,  -0.980000, 0.000000,  0.000000 
 28144640.000000, -12.193825 , 0.078963, 0.512064, 1041389312.000000, 105.139999,  205.729996,  -6.440000, 0.000000,  0.000000 
 28164864.000000, -10.648061 , 0.653241, 0.914058, 1041409792.000000, 121.800003,  211.119995,  -9.660000, 0.000000,  0.000000 
 28184064.000000, -9.525827 , 1.375873, 1.450050, 1041430016.000000, 132.930008,  195.789993,  -8.260000, 0.000000,  0.000000 
 28204288.000000, -10.547562 , 2.991028, 1.761117, 1041449472.000000, 129.710007,  191.169998,  -14.980000, 0.000000,  0.000000 
 28224256.000000, -11.772687 , 3.352344, 0.768096, 1041469440.000000, 106.540001,  204.470001,  -22.680000, 0.000000,  0.000000 
 28244480.000000, -11.815758 , 2.596212, 1.148555, 1041489408.000000, 67.480003,  211.889999,  -23.030001, 0.000000,  0.000000 
 28264704.000000, -12.057433 , 2.328217, 1.952543, 1041509632.000000, 3.360000,  207.270004,  -24.570000, 0.000000,  0.000000 
 28284160.000000, -13.141381 , 3.275774, 3.084348, 1041529856.000000, -51.450001,  217.279999,  -15.750000, 0.000000,  0.000000 
 28304128.000000, -14.036297 , 3.570091, 4.378866, 1041549312.000000, -95.340004,  231.000000,  -5.110000, 0.000000,  0.000000 
 28324096.000000, -14.411970 , 2.928815, 6.156733, 1041569280.000000, -119.699997,  233.589996,  4.970000, 0.000000,  0.000000 
 28344320.000000, -14.634504 , 2.550749, 8.164310, 1041589248.000000, -113.540001,  222.320007,  15.400000, 0.000000,  0.000000 
 28364800.000000, -14.727824 , 3.048456, 9.212367, 1041609472.000000, -77.489998,  201.039993,  27.930000, 0.000000,  0.000000 
 28384000.000000, -14.560326 , 3.409772, 8.752945, 1041629952.000000, -21.840000,  168.419998,  36.470001, 0.000000,  0.000000 
 28403968.000000, -13.184454 , 3.584448, 7.176075, 1041649152.000000, 30.309999,  120.540001,  36.259998, 0.000000,  0.000000 
 28423936.000000, -11.856436 , 4.216154, 6.300302, 1041669376.000000, 44.029999,  59.010002,  30.799999, 0.000000,  0.000000 
 28444416.000000, -12.181859 , 4.555934, 5.807381, 1041689344.000000, 13.300000,  9.800000,  19.950001, 0.000000,  0.000000 
 28464640.000000, -12.607781 , 3.373880, 6.041877, 1041709568.000000, -31.710001,  -13.720000,  8.190000, 0.000000,  0.000000 
 28484096.000000, -13.562519 , 1.694118, 6.285945, 1041729792.000000, -71.959999,  -42.139999,  -2.030000, 0.000000,  0.000000 
 28504064.000000, -14.038691 , 0.636491, 5.558527, 1041749248.000000, -84.840004,  -67.340004,  -9.030000, 0.000000,  0.000000 
 28524032.000000, -13.605590 , 0.330210, 4.697111, 1041769216.000000, -68.809998,  -97.510002,  -4.830000, 0.000000,  0.000000 
 28544256.000000, -13.371094 , 0.167498, 4.074977, 1041789184.000000, -45.570000,  -130.830002,  -0.560000, 0.000000,  0.000000 
 28564480.000000, -14.242079 , -0.009571, 3.881158, 1041809408.000000, -24.500000,  -154.210007,  -0.910000, 0.000000,  0.000000 
 28583936.000000, -16.579868 , -0.155533, 3.223132, 1041829888.000000, -5.180000,  -167.160004,  -6.720000, 0.000000,  0.000000 
 28603904.000000, -18.613768 , -0.418744, 1.983650, 1041849088.000000, 20.930000,  -172.619995,  -12.110000, 0.000000,  0.000000 
 28623872.000000, -18.046667 , 0.169890, 1.706082, 1041869056.000000, 45.220001,  -185.220001,  -13.720000, 0.000000,  0.000000 
 28644352.000000, -15.457633 , 1.646262, 1.392623, 1041909504.000000, 61.389999,  -257.809998,  -7.070000, 3303492608.000000,  1005.568726 
 28664576.000000, -13.347164 , 2.313859, 0.571885, 0.000000, 0.000000,  0.000000,  0.000000, 0.000000,  0.000000 
 28684032.000000, -12.153147 , 1.665405, 0.330210, 1041929728.000000, 34.930000,  -277.690002,  -24.710001, 0.000000,  0.000000 
 28704000.000000, -12.062220 , 0.808774, 0.418744, 1041949184.000000, -14.070000,  -281.049988,  -51.240002, 0.000000,  0.000000 
 28723968.000000, -12.736995 , 0.081356, 0.648455, 1041969152.000000, -48.439999,  -275.170013,  -76.720001, 0.000000,  0.000000 
 28744192.000000, -13.344771 , -0.421137, 0.787239, 1041989120.000000, -55.790001,  -265.860016,  -93.239998, 0.000000,  0.000000 
 28766464.000000, -13.299308 , -0.689133, 0.586242, 1042009344.000000, -39.970001,  -259.000000,  -97.720001, 0.000000,  0.000000 
 28783872.000000, -12.521641 , -0.937986, 0.239282, 1042031616.000000, -9.520000,  -257.320007,  -87.989998, 0.000000,  0.000000 
 28803840.000000, -11.550155 , -0.696311, 0.385244, 1042049024.000000, 20.440001,  -254.100006,  -70.070000, 0.000000,  0.000000 
 28823808.000000, -10.861022 , -0.098106, -0.748954, 1042068992.000000, 41.299999,  -244.720001,  -52.080002, 0.000000,  0.000000 
 28844032.000000, -10.025927 , 1.722832, -2.352145, 1042088960.000000, 53.689999,  -229.320007,  -35.420002, 0.000000,  0.000000 
 28864512.000000, -8.042276 , 2.849852, -3.708875, 1042109440.000000, 48.160000,  -211.050003,  -22.960001, 0.000000,  0.000000 
 28883712.000000, -5.702096 , 2.861816, -3.739982, 1042129664.000000, 15.820000,  -196.979996,  -15.540000, 0.000000,  0.000000 
 28903680.000000, -4.218546 , 2.153540, -2.677568, 1042149120.000000, -40.110001,  -171.639999,  -20.510000, 0.000000,  0.000000 
 28923648.000000, -4.859823 , 1.002593, -0.406780, 1042169088.000000, -96.669998,  -119.629997,  -22.750000, 0.000000,  0.000000 
 28944128.000000, -7.477571 , 0.993021, 0.753739, 1042189056.000000, -133.699997,  -48.439999,  -27.090000, 0.000000,  0.000000 
 28964352.000000, -9.241080 , 0.961915, -0.504886, 1042209280.000000, -113.400002,  13.720000,  -23.660000, 0.000000,  0.000000 
 28983808.000000, -10.114462 , 0.732204, -1.866402, 1042229504.000000, -49.000000,  49.490002,  1.750000, 0.000000,  0.000000 
 29003776.000000, -11.356337 , 0.445065, -1.928615, 1042248960.000000, 2.520000,  86.379997,  24.219999, 0.000000,  0.000000 
 29023744.000000, -13.119846 , 0.117248, -1.328017, 1042268928.000000, 27.440001,  133.139999,  34.160000, 0.000000,  0.000000 
 29043968.000000, -14.170296 , 0.559920, -0.899701, 1042288896.000000, 31.500000,  176.330002,  38.290001, 0.000000,  0.000000 
 29064192.000000, -13.490734 , 1.191626, -0.579063, 1042309120.000000, 25.690001,  210.139999,  44.170002, 0.000000,  0.000000 
 29083648.000000, -13.368701 , 1.366302, -0.380459, 1042329600.000000, 20.719999,  220.990005,  51.240002, 0.000000,  0.000000 
 29103616.000000, -15.469598 , 1.251446, 0.976272, 1042348800.000000, 12.180000,  231.490005,  42.070000, 0.000000,  0.000000 
 29123584.000000, -17.075182 , 1.004985, 1.988436, 1042368768.000000, -1.680000,  254.520004,  28.350000, 0.000000,  0.000000 
 29144064.000000, -15.804593 , 1.624727, 1.854438, 1042388736.000000, -3.500000,  255.220001,  28.210001, 0.000000,  0.000000 
 29164288.000000, -13.780266 , 2.857030, 1.548156, 1042409216.000000, 3.850000,  229.180008,  33.180000, 0.000000,  0.000000 
 29183744.000000, -12.459428 , 2.983850, 1.770689, 1042429440.000000, -10.710000,  208.110001,  42.139999, 0.000000,  0.000000 
 29203712.000000, -12.019149 , 2.117648, 2.383251, 1042448896.000000, -62.720001,  203.419998,  44.380001, 0.000000,  0.000000 
 29223680.000000, -12.638889 , 1.249053, 2.926422, 1042468864.000000, -125.860001,  211.259995,  49.700001, 0.000000,  0.000000 
 29243904.000000, -13.686946 , 0.330210, 3.366701, 1042488832.000000, -162.960007,  223.020004,  64.190002, 0.000000,  0.000000 
 29264128.000000, -14.234902 , -0.181855, 3.610770, 1042509056.000000, -165.270004,  226.589996,  83.720001, 0.000000,  0.000000 
 29283584.000000, -14.313866 , -0.392423, 4.096512, 1042529280.000000, -139.020004,  221.199997,  105.769997, 0.000000,  0.000000 
 29303552.000000, -13.847265 , -0.535992, 4.697111, 1042548736.000000, -93.800003,  217.419998,  126.980003, 0.000000,  0.000000 
 29323520.000000, -13.957335 , -0.057428, 5.190032, 1042568704.000000, -45.570000,  213.990005,  145.389999, 0.000000,  0.000000 
 29343744.000000, -14.557933 , 0.337388, 5.481956, 1042588672.000000, -7.840000,  214.130005,  151.899994, 0.000000,  0.000000 
 29364224.000000, -14.256437 , -0.043071, 5.907879, 1042609152.000000, 12.950000,  208.389999,  144.550003, 0.000000,  0.000000 
 29383424.000000, -14.335401 , -0.988236, 8.123632, 1042629376.000000, 19.879999,  187.389999,  133.070007, 0.000000,  0.000000 
 29403392.000000, -14.074582 , -0.952343, 8.298308, 1042648832.000000, 12.740000,  160.860001,  105.349998, 0.000000,  0.000000 
 29423616.000000, -12.476178 , 0.430708, 7.140182, 1042668800.000000, 13.510000,  122.779999,  73.360001, 0.000000,  0.000000 
 29443840.000000, -11.265409 , 1.356731, 6.400801, 1042688768.000000, 20.650000,  73.360001,  42.910000, 0.000000,  0.000000 
 29464064.000000, -10.966305 , 0.770489, 6.838687, 1042708992.000000, 12.670000,  34.860001,  10.430000, 0.000000,  0.000000 
 29483520.000000, -11.004591 , -0.023928, 6.989435, 1042729216.000000, -11.410000,  8.330000,  -18.200001, 0.000000,  0.000000 
 29503488.000000, -11.351551 , -0.653241, 6.860222, 1042748672.000000, -22.120001,  -15.750000,  -33.740002, 0.000000,  0.000000 
 29523456.000000, -13.208381 , -0.873380, 7.171289, 1042768640.000000, -17.780001,  -29.820000,  -37.799999, 0.000000,  0.000000 
 29543680.000000, -14.914464 , -0.669990, 6.570691, 1042788608.000000, 6.230000,  -46.340000,  -37.869999, 0.000000,  0.000000 
 29563904.000000, -14.919249 , 0.033500, 4.934000, 1042808832.000000, 49.980000,  -64.120003,  -34.509998, 0.000000,  0.000000 
 29583360.000000, -14.555541 , 0.445065, 3.582055, 1042829312.000000, 100.239998,  -102.900002,  -27.510000, 0.000000,  0.000000 
 29603328.000000, -14.215759 , 0.823131, 3.294917, 1042848512.000000, 129.639999,  -149.100006,  -24.920000, 0.000000,  0.000000 
 29623296.000000, -15.395420 , 0.500100, 2.675175, 1042868480.000000, 126.349998,  -181.580002,  -29.610001, 0.000000,  0.000000 
 29643776.000000, -17.391035 , 0.081356, 1.895115, 1042908928.000000, 116.059998,  -216.229996,  -47.740002, 3304492032.000000,  1005.565186 
 29664000.000000, -18.979870 , 0.311067, 1.048056, 0.000000, 0.000000,  0.000000,  0.000000, 0.000000,  0.000000 
 29683456.000000, -19.020546 , 1.275374, -0.007178, 1042929152.000000, 124.459999,  -239.610001,  -46.060001, 0.000000,  0.000000 
 29703424.000000, -17.285749 , 1.643869, -0.600598, 1042948608.000000, 123.129997,  -267.610016,  -40.950001, 0.000000,  0.000000 
 29723392.000000, -15.661024 , 1.591227, -0.641276, 1042968576.000000, 94.430000,  -295.049988,  -41.439999, 0.000000,  0.000000 
 29743616.000000, -14.569898 , 1.124627, -0.617348, 1042988544.000000, 48.369999,  -308.980011,  -52.009998, 0.000000,  0.000000 
 29765888.000000, -13.866407 , 0.710668, -0.416351, 1043008768.000000, 3.360000,  -310.730011,  -65.519997, 0.000000,  0.000000 
 29783296.000000, -13.356737 , 0.244068, 0.043071, 1043031040.000000, -31.080000,  -305.480011,  -76.720001, 0.000000,  0.000000 
 29803264.000000, -12.835101 , -0.267996, -0.040678, 1043048448.000000, -46.619999,  -293.720001,  -80.360001, 0.000000,  0.000000 
 29823232.000000, -12.035898 , -0.768096, 0.935594, 1043068416.000000, -46.130001,  -277.410004,  -71.610001, 0.000000,  0.000000 
 29843456.000000, -11.107484 , -0.404387, 1.978864, 1043108864.000000, -7.980000,  -235.550003,  -28.559999, 0.000000,  0.000000 
 29863936.000000, -10.322637 , 0.198604, 1.849652, 0.000000, 0.000000,  0.000000,  0.000000, 0.000000,  0.000000 
 29883136.000000, -9.767502 , 0.193819, 0.567099, 1043129088.000000, 17.639999,  -217.350006,  -4.200000, 0.000000,  0.000000 
 29903104.000000, -9.628718 , 0.442672, -0.617348, 1043148544.000000, 26.670000,  -198.520004,  9.590000, 0.000000,  0.000000 
 29923328.000000, -9.396614 , 1.462015, -1.150948, 1043168512.000000, 14.210000,  -177.309998,  10.780000, 0.000000,  0.000000 
 29943552.000000, -7.994420 , 1.672583, -0.411566, 1043188480.000000, -2.660000,  -154.419998,  13.720000, 0.000000,  0.000000 
 29963776.000000, -6.587440 , 1.387837, 0.114855, 1043208704.000000, -23.520000,  -144.339996,  10.080000, 0.000000,  0.000000 
 29983232.000000, -5.855237 , 1.545763, 0.155533, 1043228928.000000, -31.290001,  -127.540001,  -0.770000, 0.000000,  0.000000 
 30003200.000000, -6.429514 , 1.684547, -1.344766, 1043248384.000000, -15.050000,  -99.400002,  -5.250000, 0.000000,  0.000000 
 30023168.000000, -7.982457 , 1.634298, -3.735196, 1043268352.000000, 7.490000,  -63.770000,  -4.340000, 0.000000,  0.000000 
 30043392.000000, -8.894121 , 1.603191, -4.328616, 1043288320.000000, 2.940000,  -25.690001,  -5.320000, 0.000000,  0.000000 
 30063616.000000, -9.370294 , 1.342373, -2.579463, 1043308544.000000, -30.590000,  9.380000,  -10.010000, 0.000000,  0.000000 
 30083072.000000, -10.569098 , 0.454636, -0.057428, 1043329024.000000, -60.900002,  48.930000,  -8.190000, 0.000000,  0.000000 
 30103040.000000, -11.866007 , -0.179462, 1.182054, 1043348224.000000, -71.820000,  102.269997,  -2.450000, 0.000000,  0.000000 
 30123008.000000, -11.069198 , 0.038285, 1.055235, 1043368448.000000, -45.500000,  151.970001,  9.310000, 0.000000,  0.000000 
 30143488.000000, -10.947165 , 0.162712, 0.717847, 1043388416.000000, 11.760000,  180.529999,  28.070000, 0.000000,  0.000000 
 30163712.000000, -12.497713 , -0.323031, 0.215354, 1043408640.000000, 57.680000,  213.220001,  29.540001, 0.000000,  0.000000 
 30183168.000000, -13.976478 , -0.701097, 0.088534, 1043428864.000000, 84.980003,  252.139999,  21.000000, 0.000000,  0.000000 
 30203136.000000, -14.246865 , -0.145962, 0.184247, 1043448320.000000, 115.849998,  274.190002,  16.799999, 0.000000,  0.000000 
 30223104.000000, -13.442878 , 1.091127, 0.777667, 1043468288.000000, 145.809998,  264.390015,  3.220000, 0.000000,  0.000000 
 30243328.000000, -13.115060 , 1.686940, 0.818345, 1043488256.000000, 140.839996,  248.779999,  -9.730000, 0.000000,  0.000000 
 30263552.000000, -12.593425 , 1.761117, 1.064806, 1043508480.000000, 108.779999,  243.040009,  -23.799999, 0.000000,  0.000000 
 30283008.000000, -12.514462 , 1.734797, 1.363909, 1043528960.000000, 66.570000,  236.949997,  -36.610001, 0.000000,  0.000000 
 30302976.000000, -13.205987 , 1.469193, 1.471586, 1043548160.000000, 24.850000,  238.210007,  -43.959999, 0.000000,  0.000000 
 30322944.000000, -14.103296 , 1.184447, 1.349552, 1043568128.000000, -12.110000,  249.479996,  -42.910000, 0.000000,  0.000000 
 30343424.000000, -14.986248 , 1.148555, 1.328017, 1043588096.000000, -40.599998,  254.729996,  -33.740002, 0.000000,  0.000000 
 30363648.000000, -16.278372 , 1.186840, 1.746760, 1043608576.000000, -57.119999,  256.760010,  -17.430000, 0.000000,  0.000000 
 30383104.000000, -16.962721 , 1.079163, 2.132005, 1043628800.000000, -73.430000,  258.440002,  -0.770000, 0.000000,  0.000000 
 30403072.000000, -16.969898 , 0.849452, 2.833102, 1043648256.000000, -93.519997,  254.309998,  17.639999, 0.000000,  0.000000 
 30423040.000000, -16.831116 , 0.914058, 3.610770, 1043668224.000000, -119.489998,  248.009995,  31.990000, 0.000000,  0.000000 
 30443264.000000, -16.383656 , 0.873380, 5.333601, 1043688192.000000, -141.050003,  239.820007,  40.599998, 0.000000,  0.000000 
 30463488.000000, -15.043676 , 0.612563, 7.657032, 1043708416.000000, -150.500000,  223.860001,  40.110001, 0.000000,  0.000000 
 30482944.000000, -13.557733 , 0.401994, 9.248260, 1043728640.000000, -134.750000,  195.160004,  33.250000, 0.000000,  0.000000 
 30502912.000000, -11.956935 , 0.363709, 8.829515, 1043748096.000000, -89.879997,  161.279999,  23.170000, 0.000000,  0.000000 
 30522880.000000, -10.827522 , 0.969093, 8.595018, 1043768064.000000, -30.170000,  115.989998,  9.730000, 0.000000,  0.000000 
 30543104.000000, -11.480762 , 1.631905, 8.583055, 1043788032.000000, 10.570000,  69.440002,  -8.400000, 0.000000,  0.000000 
 30563584.000000, -12.952348 , 1.428515, 8.733803, 1043808512.000000, 34.509998,  46.549999,  -20.370001, 0.000000,  0.000000 
 30582784.000000, -14.524432 , 0.997807, 7.913064, 1043828736.000000, 54.880001,  22.049999,  -26.180000, 0.000000,  0.000000 
 30602752.000000, -15.716059 , 1.127020, 5.960521, 1043848192.000000, 88.410004,  -9.310000,  -18.969999, 0.000000,  0.000000 
 30622720.000000, -15.079568 , 2.024328, 4.187439, 1043868160.000000, 115.919998,  -47.950001,  -4.410000, 0.000000,  0.000000 
 30643200.000000, -12.579069 , 2.679961, 3.127419, 1043908352.000000, 103.250000,  -152.949997,  30.660000, 3305491456.000000,  1005.562378 
 30663424.000000, -12.349358 , 3.065206, 2.888137, 0.000000, 0.000000,  0.000000,  0.000000, 0.000000,  0.000000 
 30682880.000000, -14.644074 , 2.414358, 2.600998, 1043928576.000000, 67.059998,  -177.729996,  28.350000, 0.000000,  0.000000 
 30702848.000000, -18.309877 , 1.452443, 2.471786, 1043948032.000000, 30.240000,  -179.899994,  20.160000, 0.000000,  0.000000 
 30722816.000000, -20.324638 , 1.098306, 1.866402, 1043968000.000000, 9.450000,  -186.690002,  10.990000, 0.000000,  0.000000 
 30743040.000000, -18.608982 , 1.009771, 1.213161, 1043987968.000000, 12.040000,  -220.710007,  15.540000, 0.000000,  0.000000 
 30765312.000000, -16.656439 , 1.208375, 1.100698, 1044008192.000000, 20.790001,  -270.480011,  25.900000, 0.000000,  0.000000 
 30782720.000000, -15.778273 , 1.847259, 0.507278, 1044030464.000000, 15.820000,  -297.079987,  20.160000, 0.000000,  0.000000 
 30802688.000000, -15.294923 , 2.287539, 0.021535, 1044047872.000000, 1.750000,  -308.000000,  4.060000, 0.000000,  0.000000 
 30822656.000000, -14.919249 , 1.756332, -0.052642, 1044067840.000000, -21.070000,  -314.299988,  -15.890000, 0.000000,  0.000000 
 30843136.000000, -14.172688 , 0.990629, 0.296710, 1044087808.000000, -47.180000,  -315.000000,  -35.840000, 0.000000,  0.000000 
 30863360.000000, -13.210773 , 0.004786, 0.557528, 1044108288.000000, -65.239998,  -311.640015,  -44.799999, 0.000000,  0.000000 
 30882816.000000, -12.234503 , -0.516850, 0.433101, 1044128512.000000, -63.490002,  -301.140015,  -44.520000, 0.000000,  0.000000 
 30902784.000000, -10.877771 , -0.792024, -0.019143, 1044147968.000000, -49.770000,  -285.670013,  -36.119999, 0.000000,  0.000000 
 30922752.000000, -9.705289 , -0.507278, -0.698704, 1044167936.000000, -24.780001,  -271.670013,  -21.420000, 0.000000,  0.000000 
 30943232.000000, -8.642875 , -0.078963, -1.342373, 1044187904.000000, 5.530000,  -253.680008,  -4.830000, 0.000000,  0.000000 
 30963200.000000, -7.645068 , 0.734596, -2.155933, 1044208384.000000, 23.100000,  -228.550003,  11.200000, 0.000000,  0.000000 
 30982656.000000, -6.412765 , 1.239482, -3.354738, 1044228352.000000, 16.450001,  -198.940002,  21.139999, 0.000000,  0.000000 
 31002624.000000, -5.015356 , 0.945165, -2.627320, 1044247808.000000, -8.400000,  -169.960007,  28.350000, 0.000000,  0.000000 
 31022592.000000, -5.704489 , 0.289532, -1.526621, 1044267776.000000, -59.709999,  -133.419998,  29.330000, 0.000000,  0.000000 
 31042816.000000, -8.523234 , 0.047856, -1.440479, 1044287744.000000, -110.599998,  -76.370003,  22.260000, 0.000000,  0.000000 
 31063296.000000, -10.920842 , -0.177069, -2.794817, 1044308224.000000, -136.360001,  -19.320000,  17.080000, 0.000000,  0.000000 
 31082496.000000, -12.248858 , -0.658026, -3.759124, 1044328448.000000, -133.490005,  19.740000,  25.690001, 0.000000,  0.000000 
 31102464.000000, -12.658032 , -1.373480, -2.139183, 1044367872.000000, -99.120003,  87.779999,  41.020000, 0.000000,  0.000000 
 31122688.000000, -12.547962 , -1.342373, -0.263210, 0.000000, 0.000000,  0.000000,  0.000000, 0.000000,  0.000000 
 31142912.000000, -11.700903 , -0.466600, 0.545564, 1044387840.000000, -53.060001,  129.009995,  52.009998, 0.000000,  0.000000 
 31163136.000000, -11.478370 , 0.492921, 0.844666, 1044408064.000000, 9.240000,  159.949997,  58.869999, 0.000000,  0.000000 
 31182592.000000, -12.571891 , 0.636491, 1.591227, 1044428288.000000, 58.029999,  189.210007,  54.040001, 0.000000,  0.000000 
 31202560.000000, -14.782858 , -0.220140, 1.603191, 1044447744.000000, 82.599998,  215.600006,  41.720001, 0.000000,  0.000000 
 31222528.000000, -15.395420 , -0.143569, 1.203590, 1044467712.000000, 98.070000,  237.790009,  36.680000, 0.000000,  0.000000 
 31242752.000000, -13.311273 , 0.971486, 0.196211, 1044487680.000000, 122.360001,  231.490005,  36.959999, 0.000000,  0.000000 
 31262976.000000, -11.069198 , 2.163112, -0.181855, 1044507904.000000, 141.680008,  198.800003,  35.770000, 0.000000,  0.000000 
 31282432.000000, -10.375278 , 2.275574, 0.342174, 1044528384.000000, 133.070007,  177.029999,  20.160000, 0.000000,  0.000000 
 31302400.000000, -11.198411 , 2.067399, 0.971486, 1044547584.000000, 97.860001,  179.199997,  -6.300000, 0.000000,  0.000000 
 31322368.000000, -12.234503 , 1.921437, 1.265803, 1044567552.000000, 49.070000,  194.600006,  -30.940001, 0.000000,  0.000000 
 31342848.000000, -12.686745 , 1.531406, 1.339981, 1044587520.000000, 7.840000,  210.070007,  -37.869999, 0.000000,  0.000000 
 31363072.000000, -13.514663 , 0.993021, 1.184447, 1044608000.000000, -18.620001,  219.800003,  -33.670002, 0.000000,  0.000000 
 31382784.000000, -14.591432 , 0.576670, 1.086342, 1044628224.000000, -33.529999,  237.440002,  -18.620001, 0.000000,  0.000000 
 31402496.000000, -15.510277 , 0.648455, 1.299303, 1044647936.000000, -40.599998,  253.190002,  0.140000, 0.000000,  0.000000 
 31422464.000000, -16.235302 , 0.610170, 1.636691, 1044667648.000000, -43.330002,  263.269989,  20.510000, 0.000000,  0.000000 
 31442688.000000, -16.596617 , 0.574277, 3.036492, 1044687616.000000, -51.799999,  267.540009,  31.500000, 0.000000,  0.000000 
 31462912.000000, -16.811972 , 0.796810, 5.726025, 1044707840.000000, -63.980000,  274.610016,  47.389999, 0.000000,  0.000000 
 31482368.000000, -16.723438 , 0.964308, 8.537591, 1044728064.000000, -68.250000,  278.670013,  58.450001, 0.000000,  0.000000 
 31502336.000000, -16.242479 , 1.232304, 9.499505, 1044747520.000000, -40.599998,  272.929993,  63.279999, 0.000000,  0.000000 
 31522304.000000, -14.615361 , 0.693919, 10.272388, 1044767488.000000, 21.000000,  247.100006,  60.060001, 0.000000,  0.000000 
 31542528.000000, -12.222539 , 1.926222, 6.814759, 1044787456.000000, 108.779999,  190.330002,  49.630001, 0.000000,  0.000000 
 31563008.000000, -10.186246 , 4.462614, 6.120840, 1044807936.000000, 171.919998,  104.370003,  26.250000, 0.000000,  0.000000 
 31582208.000000, -10.616954 , 5.659025, 5.800202, 1044828160.000000, 159.809998,  31.219999,  2.520000, 0.000000,  0.000000 
 31602176.000000, -12.662818 , 3.866802, 6.821937, 1044847616.000000, 80.570000,  4.760000,  -24.990000, 0.000000,  0.000000 
 31622400.000000, -14.842678 , 2.526821, 7.992027, 1044867584.000000, 5.390000,  -5.670000,  -36.750000, 0.000000,  0.000000 
 31642624.000000, -15.596417 , 2.727818, 6.850651, 1044907776.000000, 20.650000,  -77.000000,  -0.420000, 3306490880.000000,  1005.561646 
 31662848.000000, -14.933606 , 2.447858, 5.268995, 0.000000, 0.000000,  0.000000,  0.000000, 0.000000,  0.000000 
 31682304.000000, -13.842479 , 1.127020, 4.835894, 1044928000.000000, 10.570000,  -119.349998,  21.280001, 0.000000,  0.000000 
 31702272.000000, -14.356936 , 0.373280, 4.046263, 1044947456.000000, -21.700001,  -149.940002,  33.810001, 0.000000,  0.000000 
 31722240.000000, -16.694723 , 0.248854, 3.582055, 1044967424.000000, -29.469999,  -172.830002,  41.160000, 0.000000,  0.000000 
 31742464.000000, -19.630716 , 0.153141, 2.854637, 1044987392.000000, -36.680000,  -190.539993,  35.980000, 0.000000,  0.000000 
 31764736.000000, -20.082958 , 0.035892, 1.969293, 1045007616.000000, -40.389999,  -208.039993,  29.049999, 0.000000,  0.000000 
 31782144.000000, -17.438890 , 0.251246, 1.452443, 1045029888.000000, -33.670002,  -247.100006,  16.730000, 0.000000,  0.000000 
 31802112.000000, -16.297516 , 1.191626, 1.174876, 1045047296.000000, -35.490002,  -292.040009,  0.140000, 0.000000,  0.000000 
 31822080.000000, -16.072590 , 1.196411, 0.189033, 1045067264.000000, -49.209999,  -309.119995,  -31.990000, 0.000000,  0.000000 
 31842560.000000, -15.756737 , -0.023928, 0.447458, 1045087488.000000, -75.879997,  -318.149994,  -68.110001, 0.000000,  0.000000 
 31862784.000000, -15.421742 , -0.430708, 1.426122, 1045107712.000000, -103.320000,  -319.059998,  -98.209999, 0.000000,  0.000000 
 31882240.000000, -15.129817 , -0.634098, 1.811367, 1045127936.000000, -93.519997,  -314.369995,  -102.970001, 0.000000,  0.000000 
 31902208.000000, -14.356936 , -0.741775, 1.366302, 1045147392.000000, -59.150002,  -305.410004,  -90.370003, 0.000000,  0.000000 
 31922176.000000, -13.220345 , -0.971486, 0.366102, 1045167360.000000, -23.030001,  -294.839996,  -64.959999, 0.000000,  0.000000 
 31942400.000000, -12.007183 , -1.057628, 0.031107, 1045187328.000000, 3.640000,  -279.160004,  -32.619999, 0.000000,  0.000000 
 31962624.000000, -11.449656 , -0.753739, -0.179462, 1045207552.000000, 13.650000,  -259.279999,  -3.920000, 0.000000,  0.000000 
 31982080.000000, -11.215159 , -0.507278, -0.854238, 1045227776.000000, 14.420000,  -237.229996,  13.650000, 0.000000,  0.000000 
 32002048.000000, -10.884951 , 0.411566, -2.438286, 1045247232.000000, 0.770000,  -216.300003,  21.139999, 0.000000,  0.000000 
 32022016.000000, -9.016156 , 0.334995, -3.050849, 1045267200.000000, -17.990000,  -197.470001,  24.500000, 0.000000,  0.000000 
 32042496.000000, -7.211967 , -0.196211, -2.801995, 1045287168.000000, -47.180000,  -184.729996,  26.809999, 0.000000,  0.000000 
 32062720.000000, -5.630312 , -0.229711, -2.510071, 1045307648.000000, -77.980003,  -159.740005,  16.660000, 0.000000,  0.000000 
 32081920.000000, -4.804788 , -0.507278, -1.158126, 1045327872.000000, -89.879997,  -127.750000,  8.680000, 0.000000,  0.000000 
 32102144.000000, -6.025128 , -0.495314, -0.416351, 1045347328.000000, -85.400002,  -84.699997,  -2.310000, 0.000000,  0.000000 
 32122112.000000, -7.195218 , -0.200997, -1.390230, 1045367296.000000, -53.060001,  -30.240000,  -10.780000, 0.000000,  0.000000 
 32142336.000000, -6.960721 , -0.277567, -2.313859, 1045387264.000000, 6.860000,  2.800000,  -8.190000, 0.000000,  0.000000 
 32162560.000000, -7.884350 , -0.160319, -1.878366, 1045407488.000000, 51.660000,  27.299999,  -6.300000, 0.000000,  0.000000 
 32182016.000000, -10.138390 , 0.253639, -1.182054, 1045427712.000000, 64.190002,  74.199997,  -11.970000, 0.000000,  0.000000 
 32201984.000000, -12.949955 , 0.662812, -0.751346, 1045447168.000000, 65.590004,  127.680000,  -13.440001, 0.000000,  0.000000 
 32221952.000000, -13.756337 , 0.758525, 0.631705, 1045467136.000000, 64.959999,  177.729996,  -13.720000, 0.000000,  0.000000 
 32242176.000000, -12.643675 , 0.681954, 1.136591, 1045487104.000000, 78.050003,  197.960007,  -5.810000, 0.000000,  0.000000 
 32262656.000000, -13.337594 , 2.177469, 1.567299, 1045507584.000000, 112.489998,  212.100006,  5.320000, 0.000000,  0.000000 
 32281856.000000, -14.146368 , 3.651447, 1.411765, 1045527808.000000, 132.789993,  233.869995,  9.590000, 0.000000,  0.000000 
 32301824.000000, -13.294522 , 4.285545, 0.856631, 1045547008.000000, 114.309998,  240.589996,  10.080000, 0.000000,  0.000000 
 32321792.000000, -12.459428 , 4.847858, 0.799203, 1045567232.000000, 63.770000,  224.559998,  2.030000, 0.000000,  0.000000 
 32342272.000000, -12.268002 , 4.663611, 1.012164, 1045587200.000000, -11.900000,  211.820007,  -3.850000, 0.000000,  0.000000 
 32362496.000000, -12.638889 , 3.996014, 1.112662, 1045607424.000000, -108.430000,  209.369995,  -4.970000, 0.000000,  0.000000 
 32381952.000000, -13.646267 , 1.935793, 1.129412, 1045627648.000000, -213.289993,  208.180008,  0.840000, 0.000000,  0.000000 
 32401920.000000, -14.943177 , -0.626920, 1.861616, 1045647104.000000, -320.809998,  212.029999,  10.990000, 0.000000,  0.000000 
 32421888.000000, -16.280766 , -2.438286, 2.694318, 1045667072.000000, -376.390015,  214.690002,  40.950001, 0.000000,  0.000000 
 32442112.000000, -17.185251 , -3.072384, 2.366502, 1045687040.000000, -356.369995,  205.869995,  81.269997, 0.000000,  0.000000 
 32462336.000000, -17.130217 , -3.567699, 2.294717, 1045707264.000000, -292.110016,  187.600006,  121.590004, 0.000000,  0.000000 
 32481792.000000, -16.627726 , -3.845266, 3.000600, 1045727744.000000, -229.460007,  174.229996,  159.600006, 0.000000,  0.000000 
 32501760.000000, -16.773687 , -4.077370, 4.352544, 1045746944.000000, -172.339996,  171.009995,  192.360001, 0.000000,  0.000000 
 32521728.000000, -16.890934 , -4.577469, 6.269196, 1045766912.000000, -118.720001,  178.149994,  217.070007, 0.000000,  0.000000 
 32542208.000000, -16.718651 , -4.859823, 7.874779, 1045786880.000000, -60.900002,  184.520004,  234.009995, 0.000000,  0.000000 
 32562432.000000, -15.416957 , -5.460421, 7.290931, 1045807360.000000, 3.220000,  177.940002,  236.320007, 0.000000,  0.000000 
 32581632.000000, -13.100704 , -6.154340, 6.434300, 1045827584.000000, 47.180000,  154.910004,  213.289993, 0.000000,  0.000000 
 32601856.000000, -12.468999 , -4.697111, 7.267002, 1045847040.000000, 46.480000,  121.099998,  158.619995, 0.000000,  0.000000 
 32621824.000000, -12.741781 , -4.127619, 9.334401, 1045867008.000000, 38.290001,  95.480003,  92.680000, 0.000000,  0.000000 
 32642048.000000, -11.708081 , -5.065606, 10.224532, 1045886976.000000, 23.100000,  74.199997,  35.770000, 0.000000,  0.000000 
 32662272.000000, -11.614761 , -6.266802, 9.884750, 1045907200.000000, 19.389999,  37.799999,  2.310000, 3307490304.000000,  1005.561707 
 32681728.000000, -12.650853 , -5.517848, 8.161918, 1045927424.000000, 47.459999,  10.640000,  -19.530001, 0.000000,  0.000000 
 32701696.000000, -12.854243 , -3.058028, 6.314659, 1045946880.000000, 86.449997,  -20.090000,  -35.770000, 0.000000,  0.000000 
 32721664.000000, -12.157932 , -0.713061, 5.582455, 1045966848.000000, 113.889999,  -70.070000,  -51.730000, 0.000000,  0.000000 
 32741888.000000, -12.251251 , -0.516850, 5.166104, 1045986816.000000, 86.029999,  -123.270004,  -72.379997, 0.000000,  0.000000 
 32764160.000000, -14.713466 , -1.988436, 5.072784, 1046007296.000000, 14.280000,  -154.139999,  -99.680000, 0.000000,  0.000000 
 32781568.000000, -17.757137 , -3.215954, 4.400401, 1046029312.000000, -43.400002,  -159.740005,  -130.830002, 0.000000,  0.000000 
 32801536.000000, -19.585253 , -3.168097, 3.498307, 1046046976.000000, -40.459999,  -166.460007,  -149.309998, 0.000000,  0.000000 
 32821504.000000, -19.439291 , -2.141576, 2.433501, 1046066944.000000, 12.530000,  -188.509995,  -157.990005, 0.000000,  0.000000 
 32841984.000000, -18.719051 , -1.122234, 1.538585, 1046086912.000000, 69.090004,  -213.639999,  -161.559998, 0.000000,  0.000000 
 32862208.000000, -17.797815 , -0.411566, 1.124627, 1046107136.000000, 98.349998,  -228.759995,  -167.440002, 0.000000,  0.000000 
 32881664.000000, -16.840685 , 0.035892, 1.225125, 1046127360.000000, 96.879997,  -237.720001,  -176.399994, 0.000000,  0.000000 
 32901632.000000, -16.053448 , -0.112463, 0.772882, 1046146816.000000, 74.620003,  -246.470001,  -186.830002, 0.000000,  0.000000 
 32921600.000000, -15.103497 , -0.957129, 0.811167, 1046166784.000000, 47.880001,  -250.040009,  -193.759995, 0.000000,  0.000000 
 32941824.000000, -13.947763 , -1.344766, 1.105484, 1046186752.000000, 28.210001,  -250.460007,  -189.210007, 0.000000,  0.000000 
 32962048.000000, -12.875778 , -1.177269, 1.215554, 1046206976.000000, 33.670002,  -249.059998,  -171.919998, 0.000000,  0.000000 
 32981504.000000, -12.052648 , -0.990629, 0.911665, 1046227456.000000, 55.160000,  -243.110001,  -145.809998, 0.000000,  0.000000 
 33001472.000000, -11.413764 , -0.430708, 0.136391, 1046246656.000000, 74.620003,  -232.050003,  -114.660004, 0.000000,  0.000000 
 33021440.000000, -10.432706 , 0.153141, -1.117448, 1046266624.000000, 79.800003,  -221.410004,  -87.709999, 0.000000,  0.000000 
 33041920.000000, -9.212367 , 0.581456, -1.725225, 1046286592.000000, 64.680000,  -209.440002,  -66.220001, 0.000000,  0.000000 
 33062144.000000, -8.070991 , 0.552742, -1.325624, 1046307072.000000, 34.790001,  -193.199997,  -47.950001, 0.000000,  0.000000 
 33081600.000000, -7.563712 , 0.744168, -1.009771, 1046327296.000000, 4.480000,  -169.820007,  -33.810001, 0.000000,  0.000000 
 33101568.000000, -6.903293 , 0.844666, -1.119841, 1046346752.000000, -14.070000,  -139.930008,  -22.400000, 0.000000,  0.000000 
 33121536.000000, -6.396015 , 0.421137, -0.923629, 1046366720.000000, -19.879999,  -113.470001,  -10.640000, 0.000000,  0.000000 
 33141760.000000, -7.195218 , 0.306281, -0.301496, 1046386688.000000, -13.370000,  -80.989998,  -1.960000, 0.000000,  0.000000 
 33161984.000000, -8.554340 , 0.229711, -1.095913, 1046406912.000000, 5.670000,  -38.220001,  5.460000, 0.000000,  0.000000 
 33181440.000000, -9.564112 , 0.107677, -1.718047, 1046427136.000000, 42.209999,  -0.280000,  15.820000, 0.000000,  0.000000 
 33201408.000000, -9.978070 , -0.150748, -1.091127, 1046446592.000000, 81.199997,  37.380001,  28.000000, 0.000000,  0.000000 
 33221376.000000, -10.403993 , -0.382852, 1.100698, 1046466560.000000, 125.440002,  76.790001,  42.209999, 0.000000,  0.000000 
 33241600.000000, -11.370694 , 0.095713, 1.663012, 1046486528.000000, 175.279999,  118.370003,  56.840000, 0.000000,  0.000000 
 33262080.000000, -11.662617 , 0.713061, 1.060020, 1046507008.000000, 241.639999,  160.509995,  65.519997, 0.000000,  0.000000 
 33281280.000000, -11.767902 , 1.284946, 0.212961, 1046527232.000000, 298.339996,  181.300003,  65.940002, 0.000000,  0.000000 
 33301248.000000, -12.306287 , 1.823331, -0.600598, 1046546688.000000, 302.679993,  193.339996,  38.430000, 0.000000,  0.000000 
 33321472.000000, -12.550355 , 1.466800, -0.368495, 1046566656.000000, 278.459991,  206.990005,  6.300000, 0.000000,  0.000000 
 33341696.000000, -12.346965 , 0.509671, 0.421137, 1046586624.000000, 190.750000,  210.770004,  -8.470000, 0.000000,  0.000000 
 33361920.000000, -11.739187 , 0.550349, 0.856631, 1046606848.000000, 102.129997,  207.410004,  -37.520000, 0.000000,  0.000000 
 33381376.000000, -11.406586 , 0.861416, 0.885344, 1046627072.000000, 57.889999,  194.180008,  -57.680000, 0.000000,  0.000000 
 33401344.000000, -10.782058 , 1.165305, 0.885344, 1046646528.000000, 44.730000,  178.080002,  -68.250000, 0.000000,  0.000000 
 33421312.000000, -10.523634 , 1.127020, 0.935594, 1046666496.000000, 16.870001,  168.350006,  -80.919998, 0.000000,  0.000000 
 33441536.000000, -11.097912 , 0.569492, 0.997807, 1046686464.000000, -33.810001,  172.059998,  -87.150002, 0.000000,  0.000000 
 33461760.000000, -12.153147 , 0.205783, 1.375873, 1046706688.000000, -79.029999,  186.339996,  -83.019997, 0.000000,  0.000000 
 33481216.000000, -13.497912 , 0.868595, 2.261217, 1046727168.000000, -102.410004,  202.089996,  -69.510002, 0.000000,  0.000000 
 33501184.000000, -14.404793 , 0.794417, 1.765903, 1046746368.000000, -98.910004,  209.720001,  -46.410000, 0.000000,  0.000000 
 33521152.000000, -15.072391 , -0.337388, 1.813759, 1046766336.000000, -87.849998,  212.520004,  -17.920000, 0.000000,  0.000000 
 33541632.000000, -16.170694 , -0.184247, 2.617748, 1046786560.000000, -115.709999,  216.580002,  1.470000, 0.000000,  0.000000 
 33561856.000000, -16.749758 , 0.813560, 3.603590, 1046806784.000000, -154.419998,  227.779999,  27.860001, 0.000000,  0.000000 
 33581312.000000, -17.249859 , 0.524028, 6.005985, 1046827008.000000, -176.680008,  233.309998,  54.180000, 0.000000,  0.000000 
 33601280.000000, -17.601604 , 0.196211, 9.066404, 1046846464.000000, -192.990005,  238.979996,  56.209999, 0.000000,  0.000000 
 33621248.000000, -16.893328 , -0.023928, 10.930414, 1046866432.000000, -167.089996,  237.020004,  58.170002, 0.000000,  0.000000 
 33641472.000000, -15.093925 , 0.050249, 10.346564, 1046906624.000000, 39.830002,  170.240005,  63.700001, 3308489728.000000,  1005.564453 
 33661696.000000, -13.694124 , 1.153341, 8.384450, 0.000000, 0.000000,  0.000000,  0.000000, 0.000000,  0.000000 
 33681152.000000, -13.009777 , 3.328416, 7.537392, 1046926848.000000, 132.509995,  110.389999,  50.259998, 0.000000,  0.000000 
 33701120.000000, -11.760723 , 3.869194, 7.377072, 1046946304.000000, 140.139999,  59.570000,  31.639999, 0.000000,  0.000000 
 33721088.000000, -12.193825 , 2.715853, 8.334201, 1046966272.000000, 92.330002,  14.840000,  16.100000, 0.000000,  0.000000 
 33741312.000000, -13.550553 , 1.622334, 8.006385, 1046986240.000000, 50.680000,  -6.510000,  -0.630000, 0.000000,  0.000000 
 33763584.000000, -12.887742 , 1.423729, 5.955735, 1047006720.000000, 58.170002,  -25.690001,  -0.420000, 0.000000,  0.000000 
 33780992.000000, -11.801401 , 2.067399, 4.680361, 1047028736.000000, 97.580002,  -67.900002,  15.960000, 0.000000,  0.000000 
 33801216.000000, -11.164910 , 2.536392, 4.039084, 1047046400.000000, 118.860001,  -108.709999,  28.910000, 0.000000,  0.000000 
 33821184.000000, -11.593226 , 2.455036, 3.847659, 1047066368.000000, 103.879997,  -135.169998,  39.130001, 0.000000,  0.000000 
 33841408.000000, -13.612768 , 2.538785, 4.082155, 1047086336.000000, 67.620003,  -151.059998,  39.900002, 0.000000,  0.000000 
 33861632.000000, -15.393027 , 1.988436, 3.096312, 1047106560.000000, 32.200001,  -158.199997,  35.139999, 0.000000,  0.000000 
 33881088.000000, -15.615561 , 1.064806, 2.153540, 1047126784.000000, 8.610000,  -173.529999,  35.630001, 0.000000,  0.000000 
 33901056.000000, -14.967105 , 1.385444, 2.096112, 1047146240.000000, -14.840000,  -201.320007,  34.160000, 0.000000,  0.000000 
 33921024.000000, -14.663218 , 2.653640, 1.155733, 1047166208.000000, -34.439999,  -228.410004,  35.560001, 0.000000,  0.000000 
 33941248.000000, -14.098512 , 1.976472, 0.232104, 1047186176.000000, -59.080002,  -250.110001,  33.040001, 0.000000,  0.000000 
 33961728.000000, -13.497912 , 0.904487, 0.471386, 1047206400.000000, -110.879997,  -265.230011,  17.430000, 0.000000,  0.000000 
 33980928.000000, -13.253844 , 0.734596, 1.239482, 1047226880.000000, -166.460007,  -274.119995,  0.700000, 0.000000,  0.000000 
 34000896.000000, -13.237095 , 0.650848, 1.914258, 1047246080.000000, -190.470001,  -275.100006,  -10.920000, 0.000000,  0.000000 
 34020864.000000, -13.835299 , 0.043071, 1.442872, 1047266304.000000, -181.649994,  -271.880005,  -22.820000, 0.000000,  0.000000 
 34041344.000000, -13.919049 , -0.581456, 1.079163, 1047286272.000000, -150.850006,  -260.820007,  -26.180000, 0.000000,  0.000000 
 34061568.000000, -12.698709 , -0.038285, 1.411765, 1047306496.000000, -120.260002,  -249.550003,  -24.080000, 0.000000,  0.000000 
 34081024.000000, -11.353944 , 0.031107, 1.103091, 1047346176.000000, -57.959999,  -235.479996,  -17.430000, 0.000000,  0.000000 
 34100992.000000, -10.633704 , -0.148355, 0.354138, 0.000000, 0.000000,  0.000000,  0.000000, 0.000000,  0.000000 
 34120960.000000, -9.934999 , 0.815953, -0.947558, 1047366144.000000, -42.139999,  -214.059998,  -29.469999, 0.000000,  0.000000 
 34141184.000000, -8.047063 , 1.976472, -1.442872, 1047386112.000000, -25.900000,  -191.800003,  -36.959999, 0.000000,  0.000000 
 34161408.000000, -6.065805 , 1.938186, -1.115055, 1047406336.000000, -18.270000,  -177.520004,  -37.730000, 0.000000,  0.000000 
 34180864.000000, -5.051248 , 1.294517, -0.524028, 1047426816.000000, -28.840000,  -151.479996,  -40.599998, 0.000000,  0.000000 
 34200832.000000, -5.960521 , 1.143769, -0.186640, 1047446016.000000, -37.869999,  -105.209999,  -36.189999, 0.000000,  0.000000 
 34220800.000000, -8.583055 , 1.452443, -1.359123, 1047465984.000000, -26.670000,  -47.110001,  -23.590000, 0.000000,  0.000000 
 34241280.000000, -10.387242 , 1.263410, -2.837888, 1047485952.000000, -3.640000,  10.290000,  -5.320000, 0.000000,  0.000000 
 34261504.000000, -10.669596 , 0.713061, -2.261217, 1047506432.000000, -1.820000,  51.869999,  9.940000, 0.000000,  0.000000 
 34280960.000000, -10.918450 , 0.468993, -0.502493, 1047526656.000000, -15.260000,  82.389999,  20.160000, 0.000000,  0.000000 
 34300928.000000, -11.665009 , 0.423530, 0.047856, 1047546112.000000, -19.809999,  121.309998,  30.170000, 0.000000,  0.000000 
 34320896.000000, -10.992627 , 0.031107, 0.382852, 1047566080.000000, -9.870000,  160.020004,  35.209999, 0.000000,  0.000000 
 34341120.000000, -10.219746 , -0.287139, 0.823131, 1047586048.000000, 17.570000,  176.330002,  39.130001, 0.000000,  0.000000 
 34361344.000000, -11.131411 , -0.040678, 1.071985, 1047606272.000000, 62.020000,  187.320007,  39.480000, 0.000000,  0.000000 
 34380800.000000, -12.801601 , 1.062413, 1.306481, 1047626496.000000, 102.059998,  206.850006,  34.299999, 0.000000,  0.000000 
 34400768.000000, -12.894921 , 2.057827, 1.146162, 1047645952.000000, 123.270004,  218.119995,  27.580000, 0.000000,  0.000000 
 34420736.000000, -12.165110 , 2.309074, 1.210768, 1047665920.000000, 127.330002,  206.779999,  24.150000, 0.000000,  0.000000 
 34440960.000000, -11.418550 , 2.426322, 1.837688, 1047685888.000000, 109.690002,  194.180008,  12.740000, 0.000000,  0.000000 
 34461440.000000, -10.669596 , 2.541178, 2.258825, 1047706368.000000, 78.470001,  189.979996,  4.830000, 0.000000,  0.000000 
 34480640.000000, -10.449455 , 2.304288, 2.366502, 1047726592.000000, 46.549999,  189.770004,  -1.540000, 0.000000,  0.000000 
 34500608.000000, -11.203196 , 1.488336, 2.467000, 1047745792.000000, 17.920000,  195.440002,  -5.250000, 0.000000,  0.000000 
 34520576.000000, -12.497713 , 0.799203, 2.689533, 1047766016.000000, -0.560000,  209.089996,  -6.720000, 0.000000,  0.000000 
 34541056.000000, -13.844872 , 0.930808, 3.290131, 1047785984.000000, 4.970000,  221.830002,  -3.640000, 0.000000,  0.000000 
 34561280.000000, -15.136996 , 2.017149, 3.515057, 1047806208.000000, 39.689999,  228.059998,  5.250000, 0.000000,  0.000000 
 34580736.000000, -14.907285 , 2.589034, 3.029313, 1047826432.000000, 88.760002,  232.540009,  18.410000, 0.000000,  0.000000 
 34600704.000000, -13.993226 , 3.546163, 3.192025, 1047845888.000000, 116.480003,  225.960007,  24.639999, 0.000000,  0.000000 
 34620672.000000, -13.789837 , 4.649254, 4.031906, 1047865856.000000, 99.470001,  221.899994,  22.960001, 0.000000,  0.000000 
 34640896.000000, -14.199009 , 4.823930, 5.479564, 1047885824.000000, 50.540001,  222.529999,  12.530000, 0.000000,  0.000000 
 34661120.000000, -14.378471 , 4.347759, 7.144968, 1047906304.000000, 3.360000,  213.990005,  -7.700000, 3309489152.000000,  1005.557861 
 34680576.000000, -13.864014 , 3.957729, 7.695317, 1047926528.000000, 1.680000,  189.139999,  -16.450001, 0.000000,  0.000000 
 34700544.000000, -12.586248 , 4.177868, 6.417551, 1047945728.000000, 47.529999,  146.649994,  -9.380000, 0.000000,  0.000000 
 34720512.000000, -11.727223 , 4.934000, 5.221139, 1047965696.000000, 87.989998,  94.150002,  -0.630000, 0.000000,  0.000000 
 34740992.000000, -12.023933 , 5.903094, 5.515456, 1047985664.000000, 82.669998,  47.389999,  1.890000, 0.000000,  0.000000 
 34763008.000000, -11.995219 , 5.132604, 6.046663, 1048006144.000000, 38.009998,  19.320000,  -4.410000, 0.000000,  0.000000 
 34780672.000000, -13.519447 , 3.771089, 6.783652, 1048028416.000000, -7.840000,  -7.280000,  -7.560000, 0.000000,  0.000000 
 34800640.000000, -14.837894 , 2.519642, 6.484549, 1048045824.000000, -22.049999,  -19.180000,  -9.940000, 0.000000,  0.000000 
 34820608.000000, -13.830515 , 2.222932, 5.182854, 1048065792.000000, 12.250000,  -41.790001,  7.280000, 0.000000,  0.000000 
 34840832.000000, -11.956935 , 2.813959, 4.187439, 1048085760.000000, 63.420002,  -85.120003,  31.780001, 0.000000,  0.000000 
 34861056.000000, -12.000006 , 2.766103, 3.833302, 1048105984.000000, 94.220001,  -123.270004,  52.709999, 0.000000,  0.000000 
 34880512.000000, -14.129619 , 2.239682, 4.110869, 1048126208.000000, 89.739998,  -136.919998,  56.420002, 0.000000,  0.000000 
 34900480.000000, -16.811972 , 1.887937, 4.292724, 1048145664.000000, 80.639999,  -139.930008,  54.459999, 0.000000,  0.000000 
 34920448.000000, -17.651854 , 1.777867, 3.122634, 1048165632.000000, 101.849998,  -147.490005,  62.860001, 0.000000,  0.000000 
 34940928.000000, -16.106089 , 2.373680, 1.880759, 1048185600.000000, 145.669998,  -173.250000,  85.889999, 0.000000,  0.000000 
 34961152.000000, -14.627325 , 3.180061, 0.145962, 1048206080.000000, 170.800003,  -209.300003,  112.209999, 0.000000,  0.000000 
 34980352.000000, -14.244473 , 3.852444, -0.581456, 1048226304.000000, 156.520004,  -234.500000,  132.020004, 0.000000,  0.000000 
 35000320.000000, -14.313866 , 3.962514, -0.416351, 1048245760.000000, 82.250000,  -247.729996,  128.520004, 0.000000,  0.000000 
 35020544.000000, -14.560326 , 3.462414, -0.071785, 1048265728.000000, -15.190001,  -255.290009,  117.669998, 0.000000,  0.000000 
 35040768.000000, -14.251652 , 2.285146, 0.349352, 1048285696.000000, -98.419998,  -261.029999,  97.440002, 0.000000,  0.000000 
 35060992.000000, -13.816156 , 1.208375, 0.696311, 1048305920.000000, -157.919998,  -266.000000,  77.840004, 0.000000,  0.000000 
 35080448.000000, -13.036098 , 0.698704, 0.002393, 1048326144.000000, -180.740005,  -266.070007,  61.810001, 0.000000,  0.000000 
 35100416.000000, -12.028719 , 0.736989, -0.775275, 1048345600.000000, -164.779999,  -260.679993,  59.990002, 0.000000,  0.000000 
 35120384.000000, -10.901700 , 1.021735, -1.701297, 1048365568.000000, -148.539993,  -250.529999,  61.810001, 0.000000,  0.000000 
 35140608.000000, -9.662218 , 1.036092, -3.022135, 1048385536.000000, -148.470001,  -236.110001,  65.730003, 0.000000,  0.000000 
 35160832.000000, -8.386844 , 0.586242, -3.938586, 1048405760.000000, -169.539993,  -217.699997,  64.680000, 0.000000,  0.000000 
 35180288.000000, -7.515855 , -0.131605, -3.048456, 1048426240.000000, -213.080002,  -194.949997,  54.250000, 0.000000,  0.000000 
 35200256.000000, -7.386643 , -0.605384, -2.325824, 1048445440.000000, -258.790009,  -162.399994,  33.250000, 0.000000,  0.000000 
 35220224.000000, -6.927221 , -0.851845, -1.557728, 1048465408.000000, -267.260010,  -123.270004,  13.650000, 0.000000,  0.000000 
 35240704.000000, -6.695118 , -0.859023, -0.583849, 1048505856.000000, -204.399994,  -73.849998,  0.910000, 0.000000,  0.000000 
 35260928.000000, -7.647461 , -0.385244, -0.722632, 0.000000, 0.000000,  0.000000,  0.000000, 0.000000,  0.000000 
 35280384.000000, -8.099705 , -0.038285, -1.593620, 1048526080.000000, -139.580002,  -32.060001,  0.980000, 0.000000,  0.000000 
 35300352.000000, -8.346166 , 0.291924, -1.957329, 1048545536.000000, -61.670002,  9.240000,  6.090000, 0.000000,  0.000000 
 35320320.000000, -8.635696 , 0.449851, -1.942972, 1048565504.000000, 9.660000,  44.520000,  10.500000, 0.000000,  0.000000 
 35340544.000000, -10.025927 , 0.153141, -0.401994, 1048585472.000000, 54.389999,  86.800003,  11.340000, 0.000000,  0.000000 
 35360768.000000, -12.299109 , 0.169890, 0.478565, 1048605696.000000, 71.120003,  138.460007,  8.820000, 0.000000,  0.000000 
 35380224.000000, -13.469198 , 0.294317, 0.208176, 1048625920.000000, 80.919998,  184.169998,  8.960000, 0.000000,  0.000000 
 35400192.000000, -12.636496 , 0.430708, 0.557528, 1048645376.000000, 107.940002,  212.029999,  17.780001, 0.000000,  0.000000 
 35420160.000000, -12.947563 , 0.667598, 0.878166, 1048665344.000000, 130.970001,  220.080002,  23.940001, 0.000000,  0.000000 
 35440384.000000, -14.009976 , 1.241875, 1.383051, 1048685312.000000, 138.320007,  238.419998,  19.740000, 0.000000,  0.000000 
 35460864.000000, -14.062619 , 1.990828, 1.986043, 1048705792.000000, 118.020004,  255.149994,  10.850000, 0.000000,  0.000000 
 35480064.000000, -13.462020 , 2.428715, 2.033899, 1048726016.000000, 83.510002,  252.279999,  1.260000, 0.000000,  0.000000 
 35500032.000000, -12.667603 , 2.464607, 1.617548, 1048745472.000000, 59.570000,  238.419998,  -13.650000, 0.000000,  0.000000 
 35520256.000000, -12.009576 , 2.163112, 1.703690, 1048765440.000000, 55.090000,  224.070007,  -24.150000, 0.000000,  0.000000 
 35540480.000000, -11.693724 , 2.031506, 1.734797, 1048785408.000000, 57.540001,  207.199997,  -32.689999, 0.000000,  0.000000 
 35560704.000000, -11.722438 , 2.605784, 1.919044, 1048805632.000000, 44.730000,  194.809998,  -35.840000, 0.000000,  0.000000 
 35580160.000000, -12.385249 , 2.873780, 1.519442, 1048825856.000000, 10.710000,  189.630005,  -32.060001, 0.000000,  0.000000 
 35600128.000000, -13.117454 , 2.242075, 1.660619, 1048845312.000000, -30.240000,  191.309998,  -21.490000, 0.000000,  0.000000 
 35620096.000000, -13.552947 , 1.567299, 1.976472, 1048865280.000000, -74.760002,  193.690002,  -15.820000, 0.000000,  0.000000 
 35640832.000000, -13.849657 , 1.402194, 2.498107, 1048905984.000000, -118.580002,  204.680008,  5.250000, 3310489088.000000,  1005.554932 
 35660544.000000, -14.220546 , 1.277767, 3.407379, 0.000000, 0.000000,  0.000000,  0.000000, 0.000000,  0.000000 
 35680000.000000, -14.581861 , 1.098306, 4.510471, 1048925952.000000, -120.610001,  212.449997,  15.610000, 0.000000,  0.000000 
 35699968.000000, -14.426328 , 1.052842, 6.015556, 1048945152.000000, -113.889999,  217.490005,  21.490000, 0.000000,  0.000000 
 35719936.000000, -14.361722 , 1.402194, 8.090133, 1048965376.000000, -92.610001,  212.589996,  29.330000, 0.000000,  0.000000 
 35740416.000000, -14.110476 , 2.167897, 9.032906, 1048985344.000000, -48.090000,  200.270004,  34.580002, 0.000000,  0.000000 
 35762688.000000, -13.119846 , 2.706282, 7.489535, 1049005568.000000, 3.780000,  164.639999,  32.130001, 0.000000,  0.000000 
 35780096.000000, -12.440285 , 2.959922, 6.558727, 1049027840.000000, 18.129999,  107.099998,  16.870001, 0.000000,  0.000000 
 35800064.000000, -12.990634 , 2.541178, 6.970293, 1049045248.000000, -29.750000,  49.279999,  -8.960000, 0.000000,  0.000000 
 35820032.000000, -14.435899 , 0.990629, 7.633104, 1049065216.000000, -102.690002,  10.500000,  -35.139999, 0.000000,  0.000000 
 35840256.000000, -15.117853 , -0.921237, 7.441679, 1049085184.000000, -151.130005,  -22.120001,  -53.340000, 0.000000,  0.000000 
 35860480.000000, -14.079369 , -1.713261, 6.391229, 1049105408.000000, -154.630005,  -62.230000,  -60.689999, 0.000000,  0.000000 
 35879936.000000, -12.279965 , -1.426122, 5.225924, 1049125632.000000, -119.629997,  -109.480003,  -54.810001, 0.000000,  0.000000 
 35899904.000000, -11.298907 , -1.170090, 4.407579, 1049145088.000000, -79.940002,  -148.050003,  -53.480000, 0.000000,  0.000000 
 35919872.000000, -12.413965 , -1.447658, 4.314260, 1049165056.000000, -55.510002,  -166.600006,  -61.320000, 0.000000,  0.000000 
 35940352.000000, -14.967105 , -1.919044, 4.070191, 1049185024.000000, -38.360001,  -168.139999,  -72.169998, 0.000000,  0.000000 
 35960576.000000, -17.271393 , -2.105684, 3.371487, 1049205504.000000, -15.330000,  -167.229996,  -78.889999, 0.000000,  0.000000 
 35979776.000000, -17.412571 , -1.557728, 1.995614, 1049225728.000000, 14.140000,  -178.430008,  -80.570000, 0.000000,  0.000000 
 36000000.000000, -15.646667 , -0.734596, 0.784846, 1049245184.000000, 32.970001,  -205.940002,  -78.540001, 0.000000,  0.000000 
 36019968.000000, -13.775480 , -0.437887, 0.315853, 1049265152.000000, 11.970000,  -228.830002,  -83.580002, 0.000000,  0.000000 
 36040192.000000, -12.574283 , -0.459422, 0.342174, 1049285120.000000, -40.529999,  -237.720001,  -103.739998, 0.000000,  0.000000 
 36060416.000000, -12.212967 , -0.792024, 0.526421, 1049305344.000000, -93.169998,  -238.630005,  -135.940002, 0.000000,  0.000000 
 36079872.000000, -12.265609 , -1.497907, 0.981057, 1049325568.000000, -129.639999,  -231.279999,  -167.930008, 0.000000,  0.000000 
 36099840.000000, -12.351749 , -2.100898, 1.155733, 1049345024.000000, -147.419998,  -219.869995,  -190.680008, 0.000000,  0.000000 
 36119808.000000, -12.325430 , -2.567499, 0.681954, 1049364992.000000, -134.259995,  -209.930008,  -198.869995, 0.000000,  0.000000 
 36140032.000000, -11.863614 , -2.797210, 0.153141, 1049384960.000000, -98.980003,  -202.020004,  -192.919998, 0.000000,  0.000000 
 36160512.000000, -11.030912 , -2.344966, 0.009571, 1049405440.000000, -59.849998,  -195.300003,  -174.860001, 0.000000,  0.000000 
 36179712.000000, -10.222138 , -0.837488, -0.076570, 1049425664.000000, -23.030001,  -186.199997,  -150.710007, 0.000000,  0.000000 
 36199680.000000, -9.202796 , 0.256032, -1.127020, 1049444864.000000, 20.719999,  -173.460007,  -120.540001, 0.000000,  0.000000 
 36219648.000000, -8.453842 , 0.416351, -1.524228, 1049465088.000000, 60.689999,  -164.009995,  -86.519997, 0.000000,  0.000000 
 36240128.000000, -8.269595 , 0.378066, -1.976472, 1049485056.000000, 68.599998,  -146.160004,  -59.920002, 0.000000,  0.000000 
 36260352.000000, -7.666604 , 0.586242, -2.153540, 1049505280.000000, 57.750000,  -117.180000,  -35.349998, 0.000000,  0.000000 
 36279808.000000, -6.953543 , 0.476172, -1.227518, 1049525504.000000, 31.570000,  -90.440002,  -13.650000, 0.000000,  0.000000 
 36299776.000000, -8.066205 , -0.169890, -0.033500, 1049544960.000000, -1.190000,  -53.340000,  2.590000, 0.000000,  0.000000 
 36319744.000000, -9.676575 , -0.143569, 0.301496, 1049564928.000000, -10.220000,  -2.940000,  14.280000, 0.000000,  0.000000 
 36339968.000000, -9.958927 , 0.342174, -0.918844, 1049584896.000000, 16.170000,  34.790001,  27.230000, 0.000000,  0.000000 
 36360192.000000, -10.394422 , 0.449851, -1.923829, 1049605120.000000, 62.020000,  52.779999,  41.930000, 0.000000,  0.000000 
 36379648.000000, -11.633904 , -0.306281, -1.182054, 1049625600.000000, 79.099998,  84.489998,  47.110001, 0.000000,  0.000000 
 36399616.000000, -13.165311 , -0.210568, 0.212961, 1049644800.000000, 59.849998,  126.489998,  50.680000, 0.000000,  0.000000 
 36419584.000000, -13.981262 , 0.423530, 0.665205, 1049664768.000000, 37.380001,  160.440002,  62.510002, 0.000000,  0.000000 
 36440064.000000, -12.579069 , 0.157926, 0.638884, 1049684736.000000, 10.360000,  172.479996,  70.209999, 0.000000,  0.000000 
 36460288.000000, -12.394822 , -0.571885, 1.045663, 1049705216.000000, -23.450001,  164.850006,  76.019997, 0.000000,  0.000000 
 36479744.000000, -13.799409 , -1.435694, 2.132005, 1049725440.000000, -48.439999,  170.029999,  76.860001, 0.000000,  0.000000 
 36499712.000000, -13.744373 , -2.005185, 3.452843, 1049744896.000000, -61.810001,  178.289993,  77.349998, 0.000000,  0.000000 
 36519680.000000, -12.385249 , -1.761117, 3.790231, 1049764864.000000, -59.290001,  168.839996,  79.379997, 0.000000,  0.000000 
 36539904.000000, -11.588440 , -0.863809, 2.706282, 1049784832.000000, -21.000000,  155.470001,  82.739998, 0.000000,  0.000000 
 36560128.000000, -11.047661 , -0.220140, 2.002793, 1049805056.000000, 23.520000,  151.759995,  80.919998, 0.000000,  0.000000 
 36579584.000000, -10.667203 , -0.076570, 1.356731, 1049825280.000000, 30.170000,  150.289993,  77.769997, 0.000000,  0.000000 
 36599552.000000, -10.674382 , -0.612563, 1.454836, 1049844736.000000, -3.850000,  149.240005,  76.580002, 0.000000,  0.000000 
 36619520.000000, -11.291731 , -1.378266, 1.959722, 1049864704.000000, -58.799999,  151.410004,  78.959999, 0.000000,  0.000000 
 36640000.000000, -12.100503 , -1.983650, 2.557927, 1049884672.000000, -96.529999,  154.350006,  89.040001, 0.000000,  0.000000 
 36660224.000000, -12.674782 , -2.218147, 2.682354, 1049905152.000000, -103.949997,  153.789993,  104.230003, 3311488256.000000,  1005.558533 
 36679424.000000, -12.605389 , -2.364109, 2.400001, 1049925376.000000, -88.620003,  150.149994,  124.669998, 0.000000,  0.000000 
 36699392.000000, -12.997812 , -2.754139, 2.943172, 1049944832.000000, -73.430000,  146.649994,  145.389999, 0.000000,  0.000000 
 36719360.000000, -13.708481 , -3.175276, 4.328616, 1049964800.000000, -66.570000,  153.440002,  160.020004, 0.000000,  0.000000 
 36739840.000000, -14.017156 , -3.677768, 5.702096, 1049984768.000000, -56.980000,  155.050003,  169.680008, 0.000000,  0.000000 
 36762112.000000, -13.957335 , -4.259224, 6.812366, 1050004992.000000, -40.810001,  147.000000,  170.100006, 0.000000,  0.000000 
 36779520.000000, -13.765909 , -4.558327, 8.219346, 1050027264.000000, -12.320000,  134.539993,  162.259995, 0.000000,  0.000000 
 36799488.000000, -12.746566 , -4.230510, 7.759924, 1050044672.000000, 28.420000,  116.129997,  144.550003, 0.000000,  0.000000 
 36819456.000000, -12.167502 , -2.998207, 7.680960, 1050064640.000000, 59.430000,  82.599998,  108.639999, 0.000000,  0.000000 
 36839936.000000, -12.985848 , -1.689333, 7.996813, 1050084608.000000, 52.500000,  51.170002,  56.420002, 0.000000,  0.000000 
 36859904.000000, -14.062619 , -2.246860, 8.181061, 1050105088.000000, 32.200001,  30.660000,  10.850000, 0.000000,  0.000000 
 36879360.000000, -14.447863 , -3.562913, 7.384251, 1050125312.000000, 9.450000,  4.270000,  -22.400000, 0.000000,  0.000000 
 36899328.000000, -13.622340 , -3.412165, 5.601598, 1050144512.000000, 5.950000,  -26.040001,  -42.560001, 0.000000,  0.000000 
 36919296.000000, -12.296716 , -2.404787, 4.429115, 1050164480.000000, 37.590000,  -65.519997,  -49.560001, 0.000000,  0.000000 
 36939776.000000, -11.937792 , -2.007578, 4.615755, 1050184448.000000, 59.920002,  -103.809998,  -60.060001, 0.000000,  0.000000 
 36960000.000000, -12.892529 , -1.919044, 4.388437, 1050204928.000000, 59.570000,  -125.580002,  -73.360001, 0.000000,  0.000000 
 36979456.000000, -15.438492 , -2.715853, 4.144369, 1050225152.000000, 59.430000,  -137.619995,  -83.230003, 0.000000,  0.000000 
 36999424.000000, -17.967705 , -3.335595, 3.850052, 1050244608.000000, 70.349998,  -142.589996,  -92.889999, 0.000000,  0.000000 
 37019392.000000, -16.342978 , -2.153540, 2.483750, 1050264576.000000, 99.889999,  -151.550003,  -93.940002, 0.000000,  0.000000 
 37039616.000000, -14.218152 , -0.820738, 1.189233, 1050284544.000000, 141.750000,  -192.220001,  -82.529999, 0.000000,  0.000000 
 37059840.000000, -13.210773 , -0.198604, 0.815953, 1050304768.000000, 141.050003,  -217.419998,  -84.910004, 0.000000,  0.000000 
 37079296.000000, -12.655639 , -0.229711, 1.296910, 1050324992.000000, 93.309998,  -223.930008,  -98.910004, 0.000000,  0.000000 
 37099264.000000, -12.500106 , -0.440279, 1.220340, 1050344448.000000, 40.320000,  -229.180008,  -116.059998, 0.000000,  0.000000 
 37119232.000000, -12.765708 , -1.265803, 1.210768, 1050364416.000000, 21.210001,  -234.639999,  -128.800003, 0.000000,  0.000000 
 37139456.000000, -13.146168 , -2.007578, 0.964308, 1050384384.000000, -6.720000,  -234.149994,  -131.949997, 0.000000,  0.000000 
 37159936.000000, -13.710874 , -1.969293, 1.153341, 1050404864.000000, -16.520000,  -230.930008,  -130.550003, 0.000000,  0.000000 
 37179136.000000, -13.677374 , -1.753939, 0.373280, 1050425088.000000, -2.870000,  -225.399994,  -114.870003, 0.000000,  0.000000 
 37199104.000000, -12.772887 , -1.186840, -0.050249, 1050444544.000000, 17.080000,  -221.410004,  -90.019997, 0.000000,  0.000000 
 37219328.000000, -11.375479 , -0.509671, -1.258625, 1050464512.000000, 26.250000,  -222.529999,  -65.800003, 0.000000,  0.000000 
 37239552.000000, -10.200603 , 0.334995, -2.330609, 1050484480.000000, 20.650000,  -218.960007,  -47.810001, 0.000000,  0.000000 
 37259776.000000, -9.255438 , 0.770489, -2.084148, 1050504704.000000, -0.490000,  -204.610001,  -36.820000, 0.000000,  0.000000 
 37279232.000000, -8.532805 , 0.648455, -1.440479, 1050524928.000000, -32.480000,  -184.380005,  -32.270000, 0.000000,  0.000000 
 37299200.000000, -7.841280 , 0.569492, -1.512264, 1050544384.000000, -67.480003,  -158.130005,  -34.650002, 0.000000,  0.000000 
 37319168.000000, -6.597012 , 0.191426, -0.803988, 1050564352.000000, -77.279999,  -125.580002,  -28.980000, 0.000000,  0.000000 
 37339392.000000, -6.343372 , 0.294317, 1.045663, 1050584320.000000, -61.880001,  -90.510002,  -15.610000, 0.000000,  0.000000 
 37359616.000000, -7.587641 , 0.930808, 2.801995, 1050604544.000000, -22.049999,  -44.939999,  -3.780000, 0.000000,  0.000000 
 37379072.000000, -9.147761 , 1.418944, 1.155733, 1050625024.000000, 46.200001,  -4.900000,  8.190000, 0.000000,  0.000000 
 37399040.000000, -9.669396 , 1.730011, -0.832702, 1050644224.000000, 124.669998,  22.120001,  25.690001, 0.000000,  0.000000 
 37419008.000000, -10.358529 , 1.227518, -1.737189, 1050664192.000000, 165.759995,  39.410000,  41.369999, 0.000000,  0.000000 
 37439488.000000, -11.468799 , 1.545763, -1.320838, 1050684416.000000, 156.589996,  70.419998,  49.630001, 0.000000,  0.000000 
 37459712.000000, -12.203396 , 1.454836, 0.086142, 1050704640.000000, 112.489998,  98.419998,  46.060001, 0.000000,  0.000000 
 37479168.000000, -12.538391 , 1.103091, 1.282553, 1050724864.000000, 53.060001,  120.330002,  43.400002, 0.000000,  0.000000 
 37499136.000000, -11.545370 , 0.643669, 0.947558, 1050744320.000000, 13.860000,  139.649994,  38.779999, 0.000000,  0.000000 
 37519104.000000, -11.253445 , -0.222532, 0.437887, 1050764288.000000, 8.750000,  145.250000,  36.330002, 0.000000,  0.000000 
 37539328.000000, -12.021541 , -0.574277, 1.170090, 1050784256.000000, 12.530000,  163.029999,  29.260000, 0.000000,  0.000000 
 37559552.000000, -12.100503 , 0.413958, 2.366502, 1050804480.000000, 23.100000,  189.559998,  23.590000, 0.000000,  0.000000 
 37579008.000000, -11.298907 , 0.782453, 2.151148, 1050824704.000000, 50.820000,  198.660004,  20.440001, 0.000000,  0.000000 
 37598976.000000, -11.076375 , 0.641276, 1.205983, 1050844160.000000, 76.510002,  197.399994,  14.490000, 0.000000,  0.000000 
 37618944.000000, -10.808380 , 0.997807, 0.782453, 1050864128.000000, 82.949997,  202.649994,  10.150000, 0.000000,  0.000000 
 37639424.000000, -10.212566 , 1.268196, 0.725025, 1050884096.000000, 64.889999,  202.440002,  13.720000, 0.000000,  0.000000 
 37659648.000000, -10.088140 , 0.806381, 1.155733, 1050904576.000000, 23.940001,  198.869995,  19.180000, 3312487680.000000,  1005.555725 
 37678848.000000, -11.428121 , 0.404387, 1.727618, 1050924800.000000, -29.120001,  203.910004,  24.850000, 0.000000,  0.000000 
 37699072.000000, -13.031311 , 0.145962, 2.127219, 1050944256.000000, -72.099998,  216.790009,  33.320000, 0.000000,  0.000000 
 37719040.000000, -14.679967 , -0.234497, 2.696711, 1050964224.000000, -91.070000,  225.190002,  47.529999, 0.000000,  0.000000 
 37739264.000000, -16.354942 , -0.418744, 4.462614, 1050984192.000000, -94.919998,  230.649994,  63.770000, 0.000000,  0.000000 
 37761536.000000, -16.721045 , -0.162712, 6.235696, 1051004416.000000, -92.820000,  237.790009,  83.300003, 0.000000,  0.000000 
 37778944.000000, -15.421742 , 0.045464, 7.355537, 1051026688.000000, -78.330002,  229.389999,  102.269997, 0.000000,  0.000000 
 37798912.000000, -14.495720 , -0.282353, 8.580662, 1051044096.000000, -57.610001,  207.199997,  109.410004, 0.000000,  0.000000 
 37818880.000000, -14.268401 , -0.191426, 9.762716, 1051064064.000000, -27.650000,  184.869995,  100.379997, 0.000000,  0.000000 
 37839104.000000, -13.540984 , 1.052842, 9.080762, 1051084032.000000, 9.730000,  151.759995,  78.120003, 0.000000,  0.000000 
 37859584.000000, -12.301501 , 2.191825, 8.178668, 1051104256.000000, 22.260000,  98.419998,  48.160000, 0.000000,  0.000000 
 37878784.000000, -12.466606 , 2.184647, 8.035098, 1051124736.000000, -19.950001,  43.680000,  15.890000, 0.000000,  0.000000 
 37898752.000000, -13.057633 , 0.674776, 7.604390, 1051143936.000000, -82.180000,  10.570000,  -14.280000, 0.000000,  0.000000 
 37918720.000000, -13.820943 , -0.569492, 7.554141, 1051164160.000000, -131.600006,  -19.040001,  -31.850000, 0.000000,  0.000000 
 37939200.000000, -14.340185 , -1.397408, 6.541977, 1051184128.000000, -141.399994,  -42.209999,  -32.410000, 0.000000,  0.000000 
 37959424.000000, -13.404593 , -1.615155, 4.893322, 1051204352.000000, -112.980003,  -67.340004,  -24.010000, 0.000000,  0.000000 
 37978880.000000, -11.911470 , -1.576870, 4.295116, 1051224576.000000, -71.959999,  -98.769997,  -18.620001, 0.000000,  0.000000 
 37998848.000000, -11.420943 , -1.622334, 3.972085, 1051244032.000000, -45.009998,  -125.580002,  -27.719999, 0.000000,  0.000000 
 38018816.000000, -13.105491 , -2.072184, 4.015156, 1051264000.000000, -33.810001,  -137.479996,  -46.970001, 0.000000,  0.000000 
 38039040.000000, -15.665810 , -2.696711, 3.924229, 1051283968.000000, -19.110001,  -137.339996,  -72.519997, 0.000000,  0.000000 
 38059264.000000, -16.321442 , -2.349752, 3.407379, 1051304192.000000, 16.170000,  -138.809998,  -93.169998, 0.000000,  0.000000 
 38078720.000000, -14.505291 , -0.837488, 2.876173, 1051324416.000000, 72.590004,  -160.369995,  -100.730003, 0.000000,  0.000000 
 38098688.000000, -13.409377 , 0.504886, 2.127219, 1051343872.000000, 121.239998,  -194.880005,  -102.129997, 0.000000,  0.000000 
 38118656.000000, -13.313664 , 1.256232, 1.844866, 1051363840.000000, 127.120003,  -213.149994,  -112.279999, 0.000000,  0.000000 
 38139136.000000, -12.971491 , 1.196411, 2.086541, 1051383808.000000, 90.790001,  -219.729996,  -123.830002, 0.000000,  0.000000 
 38159360.000000, -12.330215 , 0.823131, 2.476572, 1051404288.000000, 37.730000,  -226.100006,  -129.009995, 0.000000,  0.000000 
 38178560.000000, -12.327823 , 0.169890, 2.218147, 1051424512.000000, 2.730000,  -231.770004,  -124.250000, 0.000000,  0.000000 
 38198784.000000, -12.543176 , 0.021535, 1.808974, 1051443968.000000, -6.650000,  -227.360001,  -113.120003, 0.000000,  0.000000 
 38218752.000000, -11.983256 , 0.069392, 1.174876, 1051463936.000000, -7.140000,  -224.350006,  -95.269997, 0.000000,  0.000000 
 38238976.000000, -11.308479 , 0.256032, 1.012164, 1051483904.000000, -7.210000,  -226.029999,  -76.300003, 0.000000,  0.000000 
 38259200.000000, -10.882557 , 0.169890, -0.052642, 1051504128.000000, -9.450000,  -224.839996,  -63.279999, 0.000000,  0.000000 
 38278656.000000, -10.147961 , 0.887737, -1.002593, 1051524352.000000, -16.799999,  -215.110001,  -59.010002, 0.000000,  0.000000 
 38298624.000000, -8.977871 , 1.466800, -1.385444, 1051543808.000000, -22.260000,  -201.180008,  -55.230000, 0.000000,  0.000000 
 38318592.000000, -7.695317 , 1.739582, -1.220340, 1051563776.000000, -25.200001,  -186.970001,  -48.860001, 0.000000,  0.000000 
 38338816.000000, -6.709475 , 1.507478, -0.801596, 1051583744.000000, -38.639999,  -162.680008,  -42.910000, 0.000000,  0.000000 
 38359296.000000, -6.123233 , 1.258625, 0.653241, 1051604224.000000, -43.750000,  -125.230003,  -33.110001, 0.000000,  0.000000 
 38378496.000000, -6.867401 , 1.136591, 1.682154, 1051624448.000000, -24.570000,  -81.059998,  -16.379999, 0.000000,  0.000000 
 38398464.000000, -9.016156 , 2.117648, -0.045464, 1051643648.000000, 28.840000,  -31.219999,  7.420000, 0.000000,  0.000000 
 38418432.000000, -10.195816 , 2.510071, -3.201597, 1051663872.000000, 89.529999,  12.460000,  30.940001, 0.000000,  0.000000 
 38438912.000000, -10.755738 , 1.813759, -3.519842, 1051683840.000000, 114.730003,  46.480000,  44.310001, 0.000000,  0.000000 
 38459136.000000, -12.320643 , 1.227518, -1.746760, 1051704064.000000, 83.440002,  81.620003,  38.779999, 0.000000,  0.000000 
 38478592.000000, -15.723237 , 1.562513, -0.736989, 1051724288.000000, 39.830002,  123.900002,  33.880001, 0.000000,  0.000000 
 38498560.000000, -15.201601 , 1.272982, -1.091127, 1051743744.000000, 16.660000,  170.309998,  36.959999, 0.000000,  0.000000 
 38518528.000000, -11.313265 , 0.638884, -0.674776, 1051763712.000000, 21.139999,  175.490005,  53.480000, 0.000000,  0.000000 
 38538752.000000, -10.612168 , 0.344566, -0.710668, 1051783680.000000, 28.630001,  157.220001,  61.529999, 0.000000,  0.000000 
 38558976.000000, -13.057633 , 0.667598, -0.320638, 1051803904.000000, 20.930000,  182.419998,  54.389999, 0.000000,  0.000000 
 38578432.000000, -15.089140 , 0.923629, 0.485743, 1051824384.000000, -0.350000,  223.720001,  41.930000, 0.000000,  0.000000 
 38598400.000000, -14.471791 , 0.940379, 1.473979, 1051843584.000000, -4.830000,  235.619995,  32.410000, 0.000000,  0.000000 
 38618368.000000, -12.519248 , 0.509671, 1.789831, 1051863552.000000, 19.670000,  217.210007,  32.410000, 0.000000,  0.000000 
 38638848.000000, -11.186446 , 0.808774, 1.799403, 1051904000.000000, 57.470001,  200.899994,  30.520000, 3313487104.000000,  1005.557434 
 38659072.000000, -11.009377 , 1.837688, 2.100898, 0.000000, 0.000000,  0.000000,  0.000000, 0.000000,  0.000000 
 38678528.000000, -11.995219 , 2.708675, 1.404587, 1051924224.000000, 41.860001,  209.720001,  29.330000, 0.000000,  0.000000 
 38698496.000000, -12.844672 , 1.938186, 1.134198, 1051943680.000000, 5.180000,  218.610001,  31.570000, 0.000000,  0.000000 
 38718464.000000, -13.753943 , 0.947558, 1.576870, 1051963648.000000, -54.599998,  221.199997,  34.439999, 0.000000,  0.000000 
 38738688.000000, -14.962320 , 0.476172, 2.658426, 1051983616.000000, -99.260002,  224.630005,  47.040001, 0.000000,  0.000000 
 38760960.000000, -16.043877 , 0.263210, 4.000800, 1052003840.000000, -121.309998,  232.820007,  69.230003, 0.000000,  0.000000 
 38778368.000000, -16.304693 , 0.191426, 5.079963, 1052026112.000000, -125.370003,  236.600006,  90.440002, 0.000000,  0.000000 
 38798336.000000, -15.297315 , -0.181855, 6.202196, 1052043520.000000, -113.190002,  231.490005,  108.849998, 0.000000,  0.000000 
 38818304.000000, -14.254045 , -0.543171, 7.482357, 1052063488.000000, -86.870003,  212.309998,  119.209999, 0.000000,  0.000000 
 38838528.000000, -13.663017 , -1.110270, 8.748159, 1052083456.000000, -53.270000,  188.789993,  114.870003, 0.000000,  0.000000 
 38859008.000000, -13.775480 , -0.708275, 8.851050, 1052103936.000000, -16.590000,  159.669998,  95.269997, 0.000000,  0.000000 
 38878208.000000, -12.792030 , 0.648455, 7.513463, 1052124160.000000, 20.160000,  121.590004,  64.889999, 0.000000,  0.000000 
 38898176.000000, -10.882557 , 1.569692, 6.125626, 1052143616.000000, 43.610001,  68.040001,  37.450001, 0.000000,  0.000000 
 38918400.000000, -10.585848 , 1.167697, 6.400801, 1052163584.000000, 21.280001,  17.500000,  14.630000, 0.000000,  0.000000 
 38938624.000000, -11.047661 , 0.083749, 6.362515, 1052183552.000000, -27.160000,  -5.180000,  -10.080000, 0.000000,  0.000000 
 38958848.000000, -11.889936 , -0.433101, 7.073184, 1052204032.000000, -51.590000,  -23.170000,  -23.100000, 0.000000,  0.000000 
 38978304.000000, -13.172488 , -0.732204, 7.264609, 1052224000.000000, -39.830002,  -39.549999,  -26.110001, 0.000000,  0.000000 
 38998272.000000, -13.840086 , -0.870987, 5.967700, 1052243456.000000, -2.870000,  -56.139999,  -22.190001, 0.000000,  0.000000 
 39018240.000000, -13.883157 , -0.452243, 4.912465, 1052263424.000000, 19.530001,  -81.129997,  -17.920000, 0.000000,  0.000000 
 39038464.000000, -13.811372 , 0.069392, 4.290331, 1052283392.000000, 62.160000,  -97.370003,  -16.940001, 0.000000,  0.000000 
 39058688.000000, -15.007784 , -0.093320, 4.132405, 1052303616.000000, 83.019997,  -129.639999,  -19.670000, 0.000000,  0.000000 
 39078144.000000, -16.041483 , -0.459422, 3.594020, 1052324096.000000, 82.809998,  -154.419998,  -29.330000, 0.000000,  0.000000 
 39098112.000000, -17.888742 , -1.045663, 3.172883, 1052343296.000000, 78.260002,  -170.729996,  -43.610001, 0.000000,  0.000000 
 39118080.000000, -18.044275 , -0.966700, 1.773082, 1052363264.000000, 87.500000,  -191.520004,  -51.170002, 0.000000,  0.000000 
 39138560.000000, -17.379070 , -0.433101, 0.928415, 1052383488.000000, 111.790001,  -224.210007,  -51.029999, 0.000000,  0.000000 
 39158784.000000, -16.156338 , 0.050249, 1.110270, 1052403712.000000, 124.110001,  -249.899994,  -55.580002, 0.000000,  0.000000 
 39178240.000000, -14.983855 , 1.127020, 0.693919, 1052423936.000000, 116.480003,  -269.360016,  -63.770000, 0.000000,  0.000000 
 39198208.000000, -14.244473 , 1.103091, 0.236889, 1052443392.000000, 93.800003,  -288.260010,  -72.730003, 0.000000,  0.000000 
 39218176.000000, -13.713267 , 0.370888, 0.976272, 1052463360.000000, 42.980000,  -292.320007,  -86.309998, 0.000000,  0.000000 
 39238400.000000, -13.198811 , 0.217747, 2.605784, 1052483328.000000, -13.160000,  -286.089996,  -98.070000, 0.000000,  0.000000 
 39258624.000000, -13.323236 , 0.248854, 2.859423, 1052503552.000000, -36.540001,  -281.399994,  -99.680000, 0.000000,  0.000000 
 39278080.000000, -13.088740 , -0.454636, 2.644069, 1052523776.000000, -35.700001,  -271.040009,  -90.720001, 0.000000,  0.000000 
 39298048.000000, -11.844472 , -0.397209, 2.263610, 1052543232.000000, -33.670002,  -256.899994,  -72.379997, 0.000000,  0.000000 
 39318016.000000, -11.184053 , 0.114855, 1.505085, 1052563200.000000, -12.040000,  -254.869995,  -46.549999, 0.000000,  0.000000 
 39338240.000000, -11.557333 , 1.158126, 0.437887, 1052583168.000000, 7.630000,  -241.500000,  -24.710001, 0.000000,  0.000000 
 39358720.000000, -10.880164 , 1.873580, -0.624527, 1052603648.000000, 3.150000,  -220.500000,  -9.730000, 0.000000,  0.000000 
 39377920.000000, -9.348758 , 1.380659, -1.127020, 1052623872.000000, -22.680000,  -204.539993,  6.300000, 0.000000,  0.000000 
 39398144.000000, -7.712067 , 0.961915, -1.194018, 1052643328.000000, -69.790001,  -185.500000,  12.040000, 0.000000,  0.000000 
 39418112.000000, -6.108876 , 0.765703, 0.138784, 1052663296.000000, -100.800003,  -157.220001,  10.990000, 0.000000,  0.000000 
 39438336.000000, -5.941379 , 0.964308, 2.225325, 1052683264.000000, -102.410004,  -124.180000,  5.460000, 0.000000,  0.000000 
 39458560.000000, -7.405786 , 1.433301, 1.624727, 1052703488.000000, -70.139999,  -81.199997,  -1.820000, 0.000000,  0.000000 
