time,seconds_elapsed,z,y,x
1634126674153215000,0.021215087890625,0.06934330612421036,-0.012823385186493397,0.0688035637140274
1634126674173092900,0.0410927734375,0.09736984223127365,0.0003358311951160431,0.048792168498039246
1634126674192972000,0.060971923828125,0.12898117303848267,-0.004586204886436462,0.021358154714107513
1634126674212850700,0.0808505859375,0.1366378217935562,-0.013701185584068298,-0.0011602238519117236
1634126674232729900,0.100729736328125,0.12216583639383316,0.023704826831817627,-0.009543965570628643
1634126674252607700,0.120607666015625,0.10846556723117828,0.09065421670675278,0.003118925029411912
1634126674272487000,0.14048681640625,0.10217658430337906,0.12742826342582703,0.009985118173062801
1634126674292365800,0.16036572265625,0.11158806085586548,0.13745665550231934,-0.0017943182028830051
1634126674312245000,0.180244873046875,0.13433152437210083,0.10705509781837463,-0.03138415515422821
1634126674332123000,0.200122802734375,0.16728822886943817,0.07938959449529648,-0.06692925840616226
1634126674352001800,0.220001708984375,0.1933860182762146,0.11400801688432693,-0.10600343346595764
1634126674371880700,0.239880615234375,0.21329136192798615,0.21799641847610474,-0.1401304006576538
1634126674391760000,0.259759765625,0.21624833345413208,0.29033809900283813,-0.1658395677804947
1634126674411637800,0.2796376953125,0.21496394276618958,0.31788232922554016,-0.17874659597873688
1634126674431517000,0.299516845703125,0.22200427949428558,0.31896814703941345,-0.1713733673095703
1634126674451396000,0.31939599609375,0.22663132846355438,0.27090150117874146,-0.14313960075378418
1634126674471274000,0.33927392578125,0.24578098952770233,0.17862825095653534,-0.06291365623474121
1634126674491152600,0.359152587890625,0.27328628301620483,0.1000048965215683,0.039151258766651154
1634126674511031800,0.37903173828125,0.2761162519454956,0.10060697048902512,0.10732108354568481
1634126674530911000,0.398910888671875,0.23829342424869537,0.0888747125864029,0.13588643074035645
1634126674550788900,0.418788818359375,0.20802026987075806,0.060704294592142105,0.14859607815742493
1634126674570668000,0.43866796875,0.1720532327890396,0.06812369078397751,0.15315493941307068
1634126674590547000,0.458546875,0.158755362033844,0.15538793802261353,0.10320158302783966
1634126674610425900,0.47842578125,0.16500024497509003,0.22586984932422638,-0.0004205330624245107
1634126674630303700,0.4983037109375,0.20566703379154205,0.2685624957084656,-0.11289739608764648
1634126674650183000,0.518182861328125,0.30704280734062195,0.3406878411769867,-0.1819831132888794
1634126674670061800,0.538061767578125,0.3869762122631073,0.34638768434524536,-0.24118845164775848
1634126674689941000,0.55794091796875,0.39525488018989563,0.3145254850387573,-0.2603665888309479
1634126674709819000,0.57781884765625,0.36019957065582275,0.3801049590110779,-0.24847906827926636
1634126674729698000,0.597697998046875,0.3111238181591034,0.3666800260543823,-0.25442269444465637
1634126674749576700,0.61757666015625,0.23740901052951813,0.22575989365577698,-0.30819883942604065
1634126674769456400,0.637456298828125,0.14919692277908325,0.08512843400239944,-0.3732641637325287
1634126674789334300,0.657334228515625,0.0929558128118515,0.10070529580116272,-0.38318124413490295
1634126674809213400,0.67721337890625,0.15057973563671112,0.21785196661949158,-0.36687055230140686
1634126674829092400,0.69709228515625,0.25352242588996887,0.2494029551744461,-0.32806694507598877
1634126674848971300,0.71697119140625,0.3028458058834076,0.21958215534687042,-0.25473082065582275
1634126674868849200,0.73684912109375,0.318606972694397,0.15586979687213898,-0.08385201543569565
1634126674888728300,0.756728271484375,0.36433643102645874,0.3337191045284271,0.11313386261463165
1634126674908607200,0.776607177734375,0.4312511682510376,0.5667814612388611,0.2160540074110031
1634126674928486400,0.796486328125,0.45419445633888245,0.6076302528381348,0.25536981225013733
1634126674948364300,0.8163642578125,0.4714678227901459,0.6337729096412659,0.25838354229927063
1634126674968243500,0.836243408203125,0.5115553140640259,0.6509888768196106,0.19364359974861145
1634126674988122000,0.8561220703125,0.5154311656951904,0.5825232863426208,0.06886211782693863
1634126675008000300,0.876000244140625,0.4408699572086334,0.6222424507141113,-0.05648207291960716
1634126675027879200,0.895879150390625,0.3567313551902771,0.8217092752456665,-0.17164365947246552
1634126675047758300,0.91575830078125,0.3214513957500458,0.9981692433357239,-0.2854123115539551
1634126675067637200,0.93563720703125,0.279499888420105,1.048902153968811,-0.4403916597366333
1634126675087515400,0.955515380859375,0.08908460289239883,0.7308275103569031,-0.662394642829895
1634126675107394300,0.975394287109375,-0.22958189249038696,0.2251015305519104,-0.8118556141853333
1634126675127273200,0.995273193359375,-0.4841368496417999,0.15850521624088287,-0.7865759134292603
1634126675147152100,1.015152099609375,-0.5863333344459534,0.33762696385383606,-0.6038622260093689
1634126675167030300,1.0350302734375,-0.5981916785240173,0.4825338125228882,-0.3338654041290283
1634126675186909200,1.0549091796875,-0.6177424192428589,0.10600496083498001,0.05638468638062477
1634126675206788400,1.074788330078125,-0.45131123065948486,-0.6121718287467957,0.5770062804222107
1634126675226667500,1.09466748046875,-0.028816020116209984,-0.5940811634063721,0.9558987617492676
1634126675246545400,1.11454541015625,0.2647155225276947,0.18224391341209412,0.9984619617462158
1634126675266424000,1.134424072265625,0.34203359484672546,0.8612588047981262,0.5393399000167847
1634126675286303200,1.15430322265625,0.3326975405216217,0.1349085420370102,-0.15916050970554352
1634126675306182400,1.174182373046875,0.43271946907043457,-0.45920681953430176,-0.7404448986053467
1634126675326060300,1.194060302734375,0.5927855372428894,-0.06161969155073166,-0.9426025748252869
1634126675345939500,1.213939453125,0.6959060430526733,0.06555618345737457,-0.8937361836433411
1634126675365818400,1.233818359375,0.6303830146789551,-0.20071442425251007,-0.815397322177887
1634126675385696300,1.2536962890625,0.3407402038574219,-0.33570849895477295,-0.7401172518730164
1634126675405575200,1.2735751953125,-0.02346566505730152,-0.2540397346019745,-0.6725313067436218
1634126675425454300,1.293454345703125,-0.2844304144382477,-0.45043453574180603,-0.5715879201889038
1634126675445333200,1.313333251953125,-0.3294546604156494,-0.7723171710968018,-0.39467954635620117
1634126675465211400,1.33321142578125,-0.2243519276380539,-0.9403815865516663,-0.08532808721065521
1634126675485090300,1.35309033203125,-0.07247818261384964,-0.9290993809700012,0.3460584580898285
1634126675504969500,1.372969482421875,0.10223653167486191,-0.9836639165878296,0.8539583086967468
1634126675524848000,1.39284814453125,0.32715773582458496,-1.201329231262207,1.401402235031128
1634126675544726300,1.412726318359375,0.5748107433319092,-1.4976880550384521,1.9183763265609741
1634126675564605200,1.432605224609375,0.7344459295272827,-1.5441266298294067,2.300426959991455
1634126675584484400,1.452484375,0.7845293283462524,-1.1598269939422607,2.435081958770752
1634126675604363300,1.47236328125,0.7767796516418457,-0.5595165491104126,2.2578017711639404
1634126675624241400,1.492241455078125,0.7441051602363586,-0.006082950625568628,1.7893973588943481
1634126675644120300,1.512120361328125,0.6975682973861694,0.34286120533943176,1.1233184337615967
1634126675663999200,1.531999267578125,0.6619018316268921,0.5976426005363464,0.3631449043750763
1634126675683878100,1.551878173828125,0.5765811204910278,0.9590810537338257,-0.3839895725250244
1634126675703756300,1.57175634765625,0.3918478786945343,1.431153655052185,-1.023823857307434
1634126675723635200,1.59163525390625,0.21091707050800323,1.8151473999023438,-1.5009040832519531
1634126675743514400,1.611514404296875,0.15003548562526703,1.8233259916305542,-1.776031255722046
1634126675763393300,1.631393310546875,0.22212375700473785,1.4313688278198242,-1.8286157846450806
1634126675783270700,1.651270751953125,0.3562653064727783,0.7199499607086182,-1.5814943313598633
1634126675803149800,1.67114990234375,0.4085169732570648,0.1290527731180191,-1.0485408306121826
1634126675823028500,1.691028564453125,0.3331281244754791,-0.20079919695854187,-0.41730645298957825
1634126675842907600,1.71090771484375,0.23355339467525482,-0.3862793445587158,0.11283116042613983
1634126675862785500,1.73078564453125,0.1884123682975769,-0.47148367762565613,0.3865237236022949
1634126675882664700,1.750664794921875,0.2142760455608368,-0.428206205368042,0.3986440598964691
1634126675902543600,1.770543701171875,0.3001059591770172,-0.28292137384414673,0.21714019775390625
1634126675922422500,1.790422607421875,0.3722681403160095,-0.10525506734848022,-0.06061515957117081
1634126675942300700,1.81030078125,0.3881995379924774,0.03681128844618797,-0.27482330799102783
1634126675962179600,1.8301796875,0.33524560928344727,0.14116084575653076,-0.3311086893081665
1634126675982058800,1.850058837890625,0.1867067664861679,0.17579685151576996,-0.24558141827583313
1634126676001937700,1.869937744140625,-0.022058948874473572,0.16199612617492676,-0.07239549607038498
1634126676021815800,1.88981591796875,-0.2011033147573471,0.12753695249557495,0.11966994404792786
1634126676041694700,1.90969482421875,-0.2637789249420166,0.06977581977844238,0.3050522804260254
1634126676061573600,1.92957373046875,-0.2862410247325897,-0.0057330382987856865,0.4789067506790161
1634126676081452500,1.94945263671875,-0.3061516582965851,-0.06473742425441742,0.610856831073761
1634126676101330700,1.96933056640625,-0.29320818185806274,-0.10051006823778152,0.671444296836853
1634126676121209600,1.989209716796875,-0.2355331927537918,-0.1856732964515686,0.6154313087463379
1634126676141088800,2.0090888671875,-0.1941591203212738,-0.2786060571670532,0.45492544770240784
1634126676160967700,2.0289677734375,-0.2658320665359497,-0.36049214005470276,0.24193952977657318
1634126676180845800,2.048845703125,-0.40927058458328247,-0.37409061193466187,0.009239882230758667
1634126676200724500,2.068724365234375,-0.5210974216461182,-0.3548310697078705,-0.23032589256763458
1634126676220603600,2.088603759765625,-0.5623643398284912,-0.42414212226867676,-0.4332030713558197
1634126676240481500,2.1084814453125,-0.5454078912734985,-0.4882223606109619,-0.556496798992157
1634126676260360700,2.128360595703125,-0.5009815692901611,-0.42856016755104065,-0.5891221165657043
1634126676280239600,2.148239501953125,-0.46462351083755493,-0.30312463641166687,-0.5599063038825989
1634126676300118800,2.168118896484375,-0.4342409074306488,-0.24324938654899597,-0.49250584840774536
1634126676319996700,2.18799658203125,-0.3938240706920624,-0.23797450959682465,-0.4084237515926361
1634126676339875600,2.20787548828125,-0.3489416539669037,-0.2624039947986603,-0.29446470737457275
1634126676359754500,2.22775439453125,-0.2926660180091858,-0.24609187245368958,-0.1667018085718155
1634126676379633700,2.247633544921875,-0.23326197266578674,-0.19025011360645294,-0.028517410159111023
1634126676399511600,2.267511474609375,-0.17553596198558807,-0.11066369712352753,0.09809617698192596
1634126676419390700,2.287390625,-0.1484120935201645,-0.052118636667728424,0.1883295178413391
1634126676439270000,2.307269775390625,-0.1463765799999237,-0.021475981920957565,0.2336975634098053
1634126676459148500,2.3271484375,-0.13619647920131683,-0.020444829016923904,0.21442653238773346
1634126676479026400,2.3470263671875,-0.1253196895122528,-0.042592957615852356,0.1652761995792389
1634126676498905600,2.366905517578125,-0.11554256826639175,-0.06728549301624298,0.09515543282032013
1634126676518784800,2.38678466796875,-0.11259260773658752,-0.06319922208786011,0.020833365619182587
1634126676538663700,2.40666357421875,-0.07943329215049744,-0.0007363390177488327,-0.011825364083051682
1634126676558541800,2.426541748046875,0.009368281811475754,0.051188670098781586,-0.012563579715788364
1634126676578420700,2.446420654296875,0.1338464319705963,0.03473617881536484,0.005468408577144146
1634126676598299600,2.466299560546875,0.21869336068630219,0.005597933195531368,0.052611786872148514
1634126676618178600,2.486178466796875,0.2488173395395279,0.10068022459745407,0.1445186585187912
1634126676638056700,2.506056640625,0.2717738747596741,0.12307244539260864,0.24918948113918304
1634126676657935600,2.525935546875,0.30070048570632935,0.06538812071084976,0.3457222580909729
1634126676677814800,2.545814697265625,0.3375851809978485,0.003999878652393818,0.402679443359375
1634126676697693700,2.565693603515625,0.35296908020973206,-0.019900189712643623,0.3862335979938507
1634126676717571800,2.58557177734375,0.3531337082386017,0.044876135885715485,0.2812216877937317
1634126676737450500,2.605450439453125,0.3054419159889221,0.07507076859474182,0.1097741574048996
1634126676757329700,2.62532958984375,0.2532672882080078,0.15601012110710144,-0.08330581337213516
1634126676777209600,2.645209716796875,0.234849214553833,0.29268619418144226,-0.27409908175468445
1634126676797087500,2.66508740234375,0.20659436285495758,0.2698698341846466,-0.41636499762535095
1634126676816966700,2.684966552734375,0.13804492354393005,0.16754642128944397,-0.4487777650356293
1634126676836845300,2.70484521484375,0.03812862187623978,0.123601034283638,-0.36524200439453125
1634126676856724500,2.724724365234375,-0.06151002272963524,0.0788877010345459,-0.22089174389839172
1634126676876602400,2.744602294921875,-0.11310333758592606,0.06414411962032318,-0.04681997001171112
1634126676896481500,2.7644814453125,-0.07636144757270813,0.1245967298746109,0.11689542233943939
1634126676916360400,2.7843603515625,0.02664424106478691,0.1967676728963852,0.2258451133966446
1634126676936239400,2.8042392578125,0.1563706398010254,0.22547568380832672,0.27473658323287964
1634126676956117500,2.824117431640625,0.23343586921691895,0.2167464941740036,0.25788629055023193
1634126676975996400,2.843996337890625,0.23180608451366425,0.2403346300125122,0.20818504691123962
1634126676995875600,2.86387548828125,0.17270374298095703,0.27285680174827576,0.14772005379199982
1634126677015754500,2.88375439453125,0.1203976646065712,0.2523813843727112,0.07963263988494873
1634126677035632600,2.903632568359375,0.0892428308725357,0.1869780272245407,-0.0023882784880697727
1634126677055511600,2.923511474609375,0.09858883917331696,0.11674875020980835,-0.06578660011291504
1634126677075390500,2.943390380859375,0.13365526497364044,0.06598619371652603,-0.10685442388057709
1634126677095269400,2.963269287109375,0.1607455164194107,0.11719958484172821,-0.11700014024972916
1634126677115147500,2.9831474609375,0.1724911481142044,0.16765578091144562,-0.12419296056032181
1634126677135026400,3.0030263671875,0.17074598371982574,0.18005229532718658,-0.11789748817682266
1634126677154905600,3.022905517578125,0.18871153891086578,0.2073177695274353,-0.08219967782497406
1634126677174784500,3.042784423828125,0.20872236788272858,0.17951248586177826,-0.04720241576433182
1634126677194662700,3.06266259765625,0.22714018821716309,0.14488637447357178,0.0012104118941351771
1634126677214541300,3.082541259765625,0.24023601412773132,0.1474771499633789,0.05415593460202217
1634126677234420500,3.10242041015625,0.23167428374290466,0.1279371827840805,0.06541680544614792
1634126677254299400,3.12229931640625,0.1969490945339203,0.09131722897291183,0.043211549520492554
1634126677274177500,3.142177490234375,0.13853853940963745,0.06780439615249634,0.005005690734833479
1634126677294056400,3.162056396484375,0.06458679586648941,0.08089228719472885,-0.013156918808817863
1634126677313935600,3.181935546875,0.007059718482196331,0.0664273053407669,0.02182076685130596
1634126677333814300,3.201814208984375,-0.027457376942038536,0.0723557099699974,0.08164945989847183
1634126677353692400,3.2216923828125,-0.04755974933505058,0.04312489554286003,0.11519025266170502
1634126677373571300,3.2415712890625,-0.06357293576002121,0.017629899084568024,0.12408174574375153
1634126677393450500,3.261450439453125,-0.05415400117635727,0.05045543611049652,0.11140666902065277
1634126677413329700,3.28132958984375,-0.03870224207639694,0.0604918897151947,0.09224165976047516
1634126677433207600,3.30120751953125,-0.018680397421121597,0.04281356558203697,0.07184158265590668
1634126677453086700,3.321086669921875,0.01099294051527977,0.026937153190374374,0.054036494344472885
1634126677472965400,3.34096533203125,0.050611115992069244,0.039002131670713425,0.03540743142366409
1634126677492844500,3.360844482421875,0.09006379544734955,0.00459581334143877,0.015434740111231804
1634126677512722400,3.380722412109375,0.13825665414333344,-0.003300650045275688,0.0012557010632008314
1634126677532601600,3.4006015625,0.18517392873764038,0.07001638412475586,0.041213348507881165
1634126677552480500,3.42048046875,0.21174338459968567,0.12166489660739899,0.12142921984195709
1634126677572358700,3.440358642578125,0.23331695795059204,0.11181659996509552,0.20886148512363434
1634126677592237600,3.460237548828125,0.24958404898643494,0.06076083704829216,0.2680700421333313
1634126677612116500,3.480116455078125,0.2622448801994324,-0.0008887322619557381,0.28137263655662537
1634126677631995400,3.499995361328125,0.24000604450702667,-0.0525459349155426,0.26568683981895447
1634126677651874600,3.51987451171875,0.20654593408107758,-0.07891662418842316,0.24779395759105682
1634126677671752400,3.53975244140625,0.17642982304096222,-0.06794289499521255,0.21537257730960846
1634126677691631600,3.559631591796875,0.14991401135921478,-0.061504900455474854,0.1752566397190094
1634126677711510500,3.579510498046875,0.10500549525022507,-0.09143400937318802,0.12229236215353012
1634126677731388700,3.599388671875,0.03230585157871246,-0.13291732966899872,0.04726256802678108
1634126677751267300,3.619267333984375,-0.03235939145088196,-0.10314337909221649,-0.014307156205177307
1634126677771146000,3.63914599609375,-0.0823315903544426,-0.023249976336956024,-0.043500639498233795
1634126677791025200,3.659025146484375,-0.11616683751344681,0.011315002106130123,-0.0452236644923687
1634126677810904000,3.678904052734375,-0.12418115884065628,0.01761358231306076,-0.031193098053336143
1634126677830782200,3.6987822265625,-0.11112651228904724,0.008664926514029503,-0.018612148240208626
1634126677850661000,3.7186611328125,-0.08543852716684341,0.059363000094890594,-0.008921965956687927
1634126677870540000,3.7385400390625,-0.06838487088680267,0.16149543225765228,0.020600084215402603
1634126677890419000,3.7584189453125,-0.04662185162305832,0.2344868779182434,0.06334277242422104
1634126677910297000,3.778297119140625,-0.006802966818213463,0.21704865992069244,0.1107223704457283
1634126677930176000,3.798176025390625,0.045093316584825516,0.1507730931043625,0.1440926194190979
1634126677950055200,3.81805517578125,0.0811825841665268,0.10431607067584991,0.15243536233901978
1634126677969934300,3.837934326171875,0.10472872853279114,0.08135531097650528,0.12810389697551727
1634126677989812200,3.857812255859375,0.11834017187356949,0.07350590080022812,0.0772152841091156
1634126678009691100,3.877691162109375,0.1155426874756813,0.05541510507464409,0.008539705537259579
1634126678029570000,3.897570068359375,0.11855285614728928,0.034703969955444336,-0.008164705708622932
1634126678049449200,3.91744921875,0.10532007366418839,0.023023277521133423,-0.0002570106298662722
1634126678069327000,3.9373271484375,0.0701771005988121,0.006051773205399513,0.00677467742934823
1634126678089206300,3.957206298828125,0.024898838251829147,0.013299832120537758,0.023513177409768105
1634126678109085200,3.977085205078125,-0.013994231820106506,0.008205777034163475,0.03749825060367584
1634126678128964000,3.996964111328125,-0.04217800870537758,-0.014749436639249325,0.03206935152411461
1634126678148842000,4.016842041015625,-0.06868024915456772,-0.020833121612668037,0.02160421386361122
1634126678168721200,4.03672119140625,-0.08557141572237015,-0.007736672181636095,0.02079305239021778
1634126678188600000,4.05660009765625,-0.08124187588691711,-0.010604944080114365,0.026292862370610237
1634126678208479200,4.076479248046875,-0.04645194113254547,-0.010761762037873268,0.035110071301460266
1634126678228357000,4.096357177734375,-0.009232503361999989,-0.0406956747174263,0.02945365570485592
1634126678248236300,4.116236328125,0.021815797314047813,-0.033119309693574905,0.01697872206568718
1634126678268115000,4.136114990234375,0.050192177295684814,0.004542337730526924,0.009042777121067047
1634126678287994000,4.155994140625,0.06709715723991394,-0.017601624131202698,0.006844984833151102
1634126678307872000,4.1758720703125,0.07452984154224396,-0.008988439105451107,0.014237916097044945
1634126678327751200,4.195751220703125,0.08000603318214417,0.020252812653779984,0.020562661811709404
1634126678347630000,4.215630126953125,0.0714169442653656,0.030205518007278442,0.016790488734841347
1634126678367509200,4.23550927734375,0.056711796671152115,0.010663013905286789,0.0018399623222649097
1634126678387387100,4.25538720703125,0.05837657302618027,0.00007911026477813721,-0.0037429402582347393
1634126678407266000,4.27526611328125,0.06915967911481857,0.008856895379722118,-0.001118526328355074
1634126678427145000,4.29514501953125,0.0678476020693779,0.0332493931055069,0.002344941021874547
1634126678447024000,4.315024169921875,0.055875297635793686,0.022150371223688126,-0.0031576931942254305
1634126678466902000,4.334902099609375,0.04709148779511452,0.004745458252727985,-0.01031431183218956
1634126678486781200,4.35478125,0.034954704344272614,0.009623371995985508,-0.004733226727694273
1634126678506660000,4.37466015625,0.026899823918938637,0.023762213066220284,0.004979356657713652
1634126678526539000,4.3945390625,0.022098485380411148,0.008607963100075722,0.017796866595745087
1634126678546417200,4.414417236328125,0.012060006149113178,0.005401162430644035,0.027787817642092705
1634126678566296000,4.434296142578125,0.012249324470758438,0.014748063869774342,0.03646426647901535
1634126678586175200,4.45417529296875,0.014611314050853252,0.018873030319809914,0.03998376429080963
1634126678606054100,4.47405419921875,0.012485109269618988,-0.0005302708595991135,0.03704680874943733
1634126678625932300,4.493932373046875,0.014736047945916653,-0.0270168986171484,0.04812893271446228
1634126678645811200,4.513811279296875,0.015754366293549538,-0.03421083837747574,0.057639628648757935
1634126678665690000,4.533690185546875,0.019628742709755898,-0.01199860405176878,0.05768139660358429
1634126678685569000,4.553569091796875,0.02563600242137909,-0.01430463045835495,0.03245554119348526
1634126678705447200,4.573447265625,0.03132743760943413,-0.024489276111125946,-0.005908596329391003
1634126678725326000,4.593326171875,0.0273600984364748,-0.02723640203475952,-0.03667279705405235
1634126678745205200,4.613205322265625,0.020725665614008904,-0.028488626703619957,-0.03085285983979702
1634126678765084000,4.633083984375,0.013662463054060936,0.0023010103031992912,0.0018301336094737053
1634126678784962300,4.65296240234375,-0.0018903645686805248,0.006643517874181271,0.028784368187189102
1634126678804841200,4.67284130859375,-0.013688767328858376,0.00005140528082847595,0.036090753972530365
1634126678824720400,4.692720458984375,-0.00836983509361744,0.01590416580438614,0.03573550283908844
1634126678844599600,4.712599609375,0.00502206664532423,0.023295972496271133,0.02742614410817623
1634126678864477400,4.7324775390625,-0.0053575169295072556,-0.023055080324411392,0.008218295872211456
1634126678884356400,4.7523564453125,-0.032576337456703186,-0.022901330143213272,0.00380058609880507
1634126678904235300,4.7722353515625,-0.04823723062872887,-0.002812197431921959,0.008158223703503609
1634126678924114400,4.792114501953125,-0.060968101024627686,-0.018669741228222847,0.00920257717370987
1634126678943992300,4.811992431640625,-0.06528780609369278,-0.032904498279094696,0.013186827301979065
1634126678963871500,4.83187158203125,-0.054886236786842346,-0.04860131815075874,0.02030900865793228
1634126678983750400,4.85175048828125,-0.03971297666430473,-0.03735211119055748,0.03184676170349121
1634126679003629600,4.871629638671875,-0.019573360681533813,-0.010883972980082035,0.04735835641622543
1634126679023507500,4.891507568359375,0.008736977353692055,-0.002408752217888832,0.04256173223257065
1634126679043386400,4.911386474609375,0.030921244993805885,-0.007926044054329395,0.015679508447647095
1634126679063265300,4.931265380859375,0.04694734886288643,-0.008605226874351501,-0.021336065605282784
1634126679083144400,4.95114453125,0.06365904957056046,-0.012104897759854794,-0.06496943533420563
1634126679103022300,4.971022216796875,0.07665210962295532,-0.037617072463035583,-0.09520332515239716
1634126679122901500,4.990901611328125,0.08244142681360245,-0.05174596235156059,-0.09534741193056107
1634126679142780400,5.010780517578125,0.0780150443315506,-0.04002797231078148,-0.06947024911642075
1634126679162659300,5.030659423828125,0.07645709812641144,-0.026480473577976227,-0.051532793790102005
1634126679182537200,5.050537109375,0.07109440118074417,-0.003451465629041195,-0.03541499003767967
1634126679202416400,5.07041650390625,0.05102730542421341,0.005424692295491695,-0.01241629384458065
1634126679222295300,5.09029541015625,0.024342738091945648,-0.00013710185885429382,0.006372424773871899
1634126679242174500,5.110174560546875,0.0017944106366485357,-0.018091533333063126,0.010672386735677719
1634126679262052400,5.13005224609375,-0.007014957256615162,-0.03217301517724991,-0.0036742007359862328
1634126679281931500,5.149931640625,-0.013811038807034492,-0.03380025923252106,-0.02469095215201378
1634126679301810200,5.16981005859375,-0.013972267508506775,-0.04115840047597885,-0.05191582441329956
1634126679321689300,5.189689453125,-0.011678380891680717,-0.036075130105018616,-0.07177190482616425
1634126679341567200,5.209567138671875,0.003432395402342081,-0.026807595044374466,-0.07387127727270126
1634126679361446400,5.2294462890625,0.04812460020184517,-0.017798669636249542,-0.0722639411687851
1634126679381325600,5.24932568359375,0.087797150015831,-0.03455131873488426,-0.059384770691394806
1634126679401204200,5.269204345703125,0.118144690990448,-0.030686307698488235,-0.02417900040745735
1634126679421083400,5.28908349609375,0.1365719586610794,-0.027634304016828537,0.011604311875998974
1634126679440961300,5.308961181640625,0.12347551435232162,-0.02950352430343628,0.016891906037926674
1634126679460840400,5.32884033203125,0.10476604104042053,-0.008301571011543274,-0.00632859580218792
1634126679480719400,5.34871923828125,0.0980132594704628,0.009019333869218826,-0.002410831395536661
1634126679500598500,5.3685986328125,0.09844452887773514,0.015655729919672012,0.022478964179754257
1634126679520476400,5.388476318359375,0.09594251960515976,0.008468877524137497,0.04352231323719025
1634126679540355300,5.408355224609375,0.09349702298641205,0.020927581936120987,0.05737066641449928
1634126679560234200,5.428234130859375,0.08356724679470062,0.0248753372579813,0.039503492414951324
1634126679580113400,5.448113525390625,0.06242181360721588,0.014716167002916336,0.005587865132838488
1634126679599991300,5.4679912109375,0.04364727437496185,0.015337853692471981,-0.029127877205610275
1634126679619870500,5.487870361328125,0.01869949884712696,-0.003940668422728777,-0.06459204852581024
1634126679639749400,5.507749267578125,-0.021729016676545143,-0.032017823308706284,-0.0725647434592247
1634126679659628300,5.527628173828125,-0.06683614104986191,-0.023530352860689163,-0.05905679985880852
1634126679679506200,5.547506103515625,-0.10022971779108047,-0.027873139828443527,-0.03959893435239792
1634126679699385300,5.56738525390625,-0.11933646351099014,-0.025776449590921402,-0.02761804312467575
1634126679719264300,5.58726416015625,-0.12010269612073898,-0.035297468304634094,-0.013543353416025639
1634126679739143400,5.607143310546875,-0.11518274247646332,-0.056212034076452255,0.0012983221095055342
1634126679759021300,5.627021240234375,-0.10498213022947311,-0.05787688493728638,0.019127214327454567
1634126679778899700,5.646899658203125,-0.09322521090507507,-0.0221874937415123,0.03940615803003311
1634126679798779000,5.66677880859375,-0.0726238563656807,-0.002778220921754837,0.043246395885944366
1634126679818657500,5.686657470703125,-0.03846904635429382,0.009789002127945423,0.026319755241274834
1634126679838535700,5.70653564453125,-0.000062605831772089,0.0425371453166008,-0.01282709464430809
1634126679858414600,5.72641455078125,0.026807360351085663,0.0382068008184433,-0.05973443016409874
1634126679878293800,5.746293701171875,0.03759095445275307,0.01518627442419529,-0.09965198487043381
1634126679898173000,5.7661728515625,0.03145300969481468,-0.01861383207142353,-0.10587701201438904
1634126679918050800,5.78605078125,0.00923718698322773,-0.026791676878929138,-0.0884929969906807
1634126679937929700,5.8059296875,0.005819953046739101,0.00036756135523319244,-0.06622601300477982
1634126679957808600,5.82580859375,0.013870282098650932,-0.009096979163587093,-0.0385751910507679
1634126679977687800,5.845687744140625,0.029628746211528778,-0.00015413109213113785,0.0024489285424351692
1634126679997565700,5.865565673828125,0.03647618740797043,0.013748427852988243,0.032821767032146454
1634126680017444900,5.88544482421875,0.03152777999639511,-0.0021065250039100647,0.041830144822597504
1634126680037323800,5.90532373046875,0.025654077529907227,0.016708724200725555,0.03366662934422493
1634126680057203000,5.925202880859375,0.035088784992694855,0.03496528044342995,0.01352675911039114
1634126680077080800,5.945080810546875,0.03884351626038551,0.026464169844985008,0.0031577309127897024
1634126680096959700,5.964959716796875,0.043503448367118835,0.012321685440838337,0.0022375972475856543
1634126680116838700,5.984838623046875,0.05073338747024536,0.01735328882932663,0.012047912925481796
1634126680136717800,6.0047177734375,0.04031791165471077,0.04360875114798546,0.0225074402987957
1634126680156595700,6.024595703125,0.01974935084581375,0.049208298325538635,0.02607806771993637
1634126680176475000,6.044474853515625,0.003740819403901696,0.03000512346625328,0.010568114928901196
1634126680196353800,6.064353759765625,-0.006915384437888861,0.014871419407427311,-0.009265386499464512
1634126680216232700,6.084232666015625,-0.020349739119410515,0.009439952671527863,-0.026402678340673447
1634126680236111600,6.104111572265625,-0.030390283092856407,0.0007792161777615547,-0.04156610742211342
1634126680255989800,6.12398974609375,-0.040221475064754486,-0.004386463202536106,-0.055863793939352036
1634126680275868700,6.14386865234375,-0.04743148386478424,-0.012718689627945423,-0.06415408104658127
1634126680295747800,6.163747802734375,-0.04168834537267685,-0.0006971443071961403,-0.06928637623786926
1634126680315626800,6.183626708984375,-0.03233626112341881,0.016690390184521675,-0.06733933091163635
1634126680335505000,6.2035048828125,-0.014821816235780716,0.0023234542459249496,-0.06265042722225189
1634126680355383600,6.223383544921875,0.003576337592676282,-0.00613798201084137,-0.04654297977685928
1634126680375262700,6.2432626953125,0.029742885380983353,0.003130410797894001,-0.020988600328564644
1634126680395142000,6.263141845703125,0.048813752830028534,0.0032768426463007927,0.004674805793911219
1634126680415019800,6.283019775390625,0.06584543734788895,0.016701042652130127,0.023080579936504364
1634126680434899000,6.30289892578125,0.0784759670495987,0.014012105762958527,0.030981795862317085
1634126680454777600,6.322777587890625,0.08856236189603806,0.013040013611316681,0.024859976023435593
1634126680474656800,6.34265673828125,0.09567946195602417,0.01679452508687973,0.02098960056900978
1634126680494534700,6.36253466796875,0.09659691154956818,0.02366712875664234,0.014382843859493732
1634126680514413800,6.382413818359375,0.09560821950435638,0.03131011128425598,0.0028718560934066772
1634126680534292700,6.402292724609375,0.07669036835432053,0.006802256219089031,-0.006909041199833155
1634126680554172000,6.422171875,0.06854235380887985,0.020938288420438766,0.006116999313235283
1634126680574049800,6.4420498046875,0.06588488072156906,0.010672972537577152,0.0057664355263113976
1634126680593928700,6.4619287109375,0.04653598740696907,-0.01393970102071762,-0.0004857364110648632
1634126680613807600,6.4818076171875,0.028467508032917976,0.012259331531822681,-0.012655082158744335
1634126680633686800,6.501686767578125,0.02290685847401619,0.02310885861515999,-0.035200174897909164
1634126680653565700,6.521565673828125,0.014918740838766098,0.0024483157321810722,-0.05950272083282471
1634126680673443800,6.54144384765625,0.006022453308105469,-0.018057534471154213,-0.07066643983125687
1634126680693322800,6.56132275390625,0.009117809124290943,-0.015078741125762463,-0.062113549560308456
1634126680713201700,6.58120166015625,0.013325124979019165,-0.005776498932391405,-0.041767239570617676
1634126680733080800,6.601080810546875,0.014419903978705406,-0.009495007805526257,-0.0132057573646307
1634126680752958700,6.620958740234375,0.0047600450925529,-0.007940664887428284,0.005557775031775236
1634126680772837600,6.640837646484375,-0.00040476745925843716,-0.003925342112779617,0.022469932213425636
1634126680792717600,6.660717529296875,-0.0005362587980926037,-0.011395523324608803,0.03400062024593353
1634126680812596200,6.68059619140625,0.010120087303221226,-0.012226206250488758,0.03189444541931152
1634126680832474400,6.700474365234375,0.010809442959725857,-0.005823408719152212,0.016996461898088455
1634126680852353300,6.720353271484375,0.013769620098173618,-0.01579008251428604,0.0009170782868750393
1634126680872232400,6.740232421875,0.013037641532719135,-0.017981793731451035,-0.016803309321403503
1634126680892111400,6.760111328125,0.01147487573325634,-0.017822088673710823,-0.03516969084739685
1634126680911989500,6.779989501953125,-0.0008148462511599064,-0.023109033703804016,-0.039531562477350235
1634126680931868400,6.799868408203125,-0.009860210120677948,-0.018212204799056053,-0.03765587508678436
1634126680951747300,6.819747314453125,-0.010965300723910332,-0.011565945111215115,-0.02824530564248562
1634126680971626500,6.83962646484375,-0.005963953211903572,-0.014089543372392654,-0.019005201756954193
1634126680991504400,6.85950439453125,0.0036476359236985445,-0.016865666955709457,-0.006405130960047245
1634126681011383300,6.87938330078125,0.010334677062928677,-0.016207173466682434,0.008485767059028149
1634126681031262500,6.899262451171875,0.01941312663257122,-0.020088501274585724,0.012785423547029495
1634126681051141400,6.919141357421875,0.023943552747368813,-0.03705056011676788,0.011744712479412556
1634126681071019500,6.93901953125,0.021891552954912186,-0.03420629724860191,0.0022418901789933443
1634126681090898400,6.9588984375,0.011702673509716988,-0.010506626218557358,-0.006251082755625248
1634126681110777300,6.97877734375,-0.0010690202470868826,-0.01492503471672535,0.010103268548846245
1634126681130656500,6.998656494140625,-0.002257486106827855,-0.0090786162763834,0.018649481236934662
1634126681150535400,7.018535400390625,-0.004869153257459402,-0.04125010222196579,-0.00001141370739787817
1634126681170413600,7.03841357421875,-0.004520674701780081,-0.05505302548408508,-0.020951323211193085
1634126681190292500,7.05829248046875,-0.002783795353025198,-0.017513100057840347,-0.04314730688929558
1634126681210171400,7.07817138671875,-0.002316403202712536,-0.0007701609283685684,-0.02578645385801792
1634126681230050300,7.09805029296875,-0.0010662833228707314,-0.011272833682596684,-0.0032415827736258507
1634126681249928400,7.117928466796875,0.001148635521531105,-0.021395545452833176,0.004815131891518831
1634126681269807400,7.137807373046875,0.005550340283662081,-0.004236229229718447,0.015280702151358128
1634126681289686500,7.1576865234375,-0.005361384712159634,0.012590558268129826,0.006514944601804018
1634126681309565200,7.177565185546875,0.001377931796014309,0.002347642555832863,-0.0077666910365223885
1634126681329443300,7.197443359375,0.01131647452712059,0.0053842440247535706,-0.008591054007411003
1634126681349322200,7.217322265625,0.004843937233090401,0.00942386407405138,-0.004630178678780794
1634126681369201400,7.237201416015625,-0.000023094238713383675,-0.006312390323728323,-0.014130569994449615
1634126681389080600,7.25708056640625,0.00007917126640677452,0.010951551608741283,-0.02022441476583481
1634126681408958500,7.27695849609375,0.0029178389813750982,0.01921636238694191,-0.03459298238158226
1634126681428837400,7.29683740234375,0.007927412167191505,0.01056958269327879,-0.0496801994740963
1634126681448716300,7.31671630859375,0.008723326958715916,0.009846328757703304,-0.05074238032102585
1634126681468595500,7.336595458984375,0.008164459839463234,0.0090671107172966,-0.03436633199453354
1634126681488473300,7.356473388671875,-0.0018022162839770317,0.013378201052546501,-0.011906304396688938
1634126681508352500,7.3763525390625,-0.013399602845311165,0.018197841942310333,0.015489263460040092
1634126681528231400,7.3962314453125,-0.025177747011184692,0.011600714176893234,0.033953957259655
1634126681548110600,7.416110595703125,-0.025582347065210342,0.0027204900979995728,0.044786132872104645
1634126681567989200,7.4359892578125,-0.021634913980960846,-0.008661298081278801,0.04957597330212593
1634126681587867400,7.455867431640625,-0.02148383855819702,-0.014791417866945267,0.060070402920246124
1634126681607746300,7.475746337890625,-0.025704819709062576,-0.005199223291128874,0.07014355808496475
1634126681627625500,7.49562548828125,-0.039443306624889374,-0.0055594961158931255,0.06346449255943298
1634126681647504400,7.51550439453125,-0.051104601472616196,-0.00924044568091631,0.03794010728597641
1634126681667382500,7.535382568359375,-0.06057978421449661,-0.01833174377679825,-0.0032651324290782213
1634126681687261400,7.555261474609375,-0.0667729526758194,-0.05480736121535301,-0.024932188913226128
1634126681707140400,7.575140380859375,-0.05279402807354927,-0.04012151062488556,-0.031229136511683464
1634126681727019300,7.595019287109375,-0.05117841809988022,-0.026104023680090904,-0.03283344581723213
1634126681746897400,7.6148974609375,-0.05568822845816612,-0.027817100286483765,-0.018492015078663826
1634126681766776300,7.6347763671875,-0.04452652856707573,0.013361788354814053,0.0055589983239769936
1634126681786655200,7.6546552734375,-0.004947675857692957,0.022804193198680878,0.032736532390117645
1634126681806534100,7.6745341796875,0.03624776005744934,0.025634637102484703,0.05124018341302872
1634126681826412300,7.694412353515625,0.07465537637472153,0.041648440062999725,0.07653500139713287
1634126681846291000,7.714291015625,0.08852790296077728,0.06924764066934586,0.09930771589279175
1634126681866170000,7.734170166015625,0.08105915039777756,0.07490938901901245,0.09759632498025894
1634126681886049000,7.754049072265625,0.05968116968870163,0.044779084622859955,0.07086396217346191
1634126681905928200,7.77392822265625,0.03485472872853279,-0.0010715555399656296,0.033596470952034
1634126681925806000,7.79380615234375,0.013782363384962082,-0.03753660246729851,-0.007429651916027069
1634126681945685200,7.813685302734375,-0.002265032147988677,-0.02262360043823719,-0.03550134599208832
1634126681965564000,7.83356396484375,-0.013757378794252872,-0.01908174343407154,-0.06310491263866425
1634126681985443000,7.853443115234375,-0.02959660440683365,-0.025096965953707695,-0.0742291808128357
1634126682005321000,7.873321044921875,-0.03256751596927643,-0.04714560881257057,-0.07004471123218536
1634126682025200000,7.8932001953125,-0.02216431125998497,-0.04676532372832298,-0.044476110488176346
1634126682045079300,7.913079345703125,-0.0013914341107010841,-0.031966570764780045,-0.014051460660994053
1634126682064958200,7.932958251953125,0.02063182182610035,-0.01194581389427185,0.01529375184327364
1634126682084836000,7.952836181640625,0.04180894047021866,0.00935367401689291,0.04459067061543465
1634126682104715000,7.972715087890625,0.05609141290187836,0.03222912549972534,0.06664855778217316
1634126682124594200,7.99259423828125,0.0556010864675045,0.041654057800769806,0.07156382501125336
1634126682144473000,8.01247314453125,0.04665477201342583,0.01941627636551857,0.047695010900497437
1634126682164351200,8.032351318359375,0.03425339236855507,0.003152173012495041,0.00658108526840806
1634126682184230100,8.052230224609374,0.01327336486428976,0.022135792300105095,-0.03617261350154877
1634126682204109300,8.072109375,-0.01822752133011818,-0.0122524444013834,-0.07577300071716309
1634126682223988000,8.091988037109376,-0.041946399956941605,-0.06935621798038483,-0.10610334575176239
1634126682243867100,8.1118671875,-0.05340009555220604,-0.09905913472175598,-0.10677236318588257
1634126682263745000,8.1317451171875,-0.0473540723323822,-0.08303983509540558,-0.07194537669420242
1634126682283624200,8.151624267578125,-0.006698041222989559,-0.014759670943021774,-0.011437581852078438
1634126682303503000,8.171503173828125,0.02812378667294979,0.0004680296406149864,0.03235890343785286
1634126682323382000,8.191382080078125,0.04890233650803566,-0.003773326054215431,0.061672721058130264
1634126682343260200,8.21126025390625,0.06995638459920883,0.04540009796619415,0.08389639854431152
1634126682363139000,8.23113916015625,0.08540361374616623,0.07359767705202103,0.08420147001743317
1634126682383018000,8.25101806640625,0.08286037296056747,0.06287200003862381,0.061962466686964035
1634126682402897200,8.270897216796875,0.07265374809503555,0.04213176295161247,0.03150679171085358
1634126682422775000,8.290775146484375,0.062095530331134796,0.038731276988983154,0.006855146028101444
1634126682442654200,8.310654296875,0.0480104461312294,0.04303055629134178,-0.01827947236597538
1634126682462533000,8.330533203125,0.02034619450569153,0.02517095021903515,-0.04386569932103157
1634126682482412000,8.350412109375,0.0036017848178744316,0.023019222542643547,-0.0605182871222496
1634126682502290000,8.3702900390625,-0.004537589848041534,0.013906626030802727,-0.06701308488845825
1634126682522169000,8.390169189453125,0.000716689508408308,-0.0014227693900465965,-0.05926940590143204
1634126682542048300,8.41004833984375,0.019884929060935974,-0.008592558093369007,-0.0326005183160305
1634126682561927200,8.42992724609375,0.034026335924863815,-0.011368591338396072,-0.006124023348093033
1634126682581805300,8.449805419921875,0.049153611063957214,-0.0036990917287766933,0.019202731549739838
1634126682601684000,8.46968408203125,0.06285639852285385,0.009677520021796227,0.04092869535088539
1634126682621563100,8.489563232421874,0.06896403431892395,0.014669002965092659,0.04414896294474602
1634126682641442000,8.509442138671876,0.062348708510398865,0.005334895104169846,0.03876445069909096
1634126682661321200,8.5293212890625,0.03344914689660072,-0.004235131200402975,0.03597027808427811
1634126682681199000,8.54919921875,-0.013327446766197681,-0.0030750520527362823,0.03085661306977272
1634126682701078300,8.569078369140625,-0.0674939677119255,-0.007221503183245659,0.032787956297397614
1634126682720957000,8.58895703125,-0.11630968749523163,-0.015691831707954407,0.02852233313024044
1634126682740836000,8.608836181640624,-0.13684986531734467,-0.025062019005417824,0.012171630747616291
1634126682760714000,8.6287138671875,-0.13107769191265106,-0.015110325068235397,-0.009007825516164303
1634126682780597500,8.648597412109375,-0.11551813036203384,-0.018786344677209854,-0.03651762753725052
1634126682800476400,8.668476318359374,-0.08600954711437225,-0.024488434195518494,-0.05465894937515259
1634126682820355300,8.688355224609374,-0.05414419621229172,-0.025630097836256027,-0.06309063732624054
1634126682840233200,8.708233154296876,-0.03452994301915169,-0.012659186497330666,-0.048464030027389526
1634126682860112400,8.7281123046875,-0.004186912905424833,0.01322907954454422,-0.011157818138599396
1634126682879991300,8.7479912109375,0.008423971012234688,-0.020751692354679108,0.0236330758780241
1634126682899870500,8.767870361328125,0.014807878993451595,-0.05209023505449295,0.05431094393134117
1634126682919749400,8.787749267578125,0.03715043514966965,0.004628976806998253,0.06101585552096367
1634126682939627500,8.80762744140625,0.05335923656821251,0.03277374804019928,0.07175024598836899
1634126682959506200,8.827506103515624,0.07066322863101959,0.018308239057660103,0.08796343207359314
1634126682979385300,8.84738525390625,0.09852035343647003,0.02458616904914379,0.10085474699735641
1634126682999264500,8.867264404296876,0.12043431401252747,0.0422024205327034,0.09478113055229187
1634126683019142400,8.887142333984375,0.12261103838682175,0.03096710331737995,0.05762924253940582
1634126683039021300,8.907021240234375,0.11187060922384262,0.01947399601340294,0.006758749019354582
1634126683058900500,8.926900390625,0.07764110714197159,0.016936466097831726,-0.040469102561473846
1634126683078779400,8.946779296875,0.02805284410715103,-0.003260643221437931,-0.06735103577375412
1634126683098657300,8.9666572265625,-0.020273754373192787,-0.012528643943369389,-0.07388056069612503
1634126683118536400,8.986536376953126,-0.04915326088666916,-0.010571553371846676,-0.06048328056931496
1634126683138415400,9.006415283203125,-0.06034955382347107,-0.014986040070652962,-0.0440855398774147
1634126683158294500,9.02629443359375,-0.056983765214681625,-0.024979200214147568,-0.014880628325045109
1634126683178173200,9.046173095703125,-0.046529706567525864,-0.022791793569922447,0.018030419945716858
1634126683198051300,9.06605126953125,-0.03408380597829819,-0.017673611640930176,0.048447076231241226
1634126683217930200,9.08593017578125,-0.024604501202702522,-0.012568439356982708,0.06333479285240173
1634126683237809400,9.105809326171874,-0.024326182901859283,-0.007648954633623362,0.059628888964653015
1634126683257688300,9.125688232421876,-0.0234804917126894,-0.00874806847423315,0.03238501027226448
1634126683277566500,9.14556640625,-0.02388116903603077,-0.01503043808043003,0.005882306024432182
1634126683297445400,9.1654453125,-0.02007507160305977,-0.015504781156778336,-0.020153163000941277
1634126683317324300,9.18532421875,-0.017170477658510208,-0.019383864477276802,-0.034986820071935654
1634126683337203200,9.205203125,-0.007187926676124334,-0.010707695037126541,-0.040498800575733185
1634126683357081300,9.225081298828124,0.007201693020761013,-0.008860750123858452,-0.0605890117585659
1634126683376960300,9.244960205078126,0.02911994978785515,0.0031712986528873444,-0.07135874032974243
1634126683396839400,9.26483935546875,0.03559621423482895,-0.012165449559688568,-0.07308974862098694
1634126683416718600,9.284718505859376,0.045558661222457886,-0.005306444596499205,-0.05293960124254227
1634126683436597200,9.30459716796875,0.04402315989136696,-0.005356309004127979,-0.049833837896585464
1634126683456475100,9.32447509765625,0.028188331052660942,-0.02287321537733078,-0.04663456976413727
1634126683476354300,9.344354248046875,0.013717789202928543,0.0037156930193305016,-0.042539190500974655
1634126683496233500,9.3642333984375,0.00206252234056592,0.031156452372670174,-0.04011622443795204
1634126683516112400,9.3841123046875,0.004124177619814873,0.025022532790899277,-0.032528847455978394
1634126683535990500,9.403990478515626,0.010635958053171635,-0.0013351114466786385,-0.03391024470329285
1634126683555869400,9.423869384765625,0.02947763167321682,0.01276695728302002,-0.021538645029067993
1634126683575748400,9.443748291015625,0.042468953877687454,0.04166455939412117,-0.00826200284063816
1634126683595627300,9.463627197265625,0.04645083099603653,0.03899545222520828,-0.01266516000032425
1634126683615505400,9.48350537109375,0.047797996550798416,0.018705295398831367,-0.02374393306672573
1634126683635384300,9.50338427734375,0.05074571073055267,-0.0037799719721078873,-0.023180918768048286
1634126683655263500,9.523263427734374,0.04060916230082512,-0.015370739623904228,0.0014213882386684418
1634126683675142400,9.543142333984376,0.022113937884569168,-0.0247870534658432,0.044887591153383255
1634126683695020500,9.5630205078125,-0.003032495267689228,-0.035855140537023544,0.09184764325618744
1634126683714899200,9.582899169921875,-0.04078521579504013,-0.024506784975528717,0.1491898000240326
1634126683734778400,9.6027783203125,-0.07083035260438919,-0.003539295867085457,0.18483231961727142
1634126683754657300,9.6226572265625,-0.09793214499950409,-0.009377676993608475,0.1685580313205719
1634126683774536400,9.642536376953124,-0.11792930960655212,-0.02671021968126297,0.10533380508422852
1634126683794410000,9.662409912109375,-0.1333988606929779,-0.04234764724969864,0.03821917995810509
1634126683814289200,9.6822890625,-0.14140594005584717,-0.0402204804122448,-0.026648206636309624
1634126683834168000,9.70216796875,-0.1241426095366478,-0.04918023198843002,-0.0803065225481987
1634126683854047000,9.722046875,-0.09365338087081909,-0.05722591653466225,-0.11583962291479111
1634126683873924900,9.7419248046875,-0.05970529466867447,-0.05621475353837013,-0.12525644898414612
1634126683893804000,9.761803955078125,-0.02477892115712166,-0.0510622076690197,-0.10531239211559296
1634126683913683000,9.781682861328125,0.0042464854195714,-0.0281473807990551,-0.06788221746683121
1634126683933562000,9.80156201171875,0.031428709626197815,-0.009996896609663963,-0.018004676327109337
1634126683953440000,9.82143994140625,0.052569903433322906,0.013899967074394226,0.032671164721250534
1634126683973319200,9.841319091796874,0.05368194356560707,0.01668667048215866,0.07562141865491867
1634126683993197800,9.86119775390625,0.06690390408039093,0.033109068870544434,0.11084292829036713
1634126684013077000,9.881076904296876,0.07734917104244232,0.03768260031938553,0.11848954856395721
1634126684032956000,9.900955810546876,0.06700661033391953,0.019658662378787994,0.09996640682220459
1634126684052834000,9.920833984375,0.05065290257334709,0.025418784469366074,0.06188278645277023
1634126684072713000,9.940712890625,0.0368022620677948,0.037787165492773056,0.02030264027416706
1634126684092592000,9.960592041015625,0.023683050647377968,0.015491805039346218,-0.030423631891608238
1634126684112471000,9.980470947265625,0.015256471931934357,-0.011803983710706234,-0.06366760283708572
1634126684132349000,10.000348876953124,0.007229519076645374,0.00019402150064706802,-0.06328092515468597
1634126684152227800,10.020227783203126,-0.002059794496744871,0.004866844974458218,-0.046671312302351
1634126684172107000,10.04010693359375,-0.009871875867247581,-0.015398221090435982,-0.03939409554004669
1634126684191986200,10.059986083984375,-0.012188278138637543,-0.0088924840092659,-0.018348224461078644
1634126684211864000,10.079864013671875,-0.014634383842349052,-0.01300239097326994,-0.0030862782150506973
1634126684231743000,10.099742919921875,-0.009645971469581127,0.0036204643547534943,0.024797139689326286
1634126684251622000,10.119621826171874,-0.012689818628132343,0.008927538059651852,0.056390464305877686
1634126684271501000,10.1395009765625,-0.009568567387759686,0.00916886143386364,0.07528254389762878
1634126684291380000,10.1593798828125,0.0022214683704078197,0.0041419388726353645,0.07775144279003143
1634126684311258000,10.179258056640625,0.02434353157877922,0.026186956092715263,0.08344219624996185
1634126684331137000,10.199136962890625,0.0437365360558033,0.024261780083179474,0.073867067694664
1634126684351016000,10.219015869140625,0.0537203885614872,0.013189170509576797,0.05793630704283714
1634126684370894800,10.238894775390625,0.04416647553443909,0.017668265849351883,0.045594263821840286
1634126684390773000,10.25877294921875,0.025642776861786842,0.009065031073987484,0.02715430222451687
1634126684410652000,10.27865185546875,0.00796891562640667,0.005047613754868507,0.010311929509043694
1634126684430531000,10.298531005859376,-0.00863209180533886,-0.0012492230162024498,-0.008580553345382214
1634126684450410000,10.318409912109376,-0.02769365906715393,-0.016129756346344948,-0.018953394144773483
1634126684470289000,10.338288818359375,-0.03799711540341377,-0.00789798703044653,-0.011394690722227097
1634126684490166800,10.358166748046875,-0.03478577360510826,0.0024292003363370895,-0.006483960431069136
1634126684510046000,10.3780458984375,-0.021699264645576477,0.010937999933958054,-0.010876577347517014
1634126684529925000,10.397925048828125,-0.018229570239782333,-0.004702452570199966,-0.014835627749562263
1634126684549804000,10.417803955078124,-0.018179364502429962,-0.013845909386873245,-0.005874096415936947
1634126684569682000,10.437681884765626,0.0002612362150102854,0.0074927955865859985,0.01140257902443409
1634126684589561000,10.45756103515625,0.0130215585231781,-0.0036582271568477154,0.015498043969273567
1634126684609440000,10.47743994140625,0.007855335250496864,-0.009226687252521515,0.020544320344924927
1634126684629319000,10.49731884765625,0.006209251005202532,0.015520035289227962,0.02895766869187355
1634126684649197000,10.517197021484375,0.007096803747117519,0.0345684289932251,0.032710958272218704
1634126684669076000,10.537075927734374,0.014187421649694443,0.015928003937005997,0.01944059133529663
1634126684688955100,10.556955078125,0.028428178280591965,0.005780021660029888,0.009088216349482536
1634126684708834000,10.576833984375,0.04295639321208,0.021010082215070724,0.008426680229604244
1634126684728713000,10.596712890625,0.04238293319940567,0.015621508471667767,0.0020026187412440777
1634126684748590800,10.6165908203125,0.017900168895721436,-0.0036038924008607864,0.0034034322015941143
1634126684768470000,10.636469970703125,-0.012402643449604511,-0.00600099703297019,0.006020655855536461
1634126684788348700,10.6563486328125,-0.03660771623253822,0.0007039178162813187,0.003575233742594719
1634126684808227800,10.676227783203124,-0.0562044195830822,-0.01940149813890457,-0.0054316045716404915
1634126684828105700,10.696105712890626,-0.06376585364341736,-0.03508012369275093,0.0016396046848967671
1634126684847985000,10.71598486328125,-0.06527172774076462,-0.021305328235030174,0.007069419603794813
1634126684867863800,10.73586376953125,-0.057244542986154556,-0.018406827002763748,0.0038642878644168377
1634126684887742700,10.75574267578125,-0.03852515295147896,-0.033270735293626785,-0.011016792617738247
1634126684907622000,10.775621826171875,-0.01389839593321085,-0.051607176661491394,-0.020714305341243744
1634126684927499800,10.795499755859375,-0.0023682930041104555,-0.058737143874168396,-0.02041693776845932
1634126684947379000,10.81537890625,0.0022851626854389906,-0.10902169346809387,-0.009609978646039963
1634126684967257900,10.8352578125,0.023912809789180756,-0.1350257843732834,0.015403781086206436
1634126684987136800,10.85513671875,0.03671923652291298,-0.09703319519758224,0.034865349531173706
1634126685007014700,10.8750146484375,0.03514229506254196,-0.04792603477835655,0.047889284789562225
1634126685026893800,10.894893798828125,0.03641033172607422,-0.01859506592154503,0.043024349957704544
1634126685046772700,10.914772705078125,0.04305724427103996,-0.06929817795753479,0.041896238923072815
1634126685066652000,10.93465185546875,0.06532835215330124,-0.0775114893913269,0.03094768524169922
1634126685086529800,10.95452978515625,0.08085262030363083,-0.025200068950653076,0.03372363746166229
1634126685106409000,10.974408935546874,0.08059205859899521,0.008359994739294052,0.0409100316464901
1634126685126287600,10.99428759765625,0.07637009769678116,0.021459121257066727,0.06522485613822937
1634126685146166800,11.014166748046875,0.07509970664978027,0.02375185489654541,0.06965023279190063
1634126685166046000,11.0340458984375,0.06560622155666351,0.0029484471306204796,0.05817117914557457
1634126685185923800,11.053923828125,0.060583483427762985,0.01567738689482212,0.03803477808833122
1634126685205802800,11.073802734375,0.05468323081731796,0.03061576560139656,0.02246071957051754
1634126685225681700,11.093681640625,0.03397944197058678,0.014094645157456398,0.016428546980023384
1634126685245560800,11.113560791015624,0.005412614904344082,0.000006929971277713776,0.014624282717704773
1634126685265438700,11.133438720703126,-0.022327732294797897,0.0029572509229183197,0.012341244146227837
1634126685285318000,11.15331787109375,-0.04390738904476166,0.011142712086439133,0.0017812664154917002
1634126685305196800,11.17319677734375,-0.05529128015041351,-0.008068719878792763,-0.024984542280435562
1634126685325076000,11.193075927734375,-0.05043299123644829,-0.018485069274902344,-0.03802722319960594
1634126685344953900,11.212953857421875,-0.03630787134170532,-0.015234995633363724,-0.024261487647891045
1634126685364832800,11.232832763671874,-0.023405252024531364,-0.014598524197936058,0.008170748129487038
1634126685384711700,11.252711669921876,-0.0060285646468400955,-0.011245306581258774,0.03416866809129715
1634126685404590800,11.2725908203125,0.0105826361104846,0.008181387558579445,0.047184865921735764
1634126685424469800,11.2924697265625,0.023931002244353294,0.011009118519723415,0.04138476774096489
1634126685444348000,11.312347900390625,0.035647958517074585,0.01143112126737833,0.02822299115359783
1634126685464226800,11.332226806640625,0.03589731082320213,0.00587056390941143,0.002263464964926243
1634126685484105700,11.352105712890625,0.024510782212018967,-0.011470183730125427,-0.019913773983716965
1634126685503984600,11.371984619140624,0.0013067844556644559,-0.006622470915317535,-0.028290558606386185
1634126685523863800,11.39186376953125,-0.028856035321950912,-0.0101628378033638,-0.04540981352329254
1634126685543741700,11.41174169921875,-0.04911438748240471,-0.019118916243314743,-0.05988245829939842
1634126685563620900,11.431620849609375,-0.055200569331645966,-0.019030272960662842,-0.06712599843740463
1634126685583499800,11.451499755859375,-0.054958026856184006,-0.02302473410964012,-0.07298601418733597
1634126685603378700,11.471378662109375,-0.050808776170015335,-0.008667423389852047,-0.06838715076446533
1634126685623256600,11.491256591796875,-0.04290705919265747,-0.004442242439836264,-0.05748654529452324
1634126685643135700,11.5111357421875,-0.028299076482653618,-0.0014369161799550056,-0.06280622631311417
1634126685663015000,11.531014892578124,-0.0078053828328847885,-0.0015362771227955818,-0.06764199584722519
1634126685682893800,11.550893798828126,-0.0012056403793394566,-0.016294166445732117,-0.05817059427499771
1634126685702772000,11.57077197265625,0.00045609381049871445,-0.015482102520763874,-0.037685807794332504
1634126685722651000,11.59065087890625,-0.001138143939897418,-0.009794110432267189,-0.008460276760160923
1634126685742529800,11.61052978515625,-0.007736080326139927,-0.008827975951135159,0.02130120061337948
1634126685762408700,11.63040869140625,-0.005915571004152298,-0.004356305114924908,0.02811315469443798
1634126685782288600,11.65028857421875,0.0018323638942092657,0.009046586230397224,0.034319918602705
1634126685802166500,11.67016650390625,0.009048886597156525,0.018540024757385254,0.0399601124227047
1634126685822045400,11.69004541015625,0.019042838364839554,0.01693224348127842,0.03859855979681015
1634126685841924400,11.70992431640625,0.035808466374874115,0.013472802937030792,0.0316702164709568
1634126685861803500,11.729803466796875,0.032342467457056046,0.005552011542022228,0.024430543184280396
1634126685881681400,11.749681396484375,0.01338515616953373,-0.0009748898446559906,0.021770570427179337
1634126685901560600,11.769560546875,0.005342148244380951,0.0121078472584486,0.02808038331568241
1634126685921439500,11.789439453125,-0.0030707819387316704,0.01889868453145027,0.023628391325473785
1634126685941318400,11.809318359375,-0.016106853261590004,0.0038760416209697723,0.017126144841313362
1634126685961197600,11.829197509765624,-0.018650315701961517,-0.008505987003445625,0.00645594485104084
1634126685981075500,11.849075439453125,-0.012704664841294289,-0.010895714163780212,0.0015546426875516772
1634126686000954400,11.868954345703125,-0.001241754973307252,-0.006392129696905613,0.002992392284795642
1634126686020833500,11.88883349609375,0.0008506547892466187,0.010622924193739891,0.016651445999741554
1634126686040712700,11.908712646484375,0.01114114373922348,0.023183714598417282,0.030422784388065338
1634126686060590600,11.928590576171874,0.015270709060132504,0.023423124104738235,0.029737548902630806
1634126686080469500,11.948469482421874,0.014155345968902111,0.019772354513406754,0.02841612510383129
1634126686100348400,11.968348388671876,0.0033539636060595512,0.019449403509497643,0.022239545360207558
1634126686120227600,11.9882275390625,-0.008421700447797775,0.02780475839972496,0.005183180794119835
1634126686140106500,12.0081064453125,-0.01652585342526436,0.020159253850579262,-0.0219783503562212
1634126686159984600,12.027984619140625,-0.01588848978281021,0.005151529796421528,-0.04829438030719757
1634126686179863600,12.047863525390625,-0.010705944150686264,-0.0026448816061019897,-0.06652358174324036
1634126686199742500,12.067742431640625,-0.00006601354107260704,-0.008214895613491535,-0.06277039647102356
1634126686219621400,12.087621337890624,0.00844435766339302,-0.00010652095079421997,-0.062197260558605194
1634126686239499500,12.10749951171875,0.030151251703500748,0.0035133548080921173,-0.05554671585559845
1634126686259378400,12.12737841796875,0.03660030663013458,-0.0062872301787137985,-0.05508236587047577
1634126686279257600,12.147257568359375,0.05154916271567345,0.015002346597611904,-0.03226972743868828
1634126686299136500,12.167136474609375,0.06354115903377533,0.017175953835248947,-0.017797458916902542
1634126686319015400,12.187015380859375,0.059067510068416595,0.0023919614031910896,-0.012853298336267471
1634126686338893300,12.206893310546874,0.05549807474017143,0.008966241963207722,-0.018004652112722397
1634126686358772500,12.2267724609375,0.052431490272283554,0.017796427011489868,-0.020022142678499222
1634126686378651400,12.2466513671875,0.03939083218574524,0.013144321739673615,-0.017327722162008286
1634126686398530600,12.266530517578126,0.024201126769185066,0.019013073295354843,-0.008381040766835213
1634126686418408400,12.286408447265625,0.011752244085073471,0.031752631068229675,0.00433137034997344
1634126686438287600,12.30628759765625,-0.000253055477514863,0.05629477649927139,0.02493719756603241
1634126686458166500,12.32616650390625,-0.00007892539724707603,0.08558373898267746,0.056327491998672485
1634126686478045400,12.34604541015625,-0.005213800817728043,0.11033862829208374,0.06925461441278458
1634126686497923600,12.365923583984374,-0.04039918631315231,0.14772860705852509,0.07431794703006744
1634126686517802500,12.385802490234376,-0.109040267765522,0.007757431827485561,0.05383198708295822
1634126686537681700,12.405681640625,-0.1914031058549881,-0.05932673066854477,0.01420562993735075
1634126686557560300,12.425560302734375,-0.3556881546974182,-0.14079362154006958,-0.037388190627098083
1634126686577439500,12.445439453125,-0.5596774816513062,-0.15414710342884064,-0.11179027706384659
1634126686597317400,12.4653173828125,-0.6628383994102478,-0.07660789042711258,-0.21771200001239777
1634126686617196500,12.485196533203125,-0.6082006096839905,-0.041944656521081924,-0.3193385601043701
1634126686637075500,12.505075439453124,-0.5244247317314148,-0.09275111556053162,-0.3846472501754761
1634126686656954600,12.52495458984375,-0.47628939151763916,-0.19812782108783722,-0.38805288076400757
1634126686676833300,12.544833251953126,-0.47790491580963135,-0.21278244256973267,-0.3599891662597656
1634126686696711400,12.56471142578125,-0.5445337295532227,-0.1513533890247345,-0.34294503927230835
1634126686716590300,12.58459033203125,-0.590771496295929,-0.13115964829921722,-0.33672896027565
1634126686736469500,12.604469482421875,-0.4520500600337982,-0.0755838006734848,-0.2653661072254181
1634126686756348700,12.6243486328125,-0.10272781550884247,0.07500864565372467,-0.16155794262886047
1634126686776226600,12.6442265625,0.1512107402086258,0.17901819944381714,-0.06244613975286484
1634126686796105200,12.664105224609376,0.1195749044418335,0.1471661627292633,0.10357996821403503
1634126686815984000,12.683984130859375,-0.11883247643709183,0.23898182809352875,0.5154673457145691
1634126686835863000,12.703863037109375,-0.19823582470417023,0.04990140348672867,0.510599672794342
1634126686855742200,12.7237421875,-0.10115661472082138,-0.1172402948141098,0.3783877193927765
1634126686875620000,12.7436201171875,0.055877935141325,-0.07808180898427963,0.07438214868307114
1634126686895499300,12.763499267578124,0.12617988884449005,-0.03019508346915245,-0.2654997706413269
