 Acc_timestamp,Accx,Accy,Accz,Gyro_timestamp,Gyrox,Gyroy,Gyroz,Baro_timestamp,Pressure_Reading
 41711104.000000, -8.310273 , 4.783253, 1.258625, 3518449920.000000, -5.810000,  -1.470000,  -160.649994, 0.000000,  0.000000 
 41732096.000000, -9.805787 , 4.065405, -0.722632, 3518469888.000000, -14.000000,  56.279999,  -161.910004, 0.000000,  0.000000 
 41751040.000000, -9.016156 , 4.254438, -1.586441, 3518509824.000000, 19.250000,  84.840004,  -70.910004, 0.000000,  0.000000 
 41771008.000000, -8.748159 , 4.610970, -2.012364, 0.000000, 0.000000,  0.000000,  0.000000, 0.000000,  0.000000 
 41790976.000000, -8.417950 , 4.484150, -2.213361, 3518529792.000000, 15.050000,  93.519997,  -16.590000, 0.000000,  0.000000 
 41810944.000000, -6.544370 , 3.979264, -2.476572, 3518549760.000000, -8.680000,  105.840004,  33.740002, 0.000000,  0.000000 
 41831936.000000, -5.534599 , 1.966900, -0.794417, 3518569728.000000, -25.410000,  111.300003,  99.610001, 0.000000,  0.000000 
 41850880.000000, -8.020741 , -0.153141, 4.132405, 3518590720.000000, -24.360001,  123.059998,  162.820007, 0.000000,  0.000000 
 41870848.000000, -10.597812 , -8.492127, 12.964314, 3518609664.000000, -50.889999,  147.350006,  210.070007, 0.000000,  0.000000 
 41890816.000000, -10.559525 , -20.121246, 22.157537, 3518629632.000000, -92.540001,  158.899994,  261.100006, 0.000000,  0.000000 
 41910784.000000, -8.504091 , -26.888149, 24.636503, 3518649600.000000, -141.399994,  175.699997,  318.640015, 0.000000,  0.000000 
 41931776.000000, -10.499706 , -26.443083, 24.349363, 3518669568.000000, -134.610001,  162.960007,  360.220001, 0.000000,  0.000000 
 41950720.000000, -2.340181 , -20.317457, 23.296520, 3518690560.000000, -185.500000,  147.839996,  306.179993, 0.000000,  0.000000 
 41970688.000000, 3.890730 , -11.578869, 22.975882, 3518709504.000000, -119.770004,  161.419998,  310.940002, 0.000000,  0.000000 
 41990656.000000, 2.452643 , -10.767702, 18.740587, 3518729984.000000, -18.690001,  187.669998,  276.079987, 0.000000,  0.000000 
 42010624.000000, 3.105884 , -10.638489, 14.079369, 3518749952.000000, 13.930000,  167.440002,  175.910004, 0.000000,  0.000000 
 42033664.000000, 6.137590 , -7.334002, 10.765309, 3518769920.000000, 27.860001,  120.120003,  143.919998, 0.000000,  0.000000 
 42050560.000000, 8.190632 , -4.402793, 9.434900, 3518792448.000000, 18.760000,  67.970001,  151.270004, 0.000000,  0.000000 
 42070528.000000, 9.181261 , -4.149154, 7.810174, 3518809856.000000, -50.889999,  26.950001,  146.860001, 0.000000,  0.000000 
 42091008.000000, 10.954341 , -2.974278, 6.721439, 3518829824.000000, -107.379997,  -1.820000,  133.350006, 0.000000,  0.000000 
 42110976.000000, 12.856635 , -0.497707, 7.702496, 3518849792.000000, -120.889999,  -33.320000,  128.660004, 0.000000,  0.000000 
 42131456.000000, 13.866407 , -0.066999, 6.410372, 3518869760.000000, -92.680000,  -70.000000,  122.989998, 0.000000,  0.000000 
 42150912.000000, 15.024533 , -0.693919, 2.242075, 3518890752.000000, -26.040001,  -107.449997,  79.800003, 0.000000,  0.000000 
 42170880.000000, 13.732409 , -0.346959, 3.940979, 3518909696.000000, 7.350000,  -129.779999,  3.570000, 0.000000,  0.000000 
 42190848.000000, 10.025927 , -3.395415, 8.623734, 3518929664.000000, -27.299999,  -116.970001,  -88.900002, 0.000000,  0.000000 
 42210816.000000, 7.075576 , -10.901700, 12.631711, 3518949632.000000, -39.060001,  -98.139999,  -184.800003, 0.000000,  0.000000 
 42231808.000000, 5.587241 , -22.782063, 15.711272, 3518969600.000000, -30.450001,  -106.330002,  -275.450012, 0.000000,  0.000000 
 42250752.000000, 6.723832 , -30.092136, 25.004997, 3518990592.000000, -33.320000,  -136.570007,  -344.820007, 0.000000,  0.000000 
 42270720.000000, 0.619741 , -30.293135, 22.741388, 3519009536.000000, -0.700000,  -163.449997,  -329.420013, 0.000000,  0.000000 
 42290688.000000, -1.526621 , -21.645475, 18.618553, 3519029504.000000, 114.099998,  -186.199997,  -398.720001, 0.000000,  0.000000 
 42310656.000000, -3.543770 , -14.368899, 13.476377, 3519049472.000000, 169.889999,  -199.990005,  -377.929993, 0.000000,  0.000000 
 42331648.000000, -5.826523 , -10.406385, 11.942577, 3519090432.000000, 87.989998,  -174.229996,  -321.720001, 5781502976.000000,  1006.108521 
 42350592.000000, -9.396614 , -6.357729, 12.263215, 0.000000, 0.000000,  0.000000,  0.000000, 0.000000,  0.000000 
 42370560.000000, -9.339187 , -3.560520, 5.632704, 3519109376.000000, 39.830002,  -107.239998,  -269.850006, 0.000000,  0.000000 
 42390528.000000, -5.326423 , -0.770489, 2.220540, 3519129344.000000, 47.040001,  -60.760002,  -202.860001, 0.000000,  0.000000 
 42410496.000000, -3.603590 , 3.034099, 2.612962, 3519149312.000000, 60.060001,  -34.860001,  -134.750000, 0.000000,  0.000000 
 42431488.000000, -7.054041 , 5.711668, 2.507678, 3519169280.000000, 24.080000,  -3.500000,  -107.870003, 0.000000,  0.000000 
 42450432.000000, -10.578669 , 4.110869, 0.428315, 3519190272.000000, -36.750000,  42.980000,  -103.040001, 0.000000,  0.000000 
 42470400.000000, -9.724431 , 2.605784, -1.641476, 3519209728.000000, -54.320000,  75.739998,  -77.559998, 0.000000,  0.000000 
 42490368.000000, -8.446664 , 3.909872, -0.626920, 3519229696.000000, -41.650002,  83.510002,  -14.910000, 0.000000,  0.000000 
 42510336.000000, -9.131011 , 3.818945, -0.346959, 3519249664.000000, -37.450001,  81.830002,  52.570000, 0.000000,  0.000000 
 42531328.000000, -8.238488 , 3.146562, 0.851845, 3519269632.000000, -51.380001,  97.440002,  85.820000, 0.000000,  0.000000 
 42550272.000000, -6.082555 , 3.201597, 3.471986, 3519290112.000000, -68.110001,  117.250000,  109.620003, 0.000000,  0.000000 
 42570240.000000, -5.106283 , 1.914258, 7.338787, 3519309568.000000, -23.450001,  143.570007,  149.520004, 0.000000,  0.000000 
 42590720.000000, -9.597611 , -1.332802, 11.442478, 3519329536.000000, 83.370003,  200.199997,  201.039993, 0.000000,  0.000000 
 42610688.000000, -17.675781 , -7.841280, 16.498512, 3519349504.000000, 205.940002,  275.869995,  240.380005, 0.000000,  0.000000 
 42631168.000000, -24.734608 , -17.917456, 29.946177, 3519369472.000000, 197.259995,  364.489990,  244.440002, 0.000000,  0.000000 
 42650624.000000, -16.197016 , -31.362728, 33.559338, 3519390464.000000, -64.959999,  390.950012,  247.029999, 0.000000,  0.000000 
 42670592.000000, -2.411965 , -22.138395, 29.206791, 3519409408.000000, -286.860016,  320.390015,  193.410004, 0.000000,  0.000000 
 42690560.000000, 1.660619 , -13.837693, 22.894527, 3519429376.000000, -276.570007,  216.440002,  253.330002, 0.000000,  0.000000 
 42710528.000000, 1.478764 , -11.717653, 17.012968, 3519449344.000000, -201.669998,  164.289993,  184.240005, 0.000000,  0.000000 
 42731520.000000, 2.191825 , -8.772088, 12.263215, 3519469312.000000, -103.739998,  109.900002,  113.540001, 0.000000,  0.000000 
 42750464.000000, 4.417150 , -4.735396, 9.128618, 3519490304.000000, -37.939999,  59.080002,  91.629997, 0.000000,  0.000000 
 42770432.000000, 7.329216 , -1.720440, 7.054041, 3519509248.000000, -21.490000,  22.889999,  86.940002, 0.000000,  0.000000 
 42790400.000000, 9.097511 , 0.961915, 6.534799, 3519529216.000000, -41.860001,  8.260000,  88.760002, 0.000000,  0.000000 
 42810368.000000, 10.896914 , 1.593620, 5.295317, 3519549184.000000, -83.090004,  3.360000,  87.779999, 0.000000,  0.000000 
 42831360.000000, 12.488142 , 1.847259, 7.288538, 3519569152.000000, -100.099998,  -15.260000,  88.480003, 0.000000,  0.000000 
 42850304.000000, 12.397215 , 3.340380, 9.439686, 3519590144.000000, -79.309998,  -52.150002,  92.820000, 0.000000,  0.000000 
 42870272.000000, 14.091332 , 4.017549, 5.814559, 3519609088.000000, -2.310000,  -89.599998,  79.239998, 0.000000,  0.000000 
 42890240.000000, 13.933406 , 3.893122, 4.814359, 3519629056.000000, 58.099998,  -127.400002,  56.840000, 0.000000,  0.000000 
 42910208.000000, 11.215159 , -1.981257, 10.540384, 3519649024.000000, -46.130001,  -134.050003,  9.940000, 0.000000,  0.000000 
 42931200.000000, 11.047661 , -13.588840, 18.206987, 3519668992.000000, -231.419998,  -153.020004,  -72.379997, 0.000000,  0.000000 
 42950144.000000, 9.528220 , -32.496922, 26.737402, 3519689984.000000, -296.100006,  -188.160004,  -176.399994, 0.000000,  0.000000 
 42970112.000000, 0.703490 , -36.069408, 23.117058, 3519709440.000000, -209.580002,  -182.699997,  -296.239990, 0.000000,  0.000000 
 42990080.000000, -2.536392 , -32.226536, 22.080967, 3519729408.000000, -7.700000,  -183.470001,  -415.309998, 0.000000,  0.000000 
 43010048.000000, -4.316652 , -22.356144, 17.383856, 3519749376.000000, 46.619999,  -216.790009,  -410.130005, 0.000000,  0.000000 
 43033088.000000, -5.075177 , -17.771494, 14.175081, 3519769344.000000, 41.299999,  -227.919998,  -412.929993, 0.000000,  0.000000 
 43049984.000000, -7.032506 , -14.871392, 14.766108, 3519791872.000000, 42.770000,  -224.210007,  -417.269989, 0.000000,  0.000000 
 43070464.000000, -10.485349 , -10.097712, 12.366108, 3519809280.000000, 12.880000,  -185.360001,  -398.019989, 0.000000,  0.000000 
 43090432.000000, -9.640682 , -5.340781, 5.821737, 3519829248.000000, 27.440001,  -112.559998,  -365.610016, 0.000000,  0.000000 
 43110400.000000, -8.575876 , -3.273381, 3.634698, 3519849216.000000, 108.709999,  -70.910004,  -288.890015, 0.000000,  0.000000 
 43130880.000000, -7.647461 , 3.718446, 1.502693, 3519869184.000000, 140.279999,  -67.760002,  -215.809998, 0.000000,  0.000000 
 43150336.000000, -8.487342 , 4.704289, 0.863809, 3519890176.000000, 87.290001,  -54.250000,  -178.710007, 0.000000,  0.000000 
 43170304.000000, -9.085547 , 3.247060, 0.387637, 3519909120.000000, 13.580000,  -0.910000,  -143.850006, 0.000000,  0.000000 
 43190272.000000, -9.202796 , 1.272982, -2.096112, 3519929088.000000, -17.639999,  42.910000,  -118.860001, 0.000000,  0.000000 
 43210240.000000, -11.413764 , 2.679961, -4.725825, 3519949056.000000, -6.790000,  57.330002,  -82.809998, 0.000000,  0.000000 
 43231232.000000, -10.616954 , 4.000800, -2.778067, 3519969024.000000, -36.330002,  60.480000,  -32.200001, 0.000000,  0.000000 
 43250176.000000, -6.441479 , 2.112862, -0.040678, 3519990016.000000, -85.610001,  66.779999,  17.219999, 0.000000,  0.000000 
 43270144.000000, -3.943372 , 0.811167, 0.696311, 3520008960.000000, -54.810001,  68.040001,  64.050003, 0.000000,  0.000000 
 43290112.000000, -4.491328 , 2.081756, 1.667797, 3520028928.000000, 37.869999,  86.029999,  145.320007, 0.000000,  0.000000 
 43310080.000000, -7.616355 , -0.392423, 4.625326, 3520048896.000000, 91.559998,  127.820000,  235.130005, 0.000000,  0.000000 
 43331072.000000, -11.004591 , -9.372685, 14.431112, 3520089856.000000, -123.830002,  198.100006,  303.170013, 5782502400.000000,  1006.106995 
 43350016.000000, -11.717653 , -24.811180, 23.846870, 0.000000, 0.000000,  0.000000,  0.000000, 0.000000,  0.000000 
 43369984.000000, -10.363315 , -32.382069, 24.794430, 3520108800.000000, -235.970001,  216.720001,  363.720001, 0.000000,  0.000000 
 43389952.000000, -4.718646 , -23.619553, 22.023540, 3520128768.000000, -217.630005,  181.160004,  367.079987, 0.000000,  0.000000 
 43409920.000000, 2.555535 , -19.597218, 23.665014, 3520148736.000000, -154.839996,  141.680008,  338.940002, 0.000000,  0.000000 
 43430912.000000, 3.579663 , -17.326429, 21.004198, 3520168704.000000, -174.089996,  161.559998,  303.100006, 0.000000,  0.000000 
 43449856.000000, 1.217947 , -13.014563, 15.862022, 3520209152.000000, 15.820000,  133.770004,  151.899994, 0.000000,  0.000000 
 43469824.000000, 1.962115 , -8.590233, 10.442278, 0.000000, 0.000000,  0.000000,  0.000000, 0.000000,  0.000000 
 43489792.000000, 6.338587 , -4.972286, 7.412964, 3520229120.000000, 86.590004,  89.529999,  153.229996, 0.000000,  0.000000 
 43509760.000000, 10.743774 , -2.155933, 6.163911, 3520249088.000000, 67.550003,  48.090000,  188.789993, 0.000000,  0.000000 
 43530752.000000, 11.722438 , -0.416351, 6.853044, 3520269056.000000, 0.490000,  27.790001,  206.710007, 0.000000,  0.000000 
 43549696.000000, 12.131610 , -0.617348, 6.673582, 3520289536.000000, -60.689999,  19.040001,  187.529999, 0.000000,  0.000000 
 43570176.000000, 14.809179 , -1.014557, 4.902894, 3520308992.000000, -49.630001,  -6.510000,  166.669998, 0.000000,  0.000000 
 43590144.000000, 15.280564 , -0.028714, 4.981857, 3520328960.000000, -12.880000,  -48.509998,  137.619995, 0.000000,  0.000000 
 43610112.000000, 12.136396 , 0.160319, 7.563712, 3520348928.000000, -31.780001,  -57.680000,  62.020000, 0.000000,  0.000000 
 43631104.000000, 10.186246 , -4.409972, 11.684153, 3520368896.000000, -58.660000,  -46.970001,  -20.299999, 0.000000,  0.000000 
 43650048.000000, 7.996813 , -10.911271, 13.330415, 3520389888.000000, -51.240002,  -55.090000,  -90.650002, 0.000000,  0.000000 
 43670016.000000, 6.541977 , -20.149961, 14.536398, 3520408832.000000, -23.030001,  -82.739998,  -179.970001, 0.000000,  0.000000 
 43689984.000000, 5.800202 , -26.816362, 22.454247, 3520428800.000000, -14.140000,  -118.230003,  -286.019989, 0.000000,  0.000000 
 43709952.000000, -1.012164 , -31.590046, 24.177078, 3520448768.000000, -72.239998,  -132.720001,  -292.809998, 0.000000,  0.000000 
 43730944.000000, -4.584648 , -27.270998, 20.839094, 3520468736.000000, -2.520000,  -139.580002,  -373.309998, 0.000000,  0.000000 
 43749888.000000, -4.986642 , -19.958532, 14.323436, 3520489728.000000, 126.699997,  -157.639999,  -376.110016, 0.000000,  0.000000 
 43769856.000000, -4.713861 , -15.065211, 14.222939, 3520508672.000000, 169.960007,  -192.080002,  -368.829987, 0.000000,  0.000000 
 43789824.000000, -8.233703 , -11.789437, 13.782660, 3520528640.000000, 118.020004,  -197.119995,  -344.610016, 0.000000,  0.000000 
 43809792.000000, -9.286544 , -9.047262, 10.174281, 3520548608.000000, 66.779999,  -156.940002,  -313.880005, 0.000000,  0.000000 
 43830784.000000, -6.905686 , -4.910072, 4.833502, 3520568576.000000, 101.570000,  -113.260002,  -247.520004, 0.000000,  0.000000 
 43849728.000000, -6.532406 , -0.634098, 2.062613, 3520589568.000000, 125.930000,  -103.320000,  -174.580002, 0.000000,  0.000000 
 43869696.000000, -7.283752 , 1.775474, 0.375673, 3520608512.000000, 88.129997,  -85.260002,  -156.029999, 0.000000,  0.000000 
 43889664.000000, -7.585248 , 2.175076, -0.045464, 3520628480.000000, 23.520000,  -32.970001,  -142.169998, 0.000000,  0.000000 
 43909632.000000, -8.078169 , 2.067399, 0.088534, 3520648448.000000, -34.020000,  21.280001,  -127.400002, 0.000000,  0.000000 
 43930624.000000, -10.406385 , 1.713261, -2.256432, 3520668928.000000, -41.160000,  59.849998,  -107.660004, 0.000000,  0.000000 
 43949568.000000, -12.863814 , 2.825923, -2.443072, 3520689408.000000, -9.660000,  77.279999,  -82.459999, 0.000000,  0.000000 
 43969536.000000, -9.891929 , 2.794817, -1.540978, 3520708864.000000, -2.940000,  84.349998,  -51.660000, 0.000000,  0.000000 
 43989504.000000, -6.790830 , 2.792424, -0.978664, 3520728832.000000, 11.900000,  77.209999,  14.700000, 0.000000,  0.000000 
 44009472.000000, -6.025128 , 2.756532, 0.244068, 3520748800.000000, 28.630001,  79.730003,  82.879997, 0.000000,  0.000000 
 44032512.000000, -7.518249 , 1.481157, 4.855037, 3520768768.000000, 27.090000,  107.590004,  167.300003, 0.000000,  0.000000 
 44049920.000000, -11.397014 , -7.262216, 12.485749, 3520791296.000000, -15.820000,  154.839996,  244.860001, 0.000000,  0.000000 
 44069888.000000, -14.510076 , -22.047468, 23.004595, 3520808704.000000, -139.300003,  192.570007,  282.029999, 0.000000,  0.000000 
 44089856.000000, -13.935800 , -38.883366, 30.982267, 3520828672.000000, -290.220001,  230.229996,  307.440002, 0.000000,  0.000000 
 44109824.000000, -8.398808 , -29.615967, 24.507290, 3520848640.000000, -322.839996,  225.259995,  334.809998, 0.000000,  0.000000 
 44130304.000000, 2.562713 , -22.545176, 22.174286, 3520868608.000000, -251.229996,  158.690002,  268.940002, 0.000000,  0.000000 
 44149760.000000, 7.731210 , -20.137995, 17.821743, 3520889600.000000, -307.299988,  134.889999,  235.339996, 0.000000,  0.000000 
 44169728.000000, 6.862615 , -17.170895, 14.108082, 3520908544.000000, -359.869995,  103.459999,  151.970001, 0.000000,  0.000000 
 44189696.000000, 5.333601 , -13.143774, 11.676974, 3520928512.000000, -299.739990,  38.150002,  100.029999, 0.000000,  0.000000 
 44209664.000000, 7.838887 , -5.462814, 9.042477, 3520948480.000000, -118.020004,  -28.139999,  88.760002, 0.000000,  0.000000 
 44230656.000000, 11.263017 , -0.303888, 4.302295, 3520968448.000000, 45.360001,  -97.860001,  121.379997, 0.000000,  0.000000 
 44249600.000000, 12.380465 , 2.187040, 0.217747, 3520989440.000000, 181.160004,  -135.869995,  159.949997, 0.000000,  0.000000 
 44269568.000000, 10.600205 , 2.385644, -0.851845, 3521008384.000000, 199.570007,  -124.110001,  156.029999, 0.000000,  0.000000 
 44289536.000000, 10.662418 , 2.311467, -1.220340, 3521028352.000000, 116.550003,  -101.709999,  137.899994, 0.000000,  0.000000 
 44309504.000000, 12.808779 , 2.220540, -0.734596, 3521048320.000000, 65.379997,  -104.510002,  112.629997, 0.000000,  0.000000 
 44330496.000000, 13.610376 , 1.727618, 0.894916, 3521068288.000000, 56.209999,  -115.849998,  77.910004, 0.000000,  0.000000 
 44349440.000000, 11.808580 , -0.004786, 2.679961, 3521089280.000000, 23.309999,  -105.279999,  9.590000, 5783501824.000000,  1006.105408 
 44369408.000000, 11.444871 , -4.249653, 5.132604, 3521108224.000000, -43.680000,  -76.230003,  -75.040001, 0.000000,  0.000000 
 44389376.000000, 11.600404 , -13.234701, 8.657232, 3521128192.000000, -83.440002,  -61.810001,  -133.490005, 0.000000,  0.000000 
 44409344.000000, 13.435699 , -29.659039, 16.280766, 3521148160.000000, -95.199997,  -60.130001,  -202.789993, 0.000000,  0.000000 
 44430336.000000, 8.451449 , -39.823746, 21.547369, 3521168640.000000, -149.729996,  -59.150002,  -249.899994, 0.000000,  0.000000 
 44449280.000000, 0.612563 , -33.659840, 18.786051, 3521189120.000000, -109.550003,  -39.480000,  -295.260010, 0.000000,  0.000000 
 44469248.000000, -0.823131 , -23.818157, 15.579668, 3521208576.000000, 108.290001,  -32.549999,  -382.200012, 0.000000,  0.000000 
 44489216.000000, -2.933600 , -18.690338, 12.571891, 3521228544.000000, 150.500000,  -66.360001,  -347.130005, 0.000000,  0.000000 
 44509184.000000, -6.618547 , -13.517055, 12.997812, 3521248512.000000, 129.080002,  -80.080002,  -362.739990, 0.000000,  0.000000 
 44530176.000000, -10.703095 , -8.597411, 9.939785, 3521268480.000000, 110.809998,  -45.500000,  -340.200012, 0.000000,  0.000000 
 44549632.000000, -9.899107 , -4.960321, 5.486742, 3521289472.000000, 137.690002,  1.960000,  -278.459991, 0.000000,  0.000000 
 44569600.000000, -7.511070 , -1.679761, 2.998207, 3521308416.000000, 153.789993,  8.540000,  -197.960007, 0.000000,  0.000000 
 44589568.000000, -8.097312 , 1.406980, 1.234696, 3521328384.000000, 144.690002,  -0.420000,  -129.779999, 0.000000,  0.000000 
 44609536.000000, -9.379865 , 3.060420, -0.256032, 3521348352.000000, 108.849998,  21.700001,  -96.389999, 0.000000,  0.000000 
 44630016.000000, -9.348758 , 2.055435, -1.222732, 3521368320.000000, 31.710001,  52.639999,  -73.150002, 0.000000,  0.000000 
 44649472.000000, -11.241481 , 1.162912, -2.402394, 3521389312.000000, -49.349998,  67.760002,  -60.060001, 0.000000,  0.000000 
 44669440.000000, -11.990433 , 0.770489, -2.141576, 3521408256.000000, -114.309998,  88.129997,  -43.330002, 0.000000,  0.000000 
 44689408.000000, -8.781659 , -0.215354, -0.220140, 3521428224.000000, -124.529999,  98.840004,  0.490000, 0.000000,  0.000000 
 44709376.000000, -5.970093 , 0.136391, 1.536192, 3521448192.000000, -69.370003,  76.019997,  45.080002, 0.000000,  0.000000 
 44730368.000000, -5.400600 , -0.272782, 5.273781, 3521468160.000000, -0.980000,  72.940002,  102.690002, 0.000000,  0.000000 
 44749312.000000, -7.532606 , -4.931608, 8.590233, 3521489152.000000, 32.340000,  96.389999,  173.809998, 0.000000,  0.000000 
 44769280.000000, -9.600004 , -12.490535, 14.404793, 3521508096.000000, -8.960000,  126.279999,  217.139999, 0.000000,  0.000000 
 44789248.000000, -6.429514 , -23.196022, 24.074188, 3521528064.000000, -122.709999,  150.779999,  254.240005, 0.000000,  0.000000 
 44809216.000000, -5.472386 , -29.759533, 23.569304, 3521548032.000000, -278.320007,  152.460007,  314.510010, 0.000000,  0.000000 
 44830208.000000, -3.337988 , -24.220150, 20.307888, 3521568000.000000, -355.739990,  133.910004,  283.360016, 0.000000,  0.000000 
 44849152.000000, 4.462614 , -16.924435, 19.243080, 3521588992.000000, -227.570007,  65.870003,  209.300003, 0.000000,  0.000000 
 44869120.000000, 9.946963 , -11.997612, 14.852250, 3521607936.000000, -83.090004,  29.889999,  243.460007, 0.000000,  0.000000 
 44889088.000000, 8.379664 , -9.533006, 11.729616, 3521627904.000000, -1.050000,  28.559999,  204.820007, 0.000000,  0.000000 
 44909056.000000, 4.476971 , -7.817351, 10.037891, 3521648384.000000, -10.710000,  16.309999,  100.660004, 0.000000,  0.000000 
 44930048.000000, 5.364708 , -5.903094, 6.910471, 3521668352.000000, -47.529999,  -1.120000,  49.490002, 0.000000,  0.000000 
 44948992.000000, 7.757531 , -3.816552, 4.711468, 3521688832.000000, -35.840000,  -48.020000,  66.430000, 0.000000,  0.000000 
 44968960.000000, 8.233703 , -1.280160, 3.120241, 3521708288.000000, 20.230000,  -70.769997,  75.879997, 0.000000,  0.000000 
 44988928.000000, 8.078169 , 1.842474, 2.818745, 3521728256.000000, 73.779999,  -97.370003,  70.840004, 0.000000,  0.000000 
 45008896.000000, 8.504091 , 3.127419, 2.151148, 3521748224.000000, 102.900002,  -98.209999,  58.799999, 0.000000,  0.000000 
 45031936.000000, 11.586047 , 5.668597, 1.220340, 3521768192.000000, 128.520004,  -110.809998,  62.580002, 0.000000,  0.000000 
 45049344.000000, 12.413965 , 5.807381, 0.734596, 3521790720.000000, 130.410004,  -137.270004,  50.959999, 0.000000,  0.000000 
 45069312.000000, 11.739187 , 4.539185, 1.555335, 3521808128.000000, 88.760002,  -145.460007,  13.720000, 0.000000,  0.000000 
 45089280.000000, 10.549955 , -0.631705, 5.139783, 3521828096.000000, -19.180000,  -128.169998,  -42.630001, 0.000000,  0.000000 
 45109248.000000, 11.306087 , -10.121639, 8.595018, 3521848064.000000, -151.899994,  -120.050003,  -114.169998, 0.000000,  0.000000 
 45130240.000000, 16.529619 , -28.926834, 14.691931, 3521868032.000000, -251.720001,  -128.729996,  -201.740005, 0.000000,  0.000000 
 45149184.000000, 10.700702 , -40.182671, 22.334606, 3521889024.000000, -268.239990,  -131.600006,  -234.220001, 0.000000,  0.000000 
 45169152.000000, 0.062213 , -31.661829, 18.927227, 3521907968.000000, -195.160004,  -74.129997,  -289.730011, 0.000000,  0.000000 
 45189120.000000, -0.708275 , -18.664017, 14.359328, 3521927936.000000, 47.459999,  -65.379997,  -407.679993, 0.000000,  0.000000 
 45209088.000000, -0.945165 , -13.105491, 8.836694, 3521947904.000000, 124.809998,  -126.699997,  -370.299988, 0.000000,  0.000000 
 45230080.000000, -1.141376 , -10.435099, 7.731210, 3521967872.000000, 109.059998,  -156.589996,  -378.839996, 0.000000,  0.000000 
 45249024.000000, -2.194218 , -7.369894, 8.614161, 3521988864.000000, 47.670002,  -122.290001,  -348.529999, 0.000000,  0.000000 
 45268992.000000, -1.988436 , -4.807181, 6.364908, 3522007808.000000, 16.030001,  -57.820000,  -295.890015, 0.000000,  0.000000 
 45288960.000000, -2.160719 , -1.138984, 3.476771, 3522027776.000000, 68.459999,  -29.120001,  -219.800003, 0.000000,  0.000000 
 45308928.000000, -3.699304 , 3.120241, 1.677369, 3522047744.000000, 88.830002,  -10.710000,  -163.800003, 0.000000,  0.000000 
 45329920.000000, -5.252246 , 4.264010, 1.277767, 3522088704.000000, -13.440001,  65.590004,  -71.610001, 5784501248.000000,  1006.108765 
 45348864.000000, -6.044270 , 2.215754, 1.624727, 0.000000, 0.000000,  0.000000,  0.000000, 0.000000,  0.000000 
 45368832.000000, -7.817351 , 0.696311, 0.181855, 3522107648.000000, -72.800003,  92.959999,  -53.410000, 0.000000,  0.000000 
 45388800.000000, -10.954341 , 2.356930, -1.775474, 3522128128.000000, -85.820000,  110.250000,  -13.440001, 0.000000,  0.000000 
 45408768.000000, -10.717452 , 3.649055, -0.232104, 3522148096.000000, -103.599998,  118.720001,  31.710001, 0.000000,  0.000000 
 45429760.000000, -7.905886 , 1.191626, 1.363909, 3522168064.000000, -136.360001,  112.000000,  73.570000, 0.000000,  0.000000 
 45448704.000000, -7.633104 , -0.392423, 3.560520, 3522188544.000000, -124.040001,  94.709999,  92.260002, 0.000000,  0.000000 
 45468672.000000, -8.638089 , -2.414358, 7.893922, 3522208000.000000, -69.160004,  97.440002,  145.250000, 0.000000,  0.000000 
 45488640.000000, -10.604989 , -11.507084, 8.346166, 3522227968.000000, -52.009998,  102.129997,  236.529999, 0.000000,  0.000000 
 45509120.000000, -12.189038 , -26.859436, 16.938791, 3522247936.000000, -129.850006,  101.290001,  279.019989, 0.000000,  0.000000 
 45529600.000000, -8.293523 , -40.127640, 25.174889, 3522267904.000000, -244.440002,  101.779999,  328.860016, 0.000000,  0.000000 
 45549056.000000, -4.704289 , -26.780472, 18.427128, 3522288896.000000, -216.580002,  78.750000,  410.549988, 0.000000,  0.000000 
 45569024.000000, 2.108077 , -22.090536, 16.553547, 3522307840.000000, -30.100000,  38.849998,  351.679993, 0.000000,  0.000000 
 45588992.000000, 6.948757 , -18.731016, 18.132809, 3522327808.000000, -12.460000,  58.170002,  337.119995, 0.000000,  0.000000 
 45608960.000000, 5.154140 , -16.357336, 15.620347, 3522347776.000000, -39.619999,  86.940002,  298.059998, 0.000000,  0.000000 
 45629952.000000, 1.588834 , -12.509676, 11.674582, 3522367744.000000, 20.930000,  92.959999,  232.259995, 0.000000,  0.000000 
 45648896.000000, 3.512664 , -9.212367, 7.302894, 3522388736.000000, 89.040001,  72.519997,  177.029999, 0.000000,  0.000000 
 45668864.000000, 7.259824 , -6.910471, 3.979264, 3522407680.000000, 114.520004,  18.410000,  206.779999, 0.000000,  0.000000 
 45688832.000000, 9.762716 , -4.950750, 3.158526, 3522427648.000000, 67.480003,  -33.250000,  225.470001, 0.000000,  0.000000 
 45708800.000000, 10.437491 , -2.600998, 4.543970, 3522447616.000000, -13.440001,  -52.360001,  213.360001, 0.000000,  0.000000 
 45729792.000000, 10.420743 , -1.978864, 3.160919, 3522467584.000000, -68.599998,  -54.459999,  191.729996, 0.000000,  0.000000 
 45748736.000000, 12.011970 , -1.586441, 1.586441, 3522488576.000000, -49.700001,  -64.120003,  142.520004, 0.000000,  0.000000 
 45768704.000000, 14.464613 , 0.772882, 2.435893, 3522507520.000000, -18.900000,  -77.769997,  85.190002, 0.000000,  0.000000 
 45788672.000000, 14.727824 , 1.660619, 3.194418, 3522527488.000000, -32.200001,  -89.040001,  21.700001, 0.000000,  0.000000 
 45808640.000000, 13.107882 , -2.299503, 4.137190, 3522547456.000000, -45.570000,  -83.370003,  -57.680000, 0.000000,  0.000000 
 45829632.000000, 12.119646 , -7.243074, 6.958328, 3522567424.000000, -31.500000,  -66.220001,  -136.430008, 0.000000,  0.000000 
 45848576.000000, 11.569297 , -15.093925, 14.490934, 3522588416.000000, -0.560000,  -51.450001,  -180.669998, 0.000000,  0.000000 
 45868544.000000, 9.903893 , -29.458040, 23.423342, 3522607360.000000, -0.560000,  -40.670002,  -245.770004, 0.000000,  0.000000 
 45888512.000000, 2.885744 , -45.430130, 29.850464, 3522627840.000000, -121.099998,  -47.459999,  -299.529999, 0.000000,  0.000000 
 45908480.000000, -4.448257 , -35.973698, 23.258236, 3522647808.000000, -102.410004,  -71.959999,  -379.959991, 0.000000,  0.000000 
 45929472.000000, -6.486942 , -21.241085, 14.684752, 3522667776.000000, 104.019997,  -79.309998,  -410.410004, 0.000000,  0.000000 
 45948416.000000, -4.689932 , -14.598611, 13.028918, 3522688256.000000, 178.360001,  -140.490005,  -411.040009, 0.000000,  0.000000 
 45968384.000000, -5.225924 , -10.650455, 12.208181, 3522707712.000000, 121.169998,  -172.759995,  -399.700012, 0.000000,  0.000000 
 45988352.000000, -7.633104 , -7.759924, 9.753145, 3522727680.000000, 71.889999,  -115.220001,  -373.589996, 0.000000,  0.000000 
 46008832.000000, -8.274381 , -3.672983, 4.266403, 3522747648.000000, 129.430008,  -50.540001,  -327.950012, 0.000000,  0.000000 
 46031360.000000, -8.221739 , 0.653241, 4.266403, 3522767616.000000, 193.550003,  -39.340000,  -252.350006, 0.000000,  0.000000 
 46048768.000000, -7.109076 , 4.065405, -1.804188, 3522790144.000000, 201.600006,  -41.439999,  -193.759995, 0.000000,  0.000000 
 46068736.000000, -5.486742 , 4.862216, -2.189433, 3522807552.000000, 140.070007,  -39.130001,  -134.750000, 0.000000,  0.000000 
 46088704.000000, -6.013163 , 3.259024, -2.330609, 3522827520.000000, 27.370001,  -15.260000,  -103.040001, 0.000000,  0.000000 
 46108672.000000, -9.937392 , 1.406980, -4.086941, 3522847488.000000, -82.180000,  17.850000,  -88.129997, 0.000000,  0.000000 
 46129664.000000, -15.081962 , 1.062413, -4.364508, 3522867456.000000, -144.059998,  55.720001,  -62.580002, 0.000000,  0.000000 
 46148608.000000, -14.086546 , 1.414158, -3.974478, 3522888448.000000, -158.199997,  68.809998,  -19.740000, 0.000000,  0.000000 
 46168576.000000, -9.934999 , -0.023928, -2.577070, 3522907904.000000, -130.690002,  37.240002,  49.700001, 0.000000,  0.000000 
 46188544.000000, -9.918249 , -2.919244, 1.871187, 3522927360.000000, -109.620003,  14.420000,  117.389999, 0.000000,  0.000000 
 46208512.000000, -12.067005 , -8.968300, 6.659225, 3522947328.000000, -145.600006,  38.709999,  185.919998, 0.000000,  0.000000 
 46229504.000000, -13.430914 , -19.597218, 13.679767, 3522967296.000000, -164.149994,  45.290001,  281.190002, 0.000000,  0.000000 
 46248448.000000, -5.094319 , -29.077581, 19.759928, 3522988288.000000, -159.669998,  54.250000,  359.940002, 0.000000,  0.000000 
 46268416.000000, 0.126820 , -30.010782, 20.243279, 3523007232.000000, -195.580002,  86.660004,  449.470001, 0.000000,  0.000000 
 46288384.000000, -6.795617 , -28.168306, 22.389641, 3523027200.000000, -212.589996,  129.710007,  455.070007, 0.000000,  0.000000 
 46308352.000000, -1.840081 , -27.864420, 23.820549, 3523047168.000000, -234.009995,  192.850006,  336.700012, 0.000000,  0.000000 
 46329344.000000, 3.469593 , -23.736801, 19.853249, 3523067136.000000, -189.419998,  194.669998,  334.459991, 0.000000,  0.000000 
 46348288.000000, 3.917051 , -16.063019, 12.260822, 3523088128.000000, -14.210000,  137.899994,  308.000000, 5785500672.000000,  1006.105164 
 46368256.000000, 5.022535 , -10.884951, 8.614161, 3523107584.000000, 105.699997,  78.470001,  252.000000, 0.000000,  0.000000 
 46388224.000000, 6.900900 , -6.431907, 7.549356, 3523127552.000000, 124.040001,  30.030001,  230.440002, 0.000000,  0.000000 
 46408192.000000, 9.420543 , -5.099105, 3.481557, 3523147520.000000, 78.680000,  -13.720000,  227.290009, 0.000000,  0.000000 
 46429184.000000, 11.686546 , -4.484150, 3.136991, 3523167488.000000, 61.950001,  -42.000000,  217.490005, 0.000000,  0.000000 
 46448128.000000, 12.708281 , -2.711068, 4.625326, 3523187968.000000, 27.930000,  -52.639999,  193.059998, 0.000000,  0.000000 
 46468096.000000, 14.742181 , -2.364109, 2.983850, 3523207424.000000, -20.160000,  -55.790001,  161.630005, 0.000000,  0.000000 
 46488576.000000, 17.261824 , -2.493321, 1.127020, 3523227392.000000, -12.600000,  -75.949997,  118.650002, 0.000000,  0.000000 
 46508544.000000, 16.240088 , -2.294717, 1.823331, 3523247360.000000, 1.260000,  -91.419998,  58.799999, 0.000000,  0.000000 
 46529024.000000, 12.705888 , -5.587241, 6.281159, 3523267328.000000, -37.310001,  -75.040001,  -42.770000, 0.000000,  0.000000 
 46548480.000000, 9.722038 , -11.047661, 10.444671, 3523288320.000000, -100.169998,  -49.000000,  -142.800003, 0.000000,  0.000000 
 46568448.000000, 5.426922 , -19.312471, 13.418950, 3523307264.000000, -98.139999,  -31.780001,  -227.290009, 0.000000,  0.000000 
 46588416.000000, 3.024528 , -30.611378, 20.350954, 3523327232.000000, 30.030001,  -34.369999,  -328.929993, 0.000000,  0.000000 
 46608384.000000, 2.481357 , -36.689148, 23.662622, 3523347200.000000, 28.139999,  -75.599998,  -412.019989, 0.000000,  0.000000 
 46629376.000000, -1.847259 , -33.559338, 23.526232, 3523367168.000000, -51.310001,  -109.550003,  -402.290009, 0.000000,  0.000000 
 46648320.000000, -6.558727 , -23.286947, 17.529818, 3523388160.000000, 37.799999,  -119.699997,  -437.989990, 0.000000,  0.000000 
 46668288.000000, -6.345766 , -18.214167, 15.993626, 3523407104.000000, 128.940002,  -145.110001,  -437.220001, 0.000000,  0.000000 
 46688256.000000, -9.939785 , -13.981262, 17.166111, 3523427072.000000, 132.720001,  -167.509995,  -383.529999, 0.000000,  0.000000 
 46708224.000000, -14.514862 , -8.970692, 10.231709, 3523447040.000000, 109.830002,  -137.410004,  -345.450012, 0.000000,  0.000000 
 46729216.000000, -11.349157 , -3.467200, 2.727818, 3523467008.000000, 136.360001,  -109.970001,  -287.070007, 0.000000,  0.000000 
 46748160.000000, -6.692725 , 2.543570, 2.560320, 3523488000.000000, 150.710007,  -96.389999,  -199.570007, 0.000000,  0.000000 
 46768128.000000, -6.642475 , 5.953342, 0.492921, 3523506944.000000, 111.440002,  -86.800003,  -136.919998, 0.000000,  0.000000 
 46788096.000000, -8.118847 , 4.816752, -0.605384, 3523526912.000000, 63.349998,  -17.639999,  -119.840004, 0.000000,  0.000000 
 46808064.000000, -8.662018 , 2.885744, -2.268396, 3523546880.000000, 1.050000,  31.080000,  -126.139999, 0.000000,  0.000000 
 46829056.000000, -10.372886 , 3.242275, -5.015356, 3523566848.000000, -29.469999,  56.209999,  -81.620003, 0.000000,  0.000000 
 46848000.000000, -11.310873 , 3.251846, -4.388437, 3523587840.000000, -35.000000,  69.720001,  -17.080000, 0.000000,  0.000000 
 46867968.000000, -8.106883 , 2.005185, -2.199004, 3523607296.000000, -40.110001,  79.379997,  11.620000, 0.000000,  0.000000 
 46887936.000000, -5.563312 , 1.153341, -0.957129, 3523627264.000000, -54.740002,  90.230003,  52.430000, 0.000000,  0.000000 
 46907904.000000, -5.517848 , 0.437887, -0.294317, 3523647232.000000, -29.120001,  90.650002,  109.059998, 0.000000,  0.000000 
 46928896.000000, -8.171489 , -3.811767, 3.582055, 3523667200.000000, 18.129999,  113.400002,  184.169998, 0.000000,  0.000000 
 46947840.000000, -8.283953 , -7.592427, 8.104490, 3523687680.000000, 16.940001,  151.899994,  236.529999, 0.000000,  0.000000 
 46968320.000000, -10.159925 , -18.005989, 17.077576, 3523707136.000000, -66.360001,  159.250000,  274.190002, 0.000000,  0.000000 
 46988288.000000, -11.114661 , -31.640293, 23.298914, 3523727104.000000, -203.210007,  173.600006,  301.279999, 0.000000,  0.000000 
 47008256.000000, -8.874979 , -28.733015, 21.487549, 3523747072.000000, -236.180008,  151.619995,  335.860016, 0.000000,  0.000000 
 47030784.000000, -2.459821 , -20.291138, 20.008783, 3523767040.000000, -129.149994,  95.550003,  295.959991, 0.000000,  0.000000 
 47048192.000000, 1.921437 , -16.098909, 21.186052, 3523789568.000000, -108.989998,  98.769997,  290.989990, 0.000000,  0.000000 
 47068160.000000, 1.607977 , -14.000405, 18.556339, 3523806976.000000, -153.930008,  140.910004,  247.729996, 0.000000,  0.000000 
 47088128.000000, 1.899901 , -11.093125, 15.237494, 3523826944.000000, -108.919998,  139.789993,  197.119995, 0.000000,  0.000000 
 47108096.000000, 4.201797 , -8.772088, 12.028719, 3523846912.000000, -18.059999,  107.520004,  177.660004, 0.000000,  0.000000 
 47129088.000000, 7.154540 , -7.252645, 9.078369, 3523866880.000000, 41.930000,  65.730003,  188.229996, 0.000000,  0.000000 
 47148032.000000, 9.011370 , -5.041678, 6.673582, 3523887872.000000, 52.009998,  31.080000,  201.389999, 0.000000,  0.000000 
 47168000.000000, 9.418150 , -3.256632, 5.283352, 3523906816.000000, 13.160000,  14.280000,  208.809998, 0.000000,  0.000000 
 47187968.000000, 10.348958 , -1.591227, 5.797810, 3523926784.000000, -45.500000,  9.660000,  196.979996, 0.000000,  0.000000 
 47207936.000000, 11.959327 , -0.801596, 5.804988, 3523946752.000000, -82.809998,  -12.040000,  187.039993, 0.000000,  0.000000 
 47228928.000000, 13.397413 , -2.057827, 4.857430, 3523966720.000000, -69.019997,  -48.020000,  149.800003, 0.000000,  0.000000 
 47247872.000000, 13.299308 , -0.777667, 5.694918, 3523987712.000000, -34.580002,  -74.690002,  74.129997, 0.000000,  0.000000 
 47267840.000000, 10.521241 , -3.029313, 8.070991, 3524006656.000000, -36.610001,  -76.300003,  -14.420000, 0.000000,  0.000000 
 47287808.000000, 7.913064 , -9.449257, 11.921042, 3524026624.000000, -9.380000,  -63.770000,  -105.980003, 0.000000,  0.000000 
 47307776.000000, 6.774081 , -20.738594, 14.730216, 3524046592.000000, 24.710001,  -72.029999,  -187.529999, 0.000000,  0.000000 
 47328768.000000, 5.936593 , -28.417164, 23.279772, 3524087552.000000, -57.400002,  -148.470001,  -309.890015, 5786500096.000000,  1006.102173 
 47347712.000000, 2.998207 , -36.354153, 28.469805, 0.000000, 0.000000,  0.000000,  0.000000, 0.000000,  0.000000 
 47367680.000000, -3.349952 , -25.708487, 23.856440, 3524107008.000000, 69.930000,  -200.899994,  -367.500000, 0.000000,  0.000000 
 47387648.000000, -5.536992 , -17.276178, 16.182659, 3524126976.000000, 250.180008,  -223.649994,  -423.500000, 0.000000,  0.000000 
 47407616.000000, -3.996014 , -13.883157, 16.180265, 3524146944.000000, 214.550003,  -251.160004,  -386.540009, 0.000000,  0.000000 
 47428608.000000, -7.659425 , -11.385050, 17.465212, 3524166912.000000, 121.239998,  -240.100006,  -337.890015, 0.000000,  0.000000 
 47448064.000000, -10.473385 , -7.578069, 9.841680, 3524187904.000000, 111.790001,  -178.360001,  -349.579987, 0.000000,  0.000000 
 47468032.000000, -6.273981 , -3.507878, 2.888137, 3524206848.000000, 241.919998,  -128.520004,  -294.630005, 0.000000,  0.000000 
 47488000.000000, -3.558127 , 1.119841, -0.894916, 3524226816.000000, 297.220001,  -114.099998,  -181.369995, 0.000000,  0.000000 
 47507968.000000, -4.510471 , 5.795416, -1.502693, 3524246784.000000, 209.860001,  -100.519997,  -152.180008, 0.000000,  0.000000 
 47528448.000000, -6.470192 , 4.972286, -2.093720, 3524266752.000000, 78.820000,  -55.510002,  -158.410004, 0.000000,  0.000000 
 47547904.000000, -7.128219 , 1.354338, -2.428715, 3524287744.000000, -1.260000,  -2.520000,  -152.809998, 0.000000,  0.000000 
 47567872.000000, -9.415757 , -0.043071, -2.629712, 3524306688.000000, -73.360001,  22.190001,  -144.339996, 0.000000,  0.000000 
 47587840.000000, -14.749359 , 1.598405, -5.486742, 3524326656.000000, -128.169998,  47.599998,  -103.949997, 0.000000,  0.000000 
 47607808.000000, -12.849458 , 2.275574, -4.125226, 3524346624.000000, -143.570007,  59.360001,  -53.410000, 0.000000,  0.000000 
 47628800.000000, -7.554141 , -0.540778, -0.808774, 3524366592.000000, -127.959999,  51.380001,  1.540000, 0.000000,  0.000000 
 47647744.000000, -8.877372 , -1.428515, 3.132205, 3524387584.000000, -75.949997,  47.599998,  43.750000, 0.000000,  0.000000 
 47667712.000000, -12.533605 , -0.258425, 8.200203, 3524406528.000000, -49.980000,  82.949997,  108.080002, 0.000000,  0.000000 
 47687680.000000, -13.270595 , -9.367901, 16.555939, 3524426496.000000, -78.820000,  124.809998,  218.610001, 0.000000,  0.000000 
 47707648.000000, -13.658232 , -23.531017, 30.946375, 3524446464.000000, -108.150002,  167.720001,  264.809998, 0.000000,  0.000000 
 47728640.000000, -5.781059 , -20.803200, 36.437901, 3524466432.000000, -140.070007,  210.070007,  256.760010, 0.000000,  0.000000 
 47747584.000000, -4.007978 , -12.114861, 37.572102, 3524487424.000000, -37.730000,  252.279999,  289.799988, 0.000000,  0.000000 
 47767552.000000, 2.100898 , -1.660619, 28.194628, 3524506368.000000, 192.500000,  320.529999,  177.100006, 0.000000,  0.000000 
 47787520.000000, 4.252046 , 11.100305, 15.991233, 3524526336.000000, 479.850006,  336.350006,  99.820000, 0.000000,  0.000000 
 47807488.000000, 5.491528 , 17.391035, 11.739187, 3524546304.000000, 515.340027,  297.079987,  46.060001, 0.000000,  0.000000 
 47828480.000000, 4.134798 , 7.496714, 12.315859, 3524566784.000000, 254.100006,  275.940002,  -12.460000, 0.000000,  0.000000 
 47847424.000000, 3.385844 , -0.413958, 11.210374, 3524587264.000000, -120.190002,  272.720001,  33.180000, 0.000000,  0.000000 
 47867392.000000, 4.352544 , -4.108476, 10.619347, 3524606720.000000, -238.070007,  238.910004,  98.769997, 0.000000,  0.000000 
 47887360.000000, 9.083155 , -3.945765, 9.226725, 3524626688.000000, -206.990005,  176.889999,  149.240005, 0.000000,  0.000000 
 47907328.000000, 14.038691 , -1.658226, 6.336195, 3524666624.000000, -91.629997,  30.520000,  196.630005, 0.000000,  0.000000 
 47928320.000000, 16.905293 , -0.129212, 3.203990, 0.000000, 0.000000,  0.000000,  0.000000, 0.000000,  0.000000 
 47947776.000000, 16.785650 , -0.576670, 2.230111, 3524687616.000000, -72.309998,  -32.200001,  162.960007, 0.000000,  0.000000 
 47967744.000000, 14.512468 , -1.241875, 5.474778, 3524706560.000000, -107.379997,  -72.029999,  116.129997, 0.000000,  0.000000 
 47987712.000000, 12.801601 , -3.582055, 12.378072, 3524726528.000000, -183.960007,  -108.989998,  48.369999, 0.000000,  0.000000 
 48007680.000000, 9.990034 , -7.893922, 17.151752, 3524746496.000000, -236.180008,  -161.559998,  -46.340000, 0.000000,  0.000000 
 48030208.000000, 7.415358 , -15.615561, 25.004997, 3524766464.000000, -259.070007,  -218.119995,  -170.309998, 0.000000,  0.000000 
 48047616.000000, 4.563113 , -25.598415, 34.327435, 3524789504.000000, -243.040009,  -270.549988,  -289.589996, 0.000000,  0.000000 
 48067584.000000, -1.069592 , -28.749763, 32.573494, 3524806400.000000, -210.210007,  -302.610016,  -355.250000, 0.000000,  0.000000 
 48087552.000000, -4.208975 , -18.786051, 28.106094, 3524826368.000000, -91.139999,  -314.929993,  -398.860016, 0.000000,  0.000000 
 48107520.000000, -6.137590 , -13.823336, 21.030519, 3524846336.000000, 16.520000,  -306.040009,  -383.739990, 0.000000,  0.000000 
 48128512.000000, -10.892128 , -10.578669, 17.424534, 3524866304.000000, 47.740002,  -300.929993,  -363.019989, 0.000000,  0.000000 
 48147456.000000, -14.536398 , -4.893322, 13.095919, 3524887296.000000, 48.650002,  -250.180008,  -348.390015, 0.000000,  0.000000 
 48167424.000000, -9.652647 , -1.399801, 3.806981, 3524906240.000000, 62.790001,  -167.369995,  -304.290009, 0.000000,  0.000000 
 48187392.000000, -5.132604 , 1.744368, 0.784846, 3524926208.000000, 115.849998,  -124.809998,  -201.949997, 0.000000,  0.000000 
 48207360.000000, -4.998606 , 6.297909, -0.899701, 3524946176.000000, 127.190002,  -95.550003,  -158.550003, 0.000000,  0.000000 
 48228352.000000, -8.025528 , 6.474977, -1.198804, 3524966144.000000, 48.650002,  -40.459999,  -135.240005, 0.000000,  0.000000 
 48247296.000000, -8.817552 , 2.945565, -2.007578, 3524987136.000000, -39.619999,  30.240000,  -130.970001, 0.000000,  0.000000 
 48267264.000000, -9.609575 , 1.442872, -3.914658, 3525006080.000000, -65.519997,  70.419998,  -108.150002, 0.000000,  0.000000 
 48287232.000000, -12.217752 , 3.644269, -3.352344, 3525026048.000000, -67.900002,  88.900002,  -42.770000, 0.000000,  0.000000 
 48307200.000000, -10.205389 , 2.598605, -1.773082, 3525046016.000000, -113.959999,  105.349998,  11.200000, 0.000000,  0.000000 
 48328192.000000, -8.853443 , -1.469193, -1.543371, 3525066496.000000, -130.059998,  121.309998,  56.279999, 0.000000,  0.000000 
 48347136.000000, -8.831908 , -3.414558, -0.236889, 3525086976.000000, -68.669998,  138.880005,  109.059998, 5787499520.000000,  1006.106445 
 48367104.000000, -9.628718 , -3.816552, 7.300502, 3525106432.000000, -1.260000,  151.059998,  216.020004, 0.000000,  0.000000 
 48387072.000000, -11.454442 , -11.310873, 12.346965, 3525126400.000000, -33.529999,  170.589996,  289.380005, 0.000000,  0.000000 
 48407040.000000, -10.844273 , -22.585854, 22.861027, 3525146368.000000, -126.000000,  205.100006,  317.519989, 0.000000,  0.000000 
 48428032.000000, -7.525427 , -27.259035, 27.567711, 3525166336.000000, -227.990005,  222.040009,  333.690002, 0.000000,  0.000000 
 48447488.000000, -7.666604 , -21.949360, 23.894726, 3525187328.000000, -212.169998,  218.190002,  357.700012, 0.000000,  0.000000 
 48467456.000000, -2.385644 , -19.561325, 24.117262, 3525206272.000000, -184.240005,  204.190002,  288.820007, 0.000000,  0.000000 
 48487424.000000, 2.194218 , -17.197216, 22.992632, 3525226240.000000, -238.000000,  214.339996,  241.570007, 0.000000,  0.000000 
 48507392.000000, 2.258825 , -14.031512, 18.666409, 3525246208.000000, -188.720001,  206.500000,  203.000000, 0.000000,  0.000000 
 48527872.000000, 2.270789 , -9.054441, 14.234902, 3525266176.000000, -41.790001,  166.669998,  145.809998, 0.000000,  0.000000 
 48547328.000000, 5.496314 , -5.379066, 11.452050, 3525287168.000000, 43.959999,  113.540001,  125.440002, 0.000000,  0.000000 
 48567296.000000, 8.858230 , -2.440679, 9.652647, 3525306112.000000, 46.200001,  55.160000,  137.479996, 0.000000,  0.000000 
 48587264.000000, 9.827322 , -1.012164, 8.441878, 3525326080.000000, 23.170000,  12.810000,  141.050003, 0.000000,  0.000000 
 48607232.000000, 10.810772 , 0.686740, 7.657032, 3525346048.000000, 7.700000,  -12.040000,  117.110001, 0.000000,  0.000000 
 48628224.000000, 12.973885 , 1.801795, 7.989635, 3525366016.000000, 2.940000,  -40.040001,  103.949997, 0.000000,  0.000000 
 48647168.000000, 14.565112 , 1.103091, 6.623333, 3525387008.000000, 55.510002,  -93.730003,  91.840004, 0.000000,  0.000000 
 48667136.000000, 14.703895 , 2.660819, 3.869194, 3525405952.000000, 131.880005,  -146.440002,  50.959999, 0.000000,  0.000000 
 48687104.000000, 11.437693 , 3.156133, 6.156733, 3525425920.000000, 112.000000,  -164.990005,  -3.360000, 0.000000,  0.000000 
 48707072.000000, 8.695518 , -5.185246, 12.007183, 3525445888.000000, -50.540001,  -168.770004,  -73.919998, 0.000000,  0.000000 
 48728064.000000, 9.827322 , -24.141190, 21.262623, 3525465856.000000, -218.399994,  -195.160004,  -149.729996, 0.000000,  0.000000 
 48747008.000000, 4.914857 , -36.447475, 30.635309, 3525486848.000000, -243.040009,  -234.990005,  -240.800003, 0.000000,  0.000000 
 48766976.000000, -4.366901 , -26.419155, 24.847069, 3525505792.000000, -183.610001,  -239.119995,  -288.470001, 0.000000,  0.000000 
 48786944.000000, -1.529014 , -19.463219, 21.104696, 3525525760.000000, 92.959999,  -223.229996,  -372.750000, 0.000000,  0.000000 
 48806912.000000, -4.108476 , -13.000205, 17.225931, 3525546240.000000, 174.580002,  -263.059998,  -334.739990, 0.000000,  0.000000 
 48827904.000000, -10.104890 , -7.659425, 16.060625, 3525566208.000000, 103.459999,  -279.860016,  -299.459991, 0.000000,  0.000000 
 48846848.000000, -12.574283 , -4.821537, 15.498313, 3525586688.000000, 75.459999,  -245.279999,  -320.809998, 0.000000,  0.000000 
 48866816.000000, -10.880164 , -0.569492, 9.789038, 3525606144.000000, 70.699997,  -182.699997,  -285.600006, 0.000000,  0.000000 
 48886784.000000, -5.077570 , 1.328017, 4.345366, 3525626112.000000, 123.480003,  -137.059998,  -189.139999, 0.000000,  0.000000 
 48906752.000000, -1.024128 , 3.227918, 1.012164, 3525646080.000000, 189.419998,  -118.160004,  -103.809998, 0.000000,  0.000000 
 48927744.000000, -1.895115 , 6.314659, -0.270389, 3525666048.000000, 184.940002,  -95.690002,  -71.260002, 0.000000,  0.000000 
 48947200.000000, -7.410572 , 4.383651, -0.600598, 3525687040.000000, 60.270000,  -26.530001,  -51.170002, 0.000000,  0.000000 
 48967168.000000, -9.085547 , 0.552742, -1.761117, 3525705984.000000, -57.119999,  48.860001,  -47.040001, 0.000000,  0.000000 
 48987136.000000, -8.934800 , -2.433501, -4.419543, 3525725952.000000, -124.669998,  79.660004,  -15.610000, 0.000000,  0.000000 
 49007104.000000, -11.306087 , -1.471586, -2.411965, 3525745920.000000, -162.050003,  87.290001,  21.559999, 0.000000,  0.000000 
 49029632.000000, -11.590833 , -1.677369, -0.270389, 3525765888.000000, -196.699997,  99.889999,  24.570000, 0.000000,  0.000000 
 49047040.000000, -8.561519 , -3.278167, 0.016750, 3525788928.000000, -146.089996,  100.800003,  42.000000, 0.000000,  0.000000 
 49067008.000000, -8.025528 , -5.139783, 2.600998, 3525805824.000000, -64.680000,  107.590004,  91.840004, 0.000000,  0.000000 
 49086976.000000, -11.365908 , -7.298109, 9.657433, 3525825792.000000, -10.360000,  135.169998,  167.160004, 0.000000,  0.000000 
 49106944.000000, -10.298709 , -14.773287, 15.538989, 3525845760.000000, -3.010000,  169.399994,  230.580002, 0.000000,  0.000000 
 49127936.000000, -5.412565 , -20.504097, 23.605196, 3525865728.000000, -24.150000,  192.850006,  280.980011, 0.000000,  0.000000 
 49146880.000000, -4.723432 , -22.846670, 26.036304, 3525886720.000000, -109.410004,  229.740005,  330.750000, 0.000000,  0.000000 
 49166848.000000, -4.510471 , -19.257437, 25.550560, 3525905664.000000, -150.779999,  256.549988,  304.220001, 0.000000,  0.000000 
 49186816.000000, 2.691926 , -13.806586, 25.679771, 3525925632.000000, -104.790001,  265.089996,  214.619995, 0.000000,  0.000000 
 49206784.000000, 4.302295 , -11.435300, 21.279371, 3525945600.000000, -56.209999,  264.950012,  200.970001, 0.000000,  0.000000 
 49227776.000000, 1.282553 , -7.451250, 21.360727, 3525965568.000000, -20.860001,  238.350006,  124.110001, 0.000000,  0.000000 
 49246720.000000, 2.670390 , -4.168297, 19.432112, 3525986560.000000, 4.340000,  179.199997,  61.459999, 0.000000,  0.000000 
 49266688.000000, 6.288338 , -0.167498, 14.467006, 3526005504.000000, 94.570000,  81.550003,  105.000000, 0.000000,  0.000000 
 49286656.000000, 8.068598 , 4.651647, 9.351151, 3526025984.000000, 217.770004,  -19.389999,  164.710007, 0.000000,  0.000000 
 49306624.000000, 7.238289 , 8.762517, 5.726025, 3526045952.000000, 277.829987,  -70.349998,  188.440002, 0.000000,  0.000000 
 49327616.000000, 6.776474 , 7.920243, 3.314059, 3526065920.000000, 218.470001,  -89.809998,  207.410004, 0.000000,  0.000000 
 49346560.000000, 8.537591 , 2.447858, 0.830309, 3526086912.000000, 126.840004,  -123.480003,  246.119995, 5788499456.000000,  1006.101746 
 49366528.000000, 11.885150 , -1.060020, -2.072184, 3526105856.000000, 60.619999,  -181.930008,  257.600006, 0.000000,  0.000000 
 49386496.000000, 14.268401 , -4.563113, -2.976671, 3526125824.000000, -96.110001,  -244.369995,  216.369995, 0.000000,  0.000000 
 49406976.000000, 15.388243 , -11.069198, 7.104291, 3526145792.000000, -307.510010,  -279.369995,  138.320007, 0.000000,  0.000000 
 49427456.000000, 12.691531 , -20.528025, 14.277972, 3526165760.000000, -389.760010,  -280.980011,  15.050000, 0.000000,  0.000000 
 49446912.000000, 5.496314 , -25.316065, 15.395420, 3526186752.000000, -253.960007,  -243.669998,  -142.660004, 0.000000,  0.000000 
 49466880.000000, 7.836494 , -25.167709, 16.474585, 3526205696.000000, -84.699997,  -250.180008,  -337.679993, 0.000000,  0.000000 
 49486848.000000, 8.817552 , -21.547369, 18.376879, 3526225664.000000, -16.870001,  -272.230011,  -283.010010, 0.000000,  0.000000 
 49506816.000000, 3.072384 , -17.804993, 15.996019, 3526245632.000000, -44.099998,  -262.360016,  -316.190002, 0.000000,  0.000000 
 49527808.000000, -0.811167 , -11.633904, 17.979670, 3526265600.000000, -88.620003,  -205.240005,  -352.940002, 0.000000,  0.000000 
 49546752.000000, -2.519642 , -10.485349, 15.038890, 3526286592.000000, -146.300003,  -175.070007,  -350.279999, 0.000000,  0.000000 
 49566720.000000, 3.046063 , -7.611568, 4.960321, 3526305536.000000, -109.970001,  -126.209999,  -336.980011, 0.000000,  0.000000 
 49586688.000000, -3.900301 , -0.708275, 14.033905, 3526325504.000000, -82.809998,  -51.590000,  -315.559998, 0.000000,  0.000000 
 49606656.000000, -3.689733 , 4.529613, 8.037491, 3526345472.000000, 39.689999,  -54.250000,  -259.489990, 0.000000,  0.000000 
 49627648.000000, -3.878766 , 8.757731, 4.051049, 3526365440.000000, 129.570007,  3.150000,  -151.410004, 0.000000,  0.000000 
 49646592.000000, -5.881558 , 8.846266, 4.412365, 3526386432.000000, 91.139999,  -16.170000,  -115.430000, 0.000000,  0.000000 
 49666560.000000, -9.992428 , 5.151747, 2.641676, 3526405376.000000, -30.170000,  17.990000,  -115.709999, 0.000000,  0.000000 
 49686528.000000, -12.768101 , 3.493521, 1.155733, 3526425344.000000, -98.419998,  47.599998,  -102.129997, 0.000000,  0.000000 
 49706496.000000, -14.512468 , 2.622534, 0.961915, 3526445312.000000, -157.919998,  56.910000,  -42.910000, 0.000000,  0.000000 
 49727488.000000, -11.222338 , 0.516850, 3.610770, 3526465280.000000, -204.330002,  60.619999,  -9.590000, 0.000000,  0.000000 
 49746432.000000, -8.891729 , -2.806781, 7.862815, 3526486272.000000, -193.479996,  46.900002,  22.680000, 0.000000,  0.000000 
 49766400.000000, -7.357929 , -5.103891, 12.311072, 3526505216.000000, -96.250000,  32.200001,  50.820000, 0.000000,  0.000000 
 49786368.000000, -4.843073 , -6.977471, 14.086546, 3526525696.000000, 26.250000,  40.599998,  131.389999, 0.000000,  0.000000 
 49806336.000000, -1.320838 , -8.212167, 14.531611, 3526545664.000000, 144.479996,  36.119999,  206.430008, 0.000000,  0.000000 
 49827328.000000, 5.156533 , -6.513263, 19.307686, 3526565632.000000, 181.229996,  40.110001,  233.729996, 0.000000,  0.000000 
 49846272.000000, 10.545169 , -10.741381, 23.775087, 3526586112.000000, 84.279999,  87.360001,  300.299988, 0.000000,  0.000000 
 49866240.000000, 6.099305 , -14.610575, 21.365515, 3526605568.000000, -38.150002,  147.070007,  343.070007, 0.000000,  0.000000 
 49886208.000000, 5.783452 , -14.730216, 20.312672, 3526625536.000000, -98.769997,  182.000000,  271.390015, 0.000000,  0.000000 
 49906688.000000, 12.650853 , -11.834900, 17.606390, 3526645504.000000, -52.990002,  190.889999,  213.149994, 0.000000,  0.000000 
 49927168.000000, 11.944970 , -10.454242, 11.296515, 3526665472.000000, 2.730000,  144.339996,  252.630005, 0.000000,  0.000000 
 49946624.000000, 6.984650 , -8.427521, 8.295916, 3526686464.000000, 50.959999,  125.020004,  177.169998, 0.000000,  0.000000 
 49966592.000000, 5.690133 , -5.716454, 5.522634, 3526705408.000000, 64.330002,  119.419998,  118.440002, 0.000000,  0.000000 
 49986560.000000, 7.618747 , -3.299703, 4.055835, 3526725376.000000, 61.950001,  90.580002,  122.779999, 0.000000,  0.000000 
 50006528.000000, 8.489735 , -2.378466, 1.875973, 3526745344.000000, 58.799999,  56.840000,  141.539993, 0.000000,  0.000000 
 50029056.000000, 9.932607 , -1.964507, -0.378066, 3526765312.000000, 60.060001,  38.639999,  133.350006, 0.000000,  0.000000 
 50046464.000000, 13.689339 , -0.521635, -1.404587, 3526788352.000000, 56.279999,  21.700001,  121.730003, 0.000000,  0.000000 
 50066432.000000, 15.227923 , 0.811167, -0.531207, 3526805248.000000, 31.290001,  -21.559999,  118.860001, 0.000000,  0.000000 
 50086400.000000, 13.182060 , 1.033699, -0.401994, 3526825216.000000, 1.610000,  -50.820000,  65.519997, 0.000000,  0.000000 
 50106368.000000, 13.196418 , 1.196411, 0.397209, 3526845184.000000, -31.430000,  -57.330002,  -22.330000, 0.000000,  0.000000 
 50127360.000000, 13.844872 , -1.435694, 4.484150, 3526865152.000000, -100.099998,  -77.910004,  -85.889999, 0.000000,  0.000000 
 50146304.000000, 12.923635 , -9.008978, 9.896714, 3526886144.000000, -176.119995,  -95.129997,  -136.220001, 0.000000,  0.000000 
 50166272.000000, 16.316658 , -25.450062, 19.740788, 3526905088.000000, -223.300003,  -89.250000,  -211.960007, 0.000000,  0.000000 
 50186240.000000, 12.756138 , -34.920853, 26.407188, 3526925056.000000, -230.020004,  -117.879997,  -258.579987, 0.000000,  0.000000 
 50206208.000000, 5.891129 , -28.287951, 23.102703, 3526945024.000000, -193.899994,  -123.270004,  -298.970001, 0.000000,  0.000000 
 50227200.000000, 2.050649 , -17.714066, 18.070597, 3526965504.000000, -26.600000,  -126.559998,  -364.769989, 0.000000,  0.000000 
 50246144.000000, -2.000400 , -12.665211, 14.270795, 3526985984.000000, 25.270000,  -147.630005,  -360.779999, 0.000000,  0.000000 
 50266112.000000, -3.668197 , -8.547162, 14.337792, 3527005440.000000, 26.530001,  -145.600006,  -372.540009, 0.000000,  0.000000 
 50286080.000000, -5.773881 , -4.496114, 12.344571, 3527025408.000000, -5.950000,  -109.059998,  -323.959991, 0.000000,  0.000000 
 50306048.000000, -7.252645 , -1.002593, 6.460621, 3527045376.000000, 18.340000,  -34.650002,  -255.149994, 0.000000,  0.000000 
 50327040.000000, -4.811966 , 2.612962, 3.268596, 3527065344.000000, 86.449997,  8.470000,  -184.940002, 0.000000,  0.000000 
 50345984.000000, -2.761317 , 5.572884, 2.538785, 3527085824.000000, 107.730003,  16.799999,  -126.349998, 5789498368.000000,  1006.102295 
 50365952.000000, -4.816752 , 5.544170, 1.392623, 3527105280.000000, 69.019997,  45.220001,  -102.129997, 0.000000,  0.000000 
 50386432.000000, -6.266802 , 3.440879, 0.593420, 3527125248.000000, 7.700000,  98.980003,  -114.800003, 0.000000,  0.000000 
 50406400.000000, -6.429514 , 3.050849, 0.571885, 3527145216.000000, -38.360001,  127.750000,  -76.090004, 0.000000,  0.000000 
 50426880.000000, -7.884350 , 2.916851, -0.117248, 3527165184.000000, -61.740002,  130.830002,  -9.240000, 0.000000,  0.000000 
 50446336.000000, -8.719445 , 2.409572, 0.076570, 3527186176.000000, -75.040001,  126.489998,  19.670000, 0.000000,  0.000000 
 50466304.000000, -6.709475 , 0.217747, 1.785046, 3527205120.000000, -114.379997,  117.599998,  28.630001, 0.000000,  0.000000 
 50486272.000000, -5.886343 , -2.550749, 4.539185, 3527225088.000000, -132.930008,  97.300003,  72.660004, 0.000000,  0.000000 
 50506240.000000, -7.324430 , -5.316852, 8.592626, 3527245056.000000, -103.949997,  95.480003,  130.830002, 0.000000,  0.000000 
 50527232.000000, -9.927821 , -11.633904, 10.858629, 3527265024.000000, -56.980000,  103.459999,  194.529999, 0.000000,  0.000000 
 50546176.000000, -8.970692 , -16.252050, 15.847664, 3527286016.000000, 2.170000,  104.650002,  248.080002, 0.000000,  0.000000 
 50566144.000000, -3.976871 , -18.209379, 21.140589, 3527304960.000000, -22.610001,  115.849998,  285.179993, 0.000000,  0.000000 
 50586112.000000, -5.331209 , -20.676382, 19.822144, 3527324928.000000, -92.330002,  149.240005,  326.480011, 0.000000,  0.000000 
 50606080.000000, -3.433701 , -18.446270, 21.678974, 3527344896.000000, -150.990005,  189.770004,  271.390015, 0.000000,  0.000000 
 50627072.000000, 2.797210 , -15.187245, 21.853649, 3527364864.000000, -156.589996,  217.279999,  241.360001, 0.000000,  0.000000 
 50646016.000000, 4.563113 , -13.524234, 21.812971, 3527385856.000000, -124.180000,  217.000000,  238.000000, 0.000000,  0.000000 
 50665984.000000, 2.806781 , -10.533205, 16.979469, 3527404800.000000, -97.230003,  186.759995,  164.570007, 0.000000,  0.000000 
 50685952.000000, 4.448257 , -7.601997, 12.339786, 3527424768.000000, -30.380001,  162.399994,  131.740005, 0.000000,  0.000000 
 50705920.000000, 8.626125 , -3.945765, 8.341379, 3527444736.000000, 53.689999,  99.610001,  115.290001, 0.000000,  0.000000 
 50726912.000000, 10.916058 , -0.562313, 6.917650, 3527464704.000000, 58.590000,  20.230000,  150.850006, 0.000000,  0.000000 
 50745856.000000, 10.628918 , 0.409173, 7.630712, 3527485696.000000, -16.870001,  -28.630001,  165.199997, 0.000000,  0.000000 
 50765824.000000, 10.049855 , -0.088534, 8.420342, 3527505152.000000, -113.120003,  -47.250000,  143.639999, 0.000000,  0.000000 
 50785792.000000, 12.918849 , 0.241675, 3.833302, 3527525120.000000, -102.340004,  -77.000000,  134.680008, 0.000000,  0.000000 
 50805760.000000, 15.900306 , 1.928615, 1.067199, 3527545088.000000, -3.290000,  -127.889999,  122.849998, 0.000000,  0.000000 
 50826752.000000, 14.737395 , 3.505485, 1.591227, 3527565056.000000, 72.309998,  -156.309998,  63.840000, 0.000000,  0.000000 
 50845696.000000, 13.569696 , 2.902494, 2.187040, 3527585536.000000, 55.020000,  -136.360001,  -26.180000, 0.000000,  0.000000 
 50866176.000000, 12.878171 , -0.945165, 5.302495, 3527604992.000000, 25.620001,  -121.379997,  -76.650002, 0.000000,  0.000000 
 50886144.000000, 10.351351 , -11.526227, 12.770494, 3527624960.000000, -25.200001,  -104.090004,  -128.100006, 0.000000,  0.000000 
 50906112.000000, 10.133603 , -37.983669, 29.230722, 3527644928.000000, -153.509995,  -76.790001,  -219.589996, 0.000000,  0.000000 
 50926592.000000, 1.421337 , -48.007198, 29.848070, 3527664896.000000, -273.140015,  -120.120003,  -291.549988, 0.000000,  0.000000 
 50946048.000000, -2.909672 , -27.996025, 22.872992, 3527685888.000000, -56.490002,  -169.259995,  -362.390015, 0.000000,  0.000000 
 50966016.000000, -2.502892 , -16.874186, 15.462420, 3527704832.000000, 196.000000,  -198.520004,  -419.720001, 0.000000,  0.000000 
 50985984.000000, -3.515057 , -11.179268, 11.557333, 3527724800.000000, 159.880005,  -260.820007,  -376.320007, 0.000000,  0.000000 
 51005952.000000, -5.082355 , -7.963314, 11.720046, 3527744768.000000, 89.320000,  -255.360001,  -376.809998, 0.000000,  0.000000 
 51028480.000000, -7.893922 , -5.319244, 10.459028, 3527764736.000000, 11.200000,  -189.490005,  -345.450012, 0.000000,  0.000000 
 51045888.000000, -7.494320 , -2.443072, 4.433900, 3527787776.000000, 20.370001,  -86.870003,  -291.410004, 0.000000,  0.000000 
 51065856.000000, -4.864608 , 1.071985, 1.660619, 3527804672.000000, 85.889999,  -44.240002,  -210.070007, 0.000000,  0.000000 
 51085824.000000, -4.103691 , 4.546363, 0.631705, 3527824640.000000, 97.720001,  -27.230000,  -153.300003, 0.000000,  0.000000 
 51105792.000000, -6.340980 , 5.206782, 0.045464, 3527844608.000000, 32.130001,  2.520000,  -129.639999, 0.000000,  0.000000 
 51126784.000000, -6.888937 , 2.641676, -0.062213, 3527864576.000000, -59.990002,  60.410000,  -131.880005, 0.000000,  0.000000 
 51145728.000000, -8.228917 , 1.512264, -1.081556, 3527885568.000000, -111.580002,  86.870003,  -94.500000, 0.000000,  0.000000 
 51165696.000000, -12.335001 , 1.844866, -3.206382, 3527904512.000000, -112.209999,  98.349998,  -33.950001, 0.000000,  0.000000 
 51185664.000000, -12.363714 , 2.287539, -2.055435, 3527924480.000000, -105.070000,  103.809998,  8.960000, 0.000000,  0.000000 
 51205632.000000, -7.520642 , 1.294517, 0.421137, 3527944448.000000, -120.330002,  96.040001,  52.570000, 0.000000,  0.000000 
 51226624.000000, -6.283553 , -1.282553, 3.876373, 3527964928.000000, -100.940002,  70.139999,  106.470001, 0.000000,  0.000000 
 51245568.000000, -9.061620 , -3.172883, 8.264810, 3527985408.000000, -54.459999,  90.230003,  171.710007, 0.000000,  0.000000 
 51265536.000000, -10.908878 , -9.384650, 11.157731, 3528004864.000000, -35.700001,  119.840004,  251.300003, 0.000000,  0.000000 
 51285504.000000, -8.305488 , -19.178473, 17.290537, 3528024832.000000, -56.770000,  120.540001,  296.730011, 0.000000,  0.000000 
 51305472.000000, -4.448257 , -26.845078, 23.703300, 3528044800.000000, -173.669998,  128.660004,  324.869995, 0.000000,  0.000000 
 51326464.000000, -10.545169 , -29.788250, 20.209780, 3528085760.000000, -257.320007,  160.860001,  325.429993, 5790497792.000000,  1006.100342 
 51345920.000000, -7.305287 , -27.629921, 14.794822, 0.000000, 0.000000,  0.000000,  0.000000, 0.000000,  0.000000 
 51365888.000000, 2.711068 , -23.310879, 14.249258, 3528104704.000000, -265.579987,  149.309998,  283.989990, 0.000000,  0.000000 
 51385856.000000, 3.247060 , -19.300507, 18.096918, 3528124672.000000, -337.610016,  152.949997,  301.140015, 0.000000,  0.000000 
 51405824.000000, 0.839881 , -15.546168, 12.236896, 3528144640.000000, -242.130005,  131.669998,  257.110016, 0.000000,  0.000000 
 51426304.000000, 4.132405 , -12.277573, 5.603990, 3528164608.000000, -22.120001,  82.529999,  240.240005, 0.000000,  0.000000 
 51445760.000000, 10.272388 , -7.585248, 4.981857, 3528185600.000000, 69.720001,  10.570000,  252.210007, 0.000000,  0.000000 
 51465728.000000, 13.596018 , -3.012564, 8.855836, 3528204544.000000, 0.070000,  -46.410000,  274.750000, 0.000000,  0.000000 
 51485696.000000, 13.919049 , -3.199204, 9.291330, 3528224512.000000, -90.860001,  -59.290001,  250.460007, 0.000000,  0.000000 
 51505664.000000, 15.175282 , -5.020142, 6.649654, 3528244480.000000, -63.279999,  -78.680000,  190.960007, 0.000000,  0.000000 
 51526656.000000, 17.185251 , -2.988636, 4.967500, 3528264448.000000, 17.430000,  -125.790001,  117.879997, 0.000000,  0.000000 
 51545600.000000, 14.617754 , -1.852045, 6.226124, 3528285440.000000, 46.619999,  -139.720001,  65.940002, 0.000000,  0.000000 
 51565568.000000, 11.521441 , -5.465207, 7.917850, 3528304384.000000, 17.150000,  -127.050003,  -22.190001, 0.000000,  0.000000 
 51585536.000000, 9.784252 , -9.978070, 8.157133, 3528324352.000000, -12.040000,  -117.879997,  -98.349998, 0.000000,  0.000000 
 51605504.000000, 7.044470 , -16.752151, 6.656832, 3528344320.000000, 0.770000,  -117.180000,  -181.580002, 0.000000,  0.000000 
 51626496.000000, 6.695118 , -26.378477, 11.509477, 3528385280.000000, -83.160004,  -97.650002,  -359.029999, 0.000000,  0.000000 
 51645440.000000, 6.826723 , -37.813778, 16.828722, 0.000000, 0.000000,  0.000000,  0.000000, 0.000000,  0.000000 
 51665408.000000, 0.401994 , -39.749569, 16.718651, 3528404224.000000, -86.519997,  -90.580002,  -384.440002, 0.000000,  0.000000 
 51685376.000000, -3.416951 , -30.692738, 13.239488, 3528424192.000000, 46.619999,  -79.379997,  -465.920013, 0.000000,  0.000000 
 51705344.000000, -4.359723 , -23.954548, 11.062018, 3528444160.000000, 110.459999,  -89.739998,  -463.540009, 0.000000,  0.000000 
 51726336.000000, -7.501499 , -18.972691, 13.043276, 3528464640.000000, 92.400002,  -101.639999,  -444.500000, 0.000000,  0.000000 
 51745280.000000, -13.117454 , -12.629318, 9.987641, 3528485120.000000, 57.119999,  -69.019997,  -419.299988, 0.000000,  0.000000 
 51765248.000000, -13.660624 , -6.345766, 3.038885, 3528504576.000000, 82.949997,  -19.809999,  -369.880005, 0.000000,  0.000000 
 51785216.000000, -8.953942 , -0.308674, 2.593820, 3528524544.000000, 105.699997,  -2.940000,  -299.110016, 0.000000,  0.000000 
 51805184.000000, -7.283752 , 5.192425, 1.378266, 3528544512.000000, 85.330002,  -8.190000,  -210.770004, 0.000000,  0.000000 
 51826176.000000, -8.762517 , 6.692725, -0.543171, 3528564480.000000, 58.520000,  28.770000,  -165.970001, 0.000000,  0.000000 
 51845632.000000, -9.188439 , 4.407579, -1.825724, 3528585472.000000, 17.639999,  80.360001,  -136.220001, 0.000000,  0.000000 
 51865600.000000, -10.181459 , 4.043870, -2.813959, 3528604416.000000, -35.420002,  101.430000,  -89.320000, 0.000000,  0.000000 
 51885568.000000, -11.753544 , 4.204189, -2.232504, 3528624384.000000, -78.330002,  99.400002,  -31.850000, 0.000000,  0.000000 
 51905536.000000, -11.234302 , 3.290131, -1.914258, 3528644352.000000, -110.529999,  94.150002,  28.980000, 0.000000,  0.000000 
 51926016.000000, -8.621340 , 2.907279, -3.168097, 3528664320.000000, -128.660004,  82.110001,  80.570000, 0.000000,  0.000000 
 51945472.000000, -7.941778 , 1.466800, -1.225125, 3528685312.000000, -137.759995,  47.950001,  146.369995, 0.000000,  0.000000 
 51965440.000000, -10.676775 , -5.106283, 2.888137, 3528704256.000000, -210.000000,  37.029999,  213.149994, 0.000000,  0.000000 
 51985408.000000, -15.976876 , -20.161924, 1.560120, 3528724224.000000, -311.079987,  34.509998,  259.839996, 0.000000,  0.000000 
 52005376.000000, -13.131810 , -37.785065, 5.709275, 3528744192.000000, -390.250000,  -9.170000,  279.929993, 0.000000,  0.000000 
 52027904.000000, -5.223531 , -45.803410, 11.772687, 3528764160.000000, -479.010010,  -58.939999,  372.959991, 0.000000,  0.000000 
 52045312.000000, -3.790231 , -36.189049, 9.463614, 3528787200.000000, -376.670013,  -107.309998,  385.700012, 0.000000,  0.000000 
 52065280.000000, -1.399801 , -28.280771, 9.135797, 3528804096.000000, -83.019997,  -78.750000,  348.809998, 0.000000,  0.000000 
 52085248.000000, 3.617948 , -25.062424, 9.456435, 3528824064.000000, 61.040001,  -8.330000,  316.119995, 0.000000,  0.000000 
 52105216.000000, 4.244867 , -20.721844, 8.037491, 3528844032.000000, 82.110001,  28.420000,  299.739990, 0.000000,  0.000000 
 52126208.000000, 2.952743 , -14.495720, 8.738588, 3528864000.000000, 116.410004,  26.040001,  226.660004, 0.000000,  0.000000 
 52145152.000000, 4.402793 , -11.028521, 6.350551, 3528884992.000000, 149.660004,  17.570000,  180.250000, 0.000000,  0.000000 
 52165120.000000, 7.810174 , -7.970492, 2.811567, 3528903936.000000, 169.750000,  -28.700001,  173.110001, 0.000000,  0.000000 
 52185088.000000, 10.990234 , -3.541377, 2.110470, 3528923904.000000, 167.089996,  -70.419998,  173.320007, 0.000000,  0.000000 
 52205056.000000, 13.076776 , 0.605384, 7.166504, 3528943872.000000, 92.400002,  -70.489998,  150.919998, 0.000000,  0.000000 
 52226048.000000, 13.251451 , -2.139183, 7.781459, 3528964352.000000, -16.520000,  -65.519997,  138.740005, 0.000000,  0.000000 
 52244992.000000, 13.914263 , -3.017349, 5.716454, 3528984832.000000, 15.540000,  -95.269997,  110.739998, 0.000000,  0.000000 
 52264960.000000, 14.849857 , 0.495314, 2.775674, 3529004288.000000, 127.190002,  -125.790001,  51.660000, 0.000000,  0.000000 
 52284928.000000, 14.091332 , 3.584448, 3.864408, 3529024256.000000, 188.369995,  -131.740005,  -17.570000, 0.000000,  0.000000 
 52304896.000000, 11.097912 , -2.507678, 6.197411, 3529044224.000000, 107.379997,  -119.489998,  -91.769997, 0.000000,  0.000000 
 52325888.000000, 10.124033 , -14.038691, 8.889337, 3529064192.000000, -31.150000,  -103.669998,  -155.330002, 0.000000,  0.000000 
 52345344.000000, 11.653046 , -35.846874, 17.989241, 3529085184.000000, -155.259995,  -113.120003,  -241.500000, 5791497216.000000,  1006.096497 
 52365312.000000, 3.213561 , -46.755756, 23.258236, 3529104128.000000, -225.680008,  -104.720001,  -331.869995, 0.000000,  0.000000 
 52385280.000000, -4.141976 , -33.968510, 18.142382, 3529124096.000000, -71.889999,  -75.949997,  -429.730011, 0.000000,  0.000000 
 52405248.000000, -3.512664 , -22.210180, 13.725230, 3529144064.000000, 213.289993,  -80.150002,  -488.250000, 0.000000,  0.000000 
 52425728.000000, -3.783052 , -15.952950, 10.717452, 3529164032.000000, 208.180008,  -146.789993,  -423.570007, 0.000000,  0.000000 
 52445184.000000, -5.826523 , -13.215559, 13.196418, 3529185024.000000, 123.970001,  -155.610001,  -413.769989, 0.000000,  0.000000 
 52465152.000000, -9.396614 , -10.944772, 11.624333, 3529203968.000000, 23.520000,  -113.889999,  -391.089996, 0.000000,  0.000000 
 52485120.000000, -9.324830 , -6.687939, 6.491727, 3529223936.000000, 22.049999,  -34.439999,  -343.279999, 0.000000,  0.000000 
 52505088.000000, -7.415358 , -1.457229, 2.115255, 3529243904.000000, 105.699997,  -12.600000,  -244.160004, 0.000000,  0.000000 
 52526080.000000, -5.737988 , 3.672983, 1.840081, 3529263872.000000, 126.000000,  -32.270000,  -176.190002, 0.000000,  0.000000 
 52545024.000000, -7.211967 , 5.151747, 1.021735, 3529284864.000000, 55.510002,  -18.620001,  -145.809998, 0.000000,  0.000000 
 52564992.000000, -8.865408 , 2.210968, -0.356531, 3529303808.000000, -27.510000,  36.680000,  -137.339996, 0.000000,  0.000000 
 52584960.000000, -9.736395 , 1.134198, -2.122434, 3529323776.000000, -43.820000,  56.000000,  -123.059998, 0.000000,  0.000000 
 52604928.000000, -10.908878 , 3.098706, -2.261217, 3529343744.000000, -52.570000,  67.059998,  -97.160004, 0.000000,  0.000000 
 52625920.000000, -9.406186 , 2.584249, -1.761117, 3529363712.000000, -70.699997,  61.320000,  -29.750000, 0.000000,  0.000000 
 52644864.000000, -8.348558 , 2.105684, -1.718047, 3529384704.000000, -90.720001,  57.400002,  33.599998, 0.000000,  0.000000 
 52664832.000000, -6.340980 , 1.153341, -2.289931, 3529403648.000000, -88.760002,  45.150002,  67.410004, 0.000000,  0.000000 
 52684800.000000, -6.774081 , 1.311267, -0.399601, 3529423616.000000, -67.129997,  41.860001,  136.080002, 0.000000,  0.000000 
 52704768.000000, -8.025528 , -2.263610, 3.840480, 3529444096.000000, -85.260002,  64.610001,  211.820007, 0.000000,  0.000000 
 52725760.000000, -10.715059 , -14.074582, 6.613762, 3529464064.000000, -131.180008,  90.090004,  286.649994, 0.000000,  0.000000 
 52744704.000000, -14.553147 , -33.004200, 14.041083, 3529484544.000000, -231.490005,  99.400002,  334.110016, 0.000000,  0.000000 
 52764672.000000, -14.464613 , -47.966522, 13.280167, 3529504000.000000, -483.839996,  115.849998,  378.630005, 0.000000,  0.000000 
 52784640.000000, -2.440679 , -36.555153, 12.569498, 3529523968.000000, -610.609985,  98.980003,  369.950012, 0.000000,  0.000000 
 52805120.000000, 4.654040 , -26.134409, 13.411771, 3529543936.000000, -557.760010,  -52.080002,  294.910004, 0.000000,  0.000000 
 52825600.000000, 7.274181 , -24.311079, 10.959127, 3529563904.000000, -442.260010,  -32.549999,  291.200012, 0.000000,  0.000000 
 52845056.000000, 4.768896 , -21.123838, 6.534799, 3529584896.000000, -225.750000,  -53.619999,  273.839996, 0.000000,  0.000000 
 52865024.000000, 4.101298 , -15.663417, 3.739982, 3529603840.000000, 11.130000,  -82.669998,  208.460007, 0.000000,  0.000000 
 52884992.000000, 5.972485 , -11.432907, 0.823131, 3529623808.000000, 152.740005,  -122.500000,  184.029999, 0.000000,  0.000000 
 52904960.000000, 8.575876 , -8.415558, -0.406780, 3529643776.000000, 201.250000,  -167.089996,  183.330002, 0.000000,  0.000000 
 52925952.000000, 10.358529 , -6.271588, 0.497707, 3529663744.000000, 196.070007,  -181.300003,  187.110001, 0.000000,  0.000000 
 52944896.000000, 10.463813 , -4.685147, 1.658226, 3529684736.000000, 172.970001,  -169.820007,  182.630005, 0.000000,  0.000000 
 52964864.000000, 11.210374 , -4.130012, -0.971486, 3529703680.000000, 158.059998,  -160.229996,  148.050003, 0.000000,  0.000000 
 52984832.000000, 14.321043 , -2.323431, -4.883751, 3529723648.000000, 159.880005,  -174.369995,  96.739998, 0.000000,  0.000000 
 53004800.000000, 16.350157 , -0.849452, -3.103491, 3529743616.000000, 115.570000,  -181.440002,  44.939999, 0.000000,  0.000000 
 53027840.000000, 13.931013 , -6.343372, 2.371287, 3529763584.000000, 10.500000,  -138.460007,  -27.580000, 0.000000,  0.000000 
 53044736.000000, 12.698709 , -13.493127, 6.747760, 3529786624.000000, -94.919998,  -81.410004,  -128.169998, 0.000000,  0.000000 
 53064704.000000, 10.021141 , -23.779873, 5.233103, 3529803520.000000, -103.739998,  -39.480000,  -203.000000, 0.000000,  0.000000 
 53084672.000000, 8.616554 , -35.854053, 10.870593, 3529823488.000000, -57.049999,  -17.219999,  -339.989990, 0.000000,  0.000000 
 53104640.000000, 4.395615 , -41.316868, 13.411771, 3529843456.000000, -114.449997,  -2.800000,  -411.110016, 0.000000,  0.000000 
 53125632.000000, 0.612563 , -31.750364, 14.057834, 3529863424.000000, -79.800003,  12.670000,  -438.339996, 0.000000,  0.000000 
 53144576.000000, -0.918844 , -23.655445, 11.949757, 3529884416.000000, 31.920000,  -1.610000,  -480.339996, 0.000000,  0.000000 
 53164544.000000, -4.048656 , -20.063820, 10.736595, 3529903360.000000, 56.000000,  -23.799999,  -462.140015, 0.000000,  0.000000 
 53184512.000000, -10.033106 , -14.455042, 12.330215, 3529923840.000000, 60.760002,  -6.720000,  -463.610016, 0.000000,  0.000000 
 53204480.000000, -12.981063 , -8.599805, 8.874979, 3529943808.000000, 51.170002,  42.000000,  -439.459991, 0.000000,  0.000000 
 53225472.000000, -9.198010 , -2.864209, 4.625326, 3529963776.000000, 119.629997,  57.119999,  -337.470001, 0.000000,  0.000000 
 53244416.000000, -5.857630 , 2.335395, 3.873980, 3529984256.000000, 184.660004,  23.520000,  -217.000000, 0.000000,  0.000000 
 53264384.000000, -6.317052 , 5.721239, 1.457229, 3530003712.000000, 190.889999,  -1.470000,  -148.960007, 0.000000,  0.000000 
 53284352.000000, -9.209974 , 5.245068, -1.146162, 3530023680.000000, 146.860001,  30.100000,  -104.860001, 0.000000,  0.000000 
 53304832.000000, -9.817751 , 3.986443, -3.062813, 3530043648.000000, 71.330002,  59.220001,  -80.360001, 0.000000,  0.000000 
 53325312.000000, -9.609575 , 3.096312, -5.022535, 3530084608.000000, -117.320000,  64.470001,  43.680000, 5792496640.000000,  1006.094971 
 53344768.000000, -11.387443 , 2.017149, -4.254438, 0.000000, 0.000000,  0.000000,  0.000000, 0.000000,  0.000000 
 53364736.000000, -11.387443 , 0.330210, -1.952543, 3530103552.000000, -182.979996,  80.500000,  78.190002, 0.000000,  0.000000 
 53384704.000000, -8.049455 , -1.213161, -0.543171, 3530123520.000000, -173.600006,  80.639999,  128.100006, 0.000000,  0.000000 
 53404672.000000, -7.597212 , -3.122634, 2.706282, 3530143488.000000, -77.000000,  65.099998,  222.040009, 0.000000,  0.000000 
 53425664.000000, -12.007183 , -10.430314, 3.665804, 3530163456.000000, 1.470000,  89.879997,  295.959991, 0.000000,  0.000000 
 53444608.000000, -16.151552 , -24.758535, 10.801201, 3530184448.000000, -40.740002,  122.290001,  333.829987, 0.000000,  0.000000 
 53464576.000000, -11.136196 , -45.111885, 19.125832, 3530203392.000000, -218.889999,  136.360001,  365.470001, 0.000000,  0.000000 
 53484544.000000, -7.798209 , -41.850468, 17.242680, 3530223360.000000, -380.239990,  121.099998,  445.200012, 0.000000,  0.000000 
 53504512.000000, -4.532006 , -31.209585, 17.563318, 3530243328.000000, -350.839996,  67.830002,  353.290009, 0.000000,  0.000000 
 53525504.000000, 2.383251 , -23.839689, 16.945971, 3530263296.000000, -232.680008,  67.340004,  293.649994, 0.000000,  0.000000 
 53544448.000000, 6.853044 , -19.532610, 13.134203, 3530284288.000000, -74.970001,  64.610001,  290.010010, 0.000000,  0.000000 
 53564416.000000, 6.355337 , -15.098711, 10.932807, 3530303232.000000, 54.389999,  55.090000,  253.610001, 0.000000,  0.000000 
 53584384.000000, 4.299902 , -9.896714, 11.016556, 3530323200.000000, 91.699997,  43.610001,  175.839996, 0.000000,  0.000000 
 53604352.000000, 5.075177 , -7.463214, 8.398808, 3530343168.000000, 83.720001,  25.129999,  142.449997, 0.000000,  0.000000 
 53625344.000000, 8.126025 , -5.635098, 5.539384, 3530363136.000000, 100.590004,  -35.770000,  157.360001, 0.000000,  0.000000 
 53644288.000000, 11.655439 , -2.277967, 4.737789, 3530384128.000000, 133.979996,  -89.110001,  174.089996, 0.000000,  0.000000 
 53664256.000000, 13.983655 , 0.650848, 4.742575, 3530403072.000000, 130.059998,  -113.680000,  165.690002, 0.000000,  0.000000 
 53684224.000000, 13.950156 , 0.770489, 3.144169, 3530423552.000000, 102.199997,  -123.129997,  143.289993, 0.000000,  0.000000 
 53704192.000000, 16.132410 , -0.502493, 0.423530, 3530443520.000000, 92.260002,  -135.520004,  90.019997, 0.000000,  0.000000 
 53725184.000000, 16.845470 , -0.275175, 0.088534, 3530463488.000000, 79.660004,  -157.500000,  38.220001, 0.000000,  0.000000 
 53744128.000000, 13.141381 , -4.977071, 5.972485, 3530483968.000000, -37.029999,  -153.930008,  -47.180000, 0.000000,  0.000000 
 53764096.000000, 11.423335 , -14.105689, 12.591033, 3530503424.000000, -174.229996,  -124.879997,  -151.479996, 0.000000,  0.000000 
 53784064.000000, 7.168896 , -27.536604, 11.559726, 3530523392.000000, -138.740005,  -102.900002,  -226.309998, 0.000000,  0.000000 
 53804544.000000, 6.714260 , -36.370903, 18.369699, 3530543360.000000, -51.799999,  -108.430000,  -382.760010, 0.000000,  0.000000 
 53825024.000000, 4.701896 , -39.842888, 21.415762, 3530563328.000000, -102.550003,  -127.050003,  -422.869995, 0.000000,  0.000000 
 53844480.000000, -0.899701 , -29.249863, 18.900908, 3530584320.000000, -17.010000,  -133.559998,  -428.750000, 0.000000,  0.000000 
 53864448.000000, -4.764110 , -21.114265, 14.079369, 3530603264.000000, 102.900002,  -116.410004,  -478.309998, 0.000000,  0.000000 
 53884416.000000, -8.654840 , -16.546368, 12.856635, 3530623232.000000, 107.660004,  -128.449997,  -457.660004, 0.000000,  0.000000 
 53904384.000000, -12.595818 , -10.746166, 12.473784, 3530643200.000000, 80.500000,  -118.020004,  -428.959991, 0.000000,  0.000000 
 53925376.000000, -10.762917 , -5.422136, 6.874579, 3530663168.000000, 64.610001,  -64.540001,  -363.790009, 0.000000,  0.000000 
 53944320.000000, -7.403394 , -1.313660, 3.390630, 3530684160.000000, 115.360001,  -44.730000,  -256.339996, 0.000000,  0.000000 
 53964288.000000, -5.647062 , 3.661019, 1.117448, 3530703104.000000, 147.490005,  -43.119999,  -173.529999, 0.000000,  0.000000 
 53984256.000000, -5.082355 , 6.563512, 0.638884, 3530723072.000000, 117.110001,  -17.150000,  -132.089996, 0.000000,  0.000000 
 54004224.000000, -6.826723 , 4.362115, 0.038285, 3530743040.000000, 42.139999,  31.780001,  -107.309998, 0.000000,  0.000000 
 54027264.000000, -8.827123 , 1.978864, -1.854438, 3530763008.000000, -23.450001,  78.470001,  -101.849998, 0.000000,  0.000000 
 54044160.000000, -9.262616 , 2.220540, -2.251646, 3530786048.000000, -60.480000,  107.940002,  -56.630001, 0.000000,  0.000000 
 54064128.000000, -8.695518 , 2.900101, 0.110070, 3530802944.000000, -89.669998,  108.430000,  10.850000, 0.000000,  0.000000 
 54084096.000000, -9.174082 , 0.753739, 1.174876, 3530822912.000000, -112.279999,  102.059998,  45.360001, 0.000000,  0.000000 
 54104064.000000, -8.874979 , -1.844866, 2.143969, 3530842880.000000, -96.110001,  104.860001,  60.760002, 0.000000,  0.000000 
 54125056.000000, -7.257431 , -4.285545, 7.771888, 3530862848.000000, -47.459999,  100.449997,  115.709999, 0.000000,  0.000000 
 54144000.000000, -7.389036 , -7.996813, 12.167502, 3530883840.000000, 1.260000,  82.389999,  203.979996, 0.000000,  0.000000 
 54163968.000000, -7.262216 , -14.708681, 13.971692, 3530903296.000000, -4.480000,  95.550003,  265.790009, 0.000000,  0.000000 
 54183936.000000, -3.407379 , -21.001806, 20.559132, 3530923264.000000, -24.780001,  112.770004,  315.070007, 0.000000,  0.000000 
 54203904.000000, -2.359323 , -24.363718, 24.155542, 3530943232.000000, -129.990005,  128.380005,  376.390015, 0.000000,  0.000000 
 54224896.000000, -2.005185 , -22.607388, 21.190838, 3530963200.000000, -233.029999,  133.559998,  357.559998, 0.000000,  0.000000 
 54243840.000000, 3.955336 , -16.390835, 21.958933, 3530983680.000000, -184.869995,  127.260002,  268.380005, 0.000000,  0.000000 
 54263808.000000, 7.860423 , -14.624931, 18.632910, 3531003136.000000, -142.029999,  106.889999,  272.929993, 0.000000,  0.000000 
 54284288.000000, 5.816952 , -12.335001, 14.510076, 3531023104.000000, -68.739998,  88.830002,  242.970001, 0.000000,  0.000000 
 54304256.000000, 3.952943 , -8.197811, 12.007183, 3531043072.000000, 9.030000,  68.529999,  158.690002, 0.000000,  0.000000 
 54325248.000000, 6.276374 , -5.355137, 7.858029, 3531063040.000000, 58.310001,  34.720001,  138.600006, 0.000000,  0.000000 
 54344192.000000, 10.305886 , -3.048456, 3.955336, 3531084032.000000, 90.720001,  -28.070000,  165.830002, 5793496576.000000,  1006.093872 
 54364160.000000, 13.464413 , -0.653241, 2.266003, 3531102976.000000, 92.190002,  -75.529999,  184.729996, 0.000000,  0.000000 
 54384128.000000, 12.208181 , 0.330210, 2.969493, 3531122944.000000, 74.830002,  -89.459999,  176.259995, 0.000000,  0.000000 
 54404096.000000, 11.229517 , -0.267996, 0.736989, 3531142912.000000, 60.480000,  -82.110001,  126.279999, 0.000000,  0.000000 
 54425088.000000, 15.187245 , 0.399601, -1.148555, 3531162880.000000, 61.320000,  -116.690002,  67.059998, 0.000000,  0.000000 
 54444032.000000, 15.926627 , 0.337388, 2.292324, 3531183872.000000, 12.250000,  -167.930008,  21.280001, 0.000000,  0.000000 
 54464000.000000, 12.356536 , -4.304688, 7.668997, 3531222784.000000, -116.129997,  -142.169998,  -184.660004, 0.000000,  0.000000 
 54483968.000000, 11.397014 , -10.904092, 8.781659, 0.000000, 0.000000,  0.000000,  0.000000, 0.000000,  0.000000 
 54503936.000000, 15.321243 , -21.786650, 15.067604, 3531242752.000000, -140.070007,  -147.490005,  -235.759995, 0.000000,  0.000000 
 54524928.000000, 13.359130 , -34.973495, 24.114866, 3531262720.000000, -149.380005,  -186.130005,  -322.630005, 0.000000,  0.000000 
 54543872.000000, 6.838687 , -35.976089, 17.553747, 3531283712.000000, -161.699997,  -181.930008,  -310.380005, 0.000000,  0.000000 
 54563840.000000, 1.820938 , -23.526232, 16.610975, 3531302656.000000, -84.070000,  -138.600006,  -402.850006, 0.000000,  0.000000 
 54583808.000000, 0.260818 , -14.294723, 14.076975, 3531322624.000000, 83.300003,  -132.369995,  -416.290009, 0.000000,  0.000000 
 54603776.000000, -2.658426 , -11.263017, 14.873785, 3531342592.000000, 65.800003,  -155.399994,  -367.709991, 0.000000,  0.000000 
 54624768.000000, -6.166305 , -7.905886, 12.940384, 3531362560.000000, 21.910000,  -113.400002,  -347.410004, 0.000000,  0.000000 
 54643712.000000, -7.298109 , -3.515057, 8.989835, 3531383552.000000, 17.710001,  -39.900002,  -299.390015, 0.000000,  0.000000 
 54663680.000000, -5.398208 , 1.476372, 5.910272, 3531403008.000000, 97.230003,  -2.800000,  -203.699997, 0.000000,  0.000000 
 54683648.000000, -3.419343 , 5.948557, 2.847459, 3531422976.000000, 173.669998,  -20.650000,  -123.410004, 0.000000,  0.000000 
 54703616.000000, -4.438686 , 8.623734, 0.416351, 3531442944.000000, 201.880005,  -14.910000,  -88.340004, 0.000000,  0.000000 
 54724608.000000, -7.089933 , 6.678369, -0.904487, 3531462912.000000, 137.270004,  32.830002,  -96.529999, 0.000000,  0.000000 
 54743552.000000, -9.501899 , 4.242475, -1.916651, 3531483392.000000, 24.850000,  68.669998,  -108.220001, 0.000000,  0.000000 
 54764032.000000, -10.267602 , 2.502892, -2.931208, 3531502848.000000, -69.510002,  91.980003,  -48.439999, 0.000000,  0.000000 
 54784000.000000, -10.281959 , 2.883351, -2.031506, 3531522816.000000, -131.949997,  100.309998,  40.670002, 0.000000,  0.000000 
 54803968.000000, -9.600004 , 0.727418, -0.720240, 3531542784.000000, -209.789993,  95.760002,  95.690002, 0.000000,  0.000000 
 54824448.000000, -9.657433 , -3.270989, 3.809374, 3531562752.000000, -254.029999,  89.389999,  138.250000, 0.000000,  0.000000 
 54843904.000000, -9.250652 , -9.652647, 9.805787, 3531583744.000000, -263.970001,  95.760002,  191.029999, 0.000000,  0.000000 
 54863872.000000, -7.702496 , -19.159330, 13.282558, 3531602688.000000, -202.160004,  94.779999,  277.970001, 0.000000,  0.000000 
 54883840.000000, -3.871587 , -24.713072, 20.377277, 3531622656.000000, -92.959999,  97.300003,  367.010010, 0.000000,  0.000000 
 54903808.000000, 0.655633 , -25.990841, 23.361128, 3531642624.000000, -57.400002,  111.510002,  416.290009, 0.000000,  0.000000 
 54924800.000000, -0.289532 , -22.466211, 22.722244, 3531662592.000000, -14.560000,  131.669998,  421.610016, 0.000000,  0.000000 
 54943744.000000, 1.507478 , -17.874384, 24.488148, 3531683584.000000, 11.970000,  166.600006,  304.920013, 0.000000,  0.000000 
 54963712.000000, 6.175875 , -14.569898, 21.573689, 3531702528.000000, -2.380000,  176.470001,  229.600006, 0.000000,  0.000000 
 54983680.000000, 7.054041 , -12.210573, 15.840486, 3531742464.000000, 121.309998,  115.849998,  138.110001, 0.000000,  0.000000 
 55003648.000000, 5.017749 , -8.449057, 10.681561, 0.000000, 0.000000,  0.000000,  0.000000, 0.000000,  0.000000 
 55026688.000000, 4.788038 , -2.718246, 9.523434, 3531762432.000000, 165.479996,  93.379997,  77.980003, 0.000000,  0.000000 
 55043584.000000, 7.898707 , 1.942972, 7.472785, 3531785472.000000, 156.869995,  57.189999,  61.810001, 0.000000,  0.000000 
 55063552.000000, 12.208181 , 2.335395, 3.259024, 3531802368.000000, 145.600006,  1.540000,  85.540001, 0.000000,  0.000000 
 55083520.000000, 13.964513 , 3.328416, 2.110470, 3531822336.000000, 133.559998,  -48.020000,  85.820000, 0.000000,  0.000000 
 55103488.000000, 12.799208 , 3.488736, 3.132205, 3531842304.000000, 48.720001,  -65.590004,  68.250000, 0.000000,  0.000000 
 55124480.000000, 13.380664 , 2.488536, 2.105684, 3531862272.000000, 3.430000,  -84.139999,  52.430000, 0.000000,  0.000000 
 55143424.000000, 14.629718 , 1.129412, 0.847059, 3531883264.000000, -1.890000,  -137.899994,  20.160000, 0.000000,  0.000000 
 55163392.000000, 12.509676 , -0.921237, 4.208975, 3531902720.000000, -45.009998,  -183.750000,  -27.790001, 0.000000,  0.000000 
 55183360.000000, 10.116854 , -6.618547, 12.937992, 3531922688.000000, -141.960007,  -179.690002,  -94.010002, 0.000000,  0.000000 
 55203328.000000, 8.915657 , -16.926826, 20.417955, 3531942656.000000, -223.930008,  -183.610001,  -182.070007, 0.000000,  0.000000 
 55224320.000000, 10.968699 , -32.130821, 26.500511, 3531962624.000000, -209.440002,  -217.770004,  -279.019989, 0.000000,  0.000000 
 55243264.000000, 4.409972 , -29.252258, 20.872591, 3531983616.000000, -134.190002,  -263.549988,  -305.760010, 0.000000,  0.000000 
 55263744.000000, 2.624927 , -18.271593, 17.905493, 3532002560.000000, 2.800000,  -252.979996,  -339.709991, 0.000000,  0.000000 
 55283712.000000, 0.466600 , -11.035697, 13.409377, 3532022528.000000, 85.820000,  -250.389999,  -326.690002, 0.000000,  0.000000 
 55303680.000000, -1.282553 , -7.702496, 11.918649, 3532042496.000000, 55.090000,  -253.610001,  -312.059998, 0.000000,  0.000000 
 55324160.000000, -3.830909 , -3.833302, 10.028319, 3532062464.000000, 24.570000,  -209.580002,  -288.119995, 0.000000,  0.000000 
 55343616.000000, -5.898308 , -0.751346, 6.307480, 3532083456.000000, -2.450000,  -126.349998,  -237.720001, 5794496000.000000,  1006.094238 
 55363584.000000, -4.979464 , 2.289931, 2.687140, 3532102400.000000, 42.630001,  -50.610001,  -168.279999, 0.000000,  0.000000 
 55383552.000000, -2.160719 , 5.139783, 2.641676, 3532122368.000000, 81.340004,  -20.930000,  -103.459999, 0.000000,  0.000000 
 55403520.000000, -3.790231 , 7.001399, 1.619941, 3532142336.000000, 55.230000,  5.390000,  -94.290001, 0.000000,  0.000000 
 55424512.000000, -7.159326 , 5.443672, -1.033699, 3532162304.000000, -0.630000,  64.260002,  -104.510002, 0.000000,  0.000000 
 55443456.000000, -7.946564 , 3.620341, -1.150948, 3532183296.000000, -34.439999,  113.190002,  -91.139999, 0.000000,  0.000000 
 55463424.000000, -8.228917 , 3.002992, -1.371087, 3532202240.000000, -70.419998,  131.740005,  -26.530001, 0.000000,  0.000000 
 55483392.000000, -8.994620 , 3.921836, -1.777867, 3532222208.000000, -99.959999,  142.309998,  41.580002, 0.000000,  0.000000 
 55503360.000000, -8.482556 , 2.720639, -1.478764, 3532242176.000000, -148.539993,  155.119995,  84.279999, 0.000000,  0.000000 
 55524352.000000, -7.903493 , -0.071785, 0.591027, 3532262144.000000, -205.380005,  164.919998,  130.130005, 0.000000,  0.000000 
 55543296.000000, -9.324830 , -3.613162, 6.975078, 3532283136.000000, -221.550003,  166.529999,  185.779999, 0.000000,  0.000000 
 55563264.000000, -13.904692 , -14.486149, 10.621738, 3532302080.000000, -201.389999,  170.729996,  251.089996, 0.000000,  0.000000 
 55583232.000000, -15.713666 , -31.295727, 18.757338, 3532322048.000000, -204.190002,  168.139999,  308.630005, 0.000000,  0.000000 
 55603200.000000, -6.714260 , -38.146381, 24.760929, 3532342016.000000, -246.960007,  166.389999,  363.230011, 0.000000,  0.000000 
 55624192.000000, -2.471786 , -28.390841, 22.284357, 3532362496.000000, -174.649994,  119.629997,  393.260010, 0.000000,  0.000000 
 55643136.000000, -0.495314 , -20.803200, 20.791235, 3532383488.000000, -70.209999,  102.690002,  331.029999, 0.000000,  0.000000 
 55663104.000000, 2.914458 , -15.127424, 18.793228, 3532402432.000000, -36.259998,  134.960007,  259.910004, 0.000000,  0.000000 
 55683072.000000, 3.964907 , -12.102897, 14.134403, 3532422400.000000, -7.000000,  154.210007,  232.119995, 0.000000,  0.000000 
 55703040.000000, 4.421937 , -8.037491, 12.351749, 3532442368.000000, 29.400000,  137.339996,  178.570007, 0.000000,  0.000000 
 55724032.000000, 6.900900 , -4.273581, 11.866007, 3532462336.000000, 46.200001,  103.250000,  147.210007, 0.000000,  0.000000 
 55743488.000000, 10.466206 , -2.603391, 9.528220, 3532483328.000000, 55.299999,  58.310001,  167.089996, 0.000000,  0.000000 
 55763456.000000, 12.832708 , -1.119841, 7.472785, 3532502272.000000, 75.669998,  6.860000,  183.889999, 0.000000,  0.000000 
 55783424.000000, 14.146368 , 0.246461, 4.699504, 3532522240.000000, 57.189999,  -33.320000,  167.300003, 0.000000,  0.000000 
 55803392.000000, 15.326030 , -0.291924, 3.127419, 3532542208.000000, 17.010000,  -73.360001,  144.199997, 0.000000,  0.000000 
 55823872.000000, 15.395420 , -2.206182, 2.033899, 3532562176.000000, -20.719999,  -113.820000,  104.510002, 0.000000,  0.000000 
 55843328.000000, 14.933606 , -3.672983, 3.072384, 3532583168.000000, -75.879997,  -131.180008,  43.189999, 0.000000,  0.000000 
 55863296.000000, 11.571690 , -6.003592, 8.104490, 3532602112.000000, -110.459999,  -125.930000,  -29.680000, 0.000000,  0.000000 
 55883264.000000, 7.623533 , -13.409377, 14.122439, 3532622080.000000, -114.940002,  -93.239998,  -126.279999, 0.000000,  0.000000 
 55903232.000000, 5.611169 , -29.345575, 20.169102, 3532642048.000000, -102.690002,  -79.660004,  -237.580002, 0.000000,  0.000000 
 55924224.000000, 1.832902 , -37.203606, 26.486153, 3532662016.000000, -82.459999,  -114.800003,  -338.100006, 0.000000,  0.000000 
 55943168.000000, -2.825923 , -31.678577, 21.509083, 3532683008.000000, -16.030001,  -143.850006,  -381.149994, 0.000000,  0.000000 
 55963136.000000, -2.974278 , -22.310677, 18.233309, 3532701952.000000, 139.789993,  -164.080002,  -426.579987, 0.000000,  0.000000 
 55983104.000000, -4.419543 , -15.881163, 13.875979, 3532721920.000000, 129.289993,  -196.350006,  -399.489990, 0.000000,  0.000000 
 56003072.000000, -6.498906 , -13.014563, 13.423735, 3532741888.000000, 81.129997,  -187.600006,  -394.589996, 0.000000,  0.000000 
 56026112.000000, -10.863414 , -8.724231, 12.507284, 3532761856.000000, 45.990002,  -153.160004,  -377.510010, 0.000000,  0.000000 
 56043008.000000, -11.406586 , -4.192225, 5.814559, 3532784896.000000, 52.290001,  -82.809998,  -330.540009, 0.000000,  0.000000 
 56062976.000000, -7.664211 , -0.679562, 0.244068, 3532801792.000000, 128.869995,  -58.660000,  -227.080002, 0.000000,  0.000000 
 56082944.000000, -3.862016 , 3.914658, 1.763510, 3532821760.000000, 137.619995,  -59.500000,  -157.149994, 0.000000,  0.000000 
 56102912.000000, -3.950550 , 6.101698, 1.966900, 3532842240.000000, 55.510002,  -50.400002,  -126.279999, 0.000000,  0.000000 
 56123904.000000, -7.190433 , 3.716053, -0.741775, 3532862208.000000, -1.680000,  11.480000,  -115.639999, 0.000000,  0.000000 
 56142848.000000, -7.427321 , 1.727618, -2.184647, 3532882688.000000, -3.360000,  58.869999,  -122.430000, 0.000000,  0.000000 
 56162816.000000, -8.245667 , 3.125026, -1.663012, 3532902144.000000, -28.210001,  72.449997,  -60.689999, 0.000000,  0.000000 
 56182784.000000, -8.786445 , 3.419343, -1.852045, 3532922112.000000, -54.320000,  78.820000,  7.840000, 0.000000,  0.000000 
 56203264.000000, -6.999006 , 2.414358, -0.799203, 3532942080.000000, -54.529999,  81.269997,  45.639999, 0.000000,  0.000000 
 56223744.000000, -4.771288 , 0.698704, 2.234896, 3532962048.000000, -63.349998,  84.419998,  76.930000, 0.000000,  0.000000 
 56243200.000000, -5.596812 , -1.646262, 8.415558, 3532983040.000000, -47.599998,  101.150002,  142.520004, 0.000000,  0.000000 
 56263168.000000, -10.066606 , -8.970692, 12.011970, 3533001984.000000, -24.500000,  142.240005,  210.979996, 0.000000,  0.000000 
 56283136.000000, -11.562119 , -19.037296, 19.360327, 3533021952.000000, -21.559999,  169.259995,  262.079987, 0.000000,  0.000000 
 56303104.000000, -6.821937 , -27.058041, 27.335606, 3533041920.000000, -97.930000,  186.479996,  305.059998, 0.000000,  0.000000 
 56323584.000000, -6.403193 , -23.712872, 22.817955, 3533061888.000000, -146.440002,  177.380005,  361.269989, 0.000000,  0.000000 
 56343040.000000, -1.852045 , -17.204393, 19.783857, 3533082880.000000, -109.620003,  156.309998,  293.299988, 5795495424.000000,  1006.092224 
 56363008.000000, 4.728218 , -11.581261, 19.523039, 3533101824.000000, -88.340004,  144.199997,  264.040009, 0.000000,  0.000000 
 56382976.000000, 6.393622 , -10.183852, 16.907684, 3533121792.000000, -91.070000,  142.380005,  258.230011, 0.000000,  0.000000 
 56402944.000000, 3.268596 , -7.637890, 13.313664, 3533141760.000000, -73.150002,  140.770004,  236.040009, 0.000000,  0.000000 
 56423936.000000, 4.199404 , -5.943772, 8.264810, 3533161728.000000, -13.370000,  131.809998,  178.570007, 0.000000,  0.000000 
 56442880.000000, 9.547362 , -4.936393, 6.223732, 3533182720.000000, 24.570000,  102.410004,  169.119995, 0.000000,  0.000000 
 56462848.000000, 12.275180 , -2.806781, 6.044270, 3533201664.000000, 16.730000,  39.970001,  217.350006, 0.000000,  0.000000 
 56482816.000000, 14.809179 , -1.359123, 6.934400, 3533221632.000000, -40.880001,  -6.860000,  243.250000, 0.000000,  0.000000 
 56502784.000000, 13.402200 , -1.653440, 5.814559, 3533241600.000000, -80.639999,  -21.000000,  215.460007, 0.000000,  0.000000 
 56523776.000000, 14.866607 , -0.825524, 2.433501, 3533261568.000000, -43.330002,  -38.920002,  161.000000, 0.000000,  0.000000 
 56542720.000000, 16.855042 , 0.567099, 0.868595, 3533282560.000000, 19.180000,  -83.019997,  114.239998, 0.000000,  0.000000 
 56562688.000000, 14.998212 , 0.856631, 2.498107, 3533301504.000000, 29.049999,  -110.389999,  50.189999, 0.000000,  0.000000 
 56582656.000000, 12.382857 , -3.031706, 6.396015, 3533321984.000000, -38.150002,  -100.029999,  -51.939999, 0.000000,  0.000000 
 56602624.000000, 10.492528 , -13.038490, 13.615161, 3533341952.000000, -140.350006,  -83.370003,  -138.600006, 0.000000,  0.000000 
 56623616.000000, 9.355937 , -35.162529, 23.284555, 3533361920.000000, -192.500000,  -81.340004,  -227.779999, 0.000000,  0.000000 
 56642560.000000, 1.852045 , -40.149174, 26.591436, 3533382400.000000, -156.240005,  -107.029999,  -329.000000, 0.000000,  0.000000 
 56662528.000000, -1.938186 , -31.298119, 24.626932, 3533401856.000000, -0.490000,  -137.970001,  -403.059998, 0.000000,  0.000000 
 56682496.000000, -1.763510 , -23.231916, 20.291138, 3533421824.000000, 137.830002,  -171.990005,  -423.779999, 0.000000,  0.000000 
 56702976.000000, -3.692125 , -16.955542, 15.909878, 3533441792.000000, 126.349998,  -208.600006,  -386.470001, 0.000000,  0.000000 
 56723456.000000, -6.577869 , -12.021541, 15.136996, 3533461760.000000, 113.540001,  -202.580002,  -378.279999, 0.000000,  0.000000 
 56742912.000000, -11.184053 , -8.384450, 11.715261, 3533482752.000000, 86.379997,  -164.220001,  -338.100006, 0.000000,  0.000000 
 56762880.000000, -12.612568 , -4.381258, 3.168097, 3533501696.000000, 99.540001,  -106.050003,  -281.820007, 0.000000,  0.000000 
 56782848.000000, -8.269595 , 0.442672, 1.904687, 3533521664.000000, 104.300003,  -85.260002,  -227.639999, 0.000000,  0.000000 
 56802816.000000, -5.943772 , 3.787838, 0.715454, 3533541632.000000, 61.250000,  -71.680000,  -164.779999, 0.000000,  0.000000 
 56823808.000000, -7.800602 , 4.965107, -0.100499, 3533582592.000000, -17.150000,  41.930000,  -166.039993, 0.000000,  0.000000 
 56842752.000000, -9.875179 , 3.649055, -1.366302, 0.000000, 0.000000,  0.000000,  0.000000, 0.000000,  0.000000 
 56862720.000000, -10.382458 , 2.715853, -3.687340, 3533601536.000000, -40.670002,  78.050003,  -130.899994, 0.000000,  0.000000 
 56882688.000000, -10.078569 , 2.641676, -4.493721, 3533621504.000000, -30.380001,  76.790001,  -57.610001, 0.000000,  0.000000 
 56902656.000000, -7.733603 , 2.854637, -2.392823, 3533641472.000000, -24.990000,  64.959999,  5.530000, 0.000000,  0.000000 
 56923648.000000, -5.213961 , 2.155933, -0.715454, 3533661440.000000, -70.000000,  70.910004,  74.269997, 0.000000,  0.000000 
 56942592.000000, -5.173282 , 0.540778, 2.031506, 3533682432.000000, -74.410004,  88.410004,  149.169998, 0.000000,  0.000000 
 56962560.000000, -7.482357 , -3.192025, 7.511070, 3533701376.000000, -39.759998,  128.380005,  197.680008, 0.000000,  0.000000 
 56982528.000000, -10.573883 , -10.485349, 16.591831, 3533721344.000000, -22.750000,  172.199997,  243.040009, 0.000000,  0.000000 
 57002496.000000, -8.444271 , -21.463617, 26.438297, 3533741312.000000, -45.570000,  203.210007,  291.970001, 0.000000,  0.000000 
 57025536.000000, -7.597212 , -25.272991, 30.044281, 3533761280.000000, -88.550003,  226.729996,  345.309998, 0.000000,  0.000000 
 57042432.000000, -8.295916 , -19.331614, 23.758337, 3533784320.000000, -132.020004,  225.680008,  314.720001, 0.000000,  0.000000 
 57062400.000000, -0.524028 , -14.560326, 22.908884, 3533801216.000000, -129.710007,  201.809998,  236.669998, 0.000000,  0.000000 
 57082368.000000, 5.065606 , -10.762917, 20.190638, 3533821696.000000, -147.699997,  169.539993,  227.990005, 0.000000,  0.000000 
 57102336.000000, 5.072784 , -9.942179, 16.386049, 3533841664.000000, -120.820000,  150.570007,  208.039993, 0.000000,  0.000000 
 57123328.000000, 2.275574 , -7.874779, 12.356536, 3533861632.000000, -43.119999,  122.779999,  167.020004, 0.000000,  0.000000 
 57142272.000000, 3.979264 , -5.297709, 9.396614, 3533882112.000000, 11.270000,  94.709999,  135.169998, 0.000000,  0.000000 
 57162240.000000, 8.276773 , -2.924029, 7.848458, 3533901568.000000, 10.990000,  44.380001,  154.559998, 0.000000,  0.000000 
 57182208.000000, 11.875579 , -1.318445, 7.929814, 3533921536.000000, -7.210000,  -0.560000,  178.570007, 0.000000,  0.000000 
 57202688.000000, 14.072189 , 0.593420, 5.907879, 3533941504.000000, 0.420000,  -30.520000,  167.649994, 0.000000,  0.000000 
 57223168.000000, 15.146567 , 1.864009, 4.194618, 3533961472.000000, 31.219999,  -57.889999,  143.919998, 0.000000,  0.000000 
 57242624.000000, 14.775680 , 1.701297, 3.117848, 3533982464.000000, 87.849998,  -88.690002,  96.949997, 0.000000,  0.000000 
 57262592.000000, 15.558132 , 2.426322, 2.177469, 3534001408.000000, 102.970001,  -116.270004,  35.420002, 0.000000,  0.000000 
 57282560.000000, 13.428520 , 0.311067, 5.941379, 3534021376.000000, 13.790000,  -143.360001,  -24.780001, 0.000000,  0.000000 
 57302528.000000, 10.949556 , -9.367901, 14.696717, 3534041344.000000, -145.949997,  -146.369995,  -104.370003, 0.000000,  0.000000 
 57323520.000000, 11.624333 , -31.841290, 22.109680, 3534061312.000000, -252.419998,  -152.039993,  -195.930008, 0.000000,  0.000000 
 57342464.000000, 5.180461 , -39.029331, 27.314070, 3534082304.000000, -208.529999,  -182.139999,  -296.029999, 5796494848.000000,  1006.093262 
 57362432.000000, -0.619741 , -31.870005, 23.375484, 3534101248.000000, -98.419998,  -198.800003,  -381.010010, 0.000000,  0.000000 
 57382400.000000, -0.459422 , -21.937397, 19.542183, 3534121216.000000, 96.459999,  -213.919998,  -430.709991, 0.000000,  0.000000 
 57402368.000000, -2.950350 , -15.924235, 15.617953, 3534141184.000000, 119.489998,  -249.199997,  -389.970001, 0.000000,  0.000000 
 57423360.000000, -4.022335 , -12.906885, 14.273187, 3534161152.000000, 84.279999,  -249.970001,  -400.890015, 0.000000,  0.000000 
 57442304.000000, -5.831308 , -8.822337, 13.710874, 3534182144.000000, 60.619999,  -223.930008,  -364.700012, 0.000000,  0.000000 
 57462272.000000, -8.183454 , -4.819145, 8.535198, 3534201088.000000, 59.570000,  -163.660004,  -311.709991, 0.000000,  0.000000 
 57482240.000000, -7.800602 , 0.246461, 2.675175, 3534221056.000000, 134.889999,  -100.029999,  -224.070007, 0.000000,  0.000000 
 57502208.000000, -5.388636 , 5.115855, 0.334995, 3534241024.000000, 175.699997,  -93.800003,  -142.520004, 0.000000,  0.000000 
 57523200.000000, -5.257031 , 7.465607, -0.148355, 3534260992.000000, 123.970001,  -85.400002,  -109.970001, 0.000000,  0.000000 
 57542144.000000, -7.427321 , 4.656433, -0.887737, 3534281984.000000, 4.200000,  -35.700001,  -139.300003, 0.000000,  0.000000 
 57562112.000000, -8.159525 , 1.785046, -2.088934, 3534300928.000000, -71.610001,  23.520000,  -156.309998, 0.000000,  0.000000 
 57582080.000000, -9.748360 , 2.498107, -5.044070, 3534321408.000000, -91.489998,  55.369999,  -102.760002, 0.000000,  0.000000 
 57602048.000000, -10.408779 , 3.304488, -3.376273, 3534341376.000000, -110.389999,  68.739998,  -25.969999, 0.000000,  0.000000 
 57623040.000000, -9.497113 , 1.837688, -0.308674, 3534361344.000000, -146.509995,  83.160004,  26.880001, 0.000000,  0.000000 
 57641984.000000, -6.630512 , -0.387637, 1.122234, 3534381824.000000, -148.330002,  91.840004,  61.389999, 0.000000,  0.000000 
 57661952.000000, -5.529813 , -1.828116, 8.243275, 3534401280.000000, -80.570000,  103.320000,  151.270004, 0.000000,  0.000000 
 57682432.000000, -8.114061 , -7.491928, 12.461821, 3534421248.000000, -34.160000,  129.080002,  243.809998, 0.000000,  0.000000 
 57702400.000000, -9.657433 , -16.405191, 16.259230, 3534441216.000000, -25.129999,  163.800003,  296.380005, 0.000000,  0.000000 
 57722880.000000, -3.756732 , -20.475384, 22.368107, 3534461184.000000, -26.110001,  180.949997,  331.450012, 0.000000,  0.000000 
 57742336.000000, -2.275574 , -21.736401, 22.078573, 3534482176.000000, -101.080002,  191.449997,  392.000000, 0.000000,  0.000000 
 57762304.000000, -3.450450 , -23.155344, 21.779470, 3534501120.000000, -188.580002,  208.460007,  360.079987, 0.000000,  0.000000 
 57782272.000000, 1.945365 , -19.664217, 25.129423, 3534521088.000000, -208.949997,  223.020004,  283.220001, 0.000000,  0.000000 
 57802240.000000, 4.771288 , -17.084755, 22.576284, 3534541056.000000, -142.309998,  212.660004,  286.019989, 0.000000,  0.000000 
 57823232.000000, 4.206582 , -13.741980, 16.022341, 3534561024.000000, 10.010000,  188.020004,  243.949997, 0.000000,  0.000000 
 57842176.000000, 4.216154 , -9.200402, 11.789437, 3534582016.000000, 122.709999,  144.130005,  192.919998, 0.000000,  0.000000 
 57862144.000000, 7.032506 , -4.957928, 9.511470, 3534600960.000000, 139.789993,  95.830002,  187.880005, 0.000000,  0.000000 
 57882112.000000, 9.523434 , -2.926422, 7.140182, 3534620928.000000, 80.709999,  47.389999,  209.300003, 0.000000,  0.000000 
 57902080.000000, 9.501899 , -2.256432, 7.063612, 3534640896.000000, -6.230000,  26.740000,  194.880005, 0.000000,  0.000000 
 57923072.000000, 10.250853 , -1.514657, 7.939385, 3534660864.000000, -83.370003,  18.129999,  157.220001, 0.000000,  0.000000 
 57942016.000000, 12.648461 , -0.722632, 5.319244, 3534681856.000000, -88.620003,  -6.230000,  133.770004, 0.000000,  0.000000 
 57961984.000000, 14.895321 , 0.619741, 2.289931, 3534700800.000000, -0.980000,  -50.330002,  113.260002, 0.000000,  0.000000 
 57981952.000000, 14.206188 , 2.608176, 1.722832, 3534720768.000000, 88.620003,  -81.830002,  54.810001, 0.000000,  0.000000 
 58001920.000000, 12.380465 , 2.471786, 4.331009, 3534740736.000000, 70.419998,  -88.760002,  -41.509998, 0.000000,  0.000000 
 58024960.000000, 10.971091 , -1.861616, 6.941578, 3534760704.000000, -17.080000,  -94.220001,  -112.699997, 0.000000,  0.000000 
 58041856.000000, 10.119246 , -10.942378, 11.791830, 3534783744.000000, -89.459999,  -101.500000,  -166.600006, 0.000000,  0.000000 
 58061824.000000, 12.067005 , -29.355148, 26.129623, 3534801152.000000, -130.410004,  -111.230003,  -243.040009, 0.000000,  0.000000 
 58081792.000000, 3.531806 , -40.536808, 30.941589, 3534821120.000000, -192.570007,  -127.889999,  -277.760010, 0.000000,  0.000000 
 58101760.000000, -2.476572 , -32.097324, 26.220551, 3534841088.000000, -131.250000,  -149.660004,  -375.130005, 0.000000,  0.000000 
 58122752.000000, -3.792624 , -19.625931, 18.161524, 3534861056.000000, 87.010002,  -173.880005,  -398.510010, 0.000000,  0.000000 
 58141696.000000, -4.551149 , -13.639089, 14.591432, 3534881536.000000, 156.449997,  -222.740005,  -359.029999, 0.000000,  0.000000 
 58161664.000000, -5.644669 , -10.004392, 15.460027, 3534900992.000000, 130.830002,  -240.380005,  -350.630005, 0.000000,  0.000000 
 58182144.000000, -9.566505 , -7.008578, 10.317852, 3534920960.000000, 73.290001,  -196.770004,  -299.670013, 0.000000,  0.000000 
 58202112.000000, -11.073983 , -3.503092, 3.550949, 3534940928.000000, 100.870003,  -131.460007,  -250.320007, 0.000000,  0.000000 
 58222592.000000, -8.121240 , 0.634098, 1.182054, 3534960896.000000, 121.029999,  -104.650002,  -202.229996, 0.000000,  0.000000 
 58242048.000000, -7.298109 , 4.553542, -0.174676, 3534981888.000000, 88.269997,  -90.580002,  -138.180008, 0.000000,  0.000000 
 58262016.000000, -8.755339 , 4.797609, 0.009571, 3535000832.000000, 17.360001,  -29.330000,  -130.059998, 0.000000,  0.000000 
 58281984.000000, -10.822738 , 2.392823, -1.076770, 3535020800.000000, -43.119999,  44.029999,  -149.240005, 0.000000,  0.000000 
 58301952.000000, -12.526425 , 2.818745, -3.771089, 3535040768.000000, -52.150002,  66.919998,  -121.239998, 0.000000,  0.000000 
 58322944.000000, -9.789038 , 3.625126, -3.225525, 3535060736.000000, -34.650002,  92.120003,  -96.459999, 0.000000,  0.000000 
 58341888.000000, -6.159126 , 3.022135, -2.754139, 3535100672.000000, 5.670000,  72.239998,  63.139999, 5797494272.000000,  1006.097046 
 58361856.000000, -5.144568 , 2.292324, -0.744168, 0.000000, 0.000000,  0.000000,  0.000000, 0.000000,  0.000000 
 58381824.000000, -5.967700 , 1.732404, 1.335195, 3535120640.000000, -26.110001,  99.820000,  142.589996, 0.000000,  0.000000 
 58401792.000000, -7.752745 , -1.631905, 7.087541, 3535140608.000000, -62.369999,  145.250000,  206.080002, 0.000000,  0.000000 
 58422784.000000, -8.953942 , -11.705689, 12.981063, 3535160576.000000, -63.209999,  177.940002,  257.040009, 0.000000,  0.000000 
 58441728.000000, -8.518449 , -22.691137, 24.102903, 3535181568.000000, -97.510002,  207.759995,  275.239990, 0.000000,  0.000000 
 58461696.000000, -7.743174 , -27.873991, 28.101311, 3535200512.000000, -152.809998,  249.899994,  361.480011, 0.000000,  0.000000 
 58481664.000000, -5.771489 , -22.987844, 23.928226, 3535220480.000000, -182.559998,  234.080002,  330.260010, 0.000000,  0.000000 
 58501632.000000, 1.225125 , -16.055840, 24.191437, 3535240448.000000, -178.360001,  187.809998,  238.279999, 0.000000,  0.000000 
 58522624.000000, 6.498906 , -10.990234, 19.848463, 3535260416.000000, -150.360001,  160.369995,  219.520004, 0.000000,  0.000000 
 58541568.000000, 5.125426 , -9.573684, 15.000606, 3535281408.000000, -73.709999,  149.100006,  208.250000, 0.000000,  0.000000 
 58561536.000000, 1.323231 , -6.833901, 15.668202, 3535300864.000000, -10.220000,  128.169998,  140.630005, 0.000000,  0.000000 
 58581504.000000, 2.464607 , -5.424529, 12.600604, 3535320832.000000, -8.330000,  91.840004,  108.220001, 0.000000,  0.000000 
 58601472.000000, 6.013163 , -3.747160, 7.920243, 3535340800.000000, 36.049999,  23.799999,  155.470001, 0.000000,  0.000000 
 58622464.000000, 8.839087 , -2.105684, 3.747160, 3535360768.000000, 70.000000,  -40.250000,  188.300003, 0.000000,  0.000000 
 58641408.000000, 9.370294 , -0.251246, 4.804788, 3535381248.000000, 48.860001,  -69.230003,  187.669998, 0.000000,  0.000000 
 58661888.000000, 8.738588 , -0.086142, 5.838487, 3535400704.000000, -31.850000,  -67.199997,  171.990005, 0.000000,  0.000000 
 58681856.000000, 10.372886 , -0.610170, 3.682554, 3535420672.000000, -68.040001,  -80.989998,  145.809998, 0.000000,  0.000000 
 58701824.000000, 13.497912 , 0.150748, 1.667797, 3535440640.000000, -24.570000,  -122.709999,  115.709999, 0.000000,  0.000000 
 58722304.000000, 14.361722 , 0.897308, 2.995814, 3535460608.000000, 5.390000,  -147.559998,  59.430000, 0.000000,  0.000000 
 58741760.000000, 11.763116 , -2.993421, 6.750153, 3535481600.000000, -26.110001,  -139.300003,  -33.250000, 0.000000,  0.000000 
 58761728.000000, 10.181459 , -10.140782, 9.908678, 3535500544.000000, -105.980003,  -119.279999,  -138.460007, 0.000000,  0.000000 
 58781696.000000, 10.681561 , -23.157738, 17.974882, 3535520512.000000, -145.529999,  -121.379997,  -219.100006, 0.000000,  0.000000 
 58801664.000000, 7.195218 , -33.363125, 23.743979, 3535540480.000000, -104.720001,  -123.620003,  -288.119995, 0.000000,  0.000000 
 58822656.000000, 1.703690 , -31.807789, 22.396822, 3535560448.000000, -122.919998,  -116.760002,  -333.899994, 0.000000,  0.000000 
 58841600.000000, -1.789831 , -21.305693, 17.821743, 3535581440.000000, -13.650000,  -113.750000,  -386.820007, 0.000000,  0.000000 
 58861568.000000, -5.668597 , -13.818550, 12.717852, 3535600384.000000, 71.610001,  -119.279999,  -392.000000, 0.000000,  0.000000 
 58881536.000000, -8.114061 , -8.824730, 12.727424, 3535620352.000000, 87.500000,  -123.760002,  -390.390015, 0.000000,  0.000000 
 58901504.000000, -11.593226 , -4.000800, 8.465806, 3535640320.000000, 66.010002,  -98.489998,  -329.420013, 0.000000,  0.000000 
 58922496.000000, -9.480364 , 0.248854, 6.384050, 3535660288.000000, 49.980000,  -42.139999,  -277.059998, 0.000000,  0.000000 
 58941440.000000, -5.527420 , 2.876173, 2.354537, 3535681280.000000, 72.800003,  -3.290000,  -197.050003, 0.000000,  0.000000 
 58961408.000000, -4.668397 , 6.771688, 0.708275, 3535700224.000000, 120.820000,  13.440001,  -119.419998, 0.000000,  0.000000 
 58981376.000000, -5.965307 , 8.145168, -0.162712, 3535720192.000000, 121.239998,  61.110001,  -75.599998, 0.000000,  0.000000 
 59001344.000000, -8.063812 , 6.084948, -1.438086, 3535740160.000000, 49.000000,  114.379997,  -38.920002, 0.000000,  0.000000 
 59024384.000000, -9.578469 , 4.103691, -3.419343, 3535760128.000000, -23.590000,  143.919998,  -9.800000, 0.000000,  0.000000 
 59041280.000000, -10.258030 , 2.411965, -2.289931, 3535783168.000000, -80.919998,  151.759995,  44.660000, 0.000000,  0.000000 
 59061248.000000, -8.752945 , 0.768096, -1.098306, 3535800576.000000, -139.229996,  148.190002,  91.559998, 0.000000,  0.000000 
 59081216.000000, -7.800602 , -0.916451, 0.409173, 3535820544.000000, -169.820007,  125.930000,  134.050003, 0.000000,  0.000000 
 59101184.000000, -9.614362 , -4.436293, 3.326023, 3535840512.000000, -155.610001,  112.840004,  183.050003, 0.000000,  0.000000 
 59122176.000000, -12.157932 , -12.981063, 10.487741, 3535860480.000000, -155.539993,  121.730003,  214.759995, 0.000000,  0.000000 
 59141632.000000, -12.160326 , -26.426332, 18.654444, 3535881472.000000, -164.220001,  107.940002,  228.690002, 0.000000,  0.000000 
 59161600.000000, -6.216553 , -25.186850, 19.944178, 3535900416.000000, -135.169998,  108.150002,  255.220001, 0.000000,  0.000000 
 59181568.000000, -7.429714 , -19.889143, 20.102102, 3535920384.000000, 5.390000,  88.480003,  302.959991, 0.000000,  0.000000 
 59201536.000000, -8.329416 , -15.871593, 18.489340, 3535940352.000000, 57.470001,  120.680000,  244.300003, 0.000000,  0.000000 
 59222016.000000, -1.368695 , -11.442478, 18.570696, 3535960320.000000, -35.490002,  134.330002,  162.119995, 0.000000,  0.000000 
 59241472.000000, 3.251846 , -7.432107, 20.310280, 3535981312.000000, -87.500000,  138.250000,  170.169998, 0.000000,  0.000000 
 59261440.000000, 2.713461 , -6.819544, 16.084553, 3536000256.000000, -54.810001,  133.279999,  170.660004, 0.000000,  0.000000 
 59281408.000000, 1.265803 , -5.580062, 12.186646, 3536020224.000000, 16.520000,  102.550003,  126.980003, 0.000000,  0.000000 
 59301376.000000, 3.101098 , -3.756732, 10.155140, 3536040192.000000, 39.689999,  54.110001,  111.300003, 0.000000,  0.000000 
 59322368.000000, 5.876772 , -2.129612, 8.329416, 3536060160.000000, 9.940000,  -5.530000,  142.869995, 0.000000,  0.000000 
 59341312.000000, 6.149554 , -1.720440, 6.281159, 3536081152.000000, -40.040001,  -47.389999,  164.500000, 5798493696.000000,  1006.096497 
 59361280.000000, 5.941379 , -1.083949, 4.177868, 3536100096.000000, -80.639999,  -64.400002,  146.860001, 0.000000,  0.000000 
 59381248.000000, 8.635696 , -0.698704, 4.520042, 3536120064.000000, -94.989998,  -74.690002,  129.149994, 0.000000,  0.000000 
 59401216.000000, 11.942577 , -0.588634, 4.752146, 3536140032.000000, -71.540001,  -110.739998,  129.639999, 0.000000,  0.000000 
 59422208.000000, 13.734802 , -0.220140, 3.620341, 3536160000.000000, -39.270000,  -145.460007,  98.629997, 0.000000,  0.000000 
 59441152.000000, 14.371292 , 0.157926, 3.237489, 3536180992.000000, -0.980000,  -140.770004,  31.850000, 0.000000,  0.000000 
 59461120.000000, 12.612568 , -2.986243, 5.699703, 3536199936.000000, 8.470000,  -112.910004,  -45.360001, 0.000000,  0.000000 
 59481088.000000, 9.571291 , -11.933006, 12.306287, 3536219904.000000, -39.130001,  -79.519997,  -119.489998, 0.000000,  0.000000 
 59501056.000000, 6.924829 , -28.558338, 20.867805, 3536239872.000000, -109.270004,  -62.369999,  -217.699997, 0.000000,  0.000000 
 59522048.000000, 2.132005 , -40.275990, 26.127230, 3536260352.000000, -127.750000,  -79.239998,  -311.149994, 0.000000,  0.000000 
 59540992.000000, -1.342373 , -31.068409, 21.884756, 3536280832.000000, -22.400000,  -121.940002,  -369.320007, 0.000000,  0.000000 
 59561472.000000, -2.986243 , -21.815365, 17.759529, 3536300288.000000, 149.309998,  -147.630005,  -399.910004, 0.000000,  0.000000 
 59580928.000000, -5.986843 , -14.885750, 12.459428, 3536320256.000000, 131.529999,  -186.619995,  -389.480011, 0.000000,  0.000000 
 59600896.000000, -6.496514 , -11.892329, 13.495520, 3536340224.000000, 61.389999,  -201.740005,  -412.649994, 0.000000,  0.000000 
 59622400.000000, -9.966106 , -8.944371, 13.466805, 3536360192.000000, 13.510000,  -182.630005,  -384.929993, 0.000000,  0.000000 
 59641344.000000, -12.923635 , -4.902894, 5.974878, 3536381184.000000, 30.240000,  -98.910004,  -343.839996, 0.000000,  0.000000 
 59661312.000000, -8.422735 , -0.543171, 2.699104, 3536400128.000000, 91.279999,  -45.990002,  -280.630005, 0.000000,  0.000000 
 59681280.000000, -5.247460 , 2.940779, 2.115255, 3536420096.000000, 108.220001,  -44.939999,  -175.279999, 0.000000,  0.000000 
 59701248.000000, -6.513263 , 5.666204, 0.897308, 3536440064.000000, 72.730003,  -30.030001,  -135.029999, 0.000000,  0.000000 
 59721728.000000, -8.001599 , 3.823731, -0.399601, 3536460032.000000, -15.890000,  39.549999,  -131.180008, 0.000000,  0.000000 
 59741184.000000, -9.432507 , 1.761117, -1.404587, 3536481024.000000, -88.480003,  87.290001,  -105.840004, 0.000000,  0.000000 
 59761152.000000, -11.645866 , 1.670190, -1.902294, 3536499968.000000, -119.629997,  106.750000,  -60.200001, 0.000000,  0.000000 
 59781120.000000, -10.829915 , 2.299503, -0.490529, 3536519936.000000, -111.300003,  114.029999,  1.400000, 0.000000,  0.000000 
 59801088.000000, -7.750352 , 1.387837, -0.023928, 3536539904.000000, -99.610001,  103.250000,  52.779999, 0.000000,  0.000000 
 59822080.000000, -7.233503 , 0.811167, 1.165305, 3536559872.000000, -64.820000,  101.639999,  94.500000, 0.000000,  0.000000 
 59841024.000000, -9.858429 , -0.667598, 4.218546, 3536580864.000000, -15.960000,  116.620003,  147.350006, 0.000000,  0.000000 
 59860992.000000, -12.387643 , -7.489535, 10.193424, 3536599808.000000, 8.680000,  142.309998,  212.100006, 0.000000,  0.000000 
 59880960.000000, -13.086348 , -17.776279, 20.652454, 3536619776.000000, -41.369999,  152.460007,  265.790009, 0.000000,  0.000000 
 59900928.000000, -10.128819 , -31.456045, 29.651857, 3536639744.000000, -177.029999,  182.490005,  290.500000, 0.000000,  0.000000 
 59921920.000000, -8.642875 , -27.869204, 27.254250, 3536659712.000000, -216.930008,  192.850006,  325.709991, 0.000000,  0.000000 
 59940864.000000, -3.553342 , -18.472591, 23.117058, 3536680704.000000, -112.489998,  159.809998,  282.730011, 0.000000,  0.000000 
 59960832.000000, 4.113262 , -11.487941, 21.676580, 3536699648.000000, -59.849998,  136.009995,  225.119995, 0.000000,  0.000000 
 59980800.000000, 7.458428 , -8.571091, 17.826529, 3536719616.000000, -74.900002,  127.540001,  206.220001, 0.000000,  0.000000 
 60000768.000000, 5.431707 , -6.434300, 14.352149, 3536740096.000000, -57.540001,  108.570000,  153.440002, 0.000000,  0.000000 
 60023808.000000, 3.883551 , -3.359523, 10.815558, 3536760064.000000, -19.460001,  84.769997,  101.779999, 0.000000,  0.000000 
 60040704.000000, 6.070591 , -2.096112, 7.290931, 3536782592.000000, 17.430000,  46.549999,  99.050003, 0.000000,  0.000000 
 60060672.000000, 8.975478 , 0.153141, 4.780859, 3536800000.000000, 54.950001,  -15.890000,  137.550003, 0.000000,  0.000000 
 60080640.000000, 9.812965 , 1.753939, 3.562913, 3536819968.000000, 31.430000,  -55.580002,  159.600006, 0.000000,  0.000000 
 60100608.000000, 9.087940 , 1.887937, 3.785445, 3536839936.000000, -20.370001,  -62.230000,  152.809998, 0.000000,  0.000000 
 60121600.000000, 10.581062 , 1.225125, 2.455036, 3536859904.000000, -60.900002,  -72.029999,  135.520004, 0.000000,  0.000000 
 60141056.000000, 13.129417 , -0.105284, 0.418744, 3536880896.000000, -34.650002,  -102.760002,  125.090004, 0.000000,  0.000000 
 60161024.000000, 12.698709 , -0.172283, 2.184647, 3536899840.000000, 8.050000,  -133.770004,  81.480003, 0.000000,  0.000000 
