 Acc_timestamp,Accx,Accy,Accz,Gyro_timestamp,Gyrox,Gyroy,Gyroz,Baro_timestamp,Pressure_Reading
 62546176.000000, -0.461815 , 1.191626, 9.633504, 687104768.000000, -0.350000,  0.350000,  0.140000, 0.000000,  0.000000 
 62566784.000000, -0.416351 , 1.196411, 9.602397, 687124480.000000, 0.420000,  0.210000,  0.070000, 0.000000,  0.000000 
 62586176.000000, -0.399601 , 1.220340, 9.611969, 687145024.000000, 0.140000,  0.280000,  0.140000, 0.000000,  0.000000 
 62606144.000000, -0.430708 , 1.201197, 9.621540, 687164416.000000, -0.210000,  0.490000,  0.140000, 0.000000,  0.000000 
 62626432.000000, -0.433101 , 1.165305, 9.623933, 687184448.000000, -0.280000,  0.420000,  0.070000, 0.000000,  0.000000 
 62646144.000000, -0.399601 , 1.208375, 9.638289, 687204736.000000, -0.280000,  0.350000,  0.070000, 0.000000,  0.000000 
 62666688.000000, -0.418744 , 1.191626, 9.585647, 687224384.000000, -0.280000,  0.350000,  0.070000, 0.000000,  0.000000 
 62686080.000000, -0.433101 , 1.215554, 9.619147, 687244992.000000, -0.350000,  0.350000,  0.070000, 0.000000,  0.000000 
 62706112.000000, -0.464208 , 1.189233, 9.635897, 687264384.000000, -0.350000,  0.420000,  0.070000, 0.000000,  0.000000 
 62726400.000000, -0.452243 , 1.165305, 9.595219, 687284352.000000, -0.630000,  0.420000,  0.140000, 0.000000,  0.000000 
 62746048.000000, -0.452243 , 1.146162, 9.616754, 687304704.000000, -0.980000,  0.350000,  0.140000, 0.000000,  0.000000 
 62766656.000000, -0.411566 , 1.158126, 9.614362, 687324352.000000, -0.420000,  0.350000,  0.070000, 0.000000,  0.000000 
 62786048.000000, -0.425922 , 1.162912, 9.635897, 687344960.000000, 0.210000,  0.350000,  0.070000, 0.000000,  0.000000 
 62806016.000000, -0.464208 , 1.172483, 9.616754, 687364352.000000, 0.280000,  0.490000,  0.070000, 0.000000,  0.000000 
 62826368.000000, -0.401994 , 1.227518, 9.635897, 687384320.000000, 0.210000,  0.420000,  0.070000, 0.000000,  0.000000 
 62846016.000000, -0.466600 , 1.265803, 9.616754, 687404608.000000, 0.420000,  0.350000,  0.070000, 0.000000,  0.000000 
 62866624.000000, -0.418744 , 1.282553, 9.583255, 687424320.000000, 0.210000,  0.350000,  -0.210000, 0.000000,  0.000000 
 62886016.000000, -0.452243 , 1.110270, 9.623933, 687444864.000000, -1.050000,  0.210000,  0.070000, 0.000000,  0.000000 
 62905984.000000, -0.397209 , 1.064806, 9.645468, 687464256.000000, -2.240000,  0.210000,  0.070000, 0.000000,  0.000000 
 62926272.000000, -0.428315 , 1.146162, 9.616754, 687484288.000000, -1.260000,  0.210000,  0.210000, 0.000000,  0.000000 
 62945984.000000, -0.433101 , 1.241875, 9.628718, 687504576.000000, 0.700000,  0.420000,  0.070000, 0.000000,  0.000000 
 62968512.000000, -0.476172 , 1.308874, 9.583255, 687524224.000000, 1.470000,  0.490000,  -0.070000, 0.000000,  0.000000 
 62985920.000000, -0.423530 , 1.249053, 9.568897, 687546752.000000, 0.490000,  0.420000,  0.140000, 0.000000,  0.000000 
 63005952.000000, -0.392423 , 1.172483, 9.645468, 687564224.000000, -0.980000,  0.280000,  0.140000, 0.000000,  0.000000 
 63026240.000000, -0.466600 , 1.141376, 9.633504, 687584192.000000, -1.960000,  0.420000,  0.140000, 0.000000,  0.000000 
 63045888.000000, -0.466600 , 1.117448, 9.652647, 687604544.000000, -1.750000,  0.490000,  -0.210000, 0.000000,  0.000000 
 63066496.000000, -0.411566 , 1.158126, 9.635897, 687624192.000000, -0.490000,  0.420000,  0.070000, 0.000000,  0.000000 
 63085888.000000, -0.449851 , 1.196411, 9.657433, 687644800.000000, 0.490000,  0.350000,  0.140000, 0.000000,  0.000000 
 63105856.000000, -0.483350 , 1.225125, 9.590433, 687664192.000000, 0.420000,  0.350000,  0.140000, 0.000000,  0.000000 
 63126144.000000, -0.440279 , 1.158126, 9.614362, 687684160.000000, -0.280000,  0.350000,  0.070000, 0.000000,  0.000000 
 63145856.000000, -0.468993 , 1.172483, 9.621540, 687704448.000000, -0.700000,  0.350000,  0.070000, 0.000000,  0.000000 
 63166464.000000, -0.425922 , 1.184447, 9.652647, 687724160.000000, -0.350000,  0.490000,  0.070000, 0.000000,  0.000000 
 63185856.000000, -0.459422 , 1.170090, 9.667004, 687744704.000000, -0.070000,  0.420000,  0.070000, 0.000000,  0.000000 
 63205824.000000, -0.425922 , 1.215554, 9.623933, 687764096.000000, -0.140000,  0.280000,  -0.070000, 0.000000,  0.000000 
 63226112.000000, -0.445065 , 1.189233, 9.600004, 687784128.000000, -0.140000,  0.140000,  0.140000, 0.000000,  0.000000 
 63245824.000000, -0.413958 , 1.208375, 9.633504, 687804416.000000, 0.070000,  0.140000,  0.140000, 0.000000,  0.000000 
 63266432.000000, -0.380459 , 1.258625, 9.635897, 687824064.000000, -0.070000,  0.350000,  0.070000, 0.000000,  0.000000 
 63285760.000000, -0.418744 , 1.160519, 9.638289, 687844736.000000, -0.420000,  0.560000,  0.070000, 0.000000,  0.000000 
 63305792.000000, -0.433101 , 1.162912, 9.614362, 687864064.000000, -1.050000,  0.490000,  0.070000, 513611936.000000,  1008.810120 
 63326080.000000, -0.401994 , 1.172483, 9.650253, 687884032.000000, -1.190000,  0.280000,  0.140000, 0.000000,  0.000000 
 63345728.000000, -0.457029 , 1.170090, 9.621540, 687904320.000000, -0.770000,  0.280000,  0.210000, 0.000000,  0.000000 
 63366336.000000, -0.392423 , 1.205983, 9.626326, 687924032.000000, -0.420000,  0.280000,  0.070000, 0.000000,  0.000000 
 63385728.000000, -0.399601 , 1.232304, 9.571291, 687944640.000000, -0.140000,  0.350000,  0.140000, 0.000000,  0.000000 
 63405696.000000, -0.485743 , 1.146162, 9.623933, 687964032.000000, -0.210000,  0.490000,  0.210000, 0.000000,  0.000000 
 63425984.000000, -0.461815 , 1.148555, 9.659825, 687984000.000000, -0.770000,  0.490000,  0.070000, 0.000000,  0.000000 
 63445696.000000, -0.394816 , 1.162912, 9.616754, 688004288.000000, -0.630000,  0.350000,  0.070000, 0.000000,  0.000000 
 63466304.000000, -0.459422 , 1.191626, 9.640682, 688024000.000000, -0.140000,  0.350000,  0.140000, 0.000000,  0.000000 
 63485696.000000, -0.397209 , 1.143769, 9.662218, 688044544.000000, -0.140000,  0.420000,  0.140000, 0.000000,  0.000000 
 63505664.000000, -0.437887 , 1.196411, 9.616754, 688063936.000000, -0.280000,  0.490000,  0.140000, 0.000000,  0.000000 
 63525952.000000, -0.466600 , 1.177269, 9.588040, 688083968.000000, -0.630000,  0.420000,  0.070000, 0.000000,  0.000000 
 63545664.000000, -0.442672 , 1.146162, 9.607183, 688104256.000000, -0.560000,  0.420000,  0.140000, 0.000000,  0.000000 
 63566208.000000, -0.473779 , 1.189233, 9.657433, 688123904.000000, -0.630000,  0.490000,  0.070000, 0.000000,  0.000000 
 63585600.000000, -0.397209 , 1.134198, 9.647861, 688144512.000000, -0.700000,  0.350000,  0.140000, 0.000000,  0.000000 
 63605568.000000, -0.471386 , 1.186840, 9.650253, 688163904.000000, -0.490000,  0.280000,  0.140000, 0.000000,  0.000000 
 63625920.000000, -0.447458 , 1.213161, 9.621540, 688183872.000000, 0.070000,  0.420000,  0.070000, 0.000000,  0.000000 
 63645568.000000, -0.428315 , 1.205983, 9.623933, 688204160.000000, 0.350000,  0.490000,  0.070000, 0.000000,  0.000000 
 63666176.000000, -0.459422 , 1.239482, 9.607183, 688223872.000000, 0.210000,  0.280000,  0.070000, 0.000000,  0.000000 
 63685568.000000, -0.524028 , 1.201197, 9.626326, 688244416.000000, -0.280000,  0.280000,  0.140000, 0.000000,  0.000000 
 63705536.000000, -0.440279 , 1.170090, 9.633504, 688263808.000000, -0.700000,  0.420000,  -0.140000, 0.000000,  0.000000 
 63725824.000000, -0.428315 , 1.110270, 9.628718, 688283840.000000, -1.260000,  0.350000,  -0.070000, 0.000000,  0.000000 
 63745536.000000, -0.430708 , 1.136591, 9.619147, 688304128.000000, -1.190000,  0.140000,  -0.070000, 0.000000,  0.000000 
 63766080.000000, -0.399601 , 1.184447, 9.633504, 688323776.000000, -0.140000,  0.140000,  0.210000, 0.000000,  0.000000 
 63785472.000000, -0.457029 , 1.184447, 9.585647, 688344384.000000, 0.630000,  0.350000,  0.140000, 0.000000,  0.000000 
 63805504.000000, -0.466600 , 1.232304, 9.616754, 688363776.000000, 0.840000,  0.630000,  -0.070000, 0.000000,  0.000000 
 63825792.000000, -0.473779 , 1.251446, 9.621540, 688383744.000000, 0.210000,  0.560000,  0.140000, 0.000000,  0.000000 
 63845440.000000, -0.459422 , 1.160519, 9.619147, 688404096.000000, -0.840000,  0.350000,  0.070000, 0.000000,  0.000000 
 63866048.000000, -0.399601 , 1.177269, 9.652647, 688423744.000000, -1.190000,  0.280000,  0.070000, 0.000000,  0.000000 
 63885440.000000, -0.454636 , 1.143769, 9.638289, 688444352.000000, -1.050000,  0.420000,  0.070000, 0.000000,  0.000000 
 63905408.000000, -0.454636 , 1.124627, 9.621540, 688463744.000000, -0.840000,  0.490000,  0.070000, 0.000000,  0.000000 
 63925760.000000, -0.454636 , 1.198804, 9.626326, 688483712.000000, -0.350000,  0.490000,  0.070000, 0.000000,  0.000000 
 63945408.000000, -0.466600 , 1.210768, 9.595219, 688504000.000000, 0.490000,  0.420000,  0.140000, 0.000000,  0.000000 
 63967936.000000, -0.447458 , 1.251446, 9.614362, 688523712.000000, 0.420000,  0.350000,  0.070000, 0.000000,  0.000000 
 63985408.000000, -0.397209 , 1.198804, 9.604790, 688546240.000000, -0.280000,  0.350000,  0.070000, 0.000000,  0.000000 
 64005376.000000, -0.452243 , 1.191626, 9.650253, 688563648.000000, -0.840000,  0.420000,  0.140000, 0.000000,  0.000000 
 64025664.000000, -0.502493 , 1.127020, 9.628718, 688583680.000000, -0.840000,  0.630000,  -0.070000, 0.000000,  0.000000 
 64045376.000000, -0.442672 , 1.155733, 9.633504, 688603968.000000, -0.490000,  0.560000,  -0.070000, 0.000000,  0.000000 
 64065920.000000, -0.428315 , 1.177269, 9.604790, 688623616.000000, -0.490000,  0.210000,  0.140000, 0.000000,  0.000000 
 64085312.000000, -0.418744 , 1.246661, 9.619147, 688644224.000000, 0.140000,  0.140000,  0.210000, 0.000000,  0.000000 
 64105344.000000, -0.480957 , 1.189233, 9.619147, 688663616.000000, -0.140000,  0.350000,  0.140000, 0.000000,  0.000000 
 64125632.000000, -0.418744 , 1.177269, 9.588040, 688683584.000000, -0.630000,  0.560000,  -0.140000, 0.000000,  0.000000 
 64145280.000000, -0.401994 , 1.196411, 9.616754, 688703936.000000, -0.770000,  0.350000,  -0.070000, 0.000000,  0.000000 
 64165888.000000, -0.440279 , 1.179662, 9.621540, 688723584.000000, -0.560000,  0.210000,  0.140000, 0.000000,  0.000000 
 64185280.000000, -0.435494 , 1.217947, 9.633504, 688744192.000000, -0.210000,  0.280000,  0.140000, 0.000000,  0.000000 
 64205248.000000, -0.409173 , 1.215554, 9.597611, 688763584.000000, 0.210000,  0.280000,  0.140000, 0.000000,  0.000000 
 64225600.000000, -0.447458 , 1.210768, 9.619147, 688783552.000000, 0.210000,  0.350000,  0.280000, 0.000000,  0.000000 
 64245248.000000, -0.445065 , 1.182054, 9.588040, 688803840.000000, -0.490000,  0.560000,  0.280000, 0.000000,  0.000000 
 64265856.000000, -0.440279 , 1.182054, 9.655040, 688823552.000000, -0.700000,  0.560000,  0.280000, 0.000000,  0.000000 
 64285248.000000, -0.449851 , 1.196411, 9.585647, 688844160.000000, -0.700000,  0.350000,  0.070000, 0.000000,  0.000000 
 64305216.000000, -0.404387 , 1.179662, 9.623933, 688863488.000000, -0.350000,  0.280000,  0.070000, 514611392.000000,  1008.810425 
 64325504.000000, -0.440279 , 1.225125, 9.626326, 688883520.000000, -0.140000,  0.350000,  0.070000, 0.000000,  0.000000 
 64345216.000000, -0.418744 , 1.189233, 9.626326, 688903808.000000, 0.140000,  0.420000,  0.070000, 0.000000,  0.000000 
 64365760.000000, -0.452243 , 1.182054, 9.626326, 688923456.000000, 0.140000,  0.420000,  0.070000, 0.000000,  0.000000 
 64385152.000000, -0.423530 , 1.213161, 9.628718, 688944064.000000, -0.280000,  0.350000,  0.070000, 0.000000,  0.000000 
 64405184.000000, -0.406780 , 1.208375, 9.655040, 688963456.000000, -0.280000,  0.350000,  0.070000, 0.000000,  0.000000 
 64425472.000000, -0.382852 , 1.143769, 9.614362, 688983424.000000, -0.630000,  0.420000,  0.070000, 0.000000,  0.000000 
 64445120.000000, -0.409173 , 1.098306, 9.619147, 689003712.000000, -1.050000,  0.490000,  0.070000, 0.000000,  0.000000 
 64465728.000000, -0.430708 , 1.208375, 9.638289, 689023424.000000, -0.420000,  0.350000,  0.140000, 0.000000,  0.000000 
 64485120.000000, -0.425922 , 1.249053, 9.619147, 689044032.000000, 0.210000,  0.350000,  0.140000, 0.000000,  0.000000 
 64505088.000000, -0.466600 , 1.210768, 9.600004, 689063424.000000, 0.210000,  0.420000,  0.140000, 0.000000,  0.000000 
 64525376.000000, -0.497707 , 1.253839, 9.600004, 689083392.000000, -0.070000,  0.490000,  0.140000, 0.000000,  0.000000 
 64545088.000000, -0.471386 , 1.289732, 9.643075, 689103680.000000, -0.070000,  0.420000,  -0.140000, 0.000000,  0.000000 
 64565696.000000, -0.423530 , 1.158126, 9.590433, 689123392.000000, -0.630000,  0.210000,  0.140000, 0.000000,  0.000000 
 64585088.000000, -0.421137 , 1.067199, 9.607183, 689163328.000000, -1.890000,  0.350000,  -0.070000, 0.000000,  0.000000 
 64605056.000000, -0.421137 , 1.098306, 9.621540, 0.000000, 0.000000,  0.000000,  0.000000, 0.000000,  0.000000 
 64625344.000000, -0.416351 , 1.239482, 9.631111, 689183360.000000, 0.420000,  0.140000,  0.280000, 0.000000,  0.000000 
 64645056.000000, -0.454636 , 1.265803, 9.607183, 689203648.000000, 1.610000,  0.490000,  0.070000, 0.000000,  0.000000 
 64665600.000000, -0.430708 , 1.249053, 9.616754, 689223296.000000, 0.630000,  0.560000,  -0.140000, 0.000000,  0.000000 
 64684992.000000, -0.452243 , 1.208375, 9.614362, 689243904.000000, -0.420000,  0.280000,  0.210000, 0.000000,  0.000000 
 64705024.000000, -0.447458 , 1.141376, 9.626326, 689263296.000000, -1.470000,  0.350000,  0.140000, 0.000000,  0.000000 
 64725312.000000, -0.473779 , 1.095913, 9.623933, 689283264.000000, -2.030000,  0.560000,  -0.070000, 0.000000,  0.000000 
 64744960.000000, -0.425922 , 1.155733, 9.621540, 689303552.000000, -1.400000,  0.420000,  -0.070000, 0.000000,  0.000000 
 64765568.000000, -0.423530 , 1.191626, 9.607183, 689323264.000000, -0.280000,  0.350000,  0.210000, 0.000000,  0.000000 
 64784960.000000, -0.385244 , 1.196411, 9.676575, 689343808.000000, 0.420000,  0.420000,  0.140000, 0.000000,  0.000000 
 64804928.000000, -0.495314 , 1.213161, 9.623933, 689363264.000000, 0.350000,  0.420000,  0.210000, 0.000000,  0.000000 
 64825216.000000, -0.423530 , 1.213161, 9.583255, 689383232.000000, -0.140000,  0.350000,  -0.070000, 0.000000,  0.000000 
 64844928.000000, -0.437887 , 1.196411, 9.600004, 689403520.000000, -0.490000,  0.210000,  0.140000, 0.000000,  0.000000 
 64865472.000000, -0.452243 , 1.127020, 9.698111, 689423232.000000, -0.910000,  0.350000,  0.070000, 0.000000,  0.000000 
 64884864.000000, -0.423530 , 1.162912, 9.635897, 689443776.000000, -1.120000,  0.560000,  -0.070000, 0.000000,  0.000000 
 64904896.000000, -0.409173 , 1.167697, 9.643075, 689463168.000000, -0.840000,  0.210000,  0.070000, 0.000000,  0.000000 
 64925184.000000, -0.394816 , 1.167697, 9.597611, 689483136.000000, -0.490000,  0.210000,  0.210000, 0.000000,  0.000000 
 64944896.000000, -0.452243 , 1.232304, 9.664611, 689503488.000000, -0.210000,  0.280000,  0.210000, 0.000000,  0.000000 
 64967424.000000, -0.449851 , 1.189233, 9.631111, 689523136.000000, -0.210000,  0.490000,  -0.070000, 0.000000,  0.000000 
 64984832.000000, -0.483350 , 1.150948, 9.638289, 689545664.000000, -0.420000,  0.420000,  -0.140000, 0.000000,  0.000000 
 65004864.000000, -0.430708 , 1.155733, 9.626326, 689563136.000000, -1.120000,  0.350000,  -0.140000, 0.000000,  0.000000 
 65025152.000000, -0.430708 , 1.146162, 9.647861, 689583104.000000, -0.980000,  0.210000,  0.070000, 0.000000,  0.000000 
 65044800.000000, -0.442672 , 1.138984, 9.611969, 689603392.000000, -0.770000,  0.350000,  0.070000, 0.000000,  0.000000 
 65065408.000000, -0.430708 , 1.134198, 9.628718, 689623104.000000, -0.280000,  0.420000,  0.070000, 0.000000,  0.000000 
 65084800.000000, -0.413958 , 1.246661, 9.626326, 689643648.000000, -0.280000,  0.350000,  0.070000, 0.000000,  0.000000 
 65104768.000000, -0.411566 , 1.277767, 9.583255, 689663104.000000, 0.210000,  0.420000,  0.070000, 0.000000,  0.000000 
 65125056.000000, -0.440279 , 1.158126, 9.604790, 689683072.000000, -0.280000,  0.420000,  0.140000, 0.000000,  0.000000 
 65144768.000000, -0.445065 , 1.198804, 9.643075, 689703360.000000, -1.050000,  0.490000,  0.140000, 0.000000,  0.000000 
 65165376.000000, -0.449851 , 1.177269, 9.633504, 689723072.000000, -0.630000,  0.420000,  0.140000, 0.000000,  0.000000 
 65184768.000000, -0.404387 , 1.241875, 9.595219, 689743616.000000, 0.070000,  0.210000,  0.070000, 0.000000,  0.000000 
 65204736.000000, -0.473779 , 1.210768, 9.597611, 689763008.000000, 0.070000,  0.280000,  0.070000, 0.000000,  0.000000 
 65225024.000000, -0.440279 , 1.146162, 9.619147, 689783040.000000, -0.490000,  0.420000,  0.070000, 0.000000,  0.000000 
 65244736.000000, -0.480957 , 1.117448, 9.631111, 689803328.000000, -1.190000,  0.420000,  0.070000, 0.000000,  0.000000 
 65265344.000000, -0.445065 , 1.117448, 9.643075, 689822976.000000, -0.840000,  0.350000,  0.140000, 0.000000,  0.000000 
 65284672.000000, -0.404387 , 1.179662, 9.614362, 689862976.000000, 0.700000,  0.210000,  0.210000, 515610848.000000,  1008.808167 
 65304704.000000, -0.423530 , 1.222732, 9.633504, 0.000000, 0.000000,  0.000000,  0.000000, 0.000000,  0.000000 
 65324992.000000, -0.464208 , 1.241875, 9.626326, 689882944.000000, 0.560000,  0.420000,  0.070000, 0.000000,  0.000000 
 65344960.000000, -0.492921 , 1.201197, 9.590433, 689903232.000000, 0.560000,  0.560000,  0.070000, 0.000000,  0.000000 
 65365248.000000, -0.411566 , 1.184447, 9.640682, 689923264.000000, -0.700000,  0.490000,  0.070000, 0.000000,  0.000000 
 65384640.000000, -0.399601 , 1.146162, 9.681360, 689943488.000000, -1.400000,  0.140000,  0.070000, 0.000000,  0.000000 
 65404608.000000, -0.344566 , 1.148555, 9.645468, 689962944.000000, -1.470000,  0.070000,  0.280000, 0.000000,  0.000000 
 65425024.000000, -0.382852 , 1.177269, 9.609575, 689982912.000000, -1.120000,  0.140000,  0.140000, 0.000000,  0.000000 
 65444608.000000, -0.471386 , 1.201197, 9.645468, 690003328.000000, 0.140000,  0.210000,  0.140000, 0.000000,  0.000000 
 65465344.000000, -0.485743 , 1.196411, 9.602397, 690022848.000000, 1.120000,  0.560000,  0.280000, 0.000000,  0.000000 
 65484544.000000, -0.471386 , 1.258625, 9.604790, 690043648.000000, 0.980000,  0.630000,  -0.140000, 0.000000,  0.000000 
 65504576.000000, -0.368495 , 1.225125, 9.592826, 690062848.000000, 0.280000,  0.280000,  0.070000, 0.000000,  0.000000 
 65524864.000000, -0.471386 , 1.201197, 9.659825, 690082816.000000, -1.190000,  0.140000,  0.210000, 0.000000,  0.000000 
 65544512.000000, -0.437887 , 1.081556, 9.631111, 690103168.000000, -2.030000,  0.420000,  -0.140000, 0.000000,  0.000000 
 65565120.000000, -0.442672 , 1.122234, 9.626326, 690122816.000000, -1.400000,  0.490000,  -0.140000, 0.000000,  0.000000 
 65584512.000000, -0.449851 , 1.179662, 9.604790, 690143424.000000, -0.350000,  0.420000,  0.070000, 0.000000,  0.000000 
 65604480.000000, -0.425922 , 1.179662, 9.695717, 690162816.000000, 0.140000,  0.350000,  0.070000, 0.000000,  0.000000 
 65624832.000000, -0.423530 , 1.186840, 9.619147, 690182784.000000, 0.210000,  0.210000,  0.140000, 0.000000,  0.000000 
 65644480.000000, -0.454636 , 1.201197, 9.635897, 690203072.000000, 0.070000,  0.280000,  0.070000, 0.000000,  0.000000 
 65665088.000000, -0.461815 , 1.179662, 9.585647, 690222784.000000, -0.350000,  0.490000,  0.070000, 0.000000,  0.000000 
 65684480.000000, -0.382852 , 1.194018, 9.643075, 690243328.000000, -0.420000,  0.490000,  0.070000, 0.000000,  0.000000 
 65704448.000000, -0.440279 , 1.153341, 9.655040, 690262720.000000, -0.560000,  0.420000,  0.070000, 0.000000,  0.000000 
 65724736.000000, -0.466600 , 1.150948, 9.576077, 690282752.000000, -0.630000,  0.280000,  0.070000, 0.000000,  0.000000 
 65744448.000000, -0.382852 , 1.215554, 9.611969, 690322688.000000, 0.350000,  0.280000,  0.140000, 0.000000,  0.000000 
 65764992.000000, -0.466600 , 1.222732, 9.643075, 0.000000, 0.000000,  0.000000,  0.000000, 0.000000,  0.000000 
 65784384.000000, -0.471386 , 1.196411, 9.607183, 690343296.000000, -0.140000,  0.490000,  -0.070000, 0.000000,  0.000000 
 65804416.000000, -0.421137 , 1.184447, 9.588040, 690362688.000000, -0.770000,  0.490000,  -0.140000, 0.000000,  0.000000 
 65824704.000000, -0.428315 , 1.095913, 9.592826, 690382656.000000, -1.190000,  0.280000,  0.070000, 0.000000,  0.000000 
 65844352.000000, -0.480957 , 1.129412, 9.604790, 690403008.000000, -0.980000,  0.280000,  0.070000, 0.000000,  0.000000 
 65864960.000000, -0.480957 , 1.186840, 9.638289, 690422656.000000, -0.210000,  0.420000,  0.070000, 0.000000,  0.000000 
 65884352.000000, -0.461815 , 1.213161, 9.600004, 690443264.000000, 0.210000,  0.350000,  0.140000, 0.000000,  0.000000 
 65904320.000000, -0.454636 , 1.174876, 9.576077, 690462656.000000, 0.280000,  0.280000,  0.140000, 0.000000,  0.000000 
 65924672.000000, -0.425922 , 1.189233, 9.628718, 690482624.000000, -0.070000,  0.490000,  0.140000, 0.000000,  0.000000 
 65944320.000000, -0.382852 , 1.177269, 9.621540, 690502912.000000, -0.560000,  0.490000,  -0.070000, 0.000000,  0.000000 
 65966848.000000, -0.437887 , 1.203590, 9.626326, 690522624.000000, -0.350000,  0.350000,  0.140000, 0.000000,  0.000000 
 65984320.000000, -0.437887 , 1.189233, 9.643075, 690545152.000000, -0.070000,  0.420000,  0.070000, 0.000000,  0.000000 
 66004288.000000, -0.447458 , 1.191626, 9.604790, 690562560.000000, -0.070000,  0.350000,  0.070000, 0.000000,  0.000000 
 66024576.000000, -0.473779 , 1.177269, 9.580862, 690582592.000000, -0.210000,  0.350000,  0.140000, 0.000000,  0.000000 
 66044288.000000, -0.461815 , 1.143769, 9.638289, 690602880.000000, -0.770000,  0.490000,  0.140000, 0.000000,  0.000000 
 66064832.000000, -0.430708 , 1.119841, 9.659825, 690622528.000000, -0.980000,  0.420000,  0.140000, 0.000000,  0.000000 
 66084224.000000, -0.480957 , 1.172483, 9.585647, 690643136.000000, -0.420000,  0.280000,  0.070000, 0.000000,  0.000000 
 66104192.000000, -0.449851 , 1.186840, 9.626326, 690662528.000000, 0.140000,  0.350000,  0.140000, 0.000000,  0.000000 
 66124544.000000, -0.507278 , 1.165305, 9.640682, 690682496.000000, 0.210000,  0.420000,  0.140000, 0.000000,  0.000000 
 66144192.000000, -0.468993 , 1.165305, 9.647861, 690702784.000000, -0.350000,  0.490000,  0.140000, 0.000000,  0.000000 
 66164800.000000, -0.413958 , 1.205983, 9.645468, 690722496.000000, -0.140000,  0.490000,  -0.070000, 0.000000,  0.000000 
 66184192.000000, -0.452243 , 1.249053, 9.614362, 690743104.000000, 0.560000,  0.350000,  0.070000, 0.000000,  0.000000 
 66204160.000000, -0.459422 , 1.217947, 9.604790, 690762432.000000, -0.210000,  0.350000,  -0.070000, 0.000000,  0.000000 
 66224448.000000, -0.392423 , 1.069592, 9.662218, 690782464.000000, -1.750000,  0.350000,  -0.070000, 0.000000,  0.000000 
 66244160.000000, -0.433101 , 1.093520, 9.674182, 690802752.000000, -1.960000,  0.210000,  0.280000, 0.000000,  0.000000 
 66264768.000000, -0.411566 , 1.153341, 9.638289, 690822400.000000, -0.490000,  0.280000,  0.210000, 0.000000,  0.000000 
 66284096.000000, -0.428315 , 1.261017, 9.614362, 690862400.000000, 1.400000,  0.490000,  0.070000, 516610272.000000,  1008.809082 
 66304128.000000, -0.452243 , 1.301696, 9.556933, 0.000000, 0.000000,  0.000000,  0.000000, 0.000000,  0.000000 
 66324416.000000, -0.433101 , 1.210768, 9.559326, 690882368.000000, 0.070000,  0.350000,  0.070000, 0.000000,  0.000000 
 66344064.000000, -0.418744 , 1.177269, 9.640682, 690902720.000000, -1.330000,  0.210000,  0.210000, 0.000000,  0.000000 
 66364672.000000, -0.500100 , 1.100698, 9.647861, 690922368.000000, -1.820000,  0.490000,  0.210000, 0.000000,  0.000000 
 66384064.000000, -0.466600 , 1.155733, 9.611969, 690942976.000000, -1.190000,  0.560000,  -0.140000, 0.000000,  0.000000 
 66404032.000000, -0.430708 , 1.162912, 9.621540, 690962368.000000, -0.140000,  0.280000,  0.210000, 0.000000,  0.000000 
 66424384.000000, -0.449851 , 1.194018, 9.611969, 690982336.000000, 0.280000,  0.350000,  0.070000, 0.000000,  0.000000 
 66444032.000000, -0.468993 , 1.179662, 9.609575, 691002624.000000, 0.280000,  0.420000,  0.140000, 0.000000,  0.000000 
 66464640.000000, -0.401994 , 1.174876, 9.597611, 691022336.000000, 0.070000,  0.420000,  0.070000, 0.000000,  0.000000 
 66484032.000000, -0.411566 , 1.234696, 9.635897, 691042944.000000, 0.070000,  0.350000,  0.070000, 0.000000,  0.000000 
 66504000.000000, -0.435494 , 1.184447, 9.633504, 691062272.000000, -0.210000,  0.420000,  0.070000, 0.000000,  0.000000 
 66524288.000000, -0.440279 , 1.122234, 9.638289, 691082304.000000, -0.910000,  0.490000,  0.070000, 0.000000,  0.000000 
 66544000.000000, -0.392423 , 1.162912, 9.580862, 691102592.000000, -1.050000,  0.420000,  0.070000, 0.000000,  0.000000 
 66564544.000000, -0.380459 , 1.229911, 9.621540, 691122240.000000, -0.280000,  0.140000,  0.210000, 0.000000,  0.000000 
 66583936.000000, -0.447458 , 1.153341, 9.652647, 691142848.000000, 0.350000,  0.210000,  0.140000, 0.000000,  0.000000 
 66603968.000000, -0.397209 , 1.215554, 9.611969, 691162240.000000, 0.210000,  0.420000,  0.140000, 0.000000,  0.000000 
 66624256.000000, -0.471386 , 1.217947, 9.588040, 691182208.000000, -0.070000,  0.420000,  0.140000, 0.000000,  0.000000 
 66643904.000000, -0.433101 , 1.146162, 9.619147, 691202560.000000, -0.630000,  0.350000,  0.140000, 0.000000,  0.000000 
 66664512.000000, -0.418744 , 1.155733, 9.652647, 691222208.000000, -1.050000,  0.350000,  0.140000, 0.000000,  0.000000 
 66683904.000000, -0.442672 , 1.153341, 9.647861, 691242816.000000, -1.050000,  0.350000,  0.070000, 0.000000,  0.000000 
 66703872.000000, -0.394816 , 1.208375, 9.597611, 691262208.000000, -0.350000,  0.350000,  0.140000, 0.000000,  0.000000 
 66724224.000000, -0.430708 , 1.220340, 9.588040, 691282176.000000, 0.350000,  0.350000,  0.070000, 0.000000,  0.000000 
 66743872.000000, -0.430708 , 1.174876, 9.611969, 691302464.000000, 0.140000,  0.420000,  0.070000, 0.000000,  0.000000 
 66764480.000000, -0.416351 , 1.134198, 9.621540, 691322176.000000, -0.350000,  0.560000,  0.070000, 0.000000,  0.000000 
 66783872.000000, -0.411566 , 1.179662, 9.652647, 691342720.000000, -0.490000,  0.490000,  0.070000, 0.000000,  0.000000 
 66803840.000000, -0.421137 , 1.249053, 9.609575, 691362112.000000, -0.070000,  0.420000,  0.210000, 0.000000,  0.000000 
 66824128.000000, -0.454636 , 1.170090, 9.664611, 691382144.000000, 0.070000,  0.420000,  0.070000, 0.000000,  0.000000 
 66843840.000000, -0.437887 , 1.179662, 9.621540, 691402432.000000, -0.140000,  0.490000,  0.070000, 0.000000,  0.000000 
 66864384.000000, -0.413958 , 1.244268, 9.578469, 691422080.000000, 0.070000,  0.350000,  0.070000, 0.000000,  0.000000 
 66883776.000000, -0.497707 , 1.220340, 9.614362, 691442688.000000, -0.140000,  0.490000,  0.070000, 0.000000,  0.000000 
 66903808.000000, -0.480957 , 1.127020, 9.600004, 691462080.000000, -0.770000,  0.420000,  0.070000, 0.000000,  0.000000 
 66924096.000000, -0.452243 , 1.131805, 9.645468, 691482048.000000, -0.980000,  0.280000,  0.210000, 0.000000,  0.000000 
 66943744.000000, -0.488136 , 1.196411, 9.647861, 691502400.000000, -0.490000,  0.420000,  0.210000, 0.000000,  0.000000 
 66966272.000000, -0.440279 , 1.253839, 9.595219, 691522048.000000, 0.350000,  0.420000,  0.210000, 0.000000,  0.000000 
 66983744.000000, -0.442672 , 1.203590, 9.614362, 691544576.000000, 0.560000,  0.280000,  0.210000, 0.000000,  0.000000 
 67003712.000000, -0.423530 , 1.155733, 9.628718, 691562048.000000, -0.210000,  0.350000,  0.210000, 0.000000,  0.000000 
 67024064.000000, -0.447458 , 1.215554, 9.585647, 691582016.000000, -0.350000,  0.490000,  0.210000, 0.000000,  0.000000 
 67043712.000000, -0.449851 , 1.194018, 9.621540, 691602304.000000, -0.280000,  0.350000,  -0.070000, 0.000000,  0.000000 
 67064320.000000, -0.437887 , 1.136591, 9.609575, 691622016.000000, -1.050000,  0.350000,  0.070000, 0.000000,  0.000000 
 67083712.000000, -0.404387 , 1.103091, 9.655040, 691642560.000000, -1.330000,  0.280000,  0.070000, 0.000000,  0.000000 
 67103680.000000, -0.435494 , 1.165305, 9.659825, 691661952.000000, -0.210000,  0.070000,  0.280000, 0.000000,  0.000000 
 67123968.000000, -0.447458 , 1.208375, 9.578469, 691681984.000000, 0.980000,  0.420000,  0.210000, 0.000000,  0.000000 
 67143680.000000, -0.461815 , 1.299303, 9.590433, 691702272.000000, 0.980000,  0.630000,  -0.210000, 0.000000,  0.000000 
 67164224.000000, -0.449851 , 1.239482, 9.590433, 691721920.000000, 0.140000,  0.420000,  0.140000, 0.000000,  0.000000 
 67183616.000000, -0.409173 , 1.170090, 9.650253, 691742528.000000, -1.260000,  0.210000,  0.140000, 0.000000,  0.000000 
 67203648.000000, -0.440279 , 1.136591, 9.664611, 691761920.000000, -2.030000,  0.420000,  -0.070000, 0.000000,  0.000000 
 67223936.000000, -0.416351 , 1.170090, 9.607183, 691781888.000000, -1.470000,  0.490000,  -0.140000, 0.000000,  0.000000 
 67243584.000000, -0.416351 , 1.186840, 9.611969, 691802240.000000, -0.490000,  0.490000,  -0.140000, 0.000000,  0.000000 
 67264256.000000, -0.428315 , 1.201197, 9.628718, 691821888.000000, 0.490000,  0.350000,  -0.140000, 0.000000,  0.000000 
 67283584.000000, -0.437887 , 1.229911, 9.597611, 691842496.000000, 0.560000,  0.280000,  0.210000, 0.000000,  0.000000 
 67303552.000000, -0.500100 , 1.170090, 9.628718, 691861888.000000, -0.350000,  0.490000,  0.070000, 517609728.000000,  1008.804871 
 67323904.000000, -0.433101 , 1.153341, 9.609575, 691881856.000000, -0.700000,  0.490000,  -0.070000, 0.000000,  0.000000 
 67343552.000000, -0.433101 , 1.174876, 9.638289, 691902144.000000, -0.630000,  0.350000,  0.140000, 0.000000,  0.000000 
 67364160.000000, -0.485743 , 1.148555, 9.662218, 691921856.000000, -0.490000,  0.420000,  0.070000, 0.000000,  0.000000 
 67383552.000000, -0.459422 , 1.189233, 9.607183, 691942400.000000, -0.350000,  0.490000,  -0.140000, 0.000000,  0.000000 
 67403520.000000, -0.413958 , 1.174876, 9.616754, 691961792.000000, 0.280000,  0.280000,  0.070000, 0.000000,  0.000000 
 67423808.000000, -0.409173 , 1.184447, 9.633504, 691981824.000000, 0.280000,  0.140000,  0.280000, 0.000000,  0.000000 
 67443520.000000, -0.401994 , 1.244268, 9.597611, 692002112.000000, -0.140000,  0.420000,  0.280000, 0.000000,  0.000000 
 67464064.000000, -0.404387 , 1.256232, 9.604790, 692021760.000000, -0.280000,  0.490000,  -0.140000, 0.000000,  0.000000 
 67483456.000000, -0.447458 , 1.167697, 9.628718, 692042368.000000, -0.560000,  0.420000,  -0.140000, 0.000000,  0.000000 
 67503424.000000, -0.435494 , 1.148555, 9.600004, 692061760.000000, -1.190000,  0.350000,  -0.140000, 0.000000,  0.000000 
 67523776.000000, -0.461815 , 1.143769, 9.662218, 692081728.000000, -1.190000,  0.350000,  0.070000, 0.000000,  0.000000 
 67543424.000000, -0.454636 , 1.155733, 9.628718, 692102080.000000, -0.770000,  0.420000,  0.070000, 0.000000,  0.000000 
 67564032.000000, -0.409173 , 1.215554, 9.607183, 692121728.000000, -0.770000,  0.420000,  -0.070000, 0.000000,  0.000000 
 67583424.000000, -0.433101 , 1.239482, 9.604790, 692142336.000000, 0.630000,  0.350000,  0.140000, 0.000000,  0.000000 
 67603392.000000, -0.447458 , 1.198804, 9.638289, 692161664.000000, 0.280000,  0.420000,  0.140000, 0.000000,  0.000000 
 67623680.000000, -0.490529 , 1.191626, 9.604790, 692181696.000000, -0.560000,  0.490000,  0.140000, 0.000000,  0.000000 
 67643392.000000, -0.392423 , 1.177269, 9.621540, 692201984.000000, -0.700000,  0.350000,  0.070000, 0.000000,  0.000000 
 67663936.000000, -0.404387 , 1.160519, 9.631111, 692221632.000000, -0.420000,  0.280000,  0.070000, 0.000000,  0.000000 
 67683328.000000, -0.447458 , 1.167697, 9.592826, 692242240.000000, -0.280000,  0.280000,  -0.070000, 0.000000,  0.000000 
 67703360.000000, -0.401994 , 1.222732, 9.588040, 692261632.000000, -0.070000,  0.350000,  -0.070000, 0.000000,  0.000000 
 67723648.000000, -0.435494 , 1.208375, 9.645468, 692281600.000000, -0.210000,  0.420000,  -0.070000, 0.000000,  0.000000 
 67743296.000000, -0.449851 , 1.148555, 9.638289, 692301952.000000, -0.840000,  0.420000,  0.070000, 0.000000,  0.000000 
 67763904.000000, -0.416351 , 1.203590, 9.611969, 692321600.000000, -0.980000,  0.350000,  0.140000, 0.000000,  0.000000 
 67783296.000000, -0.387637 , 1.170090, 9.635897, 692342208.000000, -0.140000,  0.210000,  0.140000, 0.000000,  0.000000 
 67803264.000000, -0.447458 , 1.170090, 9.628718, 692361600.000000, 0.280000,  0.350000,  0.140000, 0.000000,  0.000000 
 67823616.000000, -0.461815 , 1.249053, 9.623933, 692381568.000000, 0.280000,  0.490000,  -0.140000, 0.000000,  0.000000 
 67843264.000000, -0.437887 , 1.284946, 9.585647, 692401856.000000, 0.350000,  0.560000,  -0.140000, 0.000000,  0.000000 
 67863872.000000, -0.421137 , 1.210768, 9.635897, 692421568.000000, -0.420000,  0.350000,  0.070000, 0.000000,  0.000000 
 67883264.000000, -0.413958 , 1.079163, 9.602397, 692442112.000000, -1.610000,  0.280000,  0.070000, 0.000000,  0.000000 
 67903232.000000, -0.382852 , 1.143769, 9.657433, 692461504.000000, -1.750000,  0.210000,  0.070000, 0.000000,  0.000000 
 67923520.000000, -0.382852 , 1.201197, 9.623933, 692481536.000000, -0.700000,  0.140000,  0.140000, 0.000000,  0.000000 
 67943232.000000, -0.461815 , 1.232304, 9.580862, 692501824.000000, 0.700000,  0.420000,  0.070000, 0.000000,  0.000000 
 67965760.000000, -0.488136 , 1.234696, 9.588040, 692521472.000000, 0.700000,  0.560000,  0.070000, 0.000000,  0.000000 
 67983168.000000, -0.447458 , 1.222732, 9.595219, 692561472.000000, -1.190000,  0.210000,  0.070000, 0.000000,  0.000000 
 68003200.000000, -0.349352 , 1.179662, 9.602397, 0.000000, 0.000000,  0.000000,  0.000000, 0.000000,  0.000000 
 68023488.000000, -0.447458 , 1.131805, 9.633504, 692581440.000000, -1.470000,  0.350000,  0.070000, 0.000000,  0.000000 
 68043136.000000, -0.454636 , 1.122234, 9.621540, 692601792.000000, -1.260000,  0.490000,  -0.210000, 0.000000,  0.000000 
 68063744.000000, -0.442672 , 1.167697, 9.650253, 692621440.000000, -0.560000,  0.420000,  -0.210000, 0.000000,  0.000000 
 68083136.000000, -0.459422 , 1.222732, 9.607183, 692642048.000000, 0.070000,  0.350000,  0.140000, 0.000000,  0.000000 
 68103104.000000, -0.401994 , 1.232304, 9.623933, 692661440.000000, 0.350000,  0.350000,  0.070000, 0.000000,  0.000000 
 68123456.000000, -0.500100 , 1.146162, 9.628718, 692681408.000000, -0.350000,  0.490000,  0.280000, 0.000000,  0.000000 
 68143104.000000, -0.425922 , 1.146162, 9.616754, 692701696.000000, -0.770000,  0.490000,  0.280000, 0.000000,  0.000000 
 68163712.000000, -0.409173 , 1.201197, 9.667004, 692721408.000000, -0.280000,  0.420000,  0.070000, 0.000000,  0.000000 
 68183104.000000, -0.437887 , 1.215554, 9.650253, 692741952.000000, -0.070000,  0.420000,  0.070000, 0.000000,  0.000000 
 68203072.000000, -0.373280 , 1.189233, 9.590433, 692761344.000000, -0.280000,  0.280000,  0.070000, 0.000000,  0.000000 
 68223360.000000, -0.445065 , 1.179662, 9.573684, 692781376.000000, -0.490000,  0.140000,  0.280000, 0.000000,  0.000000 
 68243072.000000, -0.413958 , 1.136591, 9.619147, 692801664.000000, -0.420000,  0.210000,  0.140000, 0.000000,  0.000000 
 68263680.000000, -0.478565 , 1.138984, 9.647861, 692821312.000000, -0.560000,  0.420000,  -0.070000, 0.000000,  0.000000 
 68283008.000000, -0.425922 , 1.174876, 9.611969, 692841984.000000, -0.350000,  0.490000,  -0.140000, 0.000000,  0.000000 
 68303040.000000, -0.447458 , 1.196411, 9.588040, 692861312.000000, -0.210000,  0.210000,  -0.140000, 518609184.000000,  1008.803284 
 68323328.000000, -0.382852 , 1.155733, 9.609575, 692881280.000000, -0.140000,  0.210000,  0.070000, 0.000000,  0.000000 
 68342976.000000, -0.447458 , 1.203590, 9.619147, 692901632.000000, -0.350000,  0.350000,  0.070000, 0.000000,  0.000000 
 68363584.000000, -0.437887 , 1.186840, 9.614362, 692921280.000000, -0.420000,  0.350000,  0.070000, 0.000000,  0.000000 
 68382976.000000, -0.437887 , 1.198804, 9.611969, 692941888.000000, -0.140000,  0.280000,  0.140000, 0.000000,  0.000000 
 68402944.000000, -0.466600 , 1.153341, 9.652647, 692961280.000000, -0.140000,  0.350000,  0.070000, 0.000000,  0.000000 
 68423232.000000, -0.428315 , 1.165305, 9.640682, 692981248.000000, -0.280000,  0.420000,  0.070000, 0.000000,  0.000000 
 68442944.000000, -0.430708 , 1.186840, 9.614362, 693001536.000000, -0.350000,  0.420000,  0.070000, 0.000000,  0.000000 
 68463552.000000, -0.370888 , 1.182054, 9.640682, 693021248.000000, -0.280000,  0.280000,  0.070000, 0.000000,  0.000000 
 68482944.000000, -0.483350 , 1.155733, 9.600004, 693041792.000000, -0.420000,  0.280000,  0.070000, 0.000000,  0.000000 
 68502912.000000, -0.437887 , 1.174876, 9.595219, 693061184.000000, -0.490000,  0.420000,  -0.070000, 0.000000,  0.000000 
 68523200.000000, -0.404387 , 1.189233, 9.631111, 693081216.000000, -0.350000,  0.420000,  0.140000, 0.000000,  0.000000 
 68542912.000000, -0.416351 , 1.134198, 9.647861, 693101504.000000, -0.630000,  0.280000,  0.210000, 0.000000,  0.000000 
 68563456.000000, -0.440279 , 1.158126, 9.604790, 693121152.000000, -0.560000,  0.420000,  0.140000, 0.000000,  0.000000 
 68582848.000000, -0.394816 , 1.184447, 9.667004, 693141760.000000, 0.070000,  0.420000,  0.070000, 0.000000,  0.000000 
 68602880.000000, -0.416351 , 1.222732, 9.633504, 693161152.000000, 0.280000,  0.350000,  0.140000, 0.000000,  0.000000 
 68623168.000000, -0.418744 , 1.237089, 9.643075, 693181120.000000, 0.070000,  0.420000,  0.140000, 0.000000,  0.000000 
 68642816.000000, -0.440279 , 1.287339, 9.600004, 693201408.000000, -0.070000,  0.490000,  0.140000, 0.000000,  0.000000 
 68663424.000000, -0.387637 , 1.213161, 9.590433, 693221120.000000, -0.280000,  0.350000,  0.140000, 0.000000,  0.000000 
 68682816.000000, -0.433101 , 1.153341, 9.652647, 693241728.000000, -1.260000,  0.210000,  0.210000, 0.000000,  0.000000 
 68702784.000000, -0.387637 , 1.074377, 9.650253, 693261120.000000, -1.960000,  0.280000,  0.140000, 0.000000,  0.000000 
 68723072.000000, -0.406780 , 1.177269, 9.619147, 693281088.000000, -0.910000,  0.140000,  0.140000, 0.000000,  0.000000 
 68742784.000000, -0.425922 , 1.241875, 9.585647, 693301376.000000, 0.840000,  0.350000,  0.280000, 0.000000,  0.000000 
 68763392.000000, -0.495314 , 1.318445, 9.604790, 693321088.000000, 1.330000,  0.700000,  -0.070000, 0.000000,  0.000000 
 68782784.000000, -0.418744 , 1.277767, 9.616754, 693341632.000000, 0.490000,  0.560000,  -0.070000, 0.000000,  0.000000 
 68802752.000000, -0.406780 , 1.141376, 9.631111, 693361024.000000, -1.050000,  0.210000,  0.210000, 0.000000,  0.000000 
 68823040.000000, -0.437887 , 1.110270, 9.621540, 693381056.000000, -1.960000,  0.280000,  0.070000, 0.000000,  0.000000 
 68842752.000000, -0.449851 , 1.124627, 9.631111, 693401344.000000, -1.680000,  0.560000,  -0.140000, 0.000000,  0.000000 
 68863296.000000, -0.397209 , 1.146162, 9.585647, 693420992.000000, -0.560000,  0.420000,  -0.140000, 0.000000,  0.000000 
 68882688.000000, -0.435494 , 1.217947, 9.607183, 693441600.000000, 0.350000,  0.350000,  0.070000, 0.000000,  0.000000 
 68902720.000000, -0.397209 , 1.172483, 9.607183, 693460992.000000, 0.420000,  0.280000,  0.140000, 0.000000,  0.000000 
 68923008.000000, -0.440279 , 1.138984, 9.616754, 693480960.000000, -0.280000,  0.350000,  0.210000, 0.000000,  0.000000 
 68942656.000000, -0.397209 , 1.215554, 9.600004, 693501248.000000, -0.630000,  0.490000,  -0.070000, 0.000000,  0.000000 
 68965184.000000, -0.433101 , 1.215554, 9.633504, 693520960.000000, -0.140000,  0.420000,  0.140000, 0.000000,  0.000000 
 68982656.000000, -0.440279 , 1.165305, 9.635897, 693543488.000000, -0.280000,  0.420000,  0.140000, 0.000000,  0.000000 
 69002624.000000, -0.440279 , 1.172483, 9.623933, 693560960.000000, -0.770000,  0.420000,  0.140000, 0.000000,  0.000000 
 69022912.000000, -0.382852 , 1.244268, 9.607183, 693580928.000000, -0.210000,  0.210000,  0.070000, 0.000000,  0.000000 
 69042624.000000, -0.416351 , 1.225125, 9.597611, 693601216.000000, 0.140000,  0.140000,  0.210000, 0.000000,  0.000000 
 69063168.000000, -0.447458 , 1.174876, 9.609575, 693620928.000000, -0.280000,  0.420000,  0.070000, 0.000000,  0.000000 
 69082560.000000, -0.418744 , 1.167697, 9.626326, 693641472.000000, -0.630000,  0.560000,  -0.140000, 0.000000,  0.000000 
 69102592.000000, -0.461815 , 1.189233, 9.609575, 693660864.000000, -0.630000,  0.350000,  -0.140000, 0.000000,  0.000000 
 69122880.000000, -0.461815 , 1.143769, 9.657433, 693680832.000000, -0.700000,  0.280000,  0.070000, 0.000000,  0.000000 
 69142528.000000, -0.428315 , 1.150948, 9.628718, 693701184.000000, -0.700000,  0.280000,  0.070000, 0.000000,  0.000000 
 69163136.000000, -0.449851 , 1.148555, 9.619147, 693720832.000000, -0.420000,  0.280000,  0.140000, 0.000000,  0.000000 
 69182528.000000, -0.382852 , 1.208375, 9.623933, 693741440.000000, 0.140000,  0.420000,  0.140000, 0.000000,  0.000000 
 69202496.000000, -0.452243 , 1.201197, 9.611969, 693760832.000000, 0.490000,  0.420000,  0.140000, 0.000000,  0.000000 
 69222848.000000, -0.399601 , 1.184447, 9.635897, 693780800.000000, 0.210000,  0.420000,  0.070000, 0.000000,  0.000000 
 69242496.000000, -0.473779 , 1.167697, 9.638289, 693801088.000000, -0.490000,  0.420000,  0.070000, 0.000000,  0.000000 
 69263104.000000, -0.430708 , 1.160519, 9.647861, 693820800.000000, -0.560000,  0.420000,  0.140000, 0.000000,  0.000000 
 69282496.000000, -0.425922 , 1.170090, 9.609575, 693860736.000000, -0.070000,  0.420000,  0.140000, 519608640.000000,  1008.800537 
 69302464.000000, -0.452243 , 1.237089, 9.616754, 0.000000, 0.000000,  0.000000,  0.000000, 0.000000,  0.000000 
 69322752.000000, -0.440279 , 1.179662, 9.623933, 693880768.000000, 0.210000,  0.280000,  0.140000, 0.000000,  0.000000 
 69342464.000000, -0.452243 , 1.146162, 9.655040, 693901056.000000, -0.420000,  0.420000,  -0.070000, 0.000000,  0.000000 
 69363008.000000, -0.437887 , 1.179662, 9.611969, 693920704.000000, -0.560000,  0.420000,  0.070000, 0.000000,  0.000000 
 69382400.000000, -0.437887 , 1.158126, 9.619147, 693941312.000000, -0.210000,  0.350000,  0.140000, 0.000000,  0.000000 
 69402432.000000, -0.483350 , 1.244268, 9.585647, 693960704.000000, 0.210000,  0.420000,  0.070000, 0.000000,  0.000000 
 69422720.000000, -0.461815 , 1.205983, 9.621540, 693980672.000000, 0.140000,  0.420000,  0.140000, 0.000000,  0.000000 
 69442368.000000, -0.416351 , 1.167697, 9.616754, 694001024.000000, -0.490000,  0.350000,  -0.070000, 0.000000,  0.000000 
 69463168.000000, -0.430708 , 1.241875, 9.640682, 694020672.000000, -0.490000,  0.280000,  0.140000, 0.000000,  0.000000 
 69482368.000000, -0.461815 , 1.229911, 9.631111, 694041408.000000, -0.140000,  0.420000,  0.070000, 0.000000,  0.000000 
 69502336.000000, -0.428315 , 1.184447, 9.623933, 694060672.000000, -0.350000,  0.420000,  -0.210000, 0.000000,  0.000000 
 69522688.000000, -0.468993 , 1.127020, 9.626326, 694080640.000000, -1.190000,  0.280000,  0.070000, 0.000000,  0.000000 
 69542336.000000, -0.428315 , 1.095913, 9.633504, 694100928.000000, -1.540000,  0.070000,  0.070000, 0.000000,  0.000000 
 69562944.000000, -0.423530 , 1.203590, 9.590433, 694120640.000000, -0.420000,  0.070000,  0.210000, 0.000000,  0.000000 
 69582336.000000, -0.468993 , 1.215554, 9.640682, 694141184.000000, 0.770000,  0.420000,  0.210000, 0.000000,  0.000000 
 69602304.000000, -0.418744 , 1.191626, 9.604790, 694160576.000000, 0.490000,  0.770000,  -0.070000, 0.000000,  0.000000 
 69622592.000000, -0.404387 , 1.234696, 9.643075, 694180608.000000, 0.490000,  0.490000,  0.070000, 0.000000,  0.000000 
 69642304.000000, -0.437887 , 1.196411, 9.616754, 694200896.000000, -0.210000,  0.210000,  0.210000, 0.000000,  0.000000 
 69662848.000000, -0.387637 , 1.179662, 9.609575, 694220544.000000, -0.770000,  0.350000,  0.210000, 0.000000,  0.000000 
 69682240.000000, -0.433101 , 1.179662, 9.638289, 694241152.000000, -0.910000,  0.490000,  -0.070000, 0.000000,  0.000000 
 69702272.000000, -0.433101 , 1.194018, 9.583255, 694260544.000000, -0.560000,  0.490000,  -0.070000, 0.000000,  0.000000 
 69722560.000000, -0.442672 , 1.186840, 9.623933, 694280512.000000, 0.350000,  0.420000,  -0.070000, 0.000000,  0.000000 
 69742208.000000, -0.380459 , 1.184447, 9.614362, 694300864.000000, 0.700000,  0.350000,  0.210000, 0.000000,  0.000000 
 69762816.000000, -0.416351 , 1.232304, 9.626326, 694320512.000000, 0.210000,  0.420000,  0.070000, 0.000000,  0.000000 
 69782208.000000, -0.425922 , 1.186840, 9.626326, 694341120.000000, -0.490000,  0.280000,  0.070000, 0.000000,  0.000000 
 69802176.000000, -0.471386 , 1.182054, 9.631111, 694360512.000000, -0.840000,  0.420000,  0.070000, 0.000000,  0.000000 
 69822464.000000, -0.471386 , 1.213161, 9.616754, 694380480.000000, -0.560000,  0.490000,  -0.140000, 0.000000,  0.000000 
 69842176.000000, -0.464208 , 1.201197, 9.640682, 694400768.000000, -0.350000,  0.350000,  0.070000, 0.000000,  0.000000 
 69862784.000000, -0.406780 , 1.179662, 9.659825, 694420480.000000, -0.560000,  0.210000,  0.210000, 0.000000,  0.000000 
 69882176.000000, -0.406780 , 1.234696, 9.657433, 694441024.000000, -0.350000,  0.210000,  0.140000, 0.000000,  0.000000 
 69902144.000000, -0.449851 , 1.251446, 9.611969, 694460416.000000, 0.140000,  0.490000,  0.070000, 0.000000,  0.000000 
 69922432.000000, -0.452243 , 1.213161, 9.609575, 694480448.000000, 0.140000,  0.700000,  -0.140000, 0.000000,  0.000000 
 69942144.000000, -0.454636 , 1.234696, 9.609575, 694500736.000000, 0.140000,  0.420000,  -0.140000, 0.000000,  0.000000 
 69964672.000000, -0.399601 , 1.201197, 9.626326, 694520384.000000, -0.280000,  0.140000,  0.210000, 0.000000,  0.000000 
 69982080.000000, -0.418744 , 1.155733, 9.676575, 694542976.000000, -0.700000,  0.280000,  0.210000, 0.000000,  0.000000 
 70002112.000000, -0.464208 , 1.150948, 9.609575, 694560384.000000, -0.490000,  0.350000,  -0.140000, 0.000000,  0.000000 
 70022400.000000, -0.430708 , 1.239482, 9.592826, 694580352.000000, 0.420000,  0.420000,  0.070000, 0.000000,  0.000000 
 70042048.000000, -0.464208 , 1.088734, 9.590433, 694600640.000000, 0.980000,  0.490000,  0.070000, 0.000000,  0.000000 
 70062656.000000, -0.404387 , 1.272982, 9.578469, 694620352.000000, 2.450000,  0.980000,  0.070000, 0.000000,  0.000000 
 70082048.000000, -0.440279 , 1.328017, 9.652647, 694640960.000000, 2.100000,  0.490000,  0.070000, 0.000000,  0.000000 
 70102016.000000, -0.464208 , 1.217947, 9.568897, 694660352.000000, 0.420000,  0.490000,  0.280000, 0.000000,  0.000000 
 70122304.000000, -0.476172 , 1.189233, 9.638289, 694680320.000000, -0.910000,  0.560000,  -0.140000, 0.000000,  0.000000 
 70142016.000000, -0.421137 , 1.241875, 9.561719, 694700608.000000, -1.330000,  0.350000,  0.070000, 0.000000,  0.000000 
 70162560.000000, -0.440279 , 1.246661, 9.645468, 694720320.000000, -0.700000,  0.210000,  0.070000, 0.000000,  0.000000 
 70182016.000000, -0.442672 , 1.172483, 9.652647, 694740864.000000, -1.050000,  0.350000,  0.140000, 0.000000,  0.000000 
 70201984.000000, -0.471386 , 1.150948, 9.647861, 694760256.000000, -1.400000,  0.630000,  0.070000, 0.000000,  0.000000 
 70222272.000000, -0.492921 , 1.237089, 9.616754, 694780288.000000, -0.420000,  0.490000,  0.070000, 0.000000,  0.000000 
 70241984.000000, -0.406780 , 1.304088, 9.578469, 694800576.000000, 0.840000,  0.210000,  0.140000, 0.000000,  0.000000 
 70262592.000000, -0.437887 , 1.263410, 9.645468, 694820224.000000, 0.490000,  0.210000,  0.280000, 0.000000,  0.000000 
 70281920.000000, -0.483350 , 1.194018, 9.671788, 694840832.000000, -0.630000,  0.490000,  0.280000, 0.000000,  0.000000 
 70301952.000000, -0.418744 , 1.196411, 9.609575, 694860224.000000, -1.120000,  0.630000,  0.280000, 520608096.000000,  1008.801514 
 70322240.000000, -0.430708 , 1.270589, 9.592826, 694880192.000000, -0.560000,  0.420000,  -0.140000, 0.000000,  0.000000 
 70341888.000000, -0.428315 , 1.160519, 9.590433, 694900480.000000, -0.560000,  0.140000,  0.140000, 0.000000,  0.000000 
 70362496.000000, -0.435494 , 1.158126, 9.650253, 694920192.000000, -1.260000,  0.280000,  0.070000, 0.000000,  0.000000 
 70381888.000000, -0.368495 , 1.162912, 9.638289, 694940736.000000, -1.050000,  0.280000,  0.140000, 0.000000,  0.000000 
 70401856.000000, -0.387637 , 1.253839, 9.595219, 694960192.000000, 0.420000,  0.350000,  0.280000, 0.000000,  0.000000 
 70422272.000000, -0.497707 , 1.287339, 9.588040, 694980160.000000, 1.050000,  0.560000,  -0.070000, 0.000000,  0.000000 
 70441856.000000, -0.449851 , 1.280160, 9.554541, 695000576.000000, 0.840000,  0.420000,  -0.070000, 0.000000,  0.000000 
 70462400.000000, -0.430708 , 1.239482, 9.635897, 695020160.000000, -0.420000,  0.280000,  0.210000, 0.000000,  0.000000 
 70481856.000000, -0.430708 , 1.186840, 9.623933, 695040704.000000, -1.400000,  0.350000,  0.210000, 0.000000,  0.000000 
 70501824.000000, -0.433101 , 1.136591, 9.638289, 695060096.000000, -1.400000,  0.490000,  -0.140000, 0.000000,  0.000000 
 70522112.000000, -0.452243 , 1.184447, 9.633504, 695080128.000000, -0.840000,  0.420000,  -0.070000, 0.000000,  0.000000 
 70541824.000000, -0.468993 , 1.205983, 9.568897, 695100416.000000, -0.070000,  0.350000,  -0.070000, 0.000000,  0.000000 
 70562368.000000, -0.466600 , 1.234696, 9.626326, 695120064.000000, 0.420000,  0.350000,  0.140000, 0.000000,  0.000000 
 70581760.000000, -0.416351 , 1.203590, 9.607183, 695140672.000000, 0.420000,  0.420000,  0.070000, 0.000000,  0.000000 
 70601728.000000, -0.435494 , 1.239482, 9.616754, 695160064.000000, -0.630000,  0.350000,  0.070000, 0.000000,  0.000000 
 70622080.000000, -0.428315 , 1.229911, 9.604790, 695180032.000000, -0.630000,  0.350000,  0.140000, 0.000000,  0.000000 
 70641728.000000, -0.449851 , 1.234696, 9.609575, 695200320.000000, -0.280000,  0.490000,  0.140000, 0.000000,  0.000000 
 70662336.000000, -0.459422 , 1.160519, 9.607183, 695220032.000000, -0.350000,  0.630000,  0.140000, 0.000000,  0.000000 
 70681728.000000, -0.406780 , 1.210768, 9.571291, 695260032.000000, -0.280000,  0.210000,  0.280000, 0.000000,  0.000000 
 70701696.000000, -0.394816 , 1.184447, 9.635897, 0.000000, 0.000000,  0.000000,  0.000000, 0.000000,  0.000000 
 70721984.000000, -0.375673 , 1.232304, 9.628718, 695280000.000000, -0.280000,  0.350000,  0.280000, 0.000000,  0.000000 
 70741696.000000, -0.421137 , 1.225125, 9.616754, 695300288.000000, -0.140000,  0.560000,  -0.140000, 0.000000,  0.000000 
 70762240.000000, -0.423530 , 1.239482, 9.621540, 695320000.000000, -0.140000,  0.490000,  -0.070000, 0.000000,  0.000000 
 70781632.000000, -0.425922 , 1.232304, 9.609575, 695340544.000000, -0.490000,  0.350000,  0.070000, 0.000000,  0.000000 
 70801664.000000, -0.452243 , 1.201197, 9.626326, 695359936.000000, -0.700000,  0.280000,  0.070000, 0.000000,  0.000000 
 70821952.000000, -0.430708 , 1.186840, 9.621540, 695379904.000000, -0.560000,  0.350000,  0.070000, 0.000000,  0.000000 
 70841600.000000, -0.464208 , 1.208375, 9.609575, 695400256.000000, -0.280000,  0.420000,  0.070000, 0.000000,  0.000000 
 70862208.000000, -0.416351 , 1.213161, 9.635897, 695419904.000000, -0.140000,  0.420000,  0.070000, 0.000000,  0.000000 
 70881600.000000, -0.447458 , 1.232304, 9.623933, 695440512.000000, -0.210000,  0.420000,  0.070000, 0.000000,  0.000000 
 70901568.000000, -0.454636 , 1.227518, 9.609575, 695459904.000000, -0.210000,  0.420000,  -0.070000, 0.000000,  0.000000 
 70921920.000000, -0.440279 , 1.246661, 9.616754, 695479872.000000, -0.280000,  0.350000,  0.070000, 0.000000,  0.000000 
 70941568.000000, -0.399601 , 1.244268, 9.597611, 695500160.000000, -0.490000,  0.280000,  0.070000, 0.000000,  0.000000 
 70964096.000000, -0.437887 , 1.229911, 9.638289, 695519872.000000, -0.490000,  0.420000,  0.070000, 0.000000,  0.000000 
 70981568.000000, -0.483350 , 1.189233, 9.633504, 695542400.000000, -0.420000,  0.560000,  0.070000, 0.000000,  0.000000 
 71001536.000000, -0.428315 , 1.239482, 9.664611, 695559808.000000, -0.210000,  0.490000,  0.070000, 0.000000,  0.000000 
 71021824.000000, -0.416351 , 1.198804, 9.602397, 695579840.000000, -0.210000,  0.350000,  0.140000, 0.000000,  0.000000 
 71041536.000000, -0.394816 , 1.213161, 9.640682, 695600128.000000, -0.420000,  0.280000,  0.070000, 0.000000,  0.000000 
 71062080.000000, -0.445065 , 1.143769, 9.647861, 695619776.000000, -0.280000,  0.350000,  0.140000, 0.000000,  0.000000 
 71081472.000000, -0.495314 , 1.201197, 9.655040, 695640384.000000, 0.070000,  0.490000,  0.140000, 0.000000,  0.000000 
 71101504.000000, -0.507278 , 1.277767, 9.588040, 695659776.000000, 0.490000,  0.630000,  -0.210000, 0.000000,  0.000000 
 71121792.000000, -0.394816 , 1.284946, 9.607183, 695679744.000000, 0.700000,  0.350000,  -0.210000, 0.000000,  0.000000 
 71141440.000000, -0.411566 , 1.177269, 9.571291, 695700096.000000, 0.210000,  0.140000,  -0.070000, 0.000000,  0.000000 
 71162048.000000, -0.428315 , 1.098306, 9.616754, 695719744.000000, -1.190000,  0.140000,  0.070000, 0.000000,  0.000000 
 71181440.000000, -0.363709 , 1.138984, 9.628718, 695740352.000000, -1.540000,  0.210000,  -0.070000, 0.000000,  0.000000 
 71201408.000000, -0.409173 , 1.225125, 9.609575, 695759744.000000, -0.070000,  0.280000,  0.140000, 0.000000,  0.000000 
 71221760.000000, -0.421137 , 1.280160, 9.583255, 695779712.000000, 1.330000,  0.420000,  0.140000, 0.000000,  0.000000 
 71241408.000000, -0.480957 , 1.395016, 9.592826, 695800000.000000, 1.330000,  0.490000,  -0.140000, 0.000000,  0.000000 
 71262016.000000, -0.425922 , 1.270589, 9.588040, 695819712.000000, 1.330000,  0.280000,  0.140000, 0.000000,  0.000000 
 71281408.000000, -0.483350 , 1.110270, 9.652647, 695840320.000000, -2.100000,  0.350000,  0.280000, 0.000000,  0.000000 
 71301376.000000, -0.483350 , 1.088734, 9.669396, 695859648.000000, -3.010000,  0.560000,  -0.140000, 521607552.000000,  1008.802246 
 71321664.000000, -0.449851 , 1.201197, 9.621540, 695879680.000000, -1.540000,  0.420000,  -0.070000, 0.000000,  0.000000 
 71341376.000000, -0.471386 , 1.280160, 9.607183, 695899968.000000, 0.070000,  0.210000,  0.070000, 0.000000,  0.000000 
 71361920.000000, -0.433101 , 1.232304, 9.609575, 695919616.000000, 0.420000,  0.210000,  0.140000, 0.000000,  0.000000 
 71381312.000000, -0.454636 , 1.208375, 9.616754, 695940224.000000, -0.070000,  0.350000,  0.280000, 0.000000,  0.000000 
 71401344.000000, -0.454636 , 1.196411, 9.614362, 695959616.000000, -0.490000,  0.490000,  -0.070000, 0.000000,  0.000000 
 71421632.000000, -0.433101 , 1.256232, 9.592826, 695979584.000000, -0.070000,  0.280000,  0.140000, 0.000000,  0.000000 
 71441280.000000, -0.423530 , 1.158126, 9.652647, 695999936.000000, 0.140000,  0.280000,  0.070000, 0.000000,  0.000000 
 71461888.000000, -0.421137 , 1.165305, 9.664611, 696019584.000000, -0.420000,  0.420000,  0.070000, 0.000000,  0.000000 
 71481280.000000, -0.425922 , 1.227518, 9.633504, 696040128.000000, -0.280000,  0.350000,  0.070000, 0.000000,  0.000000 
 71501248.000000, -0.382852 , 1.277767, 9.561719, 696059520.000000, 0.420000,  0.210000,  0.140000, 0.000000,  0.000000 
 71521536.000000, -0.433101 , 1.234696, 9.621540, 696079552.000000, 0.350000,  0.210000,  0.140000, 0.000000,  0.000000 
 71541248.000000, -0.473779 , 1.237089, 9.607183, 696099840.000000, -0.560000,  0.350000,  -0.070000, 0.000000,  0.000000 
 71561792.000000, -0.461815 , 1.208375, 9.626326, 696119552.000000, -1.190000,  0.350000,  -0.070000, 0.000000,  0.000000 
 71581184.000000, -0.425922 , 1.153341, 9.609575, 696140096.000000, -1.330000,  0.350000,  0.140000, 0.000000,  0.000000 
 71601216.000000, -0.452243 , 1.148555, 9.633504, 696159488.000000, -1.120000,  0.350000,  0.070000, 0.000000,  0.000000 
 71621504.000000, -0.421137 , 1.189233, 9.602397, 696179456.000000, -0.210000,  0.280000,  0.070000, 0.000000,  0.000000 
 71641152.000000, -0.485743 , 1.232304, 9.657433, 696199808.000000, 0.630000,  0.350000,  0.140000, 0.000000,  0.000000 
 71661760.000000, -0.437887 , 1.287339, 9.604790, 696219456.000000, 0.700000,  0.420000,  0.140000, 0.000000,  0.000000 
 71681152.000000, -0.433101 , 1.210768, 9.628718, 696240064.000000, 0.280000,  0.210000,  0.070000, 0.000000,  0.000000 
 71701120.000000, -0.488136 , 1.203590, 9.623933, 696259456.000000, -0.770000,  0.420000,  0.210000, 0.000000,  0.000000 
 71721472.000000, -0.413958 , 1.251446, 9.638289, 696279424.000000, -0.630000,  0.560000,  -0.210000, 0.000000,  0.000000 
 71741120.000000, -0.416351 , 1.294517, 9.595219, 696299712.000000, 0.210000,  0.280000,  0.140000, 0.000000,  0.000000 
 71761728.000000, -0.461815 , 1.237089, 9.583255, 696319424.000000, 0.140000,  0.280000,  0.140000, 0.000000,  0.000000 
 71781120.000000, -0.440279 , 1.177269, 9.595219, 696339968.000000, -0.700000,  0.420000,  0.140000, 0.000000,  0.000000 
 71801088.000000, -0.425922 , 1.150948, 9.640682, 696359360.000000, -1.120000,  0.490000,  0.140000, 0.000000,  0.000000 
 71821376.000000, -0.430708 , 1.194018, 9.626326, 696379392.000000, -0.420000,  0.420000,  0.070000, 0.000000,  0.000000 
 71841088.000000, -0.416351 , 1.263410, 9.628718, 696399680.000000, 0.700000,  0.350000,  0.070000, 0.000000,  0.000000 
 71861632.000000, -0.454636 , 1.258625, 9.590433, 696419328.000000, 0.840000,  0.280000,  0.140000, 0.000000,  0.000000 
 71881024.000000, -0.488136 , 1.182054, 9.600004, 696439936.000000, 0.210000,  0.420000,  -0.070000, 0.000000,  0.000000 
 71901056.000000, -0.483350 , 1.268196, 9.604790, 696459328.000000, 0.210000,  0.490000,  -0.140000, 0.000000,  0.000000 
 71921344.000000, -0.433101 , 1.330409, 9.592826, 696479296.000000, 0.280000,  0.420000,  -0.140000, 0.000000,  0.000000 
 71940992.000000, -0.445065 , 1.182054, 9.621540, 696499648.000000, -0.350000,  0.210000,  -0.140000, 0.000000,  0.000000 
 71963520.000000, -0.430708 , 1.107877, 9.643075, 696519296.000000, -1.540000,  0.140000,  0.070000, 0.000000,  0.000000 
 71980992.000000, -0.409173 , 1.074377, 9.623933, 696541824.000000, -1.470000,  0.210000,  0.140000, 0.000000,  0.000000 
 72000960.000000, -0.401994 , 1.239482, 9.585647, 696559296.000000, 0.490000,  0.280000,  0.070000, 0.000000,  0.000000 
 72021312.000000, -0.464208 , 1.375873, 9.573684, 696579264.000000, 2.100000,  0.490000,  0.070000, 0.000000,  0.000000 
 72040960.000000, -0.430708 , 1.414158, 9.559326, 696599552.000000, 1.960000,  0.420000,  -0.140000, 0.000000,  0.000000 
 72061568.000000, -0.416351 , 1.272982, 9.614362, 696619264.000000, 0.210000,  0.280000,  0.070000, 0.000000,  0.000000 
 72080960.000000, -0.447458 , 1.179662, 9.638289, 696639808.000000, -1.890000,  0.350000,  0.210000, 0.000000,  0.000000 
 72100928.000000, -0.447458 , 1.122234, 9.602397, 696659200.000000, -2.730000,  0.560000,  -0.210000, 0.000000,  0.000000 
 72121216.000000, -0.433101 , 1.234696, 9.600004, 696679232.000000, -1.540000,  0.350000,  -0.210000, 0.000000,  0.000000 
 72140928.000000, -0.461815 , 1.246661, 9.645468, 696699520.000000, 0.140000,  0.210000,  0.210000, 0.000000,  0.000000 
 72161472.000000, -0.468993 , 1.265803, 9.616754, 696719168.000000, 0.280000,  0.420000,  0.070000, 0.000000,  0.000000 
 72180864.000000, -0.423530 , 1.239482, 9.621540, 696739776.000000, 0.280000,  0.420000,  0.140000, 0.000000,  0.000000 
 72200896.000000, -0.457029 , 1.217947, 9.604790, 696759168.000000, -0.070000,  0.350000,  0.070000, 0.000000,  0.000000 
 72221184.000000, -0.445065 , 1.210768, 9.662218, 696779136.000000, -0.140000,  0.420000,  0.070000, 0.000000,  0.000000 
 72240832.000000, -0.421137 , 1.225125, 9.619147, 696799488.000000, -0.280000,  0.420000,  0.070000, 0.000000,  0.000000 
 72261504.000000, -0.409173 , 1.249053, 9.621540, 696819136.000000, -0.210000,  0.350000,  0.070000, 0.000000,  0.000000 
 72280832.000000, -0.399601 , 1.213161, 9.602397, 696839744.000000, -0.140000,  0.350000,  0.070000, 0.000000,  0.000000 
 72300800.000000, -0.382852 , 1.280160, 9.588040, 696859136.000000, 0.140000,  0.280000,  0.070000, 522607008.000000,  1008.799744 
 72321152.000000, -0.416351 , 1.270589, 9.619147, 696879104.000000, 0.280000,  0.280000,  0.140000, 0.000000,  0.000000 
 72340800.000000, -0.430708 , 1.270589, 9.614362, 696899392.000000, -0.140000,  0.490000,  0.070000, 0.000000,  0.000000 
 72361408.000000, -0.454636 , 1.167697, 9.614362, 696919104.000000, -0.560000,  0.560000,  -0.070000, 0.000000,  0.000000 
 72380800.000000, -0.459422 , 1.213161, 9.621540, 696939648.000000, -0.700000,  0.420000,  0.070000, 0.000000,  0.000000 
 72400768.000000, -0.464208 , 1.198804, 9.621540, 696959040.000000, -0.490000,  0.280000,  0.070000, 0.000000,  0.000000 
 72421056.000000, -0.390030 , 1.249053, 9.619147, 696979072.000000, -0.070000,  0.280000,  0.070000, 0.000000,  0.000000 
 72440768.000000, -0.433101 , 1.261017, 9.614362, 696999360.000000, 0.140000,  0.350000,  0.210000, 0.000000,  0.000000 
 72461312.000000, -0.433101 , 1.249053, 9.590433, 697019008.000000, 0.070000,  0.560000,  0.070000, 0.000000,  0.000000 
 72480704.000000, -0.411566 , 1.251446, 9.609575, 697039616.000000, -0.140000,  0.490000,  0.140000, 0.000000,  0.000000 
 72500736.000000, -0.425922 , 1.294517, 9.657433, 697059008.000000, -0.350000,  0.350000,  0.070000, 0.000000,  0.000000 
 72521024.000000, -0.428315 , 1.239482, 9.623933, 697078976.000000, -0.280000,  0.350000,  0.070000, 0.000000,  0.000000 
 72540672.000000, -0.409173 , 1.249053, 9.602397, 697099328.000000, -0.070000,  0.490000,  0.070000, 0.000000,  0.000000 
 72561280.000000, -0.382852 , 1.268196, 9.583255, 697118976.000000, 0.350000,  0.420000,  0.070000, 0.000000,  0.000000 
 72580672.000000, -0.413958 , 1.201197, 9.556933, 697139584.000000, 0.840000,  0.490000,  0.070000, 0.000000,  0.000000 
 72600640.000000, -0.483350 , 1.253839, 9.607183, 697158976.000000, 3.290000,  1.400000,  0.140000, 0.000000,  0.000000 
 72620928.000000, -0.473779 , 1.438086, 9.631111, 697178944.000000, 5.040000,  1.260000,  0.140000, 0.000000,  0.000000 
 72640640.000000, -0.373280 , 1.497907, 9.597611, 697199232.000000, 4.130000,  0.350000,  0.350000, 0.000000,  0.000000 
 72661248.000000, -0.423530 , 1.390230, 9.547362, 697218944.000000, 1.540000,  0.210000,  0.210000, 0.000000,  0.000000 
 72680640.000000, -0.524028 , 1.296910, 9.609575, 697239488.000000, -0.910000,  0.560000,  0.140000, 0.000000,  0.000000 
 72700608.000000, -0.440279 , 1.189233, 9.647861, 697258880.000000, -2.660000,  0.630000,  -0.140000, 0.000000,  0.000000 
 72720896.000000, -0.433101 , 1.277767, 9.655040, 697278912.000000, -1.960000,  0.210000,  -0.070000, 0.000000,  0.000000 
 72740608.000000, -0.483350 , 1.339981, 9.600004, 697299200.000000, 0.070000,  0.140000,  0.070000, 0.000000,  0.000000 
 72761152.000000, -0.490529 , 1.287339, 9.621540, 697318848.000000, 0.420000,  0.420000,  -0.070000, 0.000000,  0.000000 
 72780544.000000, -0.425922 , 1.232304, 9.585647, 697339456.000000, -0.420000,  0.350000,  -0.070000, 0.000000,  0.000000 
 72800512.000000, -0.404387 , 1.225125, 9.597611, 697358848.000000, -0.700000,  0.350000,  0.280000, 0.000000,  0.000000 
 72820864.000000, -0.459422 , 1.246661, 9.664611, 697378816.000000, -0.700000,  0.280000,  0.280000, 0.000000,  0.000000 
 72840512.000000, -0.473779 , 1.351945, 9.602397, 697399168.000000, 0.350000,  0.630000,  -0.280000, 0.000000,  0.000000 
 72861120.000000, -0.413958 , 1.375873, 9.564112, 697418816.000000, 0.420000,  0.420000,  0.070000, 0.000000,  0.000000 
 72880512.000000, -0.425922 , 1.249053, 9.578469, 697439360.000000, -0.490000,  0.280000,  0.210000, 0.000000,  0.000000 
 72900480.000000, -0.390030 , 1.258625, 9.597611, 697458752.000000, -1.190000,  0.490000,  -0.070000, 0.000000,  0.000000 
 72920832.000000, -0.454636 , 1.253839, 9.621540, 697478784.000000, -0.770000,  0.420000,  -0.070000, 0.000000,  0.000000 
 72940480.000000, -0.471386 , 1.299303, 9.623933, 697499072.000000, -0.280000,  0.350000,  -0.070000, 0.000000,  0.000000 
 72963008.000000, -0.440279 , 1.284946, 9.559326, 697518720.000000, -0.070000,  0.490000,  -0.070000, 0.000000,  0.000000 
 72980416.000000, -0.471386 , 1.261017, 9.595219, 697541312.000000, -0.070000,  0.350000,  0.070000, 0.000000,  0.000000 
 73000448.000000, -0.468993 , 1.306481, 9.595219, 697578688.000000, -0.280000,  0.490000,  -0.140000, 0.000000,  0.000000 
 73020736.000000, -0.445065 , 1.301696, 9.604790, 0.000000, 0.000000,  0.000000,  0.000000, 0.000000,  0.000000 
 73040384.000000, -0.440279 , 1.344766, 9.643075, 697599040.000000, 0.140000,  0.350000,  0.210000, 0.000000,  0.000000 
 73060992.000000, -0.500100 , 1.316052, 9.609575, 697618688.000000, 0.560000,  0.420000,  0.070000, 0.000000,  0.000000 
 73080384.000000, -0.452243 , 1.311267, 9.590433, 697639296.000000, 0.140000,  0.350000,  -0.070000, 0.000000,  0.000000 
 73100352.000000, -0.437887 , 1.299303, 9.590433, 697658688.000000, 0.140000,  0.280000,  -0.070000, 0.000000,  0.000000 
 73120704.000000, -0.394816 , 1.270589, 9.626326, 697678656.000000, -0.140000,  0.210000,  0.210000, 0.000000,  0.000000 
 73140352.000000, -0.428315 , 1.306481, 9.640682, 697698944.000000, -0.210000,  0.350000,  0.070000, 0.000000,  0.000000 
 73160960.000000, -0.454636 , 1.397408, 9.576077, 697739200.000000, 0.280000,  0.350000,  -0.070000, 0.000000,  0.000000 
 73180352.000000, -0.423530 , 1.318445, 9.571291, 0.000000, 0.000000,  0.000000,  0.000000, 0.000000,  0.000000 
 73200320.000000, -0.454636 , 1.308874, 9.588040, 697778624.000000, -1.050000,  0.350000,  -0.070000, 0.000000,  0.000000 
 73220608.000000, -0.394816 , 1.325624, 9.635897, 0.000000, 0.000000,  0.000000,  0.000000, 0.000000,  0.000000 
 73240320.000000, -0.454636 , 1.272982, 9.597611, 697798912.000000, -0.630000,  0.420000,  0.210000, 0.000000,  0.000000 
 73260928.000000, -0.418744 , 1.289732, 9.611969, 697818560.000000, -0.210000,  0.420000,  0.210000, 0.000000,  0.000000 
 73280256.000000, -0.457029 , 1.325624, 9.592826, 697839232.000000, 0.140000,  0.350000,  0.210000, 0.000000,  0.000000 
 73300288.000000, -0.457029 , 1.316052, 9.602397, 697858560.000000, 0.140000,  0.280000,  0.070000, 523606432.000000,  1008.802368 
 73320576.000000, -0.476172 , 1.275374, 9.616754, 697878528.000000, -0.070000,  0.420000,  -0.070000, 0.000000,  0.000000 
 73340224.000000, -0.425922 , 1.292124, 9.626326, 697898880.000000, -0.070000,  0.420000,  -0.070000, 0.000000,  0.000000 
 73360832.000000, -0.478565 , 1.347159, 9.585647, 697918528.000000, 0.210000,  0.420000,  -0.070000, 0.000000,  0.000000 
 73380224.000000, -0.437887 , 1.304088, 9.626326, 697939136.000000, 0.420000,  0.280000,  -0.070000, 0.000000,  0.000000 
 73400192.000000, -0.418744 , 1.361516, 9.556933, 697958528.000000, 0.070000,  0.210000,  0.140000, 0.000000,  0.000000 
 73420544.000000, -0.452243 , 1.330409, 9.588040, 697978496.000000, -0.210000,  0.420000,  0.140000, 0.000000,  0.000000 
 73440192.000000, -0.401994 , 1.316052, 9.623933, 697998784.000000, -0.700000,  0.490000,  -0.070000, 0.000000,  0.000000 
 73460928.000000, -0.461815 , 1.275374, 9.571291, 698018496.000000, -1.190000,  0.280000,  0.140000, 0.000000,  0.000000 
 73480192.000000, -0.473779 , 1.227518, 9.635897, 698039232.000000, -1.260000,  0.420000,  0.070000, 0.000000,  0.000000 
 73500160.000000, -0.378066 , 1.316052, 9.597611, 698058432.000000, -0.280000,  0.420000,  0.070000, 0.000000,  0.000000 
 73520448.000000, -0.430708 , 1.375873, 9.626326, 698078464.000000, 0.700000,  0.350000,  0.210000, 0.000000,  0.000000 
 73540160.000000, -0.437887 , 1.371087, 9.568897, 698098752.000000, 0.280000,  0.490000,  0.210000, 0.000000,  0.000000 
 73560704.000000, -0.447458 , 1.385444, 9.619147, 698118400.000000, -0.420000,  0.560000,  -0.140000, 0.000000,  0.000000 
 73580096.000000, -0.440279 , 1.258625, 9.611969, 698139008.000000, -1.190000,  0.280000,  0.070000, 0.000000,  0.000000 
 73600128.000000, -0.368495 , 1.275374, 9.614362, 698158400.000000, -1.750000,  0.280000,  -0.070000, 0.000000,  0.000000 
 73620416.000000, -0.382852 , 1.299303, 9.604790, 698178368.000000, -1.120000,  0.140000,  0.070000, 0.000000,  0.000000 
 73640064.000000, -0.413958 , 1.301696, 9.657433, 698198720.000000, -0.070000,  0.140000,  0.350000, 0.000000,  0.000000 
 73660672.000000, -0.500100 , 1.332802, 9.626326, 698218368.000000, 0.280000,  0.630000,  -0.070000, 0.000000,  0.000000 
 73680064.000000, -0.488136 , 1.359123, 9.566505, 698238976.000000, 0.770000,  0.630000,  -0.140000, 0.000000,  0.000000 
 73700032.000000, -0.390030 , 1.383051, 9.609575, 698258368.000000, 0.490000,  0.280000,  0.210000, 0.000000,  0.000000 
 73720384.000000, -0.399601 , 1.330409, 9.597611, 698278336.000000, -0.840000,  0.350000,  0.070000, 0.000000,  0.000000 
 73740032.000000, -0.490529 , 1.184447, 9.645468, 698298624.000000, -2.100000,  0.420000,  0.070000, 0.000000,  0.000000 
 73760640.000000, -0.473779 , 1.172483, 9.619147, 698318336.000000, -2.240000,  0.560000,  0.070000, 0.000000,  0.000000 
 73780032.000000, -0.449851 , 1.308874, 9.566505, 698338880.000000, -0.770000,  0.490000,  -0.140000, 0.000000,  0.000000 
 73800000.000000, -0.480957 , 1.349552, 9.607183, 698358272.000000, 0.980000,  0.140000,  0.210000, 0.000000,  0.000000 
 73820288.000000, -0.442672 , 1.330409, 9.607183, 698378304.000000, 0.700000,  0.210000,  0.140000, 0.000000,  0.000000 
 73840000.000000, -0.447458 , 1.308874, 9.611969, 698398592.000000, -0.210000,  0.350000,  -0.070000, 0.000000,  0.000000 
 73860544.000000, -0.471386 , 1.311267, 9.602397, 698418240.000000, -0.770000,  0.420000,  0.070000, 0.000000,  0.000000 
 73879936.000000, -0.457029 , 1.351945, 9.607183, 698438848.000000, -0.630000,  0.350000,  0.070000, 0.000000,  0.000000 
 73899968.000000, -0.454636 , 1.284946, 9.621540, 698458240.000000, -0.700000,  0.490000,  0.070000, 0.000000,  0.000000 
 73920256.000000, -0.342174 , 1.292124, 9.573684, 698478208.000000, -0.560000,  0.280000,  0.070000, 0.000000,  0.000000 
 73939904.000000, -0.430708 , 1.335195, 9.590433, 698498496.000000, -0.070000,  0.140000,  0.210000, 0.000000,  0.000000 
 73962432.000000, -0.433101 , 1.328017, 9.623933, 698518208.000000, -0.070000,  0.350000,  0.140000, 0.000000,  0.000000 
 73979904.000000, -0.478565 , 1.287339, 9.626326, 698540736.000000, -0.700000,  0.560000,  0.140000, 0.000000,  0.000000 
 73999872.000000, -0.425922 , 1.320838, 9.609575, 698558208.000000, -0.910000,  0.490000,  -0.140000, 0.000000,  0.000000 
 74020160.000000, -0.435494 , 1.296910, 9.616754, 698578176.000000, -0.490000,  0.210000,  0.070000, 0.000000,  0.000000 
 74039872.000000, -0.418744 , 1.344766, 9.588040, 698598464.000000, -0.560000,  0.280000,  0.070000, 0.000000,  0.000000 
 74060480.000000, -0.428315 , 1.289732, 9.590433, 698618176.000000, -0.560000,  0.350000,  0.070000, 0.000000,  0.000000 
 74079872.000000, -0.425922 , 1.275374, 9.600004, 698638720.000000, -0.630000,  0.420000,  0.210000, 0.000000,  0.000000 
 74099840.000000, -0.459422 , 1.296910, 9.604790, 698658112.000000, -0.490000,  0.490000,  -0.070000, 0.000000,  0.000000 
 74120128.000000, -0.409173 , 1.347159, 9.657433, 698678144.000000, -0.070000,  0.420000,  0.070000, 0.000000,  0.000000 
 74139840.000000, -0.440279 , 1.316052, 9.602397, 698698432.000000, -0.070000,  0.350000,  0.070000, 0.000000,  0.000000 
 74160384.000000, -0.471386 , 1.361516, 9.590433, 698718080.000000, -0.210000,  0.280000,  0.070000, 0.000000,  0.000000 
 74179776.000000, -0.433101 , 1.284946, 9.604790, 698738688.000000, -0.490000,  0.350000,  0.140000, 0.000000,  0.000000 
 74199808.000000, -0.447458 , 1.294517, 9.600004, 698758080.000000, -0.700000,  0.490000,  0.140000, 0.000000,  0.000000 
 74220096.000000, -0.440279 , 1.292124, 9.614362, 698778048.000000, -0.420000,  0.490000,  0.070000, 0.000000,  0.000000 
 74239744.000000, -0.464208 , 1.272982, 9.626326, 698798336.000000, -0.560000,  0.490000,  0.280000, 0.000000,  0.000000 
 74260352.000000, -0.406780 , 1.261017, 9.619147, 698818048.000000, -0.840000,  0.420000,  -0.070000, 0.000000,  0.000000 
 74279744.000000, -0.425922 , 1.294517, 9.590433, 698838656.000000, -0.210000,  0.210000,  0.210000, 0.000000,  0.000000 
 74299712.000000, -0.471386 , 1.301696, 9.595219, 698858048.000000, 0.140000,  0.350000,  0.140000, 524605888.000000,  1008.800598 
 74320000.000000, -0.504886 , 1.344766, 9.600004, 698878016.000000, 0.420000,  0.560000,  -0.140000, 0.000000,  0.000000 
 74339712.000000, -0.454636 , 1.359123, 9.561719, 698898304.000000, 0.490000,  0.420000,  -0.070000, 0.000000,  0.000000 
 74360256.000000, -0.423530 , 1.299303, 9.614362, 698918016.000000, -0.490000,  0.140000,  0.140000, 0.000000,  0.000000 
 74379712.000000, -0.430708 , 1.155733, 9.628718, 698938560.000000, -2.030000,  0.140000,  0.070000, 0.000000,  0.000000 
 74399680.000000, -0.404387 , 1.174876, 9.611969, 698957952.000000, -1.820000,  0.210000,  0.070000, 0.000000,  0.000000 
 74419968.000000, -0.425922 , 1.325624, 9.602397, 698977984.000000, 0.070000,  0.280000,  0.140000, 0.000000,  0.000000 
 74439680.000000, -0.471386 , 1.428515, 9.573684, 698998272.000000, 1.820000,  0.280000,  0.070000, 0.000000,  0.000000 
 74460224.000000, -0.521635 , 1.361516, 9.580862, 699017920.000000, 1.470000,  0.490000,  0.070000, 0.000000,  0.000000 
 74479616.000000, -0.461815 , 1.270589, 9.643075, 699038528.000000, -0.490000,  0.420000,  0.070000, 0.000000,  0.000000 
 74499648.000000, -0.466600 , 1.292124, 9.604790, 699057920.000000, -1.470000,  0.280000,  0.070000, 0.000000,  0.000000 
 74519936.000000, -0.428315 , 1.246661, 9.631111, 699077888.000000, -1.470000,  0.280000,  0.070000, 0.000000,  0.000000 
 74539584.000000, -0.483350 , 1.284946, 9.595219, 699098176.000000, -1.120000,  0.420000,  -0.070000, 0.000000,  0.000000 
 74560192.000000, -0.437887 , 1.277767, 9.600004, 699117888.000000, -0.350000,  0.420000,  0.070000, 0.000000,  0.000000 
 74579584.000000, -0.447458 , 1.392623, 9.614362, 699138432.000000, 0.420000,  0.420000,  0.070000, 0.000000,  0.000000 
 74599552.000000, -0.425922 , 1.383051, 9.597611, 699157824.000000, 0.560000,  0.210000,  0.140000, 0.000000,  0.000000 
 74619840.000000, -0.445065 , 1.301696, 9.580862, 699177856.000000, -0.280000,  0.280000,  0.210000, 0.000000,  0.000000 
 74639552.000000, -0.423530 , 1.265803, 9.583255, 699198144.000000, -1.330000,  0.490000,  -0.070000, 0.000000,  0.000000 
 74660096.000000, -0.442672 , 1.263410, 9.609575, 699217792.000000, -1.050000,  0.350000,  -0.070000, 0.000000,  0.000000 
 74679488.000000, -0.464208 , 1.244268, 9.611969, 699238400.000000, -0.630000,  0.280000,  0.070000, 0.000000,  0.000000 
 74699520.000000, -0.433101 , 1.328017, 9.595219, 699257792.000000, -0.280000,  0.350000,  0.070000, 0.000000,  0.000000 
 74719808.000000, -0.378066 , 1.330409, 9.556933, 699277760.000000, -0.280000,  0.140000,  0.210000, 0.000000,  0.000000 
 74739456.000000, -0.430708 , 1.308874, 9.645468, 699298112.000000, -0.070000,  0.140000,  0.210000, 0.000000,  0.000000 
 74760064.000000, -0.471386 , 1.241875, 9.616754, 699317760.000000, -0.630000,  0.560000,  0.210000, 0.000000,  0.000000 
 74779456.000000, -0.442672 , 1.301696, 9.583255, 699338368.000000, -0.490000,  0.630000,  -0.210000, 0.000000,  0.000000 
 74799424.000000, -0.411566 , 1.330409, 9.604790, 699357760.000000, -0.140000,  0.280000,  0.070000, 0.000000,  0.000000 
 74819776.000000, -0.425922 , 1.280160, 9.626326, 699377728.000000, -0.140000,  0.140000,  0.140000, 0.000000,  0.000000 
 74839424.000000, -0.459422 , 1.296910, 9.619147, 699398016.000000, -0.630000,  0.280000,  0.070000, 0.000000,  0.000000 
 74860032.000000, -0.433101 , 1.249053, 9.614362, 699417728.000000, -0.840000,  0.420000,  0.070000, 0.000000,  0.000000 
 74879424.000000, -0.449851 , 1.308874, 9.635897, 699438272.000000, -0.280000,  0.420000,  0.140000, 0.000000,  0.000000 
 74899392.000000, -0.449851 , 1.280160, 9.590433, 699457664.000000, 0.070000,  0.420000,  0.070000, 0.000000,  0.000000 
 74919680.000000, -0.428315 , 1.308874, 9.578469, 699477696.000000, -0.070000,  0.350000,  0.070000, 0.000000,  0.000000 
 74939392.000000, -0.418744 , 1.339981, 9.619147, 699497984.000000, -0.210000,  0.350000,  0.070000, 0.000000,  0.000000 
 74961920.000000, -0.452243 , 1.296910, 9.604790, 699517632.000000, -0.140000,  0.420000,  0.070000, 0.000000,  0.000000 
 74979328.000000, -0.445065 , 1.299303, 9.559326, 699540224.000000, -0.140000,  0.420000,  0.070000, 0.000000,  0.000000 
 74999360.000000, -0.454636 , 1.294517, 9.576077, 699557632.000000, -0.420000,  0.420000,  0.070000, 0.000000,  0.000000 
 75019648.000000, -0.387637 , 1.292124, 9.616754, 699577600.000000, -0.630000,  0.490000,  0.070000, 0.000000,  0.000000 
 75039296.000000, -0.428315 , 1.263410, 9.645468, 699597952.000000, -0.630000,  0.350000,  0.140000, 0.000000,  0.000000 
 75059904.000000, -0.454636 , 1.251446, 9.621540, 699617600.000000, -0.350000,  0.420000,  0.140000, 0.000000,  0.000000 
 75079296.000000, -0.447458 , 1.318445, 9.604790, 699638208.000000, 0.350000,  0.490000,  0.140000, 0.000000,  0.000000 
 75099264.000000, -0.425922 , 1.332802, 9.611969, 699657600.000000, 0.770000,  0.420000,  0.140000, 0.000000,  0.000000 
 75119552.000000, -0.452243 , 1.265803, 9.597611, 699677568.000000, -0.070000,  0.420000,  0.140000, 0.000000,  0.000000 
 75139264.000000, -0.449851 , 1.318445, 9.578469, 699697856.000000, -0.700000,  0.490000,  0.140000, 0.000000,  0.000000 
 75159872.000000, -0.466600 , 1.304088, 9.576077, 699717568.000000, -0.630000,  0.350000,  0.070000, 0.000000,  0.000000 
 75179264.000000, -0.413958 , 1.277767, 9.580862, 699757504.000000, -1.470000,  0.210000,  0.070000, 0.000000,  0.000000 
 75199232.000000, -0.406780 , 1.213161, 9.628718, 0.000000, 0.000000,  0.000000,  0.000000, 0.000000,  0.000000 
 75219520.000000, -0.380459 , 1.241875, 9.633504, 699777536.000000, -0.630000,  0.140000,  0.350000, 0.000000,  0.000000 
 75239232.000000, -0.478565 , 1.342373, 9.607183, 699797824.000000, 0.420000,  0.420000,  0.140000, 0.000000,  0.000000 
 75259840.000000, -0.406780 , 1.366302, 9.571291, 699817472.000000, 1.190000,  0.700000,  -0.070000, 0.000000,  0.000000 
 75279168.000000, -0.421137 , 1.383051, 9.580862, 699838080.000000, 1.050000,  0.420000,  0.070000, 0.000000,  0.000000 
 75299200.000000, -0.454636 , 1.316052, 9.592826, 699857472.000000, -0.210000,  0.210000,  0.070000, 525605344.000000,  1008.802917 
 75319488.000000, -0.435494 , 1.272982, 9.647861, 699877440.000000, -1.470000,  0.210000,  0.070000, 0.000000,  0.000000 
 75339136.000000, -0.387637 , 1.203590, 9.602397, 699897728.000000, -1.890000,  0.490000,  0.070000, 0.000000,  0.000000 
 75359744.000000, -0.454636 , 1.268196, 9.607183, 699917440.000000, -1.190000,  0.560000,  -0.070000, 0.000000,  0.000000 
 75379136.000000, -0.399601 , 1.306481, 9.573684, 699938048.000000, -1.190000,  0.280000,  0.070000, 0.000000,  0.000000 
 75399104.000000, -0.418744 , 1.337588, 9.597611, 699957440.000000, 0.910000,  0.140000,  0.140000, 0.000000,  0.000000 
 75419520.000000, -0.433101 , 1.316052, 9.597611, 699977408.000000, 0.490000,  0.280000,  0.140000, 0.000000,  0.000000 
 75439104.000000, -0.473779 , 1.272982, 9.571291, 699997824.000000, -0.420000,  0.420000,  0.140000, 0.000000,  0.000000 
 75459712.000000, -0.418744 , 1.323231, 9.626326, 700017408.000000, -0.630000,  0.420000,  0.140000, 0.000000,  0.000000 
 75479040.000000, -0.490529 , 1.249053, 9.643075, 700037952.000000, -0.980000,  0.700000,  0.140000, 0.000000,  0.000000 
 75499072.000000, -0.406780 , 1.308874, 9.597611, 700057344.000000, -0.910000,  0.420000,  -0.070000, 0.000000,  0.000000 
 75519360.000000, -0.387637 , 1.311267, 9.547362, 700077376.000000, -0.910000,  0.140000,  0.280000, 0.000000,  0.000000 
 75539072.000000, -0.399601 , 1.342373, 9.609575, 700097664.000000, 0.280000,  0.140000,  0.210000, 0.000000,  0.000000 
 75559616.000000, -0.435494 , 1.275374, 9.619147, 700117312.000000, -0.210000,  0.490000,  0.070000, 0.000000,  0.000000 
 75579008.000000, -0.492921 , 1.342373, 9.619147, 700137920.000000, -0.420000,  0.560000,  -0.070000, 0.000000,  0.000000 
 75599040.000000, -0.430708 , 1.306481, 9.592826, 700157312.000000, -0.630000,  0.490000,  -0.070000, 0.000000,  0.000000 
 75619328.000000, -0.416351 , 1.316052, 9.592826, 700177280.000000, -0.560000,  0.210000,  0.070000, 0.000000,  0.000000 
 75638976.000000, -0.478565 , 1.241875, 9.635897, 700197568.000000, -0.840000,  0.280000,  0.210000, 0.000000,  0.000000 
 75659584.000000, -0.409173 , 1.263410, 9.607183, 700217280.000000, -0.910000,  0.350000,  0.210000, 0.000000,  0.000000 
 75678976.000000, -0.425922 , 1.323231, 9.614362, 700237824.000000, -0.280000,  0.420000,  0.140000, 0.000000,  0.000000 
 75698944.000000, -0.418744 , 1.301696, 9.595219, 700257280.000000, 0.490000,  0.420000,  0.140000, 0.000000,  0.000000 
 75719232.000000, -0.373280 , 1.351945, 9.602397, 700277248.000000, 0.210000,  0.490000,  0.140000, 0.000000,  0.000000 
 75738944.000000, -0.485743 , 1.311267, 9.638289, 700297536.000000, -0.280000,  0.490000,  0.070000, 0.000000,  0.000000 
 75759488.000000, -0.485743 , 1.289732, 9.597611, 700317248.000000, -0.560000,  0.420000,  0.070000, 0.000000,  0.000000 
 75778880.000000, -0.461815 , 1.292124, 9.602397, 700337792.000000, -0.280000,  0.350000,  0.070000, 0.000000,  0.000000 
 75798912.000000, -0.459422 , 1.344766, 9.561719, 700357184.000000, -0.070000,  0.350000,  0.070000, 0.000000,  0.000000 
 75819200.000000, -0.421137 , 1.330409, 9.616754, 700377152.000000, -0.070000,  0.420000,  0.070000, 0.000000,  0.000000 
 75838912.000000, -0.387637 , 1.253839, 9.623933, 700397504.000000, -0.420000,  0.490000,  0.070000, 0.000000,  0.000000 
 75859456.000000, -0.442672 , 1.296910, 9.602397, 700417152.000000, -0.560000,  0.280000,  0.210000, 0.000000,  0.000000 
 75878848.000000, -0.459422 , 1.313660, 9.609575, 700437760.000000, -0.280000,  0.420000,  0.140000, 0.000000,  0.000000 
 75898880.000000, -0.466600 , 1.325624, 9.633504, 700457152.000000, 0.070000,  0.420000,  0.140000, 0.000000,  0.000000 
 75919168.000000, -0.447458 , 1.304088, 9.609575, 700477120.000000, 0.070000,  0.420000,  0.070000, 0.000000,  0.000000 
 75938816.000000, -0.447458 , 1.339981, 9.609575, 700497408.000000, 0.070000,  0.280000,  0.070000, 0.000000,  0.000000 
 75961344.000000, -0.449851 , 1.330409, 9.604790, 700517120.000000, 0.070000,  0.420000,  0.070000, 0.000000,  0.000000 
 75978816.000000, -0.452243 , 1.284946, 9.600004, 700539648.000000, -0.350000,  0.490000,  -0.140000, 0.000000,  0.000000 
 75998784.000000, -0.421137 , 1.256232, 9.616754, 700557120.000000, -0.910000,  0.350000,  -0.140000, 0.000000,  0.000000 
 76019072.000000, -0.440279 , 1.208375, 9.621540, 700577088.000000, -1.120000,  0.210000,  0.070000, 0.000000,  0.000000 
 76038784.000000, -0.375673 , 1.320838, 9.619147, 700597376.000000, -0.210000,  0.070000,  0.210000, 0.000000,  0.000000 
 76059328.000000, -0.495314 , 1.366302, 9.604790, 700617088.000000, 1.050000,  0.350000,  0.140000, 0.000000,  0.000000 
 76078720.000000, -0.490529 , 1.366302, 9.597611, 700637632.000000, 1.190000,  0.630000,  -0.070000, 0.000000,  0.000000 
 76098752.000000, -0.411566 , 1.344766, 9.554541, 700657024.000000, 0.140000,  0.420000,  0.070000, 0.000000,  0.000000 
 76119040.000000, -0.399601 , 1.313660, 9.626326, 700676992.000000, -0.770000,  0.210000,  0.140000, 0.000000,  0.000000 
 76138752.000000, -0.480957 , 1.304088, 9.619147, 700697344.000000, -1.120000,  0.490000,  0.070000, 0.000000,  0.000000 
 76159296.000000, -0.430708 , 1.251446, 9.635897, 700716992.000000, -1.120000,  0.490000,  -0.140000, 0.000000,  0.000000 
 76178688.000000, -0.464208 , 1.268196, 9.561719, 700737600.000000, -1.050000,  0.420000,  0.140000, 0.000000,  0.000000 
 76198656.000000, -0.428315 , 1.316052, 9.600004, 700756992.000000, -0.420000,  0.420000,  -0.070000, 0.000000,  0.000000 
 76219008.000000, -0.447458 , 1.325624, 9.602397, 700776960.000000, 0.280000,  0.350000,  0.140000, 0.000000,  0.000000 
 76238656.000000, -0.488136 , 1.292124, 9.604790, 700797248.000000, 0.280000,  0.350000,  0.070000, 0.000000,  0.000000 
 76259264.000000, -0.430708 , 1.325624, 9.635897, 700816960.000000, -0.210000,  0.280000,  0.070000, 0.000000,  0.000000 
 76278656.000000, -0.459422 , 1.270589, 9.619147, 700837568.000000, -0.490000,  0.280000,  0.070000, 0.000000,  0.000000 
 76298624.000000, -0.488136 , 1.277767, 9.595219, 700856896.000000, -0.420000,  0.420000,  -0.070000, 526604800.000000,  1008.801392 
 76318912.000000, -0.421137 , 1.299303, 9.619147, 700876928.000000, -0.420000,  0.280000,  -0.070000, 0.000000,  0.000000 
 76338624.000000, -0.445065 , 1.325624, 9.604790, 700897216.000000, 0.210000,  0.070000,  0.140000, 0.000000,  0.000000 
 76359168.000000, -0.416351 , 1.371087, 9.633504, 700916864.000000, 0.210000,  0.210000,  0.140000, 0.000000,  0.000000 
 76378560.000000, -0.409173 , 1.361516, 9.623933, 700937472.000000, 0.070000,  0.420000,  0.140000, 0.000000,  0.000000 
 76398592.000000, -0.435494 , 1.335195, 9.604790, 700956864.000000, -0.280000,  0.560000,  -0.070000, 0.000000,  0.000000 
 76418880.000000, -0.457029 , 1.294517, 9.552148, 700976832.000000, -0.630000,  0.350000,  -0.070000, 0.000000,  0.000000 
 76438528.000000, -0.440279 , 1.258625, 9.590433, 700997184.000000, -1.120000,  0.280000,  0.070000, 0.000000,  0.000000 
 76459136.000000, -0.442672 , 1.306481, 9.611969, 701016832.000000, -0.980000,  0.350000,  -0.070000, 0.000000,  0.000000 
 76478528.000000, -0.390030 , 1.304088, 9.597611, 701037440.000000, -0.280000,  0.350000,  0.140000, 0.000000,  0.000000 
 76498496.000000, -0.428315 , 1.323231, 9.588040, 701056832.000000, -0.280000,  0.420000,  0.070000, 0.000000,  0.000000 
 76518848.000000, -0.476172 , 1.335195, 9.588040, 701076800.000000, 0.070000,  0.560000,  0.140000, 0.000000,  0.000000 
 76538496.000000, -0.430708 , 1.289732, 9.614362, 701097088.000000, 0.140000,  0.490000,  0.140000, 0.000000,  0.000000 
 76559104.000000, -0.476172 , 1.337588, 9.621540, 701116800.000000, 0.560000,  0.420000,  0.070000, 0.000000,  0.000000 
 76578496.000000, -0.430708 , 1.363909, 9.611969, 701137344.000000, 0.840000,  0.350000,  0.070000, 0.000000,  0.000000 
 76598464.000000, -0.428315 , 1.385444, 9.609575, 701156736.000000, 0.560000,  0.280000,  0.070000, 0.000000,  0.000000 
 76618752.000000, -0.457029 , 1.330409, 9.578469, 701176768.000000, -0.070000,  0.280000,  0.070000, 0.000000,  0.000000 
 76638464.000000, -0.437887 , 1.351945, 9.607183, 701197056.000000, -0.420000,  0.420000,  0.070000, 0.000000,  0.000000 
 76659008.000000, -0.464208 , 1.320838, 9.619147, 701216704.000000, -0.630000,  0.490000,  0.070000, 0.000000,  0.000000 
 76678400.000000, -0.454636 , 1.294517, 9.597611, 701237312.000000, -0.490000,  0.420000,  0.070000, 0.000000,  0.000000 
 76698432.000000, -0.425922 , 1.342373, 9.573684, 701256704.000000, -0.280000,  0.280000,  0.140000, 0.000000,  0.000000 
 76718720.000000, -0.435494 , 1.304088, 9.631111, 701276672.000000, -0.420000,  0.350000,  0.210000, 0.000000,  0.000000 
 76738368.000000, -0.435494 , 1.318445, 9.650253, 701297024.000000, -0.630000,  0.490000,  0.070000, 0.000000,  0.000000 
 76758976.000000, -0.464208 , 1.320838, 9.568897, 701316672.000000, -0.280000,  0.490000,  0.070000, 0.000000,  0.000000 
 76778368.000000, -0.454636 , 1.399801, 9.595219, 701337216.000000, 0.140000,  0.560000,  -0.070000, 0.000000,  0.000000 
 76798336.000000, -0.411566 , 1.361516, 9.568897, 701356672.000000, -0.070000,  0.280000,  -0.070000, 0.000000,  0.000000 
 76818688.000000, -0.401994 , 1.306481, 9.597611, 701376640.000000, -1.050000,  0.140000,  0.140000, 0.000000,  0.000000 
 76838336.000000, -0.409173 , 1.213161, 9.631111, 701396928.000000, -1.540000,  0.140000,  0.140000, 0.000000,  0.000000 
 76858880.000000, -0.416351 , 1.292124, 9.602397, 701416640.000000, -1.260000,  0.210000,  0.140000, 0.000000,  0.000000 
 76878336.000000, -0.454636 , 1.373480, 9.576077, 701437184.000000, 0.210000,  0.420000,  0.070000, 0.000000,  0.000000 
 76898304.000000, -0.459422 , 1.433301, 9.573684, 701456576.000000, 1.400000,  0.560000,  -0.070000, 0.000000,  0.000000 
 76918592.000000, -0.385244 , 1.328017, 9.576077, 701476544.000000, 0.910000,  0.420000,  0.140000, 0.000000,  0.000000 
 76938304.000000, -0.445065 , 1.304088, 9.595219, 701496896.000000, -1.050000,  0.210000,  0.070000, 0.000000,  0.000000 
 76960832.000000, -0.430708 , 1.261017, 9.628718, 701516544.000000, -2.450000,  0.350000,  0.140000, 0.000000,  0.000000 
 76978240.000000, -0.421137 , 1.265803, 9.600004, 701539072.000000, -2.030000,  0.490000,  -0.140000, 0.000000,  0.000000 
 76998208.000000, -0.449851 , 1.294517, 9.607183, 701556544.000000, -0.840000,  0.420000,  -0.070000, 0.000000,  0.000000 
 77018560.000000, -0.394816 , 1.335195, 9.568897, 701576512.000000, 0.140000,  0.210000,  0.070000, 0.000000,  0.000000 
 77038208.000000, -0.428315 , 1.323231, 9.595219, 701596800.000000, 0.490000,  0.210000,  0.140000, 0.000000,  0.000000 
 77058816.000000, -0.466600 , 1.330409, 9.585647, 701616512.000000, 0.140000,  0.420000,  0.070000, 0.000000,  0.000000 
 77078208.000000, -0.442672 , 1.354338, 9.621540, 701637056.000000, 0.140000,  0.420000,  -0.070000, 0.000000,  0.000000 
 77098176.000000, -0.449851 , 1.337588, 9.580862, 701656448.000000, -0.070000,  0.280000,  0.070000, 0.000000,  0.000000 
 77118464.000000, -0.437887 , 1.261017, 9.645468, 701676480.000000, -0.490000,  0.350000,  -0.070000, 0.000000,  0.000000 
 77138176.000000, -0.454636 , 1.308874, 9.597611, 701696768.000000, -0.700000,  0.490000,  -0.070000, 0.000000,  0.000000 
 77158720.000000, -0.428315 , 1.359123, 9.602397, 701716416.000000, -0.420000,  0.140000,  0.210000, 0.000000,  0.000000 
 77178112.000000, -0.476172 , 1.385444, 9.626326, 701737024.000000, -0.350000,  0.280000,  0.280000, 0.000000,  0.000000 
 77198144.000000, -0.447458 , 1.320838, 9.628718, 701756416.000000, -0.490000,  0.420000,  0.280000, 0.000000,  0.000000 
 77218432.000000, -0.471386 , 1.330409, 9.633504, 701776384.000000, -0.560000,  0.420000,  0.280000, 0.000000,  0.000000 
 77238080.000000, -0.406780 , 1.344766, 9.628718, 701796736.000000, -0.490000,  0.420000,  -0.140000, 0.000000,  0.000000 
 77258752.000000, -0.382852 , 1.325624, 9.619147, 701816384.000000, -0.700000,  0.210000,  0.070000, 0.000000,  0.000000 
 77278080.000000, -0.442672 , 1.294517, 9.611969, 701856384.000000, -0.630000,  0.420000,  0.070000, 527604256.000000,  1008.804871 
 77298048.000000, -0.457029 , 1.320838, 9.592826, 0.000000, 0.000000,  0.000000,  0.000000, 0.000000,  0.000000 
 77318400.000000, -0.430708 , 1.316052, 9.585647, 701876352.000000, -0.140000,  0.420000,  0.070000, 0.000000,  0.000000 
 77338048.000000, -0.461815 , 1.390230, 9.592826, 701896640.000000, 0.140000,  0.350000,  0.070000, 0.000000,  0.000000 
 77358656.000000, -0.397209 , 1.280160, 9.604790, 701916352.000000, -0.140000,  0.350000,  0.070000, 0.000000,  0.000000 
 77378048.000000, -0.449851 , 1.304088, 9.583255, 701936896.000000, -0.350000,  0.350000,  0.070000, 0.000000,  0.000000 
 77398016.000000, -0.476172 , 1.344766, 9.573684, 701956288.000000, -0.210000,  0.350000,  0.070000, 0.000000,  0.000000 
 77418304.000000, -0.473779 , 1.351945, 9.607183, 701976320.000000, -0.070000,  0.350000,  0.070000, 0.000000,  0.000000 
 77438016.000000, -0.464208 , 1.318445, 9.600004, 701996608.000000, 0.070000,  0.280000,  0.070000, 0.000000,  0.000000 
 77458752.000000, -0.464208 , 1.325624, 9.573684, 702016256.000000, -0.210000,  0.420000,  -0.070000, 0.000000,  0.000000 
 77477952.000000, -0.418744 , 1.311267, 9.607183, 702037056.000000, -0.350000,  0.420000,  -0.070000, 0.000000,  0.000000 
 77497984.000000, -0.430708 , 1.311267, 9.609575, 702056256.000000, -0.700000,  0.280000,  0.350000, 0.000000,  0.000000 
 77518272.000000, -0.370888 , 1.239482, 9.600004, 702076224.000000, -0.910000,  0.350000,  0.350000, 0.000000,  0.000000 
 77537920.000000, -0.418744 , 1.323231, 9.583255, 702096576.000000, -0.140000,  0.420000,  0.210000, 0.000000,  0.000000 
 77558528.000000, -0.478565 , 1.366302, 9.602397, 702116224.000000, 0.630000,  0.350000,  0.210000, 0.000000,  0.000000 
 77577920.000000, -0.447458 , 1.442872, 9.568897, 702136832.000000, 0.700000,  0.630000,  -0.140000, 0.000000,  0.000000 
 77597888.000000, -0.454636 , 1.366302, 9.597611, 702156224.000000, 0.210000,  0.350000,  -0.140000, 0.000000,  0.000000 
 77618176.000000, -0.423530 , 1.280160, 9.616754, 702176192.000000, -1.330000,  0.140000,  0.140000, 0.000000,  0.000000 
 77637888.000000, -0.411566 , 1.210768, 9.638289, 702196480.000000, -2.240000,  0.210000,  0.140000, 0.000000,  0.000000 
 77658496.000000, -0.445065 , 1.239482, 9.628718, 702216192.000000, -1.540000,  0.280000,  0.350000, 0.000000,  0.000000 
 77677888.000000, -0.447458 , 1.375873, 9.580862, 702236736.000000, 0.140000,  0.490000,  0.350000, 0.000000,  0.000000 
 77697856.000000, -0.480957 , 1.459622, 9.556933, 702256128.000000, 1.470000,  0.490000,  -0.070000, 0.000000,  0.000000 
 77718144.000000, -0.447458 , 1.385444, 9.590433, 702276160.000000, 1.120000,  0.280000,  0.070000, 0.000000,  0.000000 
 77737856.000000, -0.401994 , 1.342373, 9.623933, 702296448.000000, -0.700000,  0.280000,  0.070000, 0.000000,  0.000000 
 77758400.000000, -0.440279 , 1.301696, 9.611969, 702316096.000000, -1.680000,  0.350000,  0.070000, 0.000000,  0.000000 
 77777792.000000, -0.457029 , 1.244268, 9.621540, 702336704.000000, -1.540000,  0.490000,  0.070000, 0.000000,  0.000000 
 77797824.000000, -0.476172 , 1.316052, 9.600004, 702356096.000000, -0.560000,  0.490000,  -0.070000, 0.000000,  0.000000 
 77818112.000000, -0.390030 , 1.402194, 9.592826, 702376064.000000, 0.490000,  0.280000,  0.070000, 0.000000,  0.000000 
 77837760.000000, -0.449851 , 1.328017, 9.588040, 702396352.000000, 0.490000,  0.140000,  0.140000, 0.000000,  0.000000 
 77858368.000000, -0.392423 , 1.289732, 9.583255, 702416064.000000, -0.420000,  0.350000,  0.140000, 0.000000,  0.000000 
 77877760.000000, -0.421137 , 1.258625, 9.568897, 702436672.000000, -0.910000,  0.420000,  0.070000, 0.000000,  0.000000 
 77897728.000000, -0.435494 , 1.375873, 9.573684, 702456064.000000, -0.560000,  0.490000,  0.070000, 0.000000,  0.000000 
 77918080.000000, -0.421137 , 1.328017, 9.580862, 702476032.000000, -0.560000,  0.350000,  0.070000, 0.000000,  0.000000 
 77937728.000000, -0.404387 , 1.328017, 9.623933, 702496320.000000, -0.140000,  0.210000,  0.070000, 0.000000,  0.000000 
 77960256.000000, -0.445065 , 1.325624, 9.590433, 702516032.000000, -0.280000,  0.280000,  0.070000, 0.000000,  0.000000 
 77977728.000000, -0.418744 , 1.344766, 9.585647, 702538560.000000, 0.140000,  0.280000,  0.140000, 0.000000,  0.000000 
 77997696.000000, -0.413958 , 1.335195, 9.609575, 702555968.000000, 0.140000,  0.490000,  0.070000, 0.000000,  0.000000 
 78017984.000000, -0.447458 , 1.332802, 9.619147, 702576000.000000, -0.350000,  0.490000,  -0.210000, 0.000000,  0.000000 
 78037696.000000, -0.445065 , 1.301696, 9.568897, 702596288.000000, -0.700000,  0.280000,  -0.210000, 0.000000,  0.000000 
 78058240.000000, -0.440279 , 1.272982, 9.614362, 702615936.000000, -0.980000,  0.210000,  0.070000, 0.000000,  0.000000 
 78077632.000000, -0.390030 , 1.292124, 9.614362, 702636544.000000, -0.700000,  0.350000,  0.070000, 0.000000,  0.000000 
 78097664.000000, -0.447458 , 1.344766, 9.600004, 702655936.000000, -0.700000,  0.350000,  0.070000, 0.000000,  0.000000 
 78117952.000000, -0.454636 , 1.361516, 9.566505, 702675904.000000, 0.490000,  0.280000,  0.070000, 0.000000,  0.000000 
 78137600.000000, -0.418744 , 1.301696, 9.609575, 702696192.000000, 0.070000,  0.420000,  0.140000, 0.000000,  0.000000 
 78158208.000000, -0.413958 , 1.292124, 9.588040, 702715904.000000, -0.630000,  0.490000,  0.140000, 0.000000,  0.000000 
 78177600.000000, -0.433101 , 1.332802, 9.616754, 702736448.000000, -0.630000,  0.420000,  0.070000, 0.000000,  0.000000 
 78197568.000000, -0.411566 , 1.375873, 9.588040, 702755840.000000, -0.070000,  0.420000,  0.070000, 0.000000,  0.000000 
 78217856.000000, -0.401994 , 1.366302, 9.580862, 702775872.000000, -0.070000,  0.350000,  0.070000, 0.000000,  0.000000 
 78237568.000000, -0.497707 , 1.344766, 9.590433, 702796160.000000, -0.210000,  0.350000,  0.140000, 0.000000,  0.000000 
 78258176.000000, -0.464208 , 1.292124, 9.633504, 702815808.000000, -0.770000,  0.560000,  0.070000, 0.000000,  0.000000 
 78277504.000000, -0.428315 , 1.301696, 9.600004, 702836480.000000, -0.840000,  0.490000,  0.070000, 0.000000,  0.000000 
 78297536.000000, -0.409173 , 1.337588, 9.583255, 702855808.000000, -0.280000,  0.350000,  0.140000, 528603680.000000,  1008.803528 
 78317824.000000, -0.413958 , 1.356731, 9.633504, 702875776.000000, 0.280000,  0.350000,  0.070000, 0.000000,  0.000000 
 78337536.000000, -0.411566 , 1.328017, 9.611969, 702896128.000000, 0.140000,  0.420000,  0.070000, 0.000000,  0.000000 
 78358080.000000, -0.440279 , 1.301696, 9.585647, 702915776.000000, -0.280000,  0.420000,  0.070000, 0.000000,  0.000000 
 78377472.000000, -0.399601 , 1.380659, 9.590433, 702936384.000000, -0.350000,  0.350000,  0.070000, 0.000000,  0.000000 
 78397440.000000, -0.416351 , 1.411765, 9.628718, 702955776.000000, 0.210000,  0.350000,  0.070000, 0.000000,  0.000000 
 78417792.000000, -0.440279 , 1.330409, 9.600004, 702975744.000000, -0.210000,  0.280000,  0.070000, 0.000000,  0.000000 
 78437440.000000, -0.428315 , 1.282553, 9.578469, 702996032.000000, -1.260000,  0.280000,  0.070000, 0.000000,  0.000000 
 78458048.000000, -0.349352 , 1.237089, 9.628718, 703015744.000000, -1.540000,  0.070000,  0.140000, 0.000000,  0.000000 
 78477440.000000, -0.457029 , 1.311267, 9.604790, 703036288.000000, -0.420000,  0.140000,  0.210000, 0.000000,  0.000000 
 78497408.000000, -0.483350 , 1.438086, 9.592826, 703055680.000000, 0.840000,  0.560000,  -0.070000, 0.000000,  0.000000 
 78517696.000000, -0.454636 , 1.397408, 9.568897, 703075712.000000, 1.120000,  0.560000,  -0.070000, 0.000000,  0.000000 
 78537408.000000, -0.382852 , 1.402194, 9.568897, 703096000.000000, 0.560000,  0.210000,  -0.070000, 0.000000,  0.000000 
 78557952.000000, -0.433101 , 1.351945, 9.600004, 703115648.000000, -0.210000,  0.140000,  -0.070000, 0.000000,  0.000000 
 78577344.000000, -0.466600 , 1.277767, 9.645468, 703136256.000000, -0.770000,  0.280000,  -0.070000, 0.000000,  0.000000 
 78597376.000000, -0.466600 , 1.263410, 9.621540, 703155648.000000, -1.050000,  0.420000,  -0.210000, 0.000000,  0.000000 
 78617664.000000, -0.435494 , 1.308874, 9.568897, 703175616.000000, -0.490000,  0.350000,  -0.140000, 0.000000,  0.000000 
 78637312.000000, -0.471386 , 1.383051, 9.554541, 703195968.000000, 0.630000,  0.210000,  0.070000, 0.000000,  0.000000 
 78657920.000000, -0.476172 , 1.356731, 9.597611, 703215616.000000, 0.840000,  0.140000,  0.070000, 0.000000,  0.000000 
 78677312.000000, -0.452243 , 1.342373, 9.614362, 703236224.000000, 0.210000,  0.210000,  0.140000, 0.000000,  0.000000 
 78697280.000000, -0.418744 , 1.344766, 9.597611, 703255616.000000, -0.350000,  0.420000,  0.070000, 0.000000,  0.000000 
 78717632.000000, -0.452243 , 1.397408, 9.631111, 703275584.000000, -0.280000,  0.420000,  -0.070000, 0.000000,  0.000000 
 78737280.000000, -0.454636 , 1.347159, 9.590433, 703295872.000000, -0.280000,  0.420000,  0.070000, 0.000000,  0.000000 
 78757888.000000, -0.447458 , 1.368695, 9.597611, 703315584.000000, -0.070000,  0.210000,  -0.070000, 0.000000,  0.000000 
 78777280.000000, -0.404387 , 1.368695, 9.592826, 703336128.000000, -0.490000,  0.140000,  0.140000, 0.000000,  0.000000 
 78797248.000000, -0.468993 , 1.339981, 9.573684, 703355520.000000, -0.560000,  0.070000,  0.280000, 0.000000,  0.000000 
 78817536.000000, -0.476172 , 1.328017, 9.635897, 703375552.000000, -0.490000,  0.490000,  0.140000, 0.000000,  0.000000 
 78837248.000000, -0.435494 , 1.325624, 9.554541, 703395840.000000, -0.420000,  0.700000,  -0.210000, 0.000000,  0.000000 
 78857792.000000, -0.387637 , 1.402194, 9.585647, 703415488.000000, -0.140000,  0.420000,  -0.070000, 0.000000,  0.000000 
 78877184.000000, -0.430708 , 1.330409, 9.616754, 703436096.000000, -0.070000,  0.210000,  0.140000, 0.000000,  0.000000 
 78897216.000000, -0.409173 , 1.296910, 9.628718, 703455488.000000, -0.420000,  0.350000,  0.140000, 0.000000,  0.000000 
 78917504.000000, -0.447458 , 1.270589, 9.607183, 703475456.000000, -0.420000,  0.490000,  0.070000, 0.000000,  0.000000 
 78937152.000000, -0.433101 , 1.361516, 9.561719, 703495808.000000, -0.420000,  0.420000,  0.070000, 0.000000,  0.000000 
 78959744.000000, -0.437887 , 1.371087, 9.583255, 703515456.000000, 0.560000,  0.490000,  0.070000, 0.000000,  0.000000 
 78977152.000000, -0.387637 , 1.378266, 9.602397, 703537984.000000, 0.560000,  0.420000,  0.070000, 0.000000,  0.000000 
 78997120.000000, -0.468993 , 1.368695, 9.623933, 703555456.000000, -0.140000,  0.420000,  0.070000, 0.000000,  0.000000 
 79017472.000000, -0.437887 , 1.356731, 9.600004, 703575424.000000, -0.560000,  0.350000,  0.070000, 0.000000,  0.000000 
 79037120.000000, -0.423530 , 1.318445, 9.602397, 703595712.000000, -0.700000,  0.420000,  0.140000, 0.000000,  0.000000 
 79057728.000000, -0.433101 , 1.323231, 9.600004, 703615424.000000, -0.700000,  0.490000,  0.140000, 0.000000,  0.000000 
 79077120.000000, -0.471386 , 1.411765, 9.583255, 703635968.000000, -0.210000,  0.420000,  0.070000, 0.000000,  0.000000 
 79097088.000000, -0.428315 , 1.380659, 9.592826, 703655360.000000, 0.140000,  0.350000,  0.070000, 0.000000,  0.000000 
 79117376.000000, -0.476172 , 1.316052, 9.602397, 703675392.000000, -0.070000,  0.490000,  0.070000, 0.000000,  0.000000 
 79137088.000000, -0.411566 , 1.337588, 9.623933, 703695680.000000, -0.140000,  0.350000,  0.070000, 0.000000,  0.000000 
 79157632.000000, -0.454636 , 1.347159, 9.633504, 703715328.000000, -0.070000,  0.420000,  0.140000, 0.000000,  0.000000 
 79177024.000000, -0.404387 , 1.342373, 9.597611, 703735936.000000, 0.560000,  0.490000,  -0.070000, 0.000000,  0.000000 
 79197056.000000, -0.442672 , 1.320838, 9.535398, 703755328.000000, 1.050000,  0.420000,  0.140000, 0.000000,  0.000000 
 79217344.000000, -0.478565 , 1.471586, 9.611969, 703775296.000000, 3.080000,  0.980000,  0.210000, 0.000000,  0.000000 
 79236992.000000, -0.454636 , 1.555335, 9.573684, 703795584.000000, 2.660000,  0.630000,  -0.140000, 0.000000,  0.000000 
 79257664.000000, -0.490529 , 1.478764, 9.590433, 703815296.000000, 1.260000,  0.420000,  0.210000, 0.000000,  0.000000 
 79276992.000000, -0.442672 , 1.277767, 9.614362, 703835904.000000, -1.680000,  0.350000,  0.210000, 0.000000,  0.000000 
 79296960.000000, -0.382852 , 1.237089, 9.609575, 703855296.000000, -2.800000,  0.420000,  0.210000, 529603136.000000,  1008.801086 
 79317248.000000, -0.390030 , 1.301696, 9.597611, 703875264.000000, -1.330000,  0.140000,  0.140000, 0.000000,  0.000000 
 79336960.000000, -0.445065 , 1.399801, 9.602397, 703895552.000000, 0.630000,  0.350000,  0.070000, 0.000000,  0.000000 
 79357504.000000, -0.449851 , 1.457229, 9.544970, 703915264.000000, 1.400000,  0.560000,  -0.070000, 0.000000,  0.000000 
 79376960.000000, -0.421137 , 1.395016, 9.547362, 703935808.000000, 0.980000,  0.420000,  0.070000, 0.000000,  0.000000 
 79396928.000000, -0.418744 , 1.404587, 9.611969, 703955200.000000, -0.490000,  0.350000,  0.070000, 0.000000,  0.000000 
 79417216.000000, -0.452243 , 1.347159, 9.633504, 703975232.000000, -1.610000,  0.420000,  0.070000, 0.000000,  0.000000 
 79436928.000000, -0.447458 , 1.287339, 9.590433, 703995520.000000, -2.030000,  0.490000,  -0.070000, 0.000000,  0.000000 
 79457472.000000, -0.437887 , 1.330409, 9.576077, 704015168.000000, -1.330000,  0.350000,  -0.070000, 0.000000,  0.000000 
 79476864.000000, -0.468993 , 1.356731, 9.619147, 704035776.000000, -0.210000,  0.280000,  0.140000, 0.000000,  0.000000 
 79496896.000000, -0.437887 , 1.421337, 9.595219, 704055168.000000, 0.420000,  0.420000,  0.070000, 0.000000,  0.000000 
 79517184.000000, -0.435494 , 1.406980, 9.600004, 704075136.000000, 0.560000,  0.420000,  0.140000, 0.000000,  0.000000 
 79536832.000000, -0.425922 , 1.378266, 9.566505, 704095424.000000, 0.070000,  0.420000,  0.140000, 0.000000,  0.000000 
 79557440.000000, -0.425922 , 1.387837, 9.621540, 704115136.000000, -0.490000,  0.420000,  0.140000, 0.000000,  0.000000 
 79576832.000000, -0.466600 , 1.378266, 9.580862, 704135744.000000, -0.630000,  0.420000,  0.140000, 0.000000,  0.000000 
 79596800.000000, -0.406780 , 1.349552, 9.643075, 704155136.000000, -0.560000,  0.420000,  0.140000, 0.000000,  0.000000 
 79617088.000000, -0.454636 , 1.356731, 9.588040, 704175104.000000, -0.490000,  0.350000,  0.140000, 0.000000,  0.000000 
 79636800.000000, -0.406780 , 1.397408, 9.585647, 704195392.000000, 0.070000,  0.210000,  0.140000, 0.000000,  0.000000 
 79657344.000000, -0.413958 , 1.392623, 9.611969, 704215104.000000, 0.350000,  0.420000,  0.070000, 0.000000,  0.000000 
 79676800.000000, -0.471386 , 1.373480, 9.600004, 704235648.000000, -0.280000,  0.490000,  -0.070000, 0.000000,  0.000000 
 79696768.000000, -0.449851 , 1.371087, 9.604790, 704255040.000000, -0.980000,  0.420000,  -0.070000, 0.000000,  0.000000 
 79717056.000000, -0.390030 , 1.349552, 9.621540, 704275072.000000, -1.190000,  0.350000,  0.070000, 0.000000,  0.000000 
 79736768.000000, -0.428315 , 1.378266, 9.595219, 704295360.000000, -0.630000,  0.350000,  0.070000, 0.000000,  0.000000 
 79757312.000000, -0.423530 , 1.411765, 9.588040, 704315008.000000, -0.140000,  0.350000,  0.070000, 0.000000,  0.000000 
 79776704.000000, -0.464208 , 1.368695, 9.573684, 704335616.000000, -0.070000,  0.350000,  0.070000, 0.000000,  0.000000 
 79796736.000000, -0.416351 , 1.366302, 9.609575, 704355008.000000, -0.140000,  0.420000,  0.070000, 0.000000,  0.000000 
 79817024.000000, -0.437887 , 1.378266, 9.635897, 704374976.000000, -0.280000,  0.490000,  0.070000, 0.000000,  0.000000 
 79836672.000000, -0.404387 , 1.368695, 9.626326, 704395264.000000, -0.210000,  0.490000,  0.070000, 0.000000,  0.000000 
 79857280.000000, -0.437887 , 1.430908, 9.568897, 704414976.000000, -0.210000,  0.350000,  -0.070000, 0.000000,  0.000000 
 79876672.000000, -0.423530 , 1.433301, 9.556933, 704435520.000000, -0.210000,  0.210000,  -0.070000, 0.000000,  0.000000 
 79896640.000000, -0.480957 , 1.366302, 9.566505, 704454976.000000, -0.560000,  0.280000,  0.140000, 0.000000,  0.000000 
 79916928.000000, -0.519243 , 1.344766, 9.628718, 704474944.000000, -1.190000,  0.630000,  0.070000, 0.000000,  0.000000 
 79936640.000000, -0.442672 , 1.383051, 9.611969, 704495232.000000, -1.120000,  0.630000,  -0.140000, 0.000000,  0.000000 
 79959168.000000, -0.404387 , 1.428515, 9.588040, 704514944.000000, -0.210000,  0.210000,  0.140000, 0.000000,  0.000000 
 79976576.000000, -0.404387 , 1.392623, 9.623933, 704537472.000000, 0.140000,  0.070000,  0.140000, 0.000000,  0.000000 
 79996608.000000, -0.421137 , 1.385444, 9.614362, 704554880.000000, -0.140000,  0.350000,  0.140000, 0.000000,  0.000000 
 80016896.000000, -0.473779 , 1.356731, 9.592826, 704574848.000000, -0.490000,  0.560000,  0.140000, 0.000000,  0.000000 
 80036544.000000, -0.464208 , 1.464408, 9.571291, 704595200.000000, -0.630000,  0.560000,  -0.280000, 0.000000,  0.000000 
 80057152.000000, -0.430708 , 1.373480, 9.583255, 704614848.000000, -0.350000,  0.210000,  -0.140000, 0.000000,  0.000000 
 80076544.000000, -0.430708 , 1.294517, 9.580862, 704635456.000000, -1.540000,  0.210000,  0.210000, 0.000000,  0.000000 
 80096512.000000, -0.392423 , 1.241875, 9.592826, 704654848.000000, -2.450000,  0.280000,  -0.210000, 0.000000,  0.000000 
 80116864.000000, -0.418744 , 1.371087, 9.602397, 704674816.000000, -1.120000,  0.140000,  -0.210000, 0.000000,  0.000000 
 80136512.000000, -0.473779 , 1.344766, 9.590433, 704695104.000000, 0.630000,  0.070000,  0.350000, 0.000000,  0.000000 
 80157120.000000, -0.476172 , 1.428515, 9.588040, 704714816.000000, 0.910000,  0.560000,  0.350000, 0.000000,  0.000000 
 80176512.000000, -0.454636 , 1.450050, 9.566505, 704735360.000000, 0.560000,  0.420000,  -0.070000, 0.000000,  0.000000 
 80196480.000000, -0.440279 , 1.342373, 9.611969, 704754752.000000, -0.350000,  0.140000,  0.140000, 0.000000,  0.000000 
 80216768.000000, -0.440279 , 1.311267, 9.597611, 704774784.000000, -1.540000,  0.140000,  0.070000, 0.000000,  0.000000 
 80236480.000000, -0.416351 , 1.253839, 9.667004, 704795072.000000, -1.960000,  0.280000,  0.070000, 0.000000,  0.000000 
 80257088.000000, -0.435494 , 1.337588, 9.576077, 704814720.000000, -1.190000,  0.210000,  -0.070000, 0.000000,  0.000000 
 80276416.000000, -0.466600 , 1.375873, 9.566505, 704835392.000000, 0.140000,  0.210000,  0.070000, 0.000000,  0.000000 
 80296448.000000, -0.464208 , 1.337588, 9.614362, 704854720.000000, 0.210000,  0.210000,  0.070000, 530602592.000000,  1008.799133 
 80316736.000000, -0.421137 , 1.304088, 9.657433, 704874688.000000, -0.490000,  0.140000,  0.070000, 0.000000,  0.000000 
 80336384.000000, -0.452243 , 1.380659, 9.583255, 704895040.000000, -0.490000,  0.070000,  0.070000, 0.000000,  0.000000 
 80356992.000000, -0.385244 , 1.359123, 9.635897, 704914688.000000, 0.070000,  0.140000,  0.070000, 0.000000,  0.000000 
 80376384.000000, -0.421137 , 1.361516, 9.583255, 704935296.000000, -0.210000,  0.350000,  0.070000, 0.000000,  0.000000 
 80396352.000000, -0.421137 , 1.380659, 9.566505, 704954688.000000, -0.630000,  0.280000,  -0.140000, 0.000000,  0.000000 
 80416768.000000, -0.394816 , 1.392623, 9.588040, 704974656.000000, -0.280000,  0.280000,  0.070000, 0.000000,  0.000000 
 80436352.000000, -0.397209 , 1.368695, 9.583255, 704995072.000000, -0.490000,  0.210000,  0.070000, 0.000000,  0.000000 
 80456960.000000, -0.404387 , 1.373480, 9.595219, 705035200.000000, -0.840000,  0.350000,  0.070000, 0.000000,  0.000000 
 80476352.000000, -0.464208 , 1.311267, 9.602397, 0.000000, 0.000000,  0.000000,  0.000000, 0.000000,  0.000000 
 80496320.000000, -0.404387 , 1.354338, 9.621540, 705054592.000000, -0.910000,  0.420000,  -0.070000, 0.000000,  0.000000 
 80516608.000000, -0.418744 , 1.378266, 9.621540, 705074624.000000, -0.700000,  0.350000,  -0.070000, 0.000000,  0.000000 
 80536320.000000, -0.440279 , 1.395016, 9.583255, 705094912.000000, -0.420000,  0.280000,  -0.210000, 0.000000,  0.000000 
 80556864.000000, -0.466600 , 1.409373, 9.564112, 705114560.000000, -0.210000,  0.420000,  0.140000, 0.000000,  0.000000 
 80576256.000000, -0.447458 , 1.368695, 9.585647, 705135168.000000, -0.980000,  0.350000,  -0.140000, 0.000000,  0.000000 
 80596288.000000, -0.418744 , 1.385444, 9.621540, 705154560.000000, -1.050000,  0.350000,  0.140000, 0.000000,  0.000000 
 80616576.000000, -0.404387 , 1.342373, 9.583255, 705174528.000000, -0.420000,  0.420000,  0.140000, 0.000000,  0.000000 
 80636224.000000, -0.478565 , 1.318445, 9.597611, 705194816.000000, -0.210000,  0.420000,  -0.070000, 0.000000,  0.000000 
 80656832.000000, -0.404387 , 1.375873, 9.561719, 705214528.000000, -0.070000,  0.420000,  -0.070000, 0.000000,  0.000000 
 80676224.000000, -0.394816 , 1.380659, 9.609575, 705235136.000000, -0.140000,  0.420000,  -0.070000, 0.000000,  0.000000 
 80696192.000000, -0.397209 , 1.311267, 9.559326, 705254528.000000, -0.770000,  0.350000,  -0.210000, 0.000000,  0.000000 
 80716480.000000, -0.423530 , 1.296910, 9.571291, 705274496.000000, -1.120000,  0.210000,  0.070000, 0.000000,  0.000000 
 80736192.000000, -0.507278 , 1.316052, 9.604790, 705294784.000000, -1.050000,  0.350000,  0.140000, 0.000000,  0.000000 
 80756800.000000, -0.464208 , 1.356731, 9.592826, 705314496.000000, -0.980000,  0.630000,  -0.140000, 0.000000,  0.000000 
 80776192.000000, -0.401994 , 1.402194, 9.556933, 705335040.000000, -0.210000,  0.280000,  -0.070000, 0.000000,  0.000000 
 80796160.000000, -0.454636 , 1.325624, 9.616754, 705354432.000000, 0.210000,  0.070000,  0.210000, 0.000000,  0.000000 
 80816448.000000, -0.430708 , 1.339981, 9.561719, 705374400.000000, -0.070000,  0.420000,  0.070000, 0.000000,  0.000000 
 80836160.000000, -0.425922 , 1.421337, 9.602397, 705394752.000000, -0.210000,  0.770000,  -0.210000, 0.000000,  0.000000 
 80856704.000000, -0.471386 , 1.380659, 9.631111, 705414400.000000, -0.210000,  0.490000,  -0.210000, 0.000000,  0.000000 
 80876096.000000, -0.454636 , 1.253839, 9.616754, 705435008.000000, -1.190000,  0.490000,  0.140000, 0.000000,  0.000000 
 80896064.000000, -0.409173 , 1.239482, 9.614362, 705454400.000000, -1.820000,  0.210000,  -0.210000, 0.000000,  0.000000 
 80916416.000000, -0.354138 , 1.292124, 9.614362, 705474368.000000, -1.050000,  -0.140000,  0.490000, 0.000000,  0.000000 
 80936064.000000, -0.449851 , 1.311267, 9.645468, 705494656.000000, -1.050000,  0.210000,  0.140000, 0.000000,  0.000000 
 80958592.000000, -0.445065 , 1.390230, 9.547362, 705514368.000000, 0.770000,  0.700000,  -0.070000, 0.000000,  0.000000 
 80976064.000000, -0.418744 , 1.390230, 9.540184, 705536896.000000, 1.050000,  0.350000,  -0.070000, 0.000000,  0.000000 
 80996032.000000, -0.483350 , 1.349552, 9.580862, 705554304.000000, -0.070000,  0.350000,  0.280000, 0.000000,  0.000000 
 81016320.000000, -0.492921 , 1.284946, 9.592826, 705574336.000000, -1.540000,  0.350000,  -0.140000, 0.000000,  0.000000 
 81036032.000000, -0.418744 , 1.347159, 9.602397, 705594624.000000, -0.350000,  0.700000,  -0.140000, 0.000000,  0.000000 
 81056576.000000, -0.406780 , 1.371087, 9.590433, 705614272.000000, 0.560000,  0.070000,  0.350000, 0.000000,  0.000000 
 81075968.000000, -0.433101 , 1.356731, 9.542577, 705634880.000000, 1.050000,  0.140000,  0.280000, 0.000000,  0.000000 
 81096000.000000, -0.457029 , 1.371087, 9.549755, 705654272.000000, 0.420000,  0.280000,  0.140000, 0.000000,  0.000000 
 81116288.000000, -0.442672 , 1.373480, 9.588040, 705674240.000000, 0.420000,  0.490000,  -0.070000, 0.000000,  0.000000 
 81135936.000000, -0.445065 , 1.339981, 9.609575, 705694592.000000, -0.210000,  0.280000,  0.210000, 0.000000,  0.000000 
 81156544.000000, -0.466600 , 1.277767, 9.616754, 705714240.000000, -0.350000,  0.350000,  0.210000, 0.000000,  0.000000 
 81175936.000000, -0.495314 , 1.311267, 9.628718, 705734848.000000, -0.070000,  0.560000,  -0.070000, 0.000000,  0.000000 
 81195904.000000, -0.382852 , 1.368695, 9.604790, 705754240.000000, 0.840000,  0.490000,  0.350000, 0.000000,  0.000000 
 81216256.000000, -0.390030 , 1.433301, 9.583255, 705774208.000000, 1.050000,  0.140000,  0.490000, 0.000000,  0.000000 
 81235904.000000, -0.433101 , 1.433301, 9.600004, 705794496.000000, 0.840000,  0.560000,  0.350000, 0.000000,  0.000000 
 81256512.000000, -0.445065 , 1.399801, 9.580862, 705814208.000000, 0.210000,  0.770000,  0.210000, 0.000000,  0.000000 
 81275904.000000, -0.385244 , 1.328017, 9.588040, 705854144.000000, -1.120000,  0.560000,  0.700000, 531602048.000000,  1008.801697 
 81295872.000000, -0.413958 , 1.342373, 9.635897, 0.000000, 0.000000,  0.000000,  0.000000, 0.000000,  0.000000 
 81316160.000000, -0.430708 , 1.363909, 9.614362, 705874176.000000, -0.630000,  0.840000,  0.210000, 0.000000,  0.000000 
 81335872.000000, -0.445065 , 1.373480, 9.571291, 705894464.000000, 0.280000,  0.840000,  0.700000, 0.000000,  0.000000 
 81356416.000000, -0.457029 , 1.399801, 9.578469, 705914176.000000, 0.210000,  0.630000,  0.700000, 0.000000,  0.000000 
 81375872.000000, -0.349352 , 1.414158, 9.547362, 705934720.000000, -0.350000,  0.560000,  0.840000, 0.000000,  0.000000 
 81395840.000000, -0.354138 , 1.440479, 9.590433, 705954112.000000, -0.560000,  0.770000,  0.840000, 0.000000,  0.000000 
 81416128.000000, -0.373280 , 1.371087, 9.640682, 705994432.000000, -1.750000,  1.330000,  0.560000, 0.000000,  0.000000 
 81435840.000000, -0.466600 , 1.349552, 9.568897, 0.000000, 0.000000,  0.000000,  0.000000, 0.000000,  0.000000 
 81456576.000000, -0.524028 , 1.363909, 9.621540, 706014080.000000, -1.890000,  1.610000,  0.350000, 0.000000,  0.000000 
 81475776.000000, -0.466600 , 1.323231, 9.578469, 706034816.000000, -1.680000,  1.470000,  0.350000, 0.000000,  0.000000 
 81495744.000000, -0.399601 , 1.373480, 9.590433, 706054080.000000, -1.050000,  0.700000,  0.210000, 0.000000,  0.000000 
 81516096.000000, -0.440279 , 1.428515, 9.530612, 706074048.000000, -0.840000,  0.070000,  0.140000, 0.000000,  0.000000 
 81535744.000000, -0.507278 , 1.351945, 9.583255, 706094336.000000, -1.400000,  0.280000,  -0.140000, 0.000000,  0.000000 
 81556352.000000, -0.488136 , 1.265803, 9.621540, 706114048.000000, -2.520000,  0.420000,  -0.630000, 0.000000,  0.000000 
 81575744.000000, -0.401994 , 1.296910, 9.655040, 706134592.000000, -2.660000,  0.280000,  -0.490000, 0.000000,  0.000000 
 81595712.000000, -0.454636 , 1.339981, 9.614362, 706153984.000000, -1.610000,  0.070000,  -0.350000, 0.000000,  0.000000 
 81616000.000000, -0.519243 , 1.373480, 9.590433, 706174016.000000, -0.560000,  0.350000,  -0.420000, 0.000000,  0.000000 
 81635712.000000, -0.468993 , 1.335195, 9.597611, 706194304.000000, -0.560000,  0.420000,  -0.700000, 0.000000,  0.000000 
 81656256.000000, -0.437887 , 1.318445, 9.583255, 706214016.000000, -1.050000,  -0.070000,  -0.210000, 0.000000,  0.000000 
 81675648.000000, -0.440279 , 1.261017, 9.585647, 706234560.000000, -1.400000,  -0.070000,  -0.070000, 0.000000,  0.000000 
 81695680.000000, -0.394816 , 1.256232, 9.600004, 706253952.000000, -0.630000,  0.070000,  -0.070000, 0.000000,  0.000000 
 81715968.000000, -0.392423 , 1.287339, 9.616754, 706273920.000000, 0.280000,  0.140000,  0.140000, 0.000000,  0.000000 
 81735616.000000, -0.430708 , 1.342373, 9.583255, 706294272.000000, 0.770000,  0.280000,  0.350000, 0.000000,  0.000000 
 81756224.000000, -0.480957 , 1.330409, 9.604790, 706313920.000000, 0.980000,  0.630000,  0.140000, 0.000000,  0.000000 
 81775616.000000, -0.471386 , 1.416551, 9.578469, 706334528.000000, 1.540000,  0.560000,  0.070000, 0.000000,  0.000000 
 81795584.000000, -0.468993 , 1.402194, 9.592826, 706353920.000000, 1.330000,  0.490000,  0.280000, 0.000000,  0.000000 
 81815872.000000, -0.471386 , 1.330409, 9.614362, 706373888.000000, -0.210000,  0.350000,  0.070000, 0.000000,  0.000000 
 81835584.000000, -0.394816 , 1.258625, 9.655040, 706394176.000000, -1.190000,  0.350000,  0.280000, 0.000000,  0.000000 
 81856128.000000, -0.461815 , 1.261017, 9.578469, 706413888.000000, -0.910000,  0.490000,  0.280000, 0.000000,  0.000000 
 81875584.000000, -0.473779 , 1.423729, 9.554541, 706434432.000000, 0.490000,  0.560000,  -0.070000, 0.000000,  0.000000 
 81895552.000000, -0.442672 , 1.471586, 9.583255, 706453824.000000, 1.470000,  0.210000,  0.070000, 0.000000,  0.000000 
 81915840.000000, -0.485743 , 1.347159, 9.631111, 706473856.000000, 0.280000,  0.070000,  0.280000, 0.000000,  0.000000 
 81935552.000000, -0.471386 , 1.359123, 9.640682, 706494144.000000, -1.190000,  0.350000,  -0.140000, 0.000000,  0.000000 
 81958080.000000, -0.406780 , 1.337588, 9.559326, 706513792.000000, -1.120000,  0.420000,  -0.280000, 0.000000,  0.000000 
 81975488.000000, -0.471386 , 1.347159, 9.568897, 706536320.000000, -0.630000,  0.280000,  -0.140000, 0.000000,  0.000000 
 81995520.000000, -0.466600 , 1.337588, 9.628718, 706553792.000000, -0.630000,  0.210000,  -0.210000, 0.000000,  0.000000 
 82015808.000000, -0.454636 , 1.311267, 9.588040, 706573760.000000, -0.420000,  0.210000,  -0.210000, 0.000000,  0.000000 
 82035456.000000, -0.437887 , 1.361516, 9.611969, 706594112.000000, -0.420000,  0.280000,  -0.210000, 0.000000,  0.000000 
 82056064.000000, -0.459422 , 1.378266, 9.592826, 706613760.000000, 0.840000,  0.210000,  -0.140000, 0.000000,  0.000000 
 82075456.000000, -0.435494 , 1.395016, 9.585647, 706634368.000000, 1.050000,  0.140000,  -0.070000, 0.000000,  0.000000 
 82095424.000000, -0.459422 , 1.328017, 9.607183, 706673728.000000, 0.070000,  0.490000,  -0.140000, 0.000000,  0.000000 
 82115776.000000, -0.500100 , 1.354338, 9.600004, 0.000000, 0.000000,  0.000000,  0.000000, 0.000000,  0.000000 
 82135424.000000, -0.452243 , 1.339981, 9.588040, 706694016.000000, 0.070000,  0.490000,  -0.070000, 0.000000,  0.000000 
 82156032.000000, -0.437887 , 1.380659, 9.600004, 706713728.000000, 0.070000,  0.350000,  -0.070000, 0.000000,  0.000000 
