 Acc_timestamp,Accx,Accy,Accz,Gyro_timestamp,Gyrox,Gyroy,Gyroz,Baro_timestamp,Pressure_Reading
 166771056.000000, -0.421137 , 3.847659, 8.870193, 298300960.000000, -0.070000,  0.280000,  0.070000, 0.000000,  0.000000 
 166791344.000000, -0.378066 , 3.833302, 8.901299, 298320928.000000, -0.350000,  0.280000,  0.070000, 0.000000,  0.000000 
 166811024.000000, -0.392423 , 3.835695, 8.908479, 298341248.000000, -0.490000,  0.420000,  0.070000, 0.000000,  0.000000 
 166831024.000000, -0.399601 , 3.792624, 8.908479, 298360928.000000, -0.490000,  0.420000,  0.070000, 0.000000,  0.000000 
 166851024.000000, -0.394816 , 3.838088, 8.930015, 298380896.000000, -0.280000,  0.280000,  0.140000, 0.000000,  0.000000 
 166870992.000000, -0.382852 , 3.838088, 8.922836, 298400896.000000, -0.140000,  0.350000,  0.210000, 0.000000,  0.000000 
 166891312.000000, -0.466600 , 3.864408, 8.865408, 298420896.000000, 0.140000,  0.560000,  -0.210000, 0.000000,  0.000000 
 166910992.000000, -0.411566 , 3.907479, 8.896514, 298441184.000000, 0.280000,  0.490000,  -0.280000, 0.000000,  0.000000 
 166930960.000000, -0.385244 , 3.823731, 8.903693, 298460864.000000, -0.700000,  0.350000,  0.070000, 0.000000,  0.000000 
 166950960.000000, -0.423530 , 3.716053, 8.951550, 298480832.000000, -2.170000,  0.210000,  0.210000, 0.000000,  0.000000 
 166970960.000000, -0.406780 , 3.730411, 8.956335, 298500832.000000, -2.030000,  0.280000,  0.140000, 0.000000,  0.000000 
 166991248.000000, -0.363709 , 3.823731, 8.951550, 298520832.000000, -0.070000,  0.210000,  0.140000, 0.000000,  0.000000 
 167010928.000000, -0.378066 , 3.878766, 8.843873, 298541120.000000, 1.400000,  0.350000,  0.070000, 0.000000,  0.000000 
 167030928.000000, -0.447458 , 3.885944, 8.882158, 298560800.000000, 1.330000,  0.420000,  -0.070000, 0.000000,  0.000000 
 167050896.000000, -0.373280 , 3.900301, 8.896514, 298580800.000000, 0.210000,  0.420000,  -0.070000, 0.000000,  0.000000 
 167070896.000000, -0.404387 , 3.840480, 8.937192, 298600768.000000, -1.050000,  0.350000,  0.070000, 0.000000,  0.000000 
 167091184.000000, -0.435494 , 3.730411, 8.956335, 298620768.000000, -1.890000,  0.420000,  0.070000, 0.000000,  0.000000 
 167110864.000000, -0.368495 , 3.751946, 8.953942, 298641056.000000, -1.610000,  0.420000,  -0.070000, 0.000000,  0.000000 
 167130864.000000, -0.380459 , 3.799802, 8.939585, 298660736.000000, -0.560000,  0.350000,  -0.070000, 0.000000,  0.000000 
 167150864.000000, -0.375673 , 3.811767, 8.913264, 298700736.000000, 0.560000,  0.350000,  0.070000, 298700000.000000,  1008.919495 
 167170832.000000, -0.373280 , 3.833302, 8.894121, 0.000000, 0.000000,  0.000000,  0.000000, 0.000000,  0.000000 
 167191152.000000, -0.375673 , 3.823731, 8.939585, 298720736.000000, 0.560000,  0.280000,  0.140000, 0.000000,  0.000000 
 167210832.000000, -0.387637 , 3.828516, 8.925228, 298760704.000000, -0.210000,  0.490000,  -0.070000, 0.000000,  0.000000 
 167230800.000000, -0.433101 , 3.842873, 8.927622, 0.000000, 0.000000,  0.000000,  0.000000, 0.000000,  0.000000 
 167250832.000000, -0.404387 , 3.799802, 8.906086, 298780704.000000, -0.560000,  0.490000,  -0.070000, 0.000000,  0.000000 
 167270800.000000, -0.378066 , 3.840480, 8.877372, 298800704.000000, -0.840000,  0.280000,  0.140000, 0.000000,  0.000000 
 167291088.000000, -0.385244 , 3.826123, 8.925228, 298820672.000000, -0.420000,  0.210000,  0.210000, 0.000000,  0.000000 
 167310768.000000, -0.385244 , 3.838088, 8.949157, 298840960.000000, -0.070000,  0.350000,  0.070000, 0.000000,  0.000000 
 167330768.000000, -0.358923 , 3.842873, 8.941978, 298860640.000000, -0.070000,  0.420000,  -0.070000, 0.000000,  0.000000 
 167350736.000000, -0.349352 , 3.811767, 8.886944, 298880640.000000, -0.420000,  0.420000,  -0.070000, 0.000000,  0.000000 
 167370736.000000, -0.378066 , 3.818945, 8.930015, 298900608.000000, -0.840000,  0.350000,  -0.070000, 0.000000,  0.000000 
 167391024.000000, -0.413958 , 3.771089, 8.932407, 298920608.000000, -0.980000,  0.420000,  0.070000, 0.000000,  0.000000 
 167410704.000000, -0.387637 , 3.783052, 8.937192, 298940896.000000, -0.770000,  0.350000,  0.070000, 0.000000,  0.000000 
 167430704.000000, -0.437887 , 3.814159, 8.970692, 298960608.000000, -0.350000,  0.350000,  0.070000, 0.000000,  0.000000 
 167450704.000000, -0.409173 , 3.828516, 8.858230, 298980576.000000, 0.070000,  0.350000,  0.070000, 0.000000,  0.000000 
 167470672.000000, -0.394816 , 3.778267, 8.903693, 299000576.000000, 0.070000,  0.420000,  0.070000, 0.000000,  0.000000 
 167490992.000000, -0.361316 , 3.802195, 8.886944, 299020544.000000, -0.350000,  0.350000,  0.070000, 0.000000,  0.000000 
 167510672.000000, -0.399601 , 3.821337, 8.930015, 299040864.000000, -0.350000,  0.420000,  0.070000, 0.000000,  0.000000 
 167530640.000000, -0.380459 , 3.806981, 8.901299, 299060544.000000, -0.140000,  0.420000,  0.070000, 0.000000,  0.000000 
 167550640.000000, -0.354138 , 3.838088, 8.908479, 299080512.000000, -0.140000,  0.350000,  0.070000, 0.000000,  0.000000 
 167570608.000000, -0.385244 , 3.806981, 8.927622, 299100512.000000, -0.210000,  0.350000,  0.070000, 0.000000,  0.000000 
 167590928.000000, -0.339781 , 3.818945, 8.944371, 299120480.000000, -0.420000,  0.420000,  0.070000, 0.000000,  0.000000 
 167610608.000000, -0.390030 , 3.783052, 8.886944, 299140800.000000, -0.700000,  0.490000,  0.070000, 0.000000,  0.000000 
 167630576.000000, -0.358923 , 3.818945, 8.927622, 299160480.000000, -0.700000,  0.420000,  0.070000, 0.000000,  0.000000 
 167650576.000000, -0.370888 , 3.823731, 8.927622, 299200448.000000, -0.280000,  0.350000,  0.140000, 0.000000,  0.000000 
 167670576.000000, -0.368495 , 3.828516, 8.949157, 0.000000, 0.000000,  0.000000,  0.000000, 0.000000,  0.000000 
 167690864.000000, -0.392423 , 3.885944, 8.946764, 299220448.000000, 0.070000,  0.420000,  0.140000, 0.000000,  0.000000 
 167710544.000000, -0.423530 , 3.917051, 8.908479, 299240736.000000, 0.280000,  0.560000,  -0.350000, 0.000000,  0.000000 
 167730544.000000, -0.356531 , 3.873980, 8.908479, 299260416.000000, -0.210000,  0.490000,  -0.350000, 0.000000,  0.000000 
 167750512.000000, -0.358923 , 3.739982, 8.934800, 299280416.000000, -1.610000,  0.210000,  0.210000, 0.000000,  0.000000 
 167770512.000000, -0.390030 , 3.730411, 8.939585, 299300384.000000, -1.960000,  0.210000,  0.280000, 0.000000,  0.000000 
 167790832.000000, -0.437887 , 3.797409, 8.913264, 299320384.000000, -0.630000,  0.210000,  0.280000, 0.000000,  0.000000 
 167810480.000000, -0.452243 , 3.862016, 8.927622, 299340704.000000, 0.910000,  0.350000,  0.070000, 0.000000,  0.000000 
 167830480.000000, -0.363709 , 3.890730, 8.865408, 299360352.000000, 1.400000,  0.420000,  -0.070000, 0.000000,  0.000000 
 167850448.000000, -0.382852 , 3.883551, 8.877372, 299380352.000000, 0.770000,  0.420000,  0.070000, 0.000000,  0.000000 
 167870448.000000, -0.378066 , 3.847659, 8.882158, 299400352.000000, -0.210000,  0.350000,  0.070000, 0.000000,  0.000000 
 167890768.000000, -0.399601 , 3.737589, 8.927622, 299420320.000000, -1.330000,  0.490000,  0.070000, 0.000000,  0.000000 
 167910416.000000, -0.390030 , 3.737589, 8.951550, 299440640.000000, -1.610000,  0.420000,  0.070000, 0.000000,  0.000000 
 167930416.000000, -0.416351 , 3.797409, 8.922836, 299460320.000000, -0.980000,  0.350000,  0.070000, 0.000000,  0.000000 
 167950416.000000, -0.397209 , 3.821337, 8.901299, 299480288.000000, -0.980000,  0.350000,  0.070000, 0.000000,  0.000000 
 167970384.000000, -0.385244 , 3.833302, 8.894121, 299500288.000000, 0.560000,  0.280000,  0.140000, 0.000000,  0.000000 
 167990704.000000, -0.378066 , 3.806981, 8.898908, 299520288.000000, 0.210000,  0.350000,  0.140000, 0.000000,  0.000000 
 168010384.000000, -0.409173 , 3.852444, 8.910872, 299540576.000000, -0.070000,  0.350000,  0.070000, 0.000000,  0.000000 
 168030352.000000, -0.411566 , 3.866802, 8.930015, 299560256.000000, -0.070000,  0.420000,  0.070000, 0.000000,  0.000000 
 168050352.000000, -0.406780 , 3.816552, 8.913264, 299580256.000000, -0.350000,  0.490000,  0.070000, 0.000000,  0.000000 
 168070352.000000, -0.337388 , 3.773481, 8.939585, 299600224.000000, -0.700000,  0.280000,  0.140000, 0.000000,  0.000000 
 168090640.000000, -0.380459 , 3.811767, 8.906086, 299620224.000000, -0.630000,  0.210000,  0.280000, 0.000000,  0.000000 
 168110320.000000, -0.385244 , 3.847659, 8.932407, 299640544.000000, -0.140000,  0.140000,  0.210000, 0.000000,  0.000000 
 168130320.000000, -0.363709 , 3.842873, 8.903693, 299660192.000000, 0.140000,  0.350000,  0.140000, 0.000000,  0.000000 
 168150288.000000, -0.366102 , 3.845266, 8.908479, 299700192.000000, -0.280000,  0.420000,  -0.070000, 299699456.000000,  1008.918030 
 168170288.000000, -0.390030 , 3.840480, 8.889337, 0.000000, 0.000000,  0.000000,  0.000000, 0.000000,  0.000000 
 168190576.000000, -0.390030 , 3.797409, 8.920443, 299720160.000000, -0.560000,  0.350000,  -0.070000, 0.000000,  0.000000 
 168210256.000000, -0.413958 , 3.795017, 8.910872, 299740480.000000, -0.490000,  0.350000,  0.070000, 0.000000,  0.000000 
 168230256.000000, -0.370888 , 3.826123, 8.922836, 299760160.000000, -0.420000,  0.280000,  0.140000, 0.000000,  0.000000 
 168250288.000000, -0.342174 , 3.840480, 8.949157, 299780128.000000, -0.280000,  0.280000,  0.070000, 0.000000,  0.000000 
 168270224.000000, -0.356531 , 3.847659, 8.894121, 299800160.000000, -0.210000,  0.420000,  0.070000, 0.000000,  0.000000 
 168290544.000000, -0.344566 , 3.826123, 8.910872, 299820096.000000, -0.210000,  0.420000,  0.070000, 0.000000,  0.000000 
 168310224.000000, -0.404387 , 3.826123, 8.915657, 299840416.000000, -0.280000,  0.420000,  0.070000, 0.000000,  0.000000 
 168330192.000000, -0.406780 , 3.842873, 8.920443, 299860096.000000, -0.210000,  0.350000,  0.070000, 0.000000,  0.000000 
 168350192.000000, -0.397209 , 3.797409, 8.903693, 299880064.000000, -0.070000,  0.280000,  0.070000, 0.000000,  0.000000 
 168370192.000000, -0.373280 , 3.838088, 8.872586, 299900064.000000, -0.070000,  0.420000,  0.070000, 0.000000,  0.000000 
 168390576.000000, -0.397209 , 3.811767, 8.894121, 299920064.000000, -0.140000,  0.350000,  0.070000, 0.000000,  0.000000 
 168410160.000000, -0.404387 , 3.833302, 8.896514, 299940480.000000, -0.420000,  0.350000,  0.140000, 0.000000,  0.000000 
 168430160.000000, -0.399601 , 3.862016, 8.918050, 299960032.000000, -0.560000,  0.420000,  0.140000, 0.000000,  0.000000 
 168450128.000000, -0.390030 , 3.787838, 8.937192, 299980032.000000, -0.630000,  0.420000,  0.070000, 0.000000,  0.000000 
 168470128.000000, -0.342174 , 3.826123, 8.891729, 300000000.000000, -0.350000,  0.420000,  0.070000, 0.000000,  0.000000 
 168490416.000000, -0.323031 , 3.862016, 8.920443, 300020000.000000, 0.140000,  0.350000,  0.140000, 0.000000,  0.000000 
 168510096.000000, -0.378066 , 3.866802, 8.977871, 300040288.000000, 0.280000,  0.350000,  0.210000, 0.000000,  0.000000 
 168530096.000000, -0.435494 , 3.902694, 8.920443, 300059968.000000, 0.280000,  0.560000,  -0.210000, 0.000000,  0.000000 
 168550064.000000, -0.401994 , 3.907479, 8.872586, 300079968.000000, 0.210000,  0.560000,  -0.350000, 0.000000,  0.000000 
 168570064.000000, -0.349352 , 3.783052, 8.946764, 300099968.000000, -0.700000,  0.350000,  0.140000, 0.000000,  0.000000 
 168590384.000000, -0.344566 , 3.742374, 8.982656, 300119936.000000, -2.030000,  0.210000,  0.420000, 0.000000,  0.000000 
 168610032.000000, -0.394816 , 3.732803, 8.985049, 300140256.000000, -1.750000,  0.280000,  0.210000, 0.000000,  0.000000 
 168630032.000000, -0.368495 , 3.838088, 8.925228, 300159936.000000, 0.140000,  0.350000,  0.140000, 0.000000,  0.000000 
 168650032.000000, -0.394816 , 3.926622, 8.874979, 300179904.000000, 1.610000,  0.350000,  0.140000, 0.000000,  0.000000 
 168670032.000000, -0.375673 , 3.909872, 8.860621, 300199904.000000, 1.260000,  0.420000,  0.140000, 0.000000,  0.000000 
 168690320.000000, -0.385244 , 3.876373, 8.877372, 300219904.000000, 0.140000,  0.420000,  -0.070000, 0.000000,  0.000000 
 168710000.000000, -0.380459 , 3.826123, 8.898908, 300240192.000000, -1.120000,  0.350000,  0.070000, 0.000000,  0.000000 
 168729968.000000, -0.342174 , 3.768696, 8.913264, 300259872.000000, -1.890000,  0.420000,  -0.070000, 0.000000,  0.000000 
 168749968.000000, -0.380459 , 3.763910, 8.910872, 300279872.000000, -1.610000,  0.420000,  -0.070000, 0.000000,  0.000000 
 168769968.000000, -0.401994 , 3.811767, 8.903693, 300299840.000000, -0.560000,  0.350000,  0.070000, 0.000000,  0.000000 
 168790256.000000, -0.399601 , 3.835695, 8.863015, 300319840.000000, 0.490000,  0.350000,  0.070000, 0.000000,  0.000000 
 168809936.000000, -0.354138 , 3.830909, 8.922836, 300340128.000000, 0.490000,  0.350000,  0.140000, 0.000000,  0.000000 
 168829936.000000, -0.380459 , 3.826123, 8.915657, 300359808.000000, -0.070000,  0.350000,  0.070000, 0.000000,  0.000000 
 168849904.000000, -0.404387 , 3.857230, 8.934800, 300379808.000000, -0.350000,  0.280000,  0.070000, 0.000000,  0.000000 
 168869904.000000, -0.435494 , 3.823731, 8.903693, 300399808.000000, -0.280000,  0.490000,  -0.070000, 0.000000,  0.000000 
 168890192.000000, -0.413958 , 3.806981, 8.922836, 300419776.000000, -0.630000,  0.490000,  0.070000, 0.000000,  0.000000 
 168909872.000000, -0.390030 , 3.795017, 8.903693, 300440096.000000, -0.770000,  0.280000,  0.210000, 0.000000,  0.000000 
 168929872.000000, -0.370888 , 3.835695, 8.908479, 300459776.000000, -0.420000,  0.210000,  0.280000, 0.000000,  0.000000 
 168949872.000000, -0.385244 , 3.852444, 8.910872, 300479744.000000, -0.140000,  0.350000,  0.140000, 0.000000,  0.000000 
 168969840.000000, -0.416351 , 3.873980, 8.920443, 300499744.000000, -0.140000,  0.490000,  0.140000, 0.000000,  0.000000 
 168990160.000000, -0.416351 , 3.840480, 8.898908, 300519712.000000, -0.420000,  0.490000,  -0.070000, 0.000000,  0.000000 
 169009840.000000, -0.401994 , 3.823731, 8.953942, 300540032.000000, -0.560000,  0.350000,  -0.070000, 0.000000,  0.000000 
 169029808.000000, -0.406780 , 3.806981, 8.958728, 300559712.000000, -0.770000,  0.350000,  -0.070000, 0.000000,  0.000000 
 169049808.000000, -0.411566 , 3.821337, 8.934800, 300579712.000000, -0.840000,  0.420000,  0.070000, 0.000000,  0.000000 
 169069808.000000, -0.358923 , 3.845266, 8.918050, 300599680.000000, -0.630000,  0.350000,  0.070000, 0.000000,  0.000000 
 169090096.000000, -0.390030 , 3.814159, 8.882158, 300619680.000000, -0.140000,  0.350000,  0.070000, 0.000000,  0.000000 
 169109776.000000, -0.418744 , 3.845266, 8.937192, 300639968.000000, -0.070000,  0.420000,  0.070000, 0.000000,  0.000000 
 169129776.000000, -0.404387 , 3.806981, 8.937192, 300659648.000000, -0.280000,  0.490000,  0.070000, 0.000000,  0.000000 
 169149776.000000, -0.394816 , 3.833302, 8.920443, 300699648.000000, -0.350000,  0.350000,  0.070000, 300698912.000000,  1008.918152 
 169169744.000000, -0.421137 , 3.792624, 8.886944, 0.000000, 0.000000,  0.000000,  0.000000, 0.000000,  0.000000 
 169190032.000000, -0.368495 , 3.871587, 8.882158, 300719616.000000, -0.210000,  0.280000,  0.070000, 0.000000,  0.000000 
 169209744.000000, -0.354138 , 3.835695, 8.908479, 300739904.000000, -0.210000,  0.280000,  0.070000, 0.000000,  0.000000 
 169229712.000000, -0.413958 , 3.818945, 8.903693, 300759616.000000, -0.420000,  0.350000,  0.070000, 0.000000,  0.000000 
 169249744.000000, -0.413958 , 3.842873, 8.906086, 300779584.000000, -0.560000,  0.420000,  0.070000, 0.000000,  0.000000 
 169269680.000000, -0.423530 , 3.792624, 8.896514, 300799616.000000, -0.700000,  0.420000,  0.070000, 0.000000,  0.000000 
 169290000.000000, -0.387637 , 3.806981, 8.915657, 300819584.000000, -0.490000,  0.350000,  0.070000, 0.000000,  0.000000 
 169309680.000000, -0.332602 , 3.806981, 8.934800, 300839872.000000, -0.490000,  0.350000,  0.210000, 0.000000,  0.000000 
 169329648.000000, -0.423530 , 3.845266, 8.944371, 300859552.000000, 0.280000,  0.350000,  0.070000, 0.000000,  0.000000 
 169349648.000000, -0.433101 , 3.929015, 8.793623, 300879552.000000, 0.560000,  0.560000,  -0.280000, 0.000000,  0.000000 
 169369648.000000, -0.406780 , 3.907479, 8.841480, 300899520.000000, 0.350000,  0.420000,  -0.280000, 0.000000,  0.000000 
 169389936.000000, -0.342174 , 3.751946, 8.930015, 300939808.000000, -2.520000,  0.210000,  0.350000, 0.000000,  0.000000 
 169409616.000000, -0.363709 , 3.720839, 8.965906, 0.000000, 0.000000,  0.000000,  0.000000, 0.000000,  0.000000 
 169429584.000000, -0.373280 , 3.818945, 8.958728, 300959488.000000, -1.610000,  0.350000,  0.140000, 0.000000,  0.000000 
 169449584.000000, -0.368495 , 3.888337, 8.886944, 300979488.000000, 0.560000,  0.350000,  0.140000, 0.000000,  0.000000 
 169469584.000000, -0.416351 , 3.914658, 8.831908, 300999456.000000, 1.470000,  0.350000,  -0.140000, 0.000000,  0.000000 
 169489872.000000, -0.418744 , 3.924229, 8.877372, 301019456.000000, 0.770000,  0.420000,  -0.140000, 0.000000,  0.000000 
 169509552.000000, -0.380459 , 3.850052, 8.886944, 301039744.000000, -0.770000,  0.420000,  -0.070000, 0.000000,  0.000000 
 169529552.000000, -0.375673 , 3.816552, 8.951550, 301059424.000000, -1.890000,  0.350000,  -0.070000, 0.000000,  0.000000 
 169549520.000000, -0.394816 , 3.756732, 8.953942, 301079424.000000, -1.960000,  0.420000,  -0.070000, 0.000000,  0.000000 
 169569520.000000, -0.346959 , 3.840480, 8.939585, 301099392.000000, -0.910000,  0.350000,  -0.070000, 0.000000,  0.000000 
 169589840.000000, -0.399601 , 3.862016, 8.886944, 301119392.000000, 0.420000,  0.280000,  0.070000, 0.000000,  0.000000 
 169609488.000000, -0.413958 , 3.895515, 8.891729, 301139712.000000, 0.980000,  0.350000,  0.070000, 0.000000,  0.000000 
 169629488.000000, -0.346959 , 3.811767, 8.922836, 301159360.000000, 0.420000,  0.280000,  0.140000, 0.000000,  0.000000 
 169649488.000000, -0.387637 , 3.866802, 8.949157, 301179360.000000, -0.210000,  0.280000,  0.140000, 0.000000,  0.000000 
 169669456.000000, -0.392423 , 3.857230, 8.941978, 301199360.000000, -0.350000,  0.420000,  0.140000, 0.000000,  0.000000 
 169689776.000000, -0.406780 , 3.806981, 8.930015, 301219328.000000, -0.350000,  0.490000,  -0.070000, 0.000000,  0.000000 
 169709456.000000, -0.394816 , 3.797409, 8.872586, 301239648.000000, -0.560000,  0.420000,  0.070000, 0.000000,  0.000000 
 169729424.000000, -0.373280 , 3.778267, 8.901299, 301259328.000000, -0.560000,  0.210000,  0.140000, 0.000000,  0.000000 
 169749424.000000, -0.361316 , 3.838088, 8.874979, 301279296.000000, -0.280000,  0.280000,  0.210000, 0.000000,  0.000000 
 169769424.000000, -0.401994 , 3.876373, 8.932407, 301299296.000000, -0.070000,  0.420000,  0.210000, 0.000000,  0.000000 
 169789712.000000, -0.382852 , 3.809374, 8.908479, 301319296.000000, -0.210000,  0.420000,  -0.140000, 0.000000,  0.000000 
 169809392.000000, -0.399601 , 3.756732, 8.860621, 301339584.000000, -0.560000,  0.420000,  -0.140000, 0.000000,  0.000000 
 169829392.000000, -0.346959 , 3.799802, 8.932407, 301359264.000000, -0.700000,  0.350000,  0.070000, 0.000000,  0.000000 
 169849360.000000, -0.411566 , 3.763910, 8.903693, 301379264.000000, -0.770000,  0.350000,  0.070000, 0.000000,  0.000000 
 169869360.000000, -0.368495 , 3.790231, 8.930015, 301399232.000000, -0.560000,  0.280000,  0.070000, 0.000000,  0.000000 
 169889680.000000, -0.382852 , 3.842873, 8.889337, 301419232.000000, -0.070000,  0.350000,  0.070000, 0.000000,  0.000000 
 169909328.000000, -0.351745 , 3.804588, 8.906086, 301439552.000000, 0.210000,  0.350000,  0.070000, 0.000000,  0.000000 
 169929328.000000, -0.380459 , 3.823731, 8.882158, 301459200.000000, -0.210000,  0.420000,  0.070000, 0.000000,  0.000000 
 169949296.000000, -0.401994 , 3.821337, 8.906086, 301479200.000000, -0.490000,  0.350000,  0.070000, 0.000000,  0.000000 
 169969296.000000, -0.401994 , 3.792624, 8.934800, 301499200.000000, -0.630000,  0.350000,  0.070000, 0.000000,  0.000000 
 169989616.000000, -0.406780 , 3.811767, 8.951550, 301519168.000000, -0.420000,  0.420000,  0.070000, 0.000000,  0.000000 
 170009264.000000, -0.394816 , 3.847659, 8.941978, 301539488.000000, -0.140000,  0.420000,  0.070000, 0.000000,  0.000000 
 170029264.000000, -0.401994 , 3.838088, 8.918050, 301559168.000000, -0.070000,  0.350000,  0.070000, 0.000000,  0.000000 
 170049264.000000, -0.351745 , 3.830909, 8.913264, 301579136.000000, -0.280000,  0.280000,  0.070000, 0.000000,  0.000000 
 170069232.000000, -0.413958 , 3.814159, 8.925228, 301599136.000000, -0.560000,  0.420000,  0.070000, 0.000000,  0.000000 
 170089552.000000, -0.440279 , 3.828516, 8.922836, 301619136.000000, -0.770000,  0.490000,  0.070000, 0.000000,  0.000000 
 170109232.000000, -0.421137 , 3.802195, 8.922836, 301639424.000000, -0.630000,  0.420000,  0.070000, 0.000000,  0.000000 
 170129200.000000, -0.387637 , 3.790231, 8.903693, 301659104.000000, -0.210000,  0.350000,  0.070000, 0.000000,  0.000000 
 170149200.000000, -0.373280 , 3.866802, 8.932407, 301699072.000000, 0.070000,  0.350000,  0.140000, 301698336.000000,  1008.918945 
 170169200.000000, -0.373280 , 3.857230, 8.953942, 0.000000, 0.000000,  0.000000,  0.000000, 0.000000,  0.000000 
 170189488.000000, -0.425922 , 3.929015, 8.896514, 301719072.000000, 0.070000,  0.420000,  -0.210000, 0.000000,  0.000000 
 170209168.000000, -0.404387 , 3.876373, 8.877372, 301739360.000000, -0.210000,  0.420000,  -0.210000, 0.000000,  0.000000 
 170229168.000000, -0.385244 , 3.720839, 8.920443, 301759040.000000, -1.470000,  0.280000,  0.210000, 0.000000,  0.000000 
 170249168.000000, -0.397209 , 3.725625, 8.939585, 301779040.000000, -2.240000,  0.280000,  0.210000, 0.000000,  0.000000 
 170269136.000000, -0.373280 , 3.785445, 8.932407, 301799072.000000, -1.120000,  0.210000,  0.210000, 0.000000,  0.000000 
 170289424.000000, -0.416351 , 3.873980, 8.901299, 301819008.000000, 0.700000,  0.280000,  0.070000, 0.000000,  0.000000 
 170309104.000000, -0.380459 , 3.917051, 8.872586, 301839328.000000, 1.470000,  0.420000,  0.070000, 0.000000,  0.000000 
 170329264.000000, -0.404387 , 3.890730, 8.903693, 301858976.000000, 0.770000,  0.420000,  -0.070000, 0.000000,  0.000000 
 170349104.000000, -0.404387 , 3.818945, 8.886944, 301879136.000000, -0.490000,  0.420000,  -0.070000, 0.000000,  0.000000 
 170369072.000000, -0.378066 , 3.799802, 8.937192, 301898976.000000, -1.470000,  0.490000,  -0.070000, 0.000000,  0.000000 
 170389392.000000, -0.342174 , 3.787838, 8.918050, 301918944.000000, -1.820000,  0.490000,  -0.070000, 0.000000,  0.000000 
 170409072.000000, -0.370888 , 3.826123, 8.918050, 301939264.000000, -1.190000,  0.350000,  -0.070000, 0.000000,  0.000000 
 170429040.000000, -0.423530 , 3.833302, 8.937192, 301958944.000000, -1.190000,  0.420000,  0.070000, 0.000000,  0.000000 
 170449040.000000, -0.387637 , 3.871587, 8.908479, 301978912.000000, 0.700000,  0.350000,  0.070000, 0.000000,  0.000000 
 170469008.000000, -0.351745 , 3.797409, 8.913264, 301998912.000000, 0.420000,  0.350000,  0.140000, 0.000000,  0.000000 
 170489328.000000, -0.366102 , 3.845266, 8.934800, 302018912.000000, 0.420000,  0.350000,  0.140000, 0.000000,  0.000000 
 170509008.000000, -0.413958 , 3.847659, 8.922836, 302039200.000000, -0.070000,  0.420000,  0.140000, 0.000000,  0.000000 
 170529008.000000, -0.421137 , 3.821337, 8.910872, 302058880.000000, -0.280000,  0.490000,  -0.070000, 0.000000,  0.000000 
 170548976.000000, -0.401994 , 3.783052, 8.901299, 302078880.000000, -0.700000,  0.420000,  0.070000, 0.000000,  0.000000 
 170568976.000000, -0.349352 , 3.783052, 8.906086, 302098848.000000, -0.560000,  0.210000,  0.280000, 0.000000,  0.000000 
 170589264.000000, -0.356531 , 3.866802, 8.961121, 302118848.000000, -0.560000,  0.280000,  0.140000, 0.000000,  0.000000 
 170608944.000000, -0.409173 , 3.876373, 8.922836, 302139136.000000, 0.420000,  0.420000,  0.140000, 0.000000,  0.000000 
 170628944.000000, -0.401994 , 3.873980, 8.901299, 302158816.000000, 0.140000,  0.420000,  -0.140000, 0.000000,  0.000000 
 170648944.000000, -0.413958 , 3.833302, 8.894121, 302178816.000000, -0.490000,  0.350000,  -0.070000, 0.000000,  0.000000 
 170668912.000000, -0.409173 , 3.811767, 8.930015, 302198816.000000, -0.770000,  0.420000,  -0.070000, 0.000000,  0.000000 
 170689232.000000, -0.385244 , 3.792624, 8.944371, 302218784.000000, -0.770000,  0.420000,  0.140000, 0.000000,  0.000000 
 170708912.000000, -0.375673 , 3.818945, 8.941978, 302239104.000000, -0.420000,  0.280000,  0.140000, 0.000000,  0.000000 
 170728880.000000, -0.380459 , 3.818945, 8.874979, 302258784.000000, 0.070000,  0.350000,  0.070000, 0.000000,  0.000000 
 170748880.000000, -0.411566 , 3.854837, 8.913264, 302278752.000000, 0.280000,  0.420000,  0.070000, 0.000000,  0.000000 
 170768848.000000, -0.363709 , 3.818945, 8.939585, 302298752.000000, -0.070000,  0.490000,  0.070000, 0.000000,  0.000000 
 170789168.000000, -0.397209 , 3.804588, 8.915657, 302318752.000000, -0.420000,  0.350000,  0.070000, 0.000000,  0.000000 
 170808848.000000, -0.406780 , 3.835695, 8.884550, 302339040.000000, -0.490000,  0.350000,  0.140000, 0.000000,  0.000000 
 170828848.000000, -0.363709 , 3.840480, 8.951550, 302358720.000000, -0.140000,  0.350000,  0.140000, 0.000000,  0.000000 
 170848816.000000, -0.406780 , 3.854837, 8.891729, 302378720.000000, -0.140000,  0.350000,  0.140000, 0.000000,  0.000000 
 170868816.000000, -0.409173 , 3.823731, 8.932407, 302398688.000000, 0.070000,  0.420000,  0.070000, 0.000000,  0.000000 
 170889104.000000, -0.406780 , 3.830909, 8.934800, 302418688.000000, -0.070000,  0.280000,  0.140000, 0.000000,  0.000000 
 170908784.000000, -0.416351 , 3.830909, 8.891729, 302438976.000000, -0.350000,  0.350000,  0.140000, 0.000000,  0.000000 
 170928784.000000, -0.404387 , 3.799802, 8.934800, 302458656.000000, -0.560000,  0.420000,  0.070000, 0.000000,  0.000000 
 170948784.000000, -0.401994 , 3.806981, 8.922836, 302478656.000000, -0.420000,  0.490000,  0.070000, 0.000000,  0.000000 
 170968752.000000, -0.361316 , 3.881158, 8.918050, 302498656.000000, 0.140000,  0.350000,  0.140000, 0.000000,  0.000000 
 170989040.000000, -0.404387 , 3.883551, 8.985049, 302518624.000000, 0.420000,  0.280000,  0.280000, 0.000000,  0.000000 
 171008752.000000, -0.411566 , 3.866802, 8.927622, 302538944.000000, 0.070000,  0.350000,  0.140000, 0.000000,  0.000000 
 171028720.000000, -0.442672 , 3.938586, 8.865408, 302558624.000000, 0.070000,  0.560000,  -0.280000, 0.000000,  0.000000 
 171048720.000000, -0.418744 , 3.881158, 8.891729, 302578592.000000, -0.280000,  0.490000,  -0.280000, 0.000000,  0.000000 
 171068688.000000, -0.346959 , 3.713661, 8.910872, 302598592.000000, -1.470000,  0.210000,  0.280000, 0.000000,  0.000000 
 171089008.000000, -0.363709 , 3.701697, 8.975478, 302618592.000000, -2.240000,  0.140000,  0.350000, 0.000000,  0.000000 
 171108688.000000, -0.397209 , 3.792624, 8.941978, 302638880.000000, -0.980000,  0.210000,  0.210000, 0.000000,  0.000000 
 171128656.000000, -0.356531 , 3.902694, 8.941978, 302658560.000000, 0.980000,  0.280000,  0.140000, 0.000000,  0.000000 
 171148656.000000, -0.385244 , 3.907479, 8.851050, 302698528.000000, 0.700000,  0.420000,  0.070000, 302697792.000000,  1008.920471 
 171168656.000000, -0.378066 , 3.866802, 8.874979, 0.000000, 0.000000,  0.000000,  0.000000, 0.000000,  0.000000 
 171188944.000000, -0.375673 , 3.873980, 8.886944, 302718528.000000, -0.490000,  0.350000,  0.070000, 0.000000,  0.000000 
 171208624.000000, -0.428315 , 3.811767, 8.949157, 302738816.000000, -1.330000,  0.420000,  0.070000, 0.000000,  0.000000 
 171228592.000000, -0.385244 , 3.775874, 8.949157, 302758496.000000, -1.680000,  0.490000,  0.070000, 0.000000,  0.000000 
 171248656.000000, -0.380459 , 3.787838, 8.906086, 302778496.000000, -1.190000,  0.350000,  0.070000, 0.000000,  0.000000 
 171268592.000000, -0.375673 , 3.885944, 8.894121, 302798528.000000, -0.210000,  0.420000,  0.070000, 0.000000,  0.000000 
 171288880.000000, -0.425922 , 3.912265, 8.896514, 302818464.000000, 0.560000,  0.350000,  0.140000, 0.000000,  0.000000 
 171308560.000000, -0.404387 , 3.840480, 8.941978, 302838752.000000, 0.280000,  0.350000,  0.140000, 0.000000,  0.000000 
 171328560.000000, -0.406780 , 3.802195, 8.941978, 302858432.000000, -0.280000,  0.280000,  0.070000, 0.000000,  0.000000 
 171348528.000000, -0.366102 , 3.835695, 8.915657, 302878432.000000, -0.350000,  0.420000,  0.070000, 0.000000,  0.000000 
 171368528.000000, -0.382852 , 3.842873, 8.918050, 302898432.000000, -0.420000,  0.490000,  -0.070000, 0.000000,  0.000000 
 171388848.000000, -0.323031 , 3.828516, 8.939585, 302918400.000000, -0.630000,  0.350000,  0.140000, 0.000000,  0.000000 
 171408496.000000, -0.339781 , 3.859623, 8.898908, 302938720.000000, -0.630000,  0.280000,  0.210000, 0.000000,  0.000000 
 171428496.000000, -0.416351 , 3.885944, 8.944371, 302958400.000000, -0.140000,  0.280000,  0.140000, 0.000000,  0.000000 
 171448496.000000, -0.366102 , 3.888337, 8.906086, 302978368.000000, 0.070000,  0.350000,  0.140000, 0.000000,  0.000000 
 171468464.000000, -0.411566 , 3.847659, 8.903693, 302998368.000000, -0.140000,  0.420000,  -0.070000, 0.000000,  0.000000 
 171488784.000000, -0.394816 , 3.852444, 8.958728, 303018368.000000, -0.350000,  0.420000,  -0.070000, 0.000000,  0.000000 
 171508464.000000, -0.375673 , 3.869194, 8.891729, 303038656.000000, -0.560000,  0.350000,  -0.070000, 0.000000,  0.000000 
 171528432.000000, -0.411566 , 3.828516, 8.920443, 303058336.000000, -0.560000,  0.420000,  0.070000, 0.000000,  0.000000 
 171548432.000000, -0.390030 , 3.864408, 8.894121, 303078304.000000, -0.630000,  0.350000,  0.070000, 0.000000,  0.000000 
 171568432.000000, -0.397209 , 3.871587, 8.898908, 303098304.000000, -0.420000,  0.350000,  0.070000, 0.000000,  0.000000 
 171588720.000000, -0.411566 , 3.826123, 8.889337, 303118304.000000, -0.280000,  0.420000,  0.070000, 0.000000,  0.000000 
 171608400.000000, -0.385244 , 3.823731, 8.906086, 303138592.000000, -0.210000,  0.420000,  0.070000, 0.000000,  0.000000 
 171628400.000000, -0.397209 , 3.840480, 8.913264, 303158272.000000, -0.280000,  0.350000,  0.140000, 0.000000,  0.000000 
 171648368.000000, -0.397209 , 3.857230, 8.891729, 303178272.000000, -0.140000,  0.350000,  0.070000, 0.000000,  0.000000 
 171668368.000000, -0.418744 , 3.873980, 8.877372, 303198240.000000, 0.070000,  0.420000,  0.070000, 0.000000,  0.000000 
 171688688.000000, -0.373280 , 3.792624, 8.920443, 303218240.000000, -0.070000,  0.350000,  0.070000, 0.000000,  0.000000 
 171708336.000000, -0.351745 , 3.842873, 8.901299, 303238560.000000, -0.490000,  0.350000,  0.070000, 0.000000,  0.000000 
 171728336.000000, -0.380459 , 3.828516, 8.918050, 303258208.000000, -0.770000,  0.420000,  0.070000, 0.000000,  0.000000 
 171748304.000000, -0.413958 , 3.823731, 8.930015, 303278208.000000, -0.770000,  0.420000,  0.070000, 0.000000,  0.000000 
 171768304.000000, -0.413958 , 3.790231, 8.891729, 303298208.000000, -0.770000,  0.490000,  0.070000, 0.000000,  0.000000 
 171788624.000000, -0.413958 , 3.828516, 8.968300, 303318176.000000, -0.560000,  0.420000,  0.070000, 0.000000,  0.000000 
 171808304.000000, -0.363709 , 3.840480, 8.970692, 303338496.000000, -0.140000,  0.350000,  0.140000, 0.000000,  0.000000 
 171828272.000000, -0.392423 , 3.900301, 8.915657, 303378144.000000, 0.350000,  0.490000,  -0.210000, 0.000000,  0.000000 
 171848272.000000, -0.454636 , 3.955336, 8.870193, 0.000000, 0.000000,  0.000000,  0.000000, 0.000000,  0.000000 
 171868240.000000, -0.406780 , 3.885944, 8.910872, 303398144.000000, 0.210000,  0.420000,  -0.210000, 0.000000,  0.000000 
 171888560.000000, -0.378066 , 3.771089, 8.941978, 303418144.000000, -1.260000,  0.210000,  0.210000, 0.000000,  0.000000 
 171908240.000000, -0.380459 , 3.689733, 8.997013, 303438432.000000, -2.030000,  0.280000,  0.350000, 0.000000,  0.000000 
 171928208.000000, -0.385244 , 3.787838, 8.958728, 303458112.000000, -2.310000,  0.280000,  0.280000, 0.000000,  0.000000 
 171948208.000000, -0.378066 , 3.883551, 8.906086, 303478112.000000, -0.350000,  0.280000,  0.210000, 0.000000,  0.000000 
 171968208.000000, -0.344566 , 3.902694, 8.846266, 303498080.000000, 1.400000,  0.210000,  0.070000, 0.000000,  0.000000 
 171988496.000000, -0.425922 , 3.876373, 8.865408, 303518080.000000, 1.330000,  0.420000,  -0.140000, 0.000000,  0.000000 
 172008176.000000, -0.346959 , 3.847659, 8.884550, 303538368.000000, 0.140000,  0.420000,  -0.140000, 0.000000,  0.000000 
 172028176.000000, -0.406780 , 3.790231, 8.951550, 303558048.000000, -1.120000,  0.350000,  0.140000, 0.000000,  0.000000 
 172048144.000000, -0.380459 , 3.783052, 8.925228, 303578048.000000, -1.820000,  0.420000,  0.070000, 0.000000,  0.000000 
 172068144.000000, -0.404387 , 3.780660, 8.922836, 303598048.000000, -1.540000,  0.350000,  0.070000, 0.000000,  0.000000 
 172088464.000000, -0.349352 , 3.890730, 8.908479, 303618016.000000, -0.420000,  0.280000,  0.070000, 0.000000,  0.000000 
 172108112.000000, -0.423530 , 3.866802, 8.882158, 303638336.000000, 0.420000,  0.350000,  0.070000, 0.000000,  0.000000 
 172128112.000000, -0.339781 , 3.826123, 8.932407, 303677984.000000, -0.210000,  0.350000,  0.070000, 0.000000,  0.000000 
 172148112.000000, -0.416351 , 3.780660, 8.949157, 0.000000, 0.000000,  0.000000,  0.000000, 0.000000,  0.000000 
 172168080.000000, -0.413958 , 3.852444, 8.886944, 303697984.000000, -0.350000,  0.350000,  0.070000, 303697248.000000,  1008.920532 
 172188400.000000, -0.404387 , 3.816552, 8.932407, 303717952.000000, -0.210000,  0.420000,  -0.070000, 0.000000,  0.000000 
 172208080.000000, -0.373280 , 3.763910, 8.908479, 303738272.000000, -0.560000,  0.490000,  -0.070000, 0.000000,  0.000000 
 172228048.000000, -0.401994 , 3.802195, 8.920443, 303757952.000000, -0.700000,  0.280000,  0.140000, 0.000000,  0.000000 
 172248080.000000, -0.356531 , 3.816552, 8.874979, 303777920.000000, -0.280000,  0.210000,  0.140000, 0.000000,  0.000000 
 172268048.000000, -0.404387 , 3.878766, 8.949157, 303797952.000000, 0.140000,  0.280000,  0.070000, 0.000000,  0.000000 
 172288336.000000, -0.387637 , 3.840480, 8.944371, 303817920.000000, -0.070000,  0.420000,  0.070000, 0.000000,  0.000000 
 172308016.000000, -0.413958 , 3.811767, 8.870193, 303838208.000000, -0.420000,  0.420000,  -0.070000, 0.000000,  0.000000 
 172328016.000000, -0.416351 , 3.809374, 8.925228, 303857888.000000, -0.630000,  0.350000,  -0.070000, 0.000000,  0.000000 
 172347984.000000, -0.349352 , 3.852444, 8.910872, 303877888.000000, -0.630000,  0.350000,  -0.070000, 0.000000,  0.000000 
 172367984.000000, -0.392423 , 3.802195, 8.898908, 303897856.000000, -0.630000,  0.350000,  0.070000, 0.000000,  0.000000 
 172388272.000000, -0.406780 , 3.816552, 8.896514, 303917856.000000, -0.420000,  0.350000,  0.070000, 0.000000,  0.000000 
 172407952.000000, -0.406780 , 3.826123, 8.839087, 303938176.000000, -0.070000,  0.350000,  0.070000, 0.000000,  0.000000 
 172427952.000000, -0.390030 , 3.873980, 8.884550, 303957824.000000, -0.070000,  0.420000,  0.070000, 0.000000,  0.000000 
 172447952.000000, -0.397209 , 3.785445, 8.932407, 303977824.000000, -0.350000,  0.420000,  0.070000, 0.000000,  0.000000 
 172467920.000000, -0.354138 , 3.797409, 8.901299, 303997824.000000, -0.490000,  0.350000,  0.070000, 0.000000,  0.000000 
 172488240.000000, -0.449851 , 3.823731, 8.939585, 304017792.000000, -0.350000,  0.350000,  0.070000, 0.000000,  0.000000 
 172507920.000000, -0.387637 , 3.845266, 8.886944, 304038112.000000, -0.070000,  0.420000,  0.070000, 0.000000,  0.000000 
 172527888.000000, -0.375673 , 3.842873, 8.908479, 304057792.000000, -0.070000,  0.350000,  0.070000, 0.000000,  0.000000 
 172547888.000000, -0.375673 , 3.857230, 8.913264, 304077760.000000, -0.210000,  0.280000,  0.070000, 0.000000,  0.000000 
 172567888.000000, -0.382852 , 3.811767, 8.908479, 304097760.000000, -0.490000,  0.420000,  -0.070000, 0.000000,  0.000000 
 172588176.000000, -0.425922 , 3.821337, 8.927622, 304117760.000000, -0.770000,  0.490000,  -0.070000, 0.000000,  0.000000 
 172607856.000000, -0.385244 , 3.797409, 8.903693, 304138048.000000, -0.630000,  0.350000,  0.070000, 0.000000,  0.000000 
 172627856.000000, -0.368495 , 3.845266, 8.932407, 304157728.000000, -0.210000,  0.280000,  0.140000, 0.000000,  0.000000 
 172647824.000000, -0.411566 , 3.850052, 8.934800, 304177728.000000, -0.070000,  0.420000,  0.140000, 0.000000,  0.000000 
 172667824.000000, -0.397209 , 3.919443, 8.915657, 304197728.000000, 0.140000,  0.490000,  -0.070000, 0.000000,  0.000000 
 172688112.000000, -0.423530 , 3.919443, 8.860621, 304217696.000000, 0.350000,  0.560000,  -0.280000, 0.000000,  0.000000 
 172707792.000000, -0.401994 , 3.854837, 8.894121, 304237984.000000, -0.420000,  0.350000,  -0.280000, 0.000000,  0.000000 
 172727792.000000, -0.380459 , 3.699304, 8.910872, 304257696.000000, -2.030000,  0.210000,  0.210000, 0.000000,  0.000000 
 172747792.000000, -0.351745 , 3.735196, 8.956335, 304277664.000000, -2.240000,  0.210000,  0.280000, 0.000000,  0.000000 
 172767760.000000, -0.382852 , 3.845266, 8.927622, 304297664.000000, -0.490000,  0.210000,  0.140000, 0.000000,  0.000000 
 172788048.000000, -0.382852 , 3.897908, 8.882158, 304317632.000000, 1.260000,  0.280000,  0.070000, 0.000000,  0.000000 
 172807760.000000, -0.433101 , 3.907479, 8.884550, 304337952.000000, 1.540000,  0.420000,  -0.070000, 0.000000,  0.000000 
 172827728.000000, -0.354138 , 3.900301, 8.886944, 304357632.000000, 0.490000,  0.350000,  -0.070000, 0.000000,  0.000000 
 172847728.000000, -0.421137 , 3.816552, 8.944371, 304377600.000000, -0.910000,  0.420000,  0.070000, 0.000000,  0.000000 
 172867728.000000, -0.375673 , 3.775874, 8.949157, 304397600.000000, -1.750000,  0.490000,  0.070000, 0.000000,  0.000000 
 172888016.000000, -0.370888 , 3.775874, 8.963513, 304417600.000000, -1.750000,  0.490000,  -0.070000, 0.000000,  0.000000 
 172907696.000000, -0.361316 , 3.778267, 8.889337, 304437888.000000, -0.770000,  0.350000,  -0.070000, 0.000000,  0.000000 
 172927696.000000, -0.404387 , 3.845266, 8.946764, 304457568.000000, 0.280000,  0.350000,  0.070000, 0.000000,  0.000000 
 172947664.000000, -0.370888 , 3.845266, 8.874979, 304477568.000000, 0.770000,  0.350000,  0.140000, 0.000000,  0.000000 
 172967664.000000, -0.356531 , 3.864408, 8.894121, 304497536.000000, 0.280000,  0.280000,  0.070000, 0.000000,  0.000000 
 172987952.000000, -0.437887 , 3.857230, 8.927622, 304517536.000000, -0.210000,  0.280000,  0.070000, 0.000000,  0.000000 
 173007632.000000, -0.404387 , 3.838088, 8.901299, 304537824.000000, -0.350000,  0.490000,  -0.070000, 0.000000,  0.000000 
 173027632.000000, -0.409173 , 3.804588, 8.915657, 304557504.000000, -0.700000,  0.490000,  -0.070000, 0.000000,  0.000000 
 173047600.000000, -0.394816 , 3.818945, 8.891729, 304577504.000000, -0.770000,  0.280000,  0.140000, 0.000000,  0.000000 
 173067600.000000, -0.378066 , 3.826123, 8.898908, 304597472.000000, -0.420000,  0.210000,  0.210000, 0.000000,  0.000000 
 173087888.000000, -0.375673 , 3.864408, 8.937192, 304617472.000000, 0.070000,  0.350000,  0.070000, 0.000000,  0.000000 
 173107568.000000, -0.387637 , 3.854837, 8.920443, 304637760.000000, 0.140000,  0.490000,  -0.070000, 0.000000,  0.000000 
 173127568.000000, -0.394816 , 3.857230, 8.886944, 304657440.000000, -0.210000,  0.420000,  -0.070000, 0.000000,  0.000000 
 173147568.000000, -0.399601 , 3.821337, 8.910872, 304677440.000000, -0.700000,  0.350000,  -0.070000, 0.000000,  0.000000 
 173167536.000000, -0.401994 , 3.838088, 8.963513, 304697440.000000, -0.840000,  0.420000,  -0.070000, 304696704.000000,  1008.918457 
 173187856.000000, -0.366102 , 3.814159, 8.906086, 304717408.000000, -0.840000,  0.350000,  -0.070000, 0.000000,  0.000000 
 173207536.000000, -0.425922 , 3.850052, 8.906086, 304737728.000000, -0.350000,  0.280000,  0.070000, 0.000000,  0.000000 
 173227504.000000, -0.392423 , 3.869194, 8.934800, 304757408.000000, 0.070000,  0.350000,  0.070000, 0.000000,  0.000000 
 173247536.000000, -0.409173 , 3.799802, 8.879765, 304777376.000000, 0.070000,  0.420000,  0.070000, 0.000000,  0.000000 
 173267472.000000, -0.380459 , 3.816552, 8.906086, 304797408.000000, -0.210000,  0.420000,  0.070000, 0.000000,  0.000000 
 173287792.000000, -0.413958 , 3.811767, 8.927622, 304817376.000000, -0.420000,  0.420000,  0.140000, 0.000000,  0.000000 
 173307472.000000, -0.392423 , 3.821337, 8.918050, 304837664.000000, -0.280000,  0.350000,  0.070000, 0.000000,  0.000000 
 173327440.000000, -0.406780 , 3.842873, 8.927622, 304857344.000000, -0.070000,  0.350000,  0.070000, 0.000000,  0.000000 
 173347440.000000, -0.411566 , 3.859623, 8.913264, 304877344.000000, -0.070000,  0.420000,  0.070000, 0.000000,  0.000000 
 173367440.000000, -0.387637 , 3.842873, 8.903693, 304897312.000000, -0.140000,  0.420000,  0.070000, 0.000000,  0.000000 
 173387856.000000, -0.397209 , 3.821337, 8.877372, 304917312.000000, -0.140000,  0.280000,  0.140000, 0.000000,  0.000000 
 173407408.000000, -0.401994 , 3.840480, 8.934800, 304937728.000000, -0.420000,  0.350000,  0.070000, 0.000000,  0.000000 
 173427408.000000, -0.404387 , 3.797409, 8.934800, 304957280.000000, -0.420000,  0.490000,  0.070000, 0.000000,  0.000000 
 173447376.000000, -0.361316 , 3.780660, 8.891729, 304977280.000000, -0.350000,  0.420000,  0.070000, 0.000000,  0.000000 
 173467376.000000, -0.387637 , 3.862016, 8.906086, 304997280.000000, 0.070000,  0.350000,  0.140000, 0.000000,  0.000000 
 173487696.000000, -0.366102 , 3.862016, 8.913264, 305017248.000000, 0.280000,  0.350000,  0.210000, 0.000000,  0.000000 
 173507344.000000, -0.416351 , 3.866802, 8.882158, 305037568.000000, 0.070000,  0.280000,  0.070000, 0.000000,  0.000000 
 173527344.000000, -0.447458 , 3.917051, 8.841480, 305057248.000000, 0.140000,  0.490000,  -0.280000, 0.000000,  0.000000 
 173547344.000000, -0.433101 , 3.828516, 8.879765, 305077216.000000, -0.280000,  0.490000,  -0.210000, 0.000000,  0.000000 
 173567312.000000, -0.339781 , 3.739982, 8.956335, 305097216.000000, -1.680000,  0.280000,  0.280000, 0.000000,  0.000000 
 173587632.000000, -0.356531 , 3.718446, 8.961121, 305117184.000000, -2.030000,  0.070000,  0.420000, 0.000000,  0.000000 
 173607312.000000, -0.334995 , 3.826123, 8.925228, 305137504.000000, -0.560000,  0.210000,  0.280000, 0.000000,  0.000000 
 173627280.000000, -0.390030 , 3.893122, 8.884550, 305157184.000000, 1.470000,  0.280000,  0.140000, 0.000000,  0.000000 
 173647280.000000, -0.423530 , 3.885944, 8.874979, 305177152.000000, 1.820000,  0.350000,  0.070000, 0.000000,  0.000000 
 173667280.000000, -0.413958 , 3.883551, 8.886944, 305197152.000000, 0.560000,  0.420000,  0.070000, 0.000000,  0.000000 
 173687568.000000, -0.342174 , 3.852444, 8.913264, 305217152.000000, -0.700000,  0.350000,  0.070000, 0.000000,  0.000000 
 173707248.000000, -0.418744 , 3.780660, 8.951550, 305237440.000000, -1.680000,  0.490000,  0.070000, 0.000000,  0.000000 
 173727248.000000, -0.411566 , 3.720839, 8.930015, 305277120.000000, -1.120000,  0.420000,  -0.140000, 0.000000,  0.000000 
 173747216.000000, -0.370888 , 3.778267, 8.932407, 0.000000, 0.000000,  0.000000,  0.000000, 0.000000,  0.000000 
 173767216.000000, -0.399601 , 3.857230, 8.925228, 305297088.000000, 0.140000,  0.350000,  0.070000, 0.000000,  0.000000 
 173787504.000000, -0.394816 , 3.905087, 8.877372, 305317088.000000, 0.770000,  0.280000,  0.070000, 0.000000,  0.000000 
 173807184.000000, -0.368495 , 3.854837, 8.932407, 305337376.000000, 0.280000,  0.280000,  0.140000, 0.000000,  0.000000 
 173827184.000000, -0.390030 , 3.888337, 8.925228, 305357056.000000, 0.280000,  0.280000,  0.070000, 0.000000,  0.000000 
 173847184.000000, -0.416351 , 3.847659, 8.953942, 305377056.000000, -0.350000,  0.350000,  0.070000, 0.000000,  0.000000 
 173867152.000000, -0.406780 , 3.845266, 8.889337, 305397056.000000, -0.210000,  0.490000,  0.070000, 0.000000,  0.000000 
 173887472.000000, -0.378066 , 3.806981, 8.903693, 305417024.000000, -0.490000,  0.350000,  0.070000, 0.000000,  0.000000 
 173907152.000000, -0.358923 , 3.852444, 8.908479, 305437344.000000, -0.560000,  0.210000,  0.210000, 0.000000,  0.000000 
 173927120.000000, -0.375673 , 3.823731, 8.932407, 305457024.000000, -0.210000,  0.280000,  0.210000, 0.000000,  0.000000 
 173947120.000000, -0.385244 , 3.871587, 8.944371, 305476992.000000, 0.070000,  0.350000,  0.140000, 0.000000,  0.000000 
 173967088.000000, -0.430708 , 3.859623, 8.903693, 305496992.000000, -0.140000,  0.420000,  0.140000, 0.000000,  0.000000 
 173987408.000000, -0.351745 , 3.828516, 8.879765, 305516992.000000, -0.490000,  0.420000,  -0.070000, 0.000000,  0.000000 
 174007088.000000, -0.390030 , 3.859623, 8.915657, 305537280.000000, -0.700000,  0.420000,  -0.070000, 0.000000,  0.000000 
 174027056.000000, -0.380459 , 3.804588, 8.927622, 305556960.000000, -0.770000,  0.420000,  0.070000, 0.000000,  0.000000 
 174047056.000000, -0.418744 , 3.809374, 8.922836, 305576960.000000, -0.700000,  0.420000,  0.070000, 0.000000,  0.000000 
 174067056.000000, -0.373280 , 3.806981, 8.906086, 305596928.000000, -0.420000,  0.350000,  0.070000, 0.000000,  0.000000 
 174087344.000000, -0.390030 , 3.854837, 8.882158, 305616928.000000, -0.140000,  0.350000,  0.070000, 0.000000,  0.000000 
 174107024.000000, -0.366102 , 3.835695, 8.934800, 305637216.000000, -0.140000,  0.420000,  0.070000, 0.000000,  0.000000 
 174127024.000000, -0.380459 , 3.833302, 8.915657, 305656896.000000, -0.210000,  0.350000,  0.140000, 0.000000,  0.000000 
 174147024.000000, -0.366102 , 3.852444, 8.898908, 305676896.000000, -0.280000,  0.350000,  0.140000, 0.000000,  0.000000 
 174166992.000000, -0.406780 , 3.881158, 8.941978, 305696896.000000, -0.070000,  0.420000,  0.070000, 305696160.000000,  1008.917908 
 174187280.000000, -0.373280 , 3.828516, 8.906086, 305716864.000000, -0.070000,  0.420000,  0.140000, 0.000000,  0.000000 
 174206960.000000, -0.394816 , 3.828516, 8.884550, 305737184.000000, -0.140000,  0.350000,  0.070000, 0.000000,  0.000000 
 174226960.000000, -0.435494 , 3.845266, 8.891729, 305756864.000000, -0.280000,  0.350000,  0.070000, 0.000000,  0.000000 
 174246992.000000, -0.361316 , 3.835695, 8.898908, 305776832.000000, -0.560000,  0.420000,  0.070000, 0.000000,  0.000000 
 174266928.000000, -0.361316 , 3.826123, 8.903693, 305796864.000000, -0.630000,  0.490000,  0.070000, 0.000000,  0.000000 
 174287248.000000, -0.404387 , 3.842873, 8.927622, 305816832.000000, -0.490000,  0.420000,  0.070000, 0.000000,  0.000000 
 174306928.000000, -0.373280 , 3.828516, 8.932407, 305837120.000000, -0.140000,  0.350000,  0.210000, 0.000000,  0.000000 
 174327088.000000, -0.385244 , 3.862016, 8.908479, 305856800.000000, 0.210000,  0.420000,  0.070000, 0.000000,  0.000000 
 174346896.000000, -0.418744 , 3.921836, 8.858230, 305876960.000000, 0.560000,  0.490000,  -0.210000, 0.000000,  0.000000 
 174366896.000000, -0.392423 , 3.888337, 8.860621, 305896768.000000, 0.280000,  0.420000,  -0.140000, 0.000000,  0.000000 
 174387184.000000, -0.346959 , 3.787838, 8.896514, 305916768.000000, -1.260000,  0.280000,  0.210000, 0.000000,  0.000000 
 174406864.000000, -0.380459 , 3.692125, 8.968300, 305937056.000000, -2.520000,  0.280000,  0.280000, 0.000000,  0.000000 
 174426864.000000, -0.337388 , 3.756732, 8.961121, 305956736.000000, -1.680000,  0.280000,  0.140000, 0.000000,  0.000000 
 174446832.000000, -0.401994 , 3.909872, 8.908479, 305976736.000000, 0.630000,  0.280000,  0.140000, 0.000000,  0.000000 
 174466832.000000, -0.399601 , 3.931407, 8.898908, 305996736.000000, 1.540000,  0.350000,  0.140000, 0.000000,  0.000000 
 174487120.000000, -0.435494 , 3.852444, 8.874979, 306016704.000000, 0.770000,  0.490000,  -0.140000, 0.000000,  0.000000 
 174506832.000000, -0.349352 , 3.840480, 8.891729, 306036992.000000, -0.700000,  0.420000,  -0.140000, 0.000000,  0.000000 
 174526800.000000, -0.413958 , 3.806981, 8.920443, 306056704.000000, -1.820000,  0.350000,  0.140000, 0.000000,  0.000000 
 174546800.000000, -0.416351 , 3.749553, 8.937192, 306076672.000000, -2.030000,  0.420000,  -0.070000, 0.000000,  0.000000 
 174566768.000000, -0.440279 , 3.778267, 8.910872, 306096672.000000, -1.260000,  0.350000,  -0.070000, 0.000000,  0.000000 
 174587088.000000, -0.368495 , 3.802195, 8.910872, 306116672.000000, -0.070000,  0.350000,  -0.070000, 0.000000,  0.000000 
 174606768.000000, -0.370888 , 3.878766, 8.901299, 306136960.000000, 0.630000,  0.420000,  0.070000, 0.000000,  0.000000 
 174626736.000000, -0.399601 , 3.833302, 8.930015, 306156640.000000, 0.420000,  0.350000,  0.140000, 0.000000,  0.000000 
 174646736.000000, -0.423530 , 3.866802, 8.886944, 306176640.000000, -0.070000,  0.280000,  0.070000, 0.000000,  0.000000 
 174666736.000000, -0.421137 , 3.866802, 8.915657, 306196608.000000, -0.140000,  0.350000,  0.070000, 0.000000,  0.000000 
 174687024.000000, -0.378066 , 3.830909, 8.946764, 306216608.000000, -0.210000,  0.490000,  -0.070000, 0.000000,  0.000000 
 174706704.000000, -0.394816 , 3.802195, 8.934800, 306236896.000000, -0.700000,  0.280000,  0.070000, 0.000000,  0.000000 
 174726704.000000, -0.351745 , 3.826123, 8.906086, 306256576.000000, -0.560000,  0.210000,  0.210000, 0.000000,  0.000000 
 174746672.000000, -0.342174 , 3.869194, 8.910872, 306276576.000000, -0.070000,  0.280000,  0.140000, 0.000000,  0.000000 
 174766672.000000, -0.392423 , 3.893122, 8.901299, 306296544.000000, 0.070000,  0.350000,  0.070000, 0.000000,  0.000000 
 174786960.000000, -0.399601 , 3.826123, 8.920443, 306316544.000000, -0.280000,  0.420000,  -0.140000, 0.000000,  0.000000 
 174806640.000000, -0.385244 , 3.838088, 8.906086, 306336832.000000, -0.630000,  0.420000,  -0.070000, 0.000000,  0.000000 
 174826640.000000, -0.358923 , 3.802195, 8.920443, 306356512.000000, -0.840000,  0.350000,  -0.070000, 0.000000,  0.000000 
 174846608.000000, -0.392423 , 3.785445, 8.922836, 306376512.000000, -0.840000,  0.420000,  -0.070000, 0.000000,  0.000000 
 174866608.000000, -0.401994 , 3.804588, 8.898908, 306396480.000000, -0.630000,  0.350000,  -0.070000, 0.000000,  0.000000 
 174886928.000000, -0.370888 , 3.862016, 8.889337, 306416480.000000, -0.140000,  0.350000,  -0.070000, 0.000000,  0.000000 
 174906576.000000, -0.346959 , 3.850052, 8.877372, 306436800.000000, 0.070000,  0.350000,  -0.070000, 0.000000,  0.000000 
 174926576.000000, -0.368495 , 3.871587, 8.870193, 306456448.000000, -0.070000,  0.350000,  0.070000, 0.000000,  0.000000 
 174946576.000000, -0.382852 , 3.802195, 8.918050, 306476448.000000, -0.210000,  0.280000,  0.140000, 0.000000,  0.000000 
 174966544.000000, -0.370888 , 3.869194, 8.910872, 306496448.000000, -0.210000,  0.350000,  0.070000, 0.000000,  0.000000 
 174986864.000000, -0.368495 , 3.838088, 8.884550, 306516416.000000, -0.070000,  0.350000,  0.070000, 0.000000,  0.000000 
 175006544.000000, -0.409173 , 3.806981, 8.884550, 306536736.000000, -0.210000,  0.350000,  0.070000, 0.000000,  0.000000 
 175026512.000000, -0.394816 , 3.821337, 8.889337, 306556416.000000, -0.350000,  0.350000,  0.140000, 0.000000,  0.000000 
 175046512.000000, -0.385244 , 3.795017, 8.920443, 306576384.000000, -0.490000,  0.420000,  0.140000, 0.000000,  0.000000 
 175066512.000000, -0.404387 , 3.818945, 8.886944, 306596384.000000, -0.700000,  0.490000,  0.140000, 0.000000,  0.000000 
 175086800.000000, -0.394816 , 3.859623, 8.918050, 306616384.000000, -0.560000,  0.350000,  0.070000, 0.000000,  0.000000 
 175106480.000000, -0.418744 , 3.830909, 8.951550, 306636672.000000, -0.280000,  0.350000,  0.140000, 0.000000,  0.000000 
 175126480.000000, -0.440279 , 3.842873, 8.903693, 306656352.000000, -0.070000,  0.350000,  0.140000, 0.000000,  0.000000 
 175146448.000000, -0.437887 , 3.900301, 8.874979, 306696320.000000, 0.280000,  0.490000,  -0.280000, 306695584.000000,  1008.918213 
 175166448.000000, -0.392423 , 3.936193, 8.874979, 0.000000, 0.000000,  0.000000,  0.000000, 0.000000,  0.000000 
 175186768.000000, -0.368495 , 3.833302, 8.913264, 306716320.000000, -0.910000,  0.350000,  0.070000, 0.000000,  0.000000 
 175206416.000000, -0.421137 , 3.699304, 8.946764, 306736640.000000, -2.240000,  0.210000,  0.210000, 0.000000,  0.000000 
 175226416.000000, -0.334995 , 3.771089, 8.949157, 306756288.000000, -1.820000,  0.210000,  0.280000, 0.000000,  0.000000 
 175246448.000000, -0.349352 , 3.876373, 8.920443, 306776288.000000, 0.210000,  0.210000,  0.210000, 0.000000,  0.000000 
 175266384.000000, -0.375673 , 3.873980, 8.901299, 306796320.000000, 1.400000,  0.350000,  0.070000, 0.000000,  0.000000 
 175286704.000000, -0.375673 , 3.914658, 8.836694, 306816256.000000, 1.190000,  0.420000,  -0.070000, 0.000000,  0.000000 
 175306384.000000, -0.375673 , 3.883551, 8.901299, 306836576.000000, 0.070000,  0.420000,  -0.070000, 0.000000,  0.000000 
 175326352.000000, -0.401994 , 3.833302, 8.913264, 306856256.000000, -1.260000,  0.350000,  -0.070000, 0.000000,  0.000000 
 175346352.000000, -0.428315 , 3.783052, 8.953942, 306876224.000000, -1.890000,  0.490000,  -0.070000, 0.000000,  0.000000 
 175366320.000000, -0.399601 , 3.763910, 8.953942, 306896224.000000, -1.540000,  0.350000,  -0.070000, 0.000000,  0.000000 
 175386640.000000, -0.404387 , 3.818945, 8.918050, 306916224.000000, -0.350000,  0.280000,  0.070000, 0.000000,  0.000000 
 175406320.000000, -0.370888 , 3.883551, 8.884550, 306936512.000000, 0.560000,  0.350000,  0.070000, 0.000000,  0.000000 
 175426288.000000, -0.387637 , 3.864408, 8.889337, 306956192.000000, 0.560000,  0.420000,  0.070000, 0.000000,  0.000000 
 175446288.000000, -0.368495 , 3.883551, 8.934800, 306976192.000000, 0.070000,  0.350000,  0.070000, 0.000000,  0.000000 
 175466288.000000, -0.382852 , 3.866802, 8.934800, 306996160.000000, -0.280000,  0.350000,  0.070000, 0.000000,  0.000000 
 175486576.000000, -0.378066 , 3.814159, 8.968300, 307016160.000000, -0.560000,  0.560000,  -0.140000, 0.000000,  0.000000 
 175506256.000000, -0.351745 , 3.799802, 8.925228, 307036448.000000, -0.770000,  0.420000,  -0.140000, 0.000000,  0.000000 
 175526256.000000, -0.380459 , 3.821337, 8.903693, 307056128.000000, -0.770000,  0.280000,  0.140000, 0.000000,  0.000000 
 175546224.000000, -0.368495 , 3.783052, 8.896514, 307076128.000000, -0.210000,  0.210000,  0.140000, 0.000000,  0.000000 
 175566224.000000, -0.339781 , 3.873980, 8.901299, 307096096.000000, 0.070000,  0.350000,  0.070000, 0.000000,  0.000000 
 175586512.000000, -0.344566 , 3.850052, 8.882158, 307116096.000000, -0.070000,  0.420000,  -0.140000, 0.000000,  0.000000 
 175606192.000000, -0.387637 , 3.828516, 8.922836, 307136416.000000, -0.490000,  0.420000,  -0.140000, 0.000000,  0.000000 
 175626192.000000, -0.401994 , 3.830909, 8.934800, 307156096.000000, -0.770000,  0.420000,  -0.140000, 0.000000,  0.000000 
 175646192.000000, -0.375673 , 3.802195, 8.963513, 307176064.000000, -0.840000,  0.420000,  -0.140000, 0.000000,  0.000000 
 175666160.000000, -0.401994 , 3.792624, 8.956335, 307196064.000000, -0.630000,  0.420000,  0.070000, 0.000000,  0.000000 
 175686480.000000, -0.361316 , 3.826123, 8.884550, 307216032.000000, -0.140000,  0.350000,  0.070000, 0.000000,  0.000000 
 175706160.000000, -0.380459 , 3.845266, 8.918050, 307236352.000000, 0.140000,  0.350000,  0.070000, 0.000000,  0.000000 
 175726128.000000, -0.382852 , 3.818945, 8.920443, 307256032.000000, -0.070000,  0.420000,  0.070000, 0.000000,  0.000000 
 175746128.000000, -0.392423 , 3.809374, 8.922836, 307276000.000000, -0.210000,  0.490000,  0.070000, 0.000000,  0.000000 
 175766128.000000, -0.380459 , 3.835695, 8.906086, 307296000.000000, -0.490000,  0.350000,  0.070000, 0.000000,  0.000000 
 175786416.000000, -0.399601 , 3.876373, 8.944371, 307316000.000000, -0.350000,  0.350000,  0.070000, 0.000000,  0.000000 
 175806096.000000, -0.356531 , 3.835695, 8.884550, 307336288.000000, -0.140000,  0.350000,  0.070000, 0.000000,  0.000000 
 175826064.000000, -0.409173 , 3.830909, 8.886944, 307355968.000000, -0.210000,  0.420000,  0.070000, 0.000000,  0.000000 
 175846064.000000, -0.385244 , 3.845266, 8.898908, 307375968.000000, -0.280000,  0.350000,  0.070000, 0.000000,  0.000000 
 175866064.000000, -0.373280 , 3.806981, 8.906086, 307395936.000000, -0.420000,  0.350000,  0.070000, 0.000000,  0.000000 
 175886352.000000, -0.435494 , 3.811767, 8.949157, 307415936.000000, -0.630000,  0.420000,  0.070000, 0.000000,  0.000000 
 175906032.000000, -0.425922 , 3.783052, 8.934800, 307436224.000000, -0.560000,  0.490000,  0.070000, 0.000000,  0.000000 
 175926032.000000, -0.404387 , 3.828516, 8.896514, 307455904.000000, -0.210000,  0.490000,  0.070000, 0.000000,  0.000000 
 175946032.000000, -0.411566 , 3.883551, 8.870193, 307475904.000000, 0.210000,  0.350000,  0.070000, 0.000000,  0.000000 
 175966000.000000, -0.363709 , 3.809374, 8.953942, 307495904.000000, 0.140000,  0.350000,  0.210000, 0.000000,  0.000000 
 175986320.000000, -0.370888 , 3.823731, 8.944371, 307515872.000000, 0.140000,  0.350000,  0.070000, 0.000000,  0.000000 
 176006000.000000, -0.459422 , 3.909872, 8.858230, 307536192.000000, 0.210000,  0.490000,  -0.280000, 0.000000,  0.000000 
 176025968.000000, -0.423530 , 3.878766, 8.891729, 307555872.000000, 0.210000,  0.560000,  -0.210000, 0.000000,  0.000000 
 176045968.000000, -0.378066 , 3.766303, 8.898908, 307575840.000000, -1.400000,  0.280000,  0.280000, 0.000000,  0.000000 
 176065936.000000, -0.373280 , 3.687340, 8.930015, 307595840.000000, -2.030000,  0.140000,  0.280000, 0.000000,  0.000000 
 176086256.000000, -0.354138 , 3.802195, 8.944371, 307615840.000000, -0.630000,  0.210000,  0.210000, 0.000000,  0.000000 
 176105936.000000, -0.394816 , 3.885944, 8.939585, 307636128.000000, 1.050000,  0.350000,  0.210000, 0.000000,  0.000000 
 176125904.000000, -0.382852 , 3.878766, 8.908479, 307655808.000000, 1.470000,  0.350000,  0.210000, 0.000000,  0.000000 
 176145904.000000, -0.358923 , 3.862016, 8.906086, 307695776.000000, -0.350000,  0.350000,  0.140000, 307695040.000000,  1008.917419 
 176165904.000000, -0.354138 , 3.878766, 8.915657, 0.000000, 0.000000,  0.000000,  0.000000, 0.000000,  0.000000 
 176186192.000000, -0.404387 , 3.811767, 8.934800, 307715776.000000, -1.190000,  0.420000,  0.140000, 0.000000,  0.000000 
 176205872.000000, -0.433101 , 3.723232, 8.910872, 307736064.000000, -1.610000,  0.490000,  0.140000, 0.000000,  0.000000 
 176225872.000000, -0.435494 , 3.799802, 8.894121, 307755744.000000, -0.980000,  0.350000,  0.070000, 0.000000,  0.000000 
 176245904.000000, -0.413958 , 3.833302, 8.932407, 307775744.000000, 0.070000,  0.350000,  0.070000, 0.000000,  0.000000 
 176265840.000000, -0.428315 , 3.833302, 8.891729, 307795776.000000, 0.630000,  0.350000,  0.070000, 0.000000,  0.000000 
 176286128.000000, -0.356531 , 3.818945, 8.884550, 307815712.000000, 0.350000,  0.350000,  0.210000, 0.000000,  0.000000 
 176305840.000000, -0.421137 , 3.830909, 8.930015, 307836032.000000, -0.140000,  0.280000,  0.070000, 0.000000,  0.000000 
 176325808.000000, -0.399601 , 3.869194, 8.927622, 307855712.000000, 0.070000,  0.420000,  0.070000, 0.000000,  0.000000 
 176345808.000000, -0.394816 , 3.850052, 8.939585, 307875680.000000, -0.210000,  0.490000,  0.070000, 0.000000,  0.000000 
 176365776.000000, -0.349352 , 3.783052, 8.891729, 307895680.000000, -0.630000,  0.350000,  0.140000, 0.000000,  0.000000 
 176386096.000000, -0.354138 , 3.833302, 8.906086, 307915680.000000, -0.560000,  0.210000,  0.280000, 0.000000,  0.000000 
 176405776.000000, -0.370888 , 3.909872, 8.906086, 307935968.000000, -0.070000,  0.280000,  0.210000, 0.000000,  0.000000 
 176425776.000000, -0.411566 , 3.842873, 8.922836, 307955648.000000, -0.070000,  0.420000,  0.210000, 0.000000,  0.000000 
 176445744.000000, -0.392423 , 3.821337, 8.915657, 307975648.000000, -0.280000,  0.490000,  -0.070000, 0.000000,  0.000000 
 176465744.000000, -0.392423 , 3.804588, 8.882158, 307995616.000000, -0.560000,  0.350000,  -0.070000, 0.000000,  0.000000 
 176486032.000000, -0.401994 , 3.766303, 8.965906, 308015616.000000, -0.630000,  0.350000,  0.070000, 0.000000,  0.000000 
 176505712.000000, -0.368495 , 3.845266, 8.896514, 308035904.000000, -0.700000,  0.490000,  0.070000, 0.000000,  0.000000 
 176525712.000000, -0.397209 , 3.847659, 8.937192, 308055584.000000, -0.630000,  0.350000,  0.070000, 0.000000,  0.000000 
 176545680.000000, -0.380459 , 3.862016, 8.937192, 308075584.000000, -0.280000,  0.350000,  0.070000, 0.000000,  0.000000 
 176565680.000000, -0.387637 , 3.828516, 8.910872, 308095584.000000, -0.280000,  0.350000,  0.070000, 0.000000,  0.000000 
 176585968.000000, -0.421137 , 3.859623, 8.951550, 308115552.000000, -0.070000,  0.420000,  0.070000, 0.000000,  0.000000 
 176605648.000000, -0.397209 , 3.828516, 8.910872, 308135872.000000, -0.280000,  0.350000,  0.070000, 0.000000,  0.000000 
 176625648.000000, -0.366102 , 3.873980, 8.925228, 308155552.000000, -0.210000,  0.350000,  0.140000, 0.000000,  0.000000 
 176645648.000000, -0.351745 , 3.890730, 8.894121, 308195520.000000, -0.210000,  0.420000,  0.070000, 0.000000,  0.000000 
 176665616.000000, -0.354138 , 3.818945, 8.920443, 0.000000, 0.000000,  0.000000,  0.000000, 0.000000,  0.000000 
 176685936.000000, -0.423530 , 3.883551, 8.898908, 308215520.000000, -0.210000,  0.420000,  0.070000, 0.000000,  0.000000 
 176705616.000000, -0.394816 , 3.862016, 8.925228, 308235808.000000, -0.420000,  0.350000,  0.070000, 0.000000,  0.000000 
 176725584.000000, -0.390030 , 3.797409, 8.872586, 308255488.000000, -0.560000,  0.350000,  0.070000, 0.000000,  0.000000 
 176745584.000000, -0.399601 , 3.842873, 8.884550, 308275456.000000, -0.490000,  0.490000,  0.070000, 0.000000,  0.000000 
 176765552.000000, -0.406780 , 3.821337, 8.896514, 308295456.000000, -0.490000,  0.490000,  0.070000, 0.000000,  0.000000 
 176785872.000000, -0.358923 , 3.828516, 8.903693, 308315424.000000, -0.210000,  0.420000,  0.140000, 0.000000,  0.000000 
 176805552.000000, -0.361316 , 3.838088, 8.930015, 308335744.000000, -0.210000,  0.350000,  0.210000, 0.000000,  0.000000 
 176825520.000000, -0.413958 , 3.816552, 8.915657, 308355424.000000, 0.140000,  0.350000,  0.210000, 0.000000,  0.000000 
 176845520.000000, -0.416351 , 3.940979, 8.831908, 308375424.000000, 0.420000,  0.490000,  -0.280000, 0.000000,  0.000000 
 176865520.000000, -0.404387 , 3.869194, 8.879765, 308395392.000000, 0.070000,  0.420000,  -0.210000, 0.000000,  0.000000 
 176885808.000000, -0.363709 , 3.756732, 8.968300, 308415392.000000, -1.540000,  0.280000,  0.280000, 0.000000,  0.000000 
 176905488.000000, -0.368495 , 3.720839, 8.992228, 308435712.000000, -2.450000,  0.210000,  0.280000, 0.000000,  0.000000 
 176925488.000000, -0.349352 , 3.821337, 8.939585, 308455360.000000, -1.050000,  0.210000,  0.210000, 0.000000,  0.000000 
 176945456.000000, -0.375673 , 3.897908, 8.934800, 308475360.000000, 0.980000,  0.280000,  0.140000, 0.000000,  0.000000 
 176965456.000000, -0.387637 , 3.948158, 8.851050, 308495328.000000, 1.610000,  0.420000,  0.140000, 0.000000,  0.000000 
 176985776.000000, -0.430708 , 3.921836, 8.886944, 308515328.000000, 0.560000,  0.490000,  -0.140000, 0.000000,  0.000000 
 177005424.000000, -0.387637 , 3.823731, 8.889337, 308535648.000000, -0.770000,  0.490000,  -0.140000, 0.000000,  0.000000 
 177025424.000000, -0.394816 , 3.826123, 8.973085, 308555296.000000, -1.750000,  0.490000,  -0.140000, 0.000000,  0.000000 
 177045424.000000, -0.394816 , 3.792624, 8.939585, 308575296.000000, -1.820000,  0.420000,  -0.070000, 0.000000,  0.000000 
 177065392.000000, -0.392423 , 3.816552, 8.946764, 308595296.000000, -0.980000,  0.420000,  -0.070000, 0.000000,  0.000000 
 177085712.000000, -0.378066 , 3.862016, 8.896514, 308615264.000000, 0.070000,  0.280000,  0.070000, 0.000000,  0.000000 
 177105392.000000, -0.392423 , 3.883551, 8.903693, 308635584.000000, 0.700000,  0.420000,  0.140000, 0.000000,  0.000000 
 177125360.000000, -0.387637 , 3.869194, 8.894121, 308655264.000000, 0.280000,  0.350000,  0.070000, 0.000000,  0.000000 
 177145360.000000, -0.409173 , 3.881158, 8.918050, 308675232.000000, -0.280000,  0.350000,  0.070000, 0.000000,  0.000000 
 177165328.000000, -0.413958 , 3.850052, 8.939585, 308695232.000000, -0.350000,  0.420000,  -0.070000, 308694496.000000,  1008.919189 
 177185648.000000, -0.387637 , 3.838088, 8.949157, 308715232.000000, -0.420000,  0.490000,  -0.070000, 0.000000,  0.000000 
 177205328.000000, -0.382852 , 3.835695, 8.886944, 308735520.000000, -0.700000,  0.280000,  0.140000, 0.000000,  0.000000 
 177225296.000000, -0.327817 , 3.816552, 8.879765, 308755200.000000, -0.420000,  0.140000,  0.210000, 0.000000,  0.000000 
 177245328.000000, -0.311067 , 3.869194, 8.939585, 308775200.000000, -0.070000,  0.210000,  0.140000, 0.000000,  0.000000 
 177265296.000000, -0.368495 , 3.850052, 8.944371, 308795200.000000, -0.070000,  0.350000,  0.070000, 0.000000,  0.000000 
 177285584.000000, -0.397209 , 3.859623, 8.898908, 308815168.000000, -0.560000,  0.420000,  0.070000, 0.000000,  0.000000 
 177305264.000000, -0.390030 , 3.862016, 8.908479, 308835456.000000, -0.700000,  0.420000,  -0.070000, 0.000000,  0.000000 
 177325264.000000, -0.337388 , 3.842873, 8.898908, 308855136.000000, -0.630000,  0.350000,  -0.070000, 0.000000,  0.000000 
 177345232.000000, -0.366102 , 3.797409, 8.930015, 308875136.000000, -0.630000,  0.420000,  -0.070000, 0.000000,  0.000000 
 177365232.000000, -0.411566 , 3.792624, 8.915657, 308895136.000000, -0.630000,  0.350000,  0.070000, 0.000000,  0.000000 
 177385520.000000, -0.411566 , 3.852444, 8.898908, 308915104.000000, -0.280000,  0.350000,  0.070000, 0.000000,  0.000000 
 177405200.000000, -0.382852 , 3.859623, 8.901299, 308935424.000000, -0.280000,  0.350000,  0.070000, 0.000000,  0.000000 
 177425200.000000, -0.330210 , 3.838088, 8.939585, 308955104.000000, -0.210000,  0.350000,  0.070000, 0.000000,  0.000000 
 177445200.000000, -0.390030 , 3.826123, 8.910872, 308975072.000000, -0.280000,  0.350000,  0.140000, 0.000000,  0.000000 
 177465168.000000, -0.373280 , 3.830909, 8.913264, 308995072.000000, -0.210000,  0.350000,  0.070000, 0.000000,  0.000000 
 177485488.000000, -0.421137 , 3.816552, 8.901299, 309015040.000000, -0.070000,  0.420000,  0.070000, 0.000000,  0.000000 
 177505168.000000, -0.380459 , 3.845266, 8.908479, 309035360.000000, -0.070000,  0.420000,  0.070000, 0.000000,  0.000000 
 177525136.000000, -0.363709 , 3.840480, 8.877372, 309055040.000000, -0.210000,  0.280000,  0.070000, 0.000000,  0.000000 
 177545136.000000, -0.382852 , 3.821337, 8.951550, 309075008.000000, -0.420000,  0.350000,  0.070000, 0.000000,  0.000000 
 177565136.000000, -0.385244 , 3.806981, 8.915657, 309095008.000000, -0.630000,  0.490000,  -0.070000, 0.000000,  0.000000 
 177585424.000000, -0.356531 , 3.826123, 8.906086, 309115008.000000, -0.770000,  0.490000,  -0.070000, 0.000000,  0.000000 
 177605104.000000, -0.351745 , 3.859623, 8.927622, 309135296.000000, -0.560000,  0.350000,  -0.070000, 0.000000,  0.000000 
 177625104.000000, -0.378066 , 3.828516, 8.922836, 309154976.000000, -0.140000,  0.280000,  0.140000, 0.000000,  0.000000 
 177645072.000000, -0.445065 , 3.847659, 8.958728, 309174976.000000, -0.070000,  0.350000,  0.140000, 0.000000,  0.000000 
 177665072.000000, -0.468993 , 3.907479, 8.853443, 309194944.000000, 0.140000,  0.420000,  -0.070000, 0.000000,  0.000000 
 177685360.000000, -0.411566 , 3.902694, 8.908479, 309214944.000000, 0.210000,  0.560000,  -0.280000, 0.000000,  0.000000 
 177705040.000000, -0.397209 , 3.862016, 8.918050, 309235264.000000, -0.350000,  0.350000,  -0.280000, 0.000000,  0.000000 
 177725040.000000, -0.366102 , 3.735196, 8.930015, 309254912.000000, -1.820000,  0.140000,  0.280000, 0.000000,  0.000000 
 177745040.000000, -0.368495 , 3.682554, 8.925228, 309274912.000000, -2.170000,  0.140000,  0.350000, 0.000000,  0.000000 
 177765008.000000, -0.378066 , 3.804588, 8.918050, 309294912.000000, -0.630000,  0.210000,  0.140000, 0.000000,  0.000000 
 177785328.000000, -0.382852 , 3.931407, 8.922836, 309314880.000000, 1.190000,  0.280000,  0.070000, 0.000000,  0.000000 
 177805008.000000, -0.399601 , 3.926622, 8.874979, 309335200.000000, 1.400000,  0.490000,  -0.070000, 0.000000,  0.000000 
 177824976.000000, -0.368495 , 3.885944, 8.884550, 309354880.000000, 0.350000,  0.420000,  -0.140000, 0.000000,  0.000000 
 177844976.000000, -0.356531 , 3.814159, 8.925228, 309374848.000000, -1.050000,  0.420000,  -0.140000, 0.000000,  0.000000 
 177864944.000000, -0.421137 , 3.775874, 8.973085, 309394848.000000, -1.890000,  0.420000,  -0.140000, 0.000000,  0.000000 
 177885264.000000, -0.425922 , 3.747160, 8.956335, 309414848.000000, -1.680000,  0.490000,  -0.070000, 0.000000,  0.000000 
 177904944.000000, -0.363709 , 3.830909, 8.920443, 309435136.000000, -0.630000,  0.350000,  -0.070000, 0.000000,  0.000000 
 177924944.000000, -0.404387 , 3.859623, 8.886944, 309454816.000000, 0.280000,  0.350000,  -0.070000, 0.000000,  0.000000 
 177944912.000000, -0.416351 , 3.857230, 8.889337, 309474816.000000, 0.630000,  0.420000,  -0.070000, 0.000000,  0.000000 
 177964912.000000, -0.397209 , 3.814159, 8.896514, 309494784.000000, 0.630000,  0.350000,  0.140000, 0.000000,  0.000000 
 177985200.000000, -0.394816 , 3.862016, 8.925228, 309514784.000000, -0.490000,  0.280000,  0.140000, 0.000000,  0.000000 
 178004880.000000, -0.385244 , 3.871587, 8.939585, 309535072.000000, -0.280000,  0.420000,  -0.070000, 0.000000,  0.000000 
 178024880.000000, -0.390030 , 3.802195, 8.953942, 309554752.000000, -0.420000,  0.490000,  -0.070000, 0.000000,  0.000000 
 178044880.000000, -0.378066 , 3.763910, 8.913264, 309574752.000000, -0.770000,  0.350000,  0.070000, 0.000000,  0.000000 
 178064848.000000, -0.373280 , 3.833302, 8.906086, 309594752.000000, -0.490000,  0.210000,  0.210000, 0.000000,  0.000000 
 178085168.000000, -0.318245 , 3.809374, 8.898908, 309614720.000000, -0.490000,  0.210000,  0.210000, 0.000000,  0.000000 
 178104848.000000, -0.404387 , 3.881158, 8.903693, 309635040.000000, 0.140000,  0.420000,  -0.070000, 0.000000,  0.000000 
 178124816.000000, -0.351745 , 3.816552, 8.870193, 309654720.000000, -0.210000,  0.490000,  -0.140000, 0.000000,  0.000000 
 178144816.000000, -0.454636 , 3.818945, 8.922836, 309694688.000000, -1.050000,  0.350000,  -0.070000, 309693952.000000,  1008.914612 
 178164816.000000, -0.351745 , 3.818945, 8.941978, 0.000000, 0.000000,  0.000000,  0.000000, 0.000000,  0.000000 
 178185104.000000, -0.344566 , 3.816552, 8.903693, 309714688.000000, -0.770000,  0.420000,  0.070000, 0.000000,  0.000000 
 178204784.000000, -0.397209 , 3.847659, 8.918050, 309734976.000000, -0.280000,  0.280000,  0.070000, 0.000000,  0.000000 
 178224784.000000, -0.385244 , 3.857230, 8.865408, 309754656.000000, 0.140000,  0.350000,  0.070000, 0.000000,  0.000000 
 178244784.000000, -0.437887 , 3.840480, 8.915657, 309774656.000000, 0.140000,  0.420000,  0.070000, 0.000000,  0.000000 
 178264752.000000, -0.392423 , 3.838088, 8.922836, 309794688.000000, -0.490000,  0.420000,  0.070000, 0.000000,  0.000000 
 178285040.000000, -0.394816 , 3.821337, 8.927622, 309814624.000000, -0.630000,  0.420000,  0.070000, 0.000000,  0.000000 
 178304720.000000, -0.323031 , 3.840480, 8.922836, 309834912.000000, -0.490000,  0.420000,  0.070000, 0.000000,  0.000000 
 178324880.000000, -0.380459 , 3.818945, 8.894121, 309854592.000000, -0.210000,  0.350000,  0.070000, 0.000000,  0.000000 
 178344720.000000, -0.394816 , 3.823731, 8.949157, 309874752.000000, -0.070000,  0.420000,  0.070000, 0.000000,  0.000000 
 178364688.000000, -0.401994 , 3.876373, 8.894121, 309894592.000000, -0.070000,  0.420000,  0.070000, 0.000000,  0.000000 
 178385104.000000, -0.344566 , 3.845266, 8.913264, 309914560.000000, -0.280000,  0.350000,  0.140000, 0.000000,  0.000000 
 178404688.000000, -0.382852 , 3.842873, 8.956335, 309934976.000000, -0.630000,  0.420000,  0.140000, 0.000000,  0.000000 
 178424656.000000, -0.380459 , 3.795017, 8.906086, 309954560.000000, -0.700000,  0.560000,  -0.070000, 0.000000,  0.000000 
 178444656.000000, -0.358923 , 3.818945, 8.918050, 309974528.000000, -0.420000,  0.420000,  0.070000, 0.000000,  0.000000 
 178464656.000000, -0.392423 , 3.857230, 8.944371, 309994528.000000, -0.070000,  0.350000,  0.070000, 0.000000,  0.000000 
 178484944.000000, -0.339781 , 3.847659, 8.934800, 310014528.000000, 0.140000,  0.420000,  0.070000, 0.000000,  0.000000 
 178504624.000000, -0.387637 , 3.833302, 8.958728, 310034816.000000, -0.140000,  0.350000,  0.140000, 0.000000,  0.000000 
 178524592.000000, -0.428315 , 3.921836, 8.886944, 310054496.000000, -0.140000,  0.350000,  -0.210000, 0.000000,  0.000000 
 178544592.000000, -0.392423 , 3.885944, 8.879765, 310074464.000000, 0.070000,  0.560000,  -0.280000, 0.000000,  0.000000 
 178564560.000000, -0.361316 , 3.787838, 8.913264, 310094464.000000, -0.980000,  0.350000,  0.140000, 0.000000,  0.000000 
 178584880.000000, -0.382852 , 3.704089, 8.961121, 310114464.000000, -2.030000,  0.210000,  0.280000, 0.000000,  0.000000 
 178604560.000000, -0.380459 , 3.754339, 8.918050, 310134752.000000, -1.400000,  0.210000,  0.280000, 0.000000,  0.000000 
 178624528.000000, -0.423530 , 3.890730, 8.915657, 310154432.000000, 0.490000,  0.210000,  0.140000, 0.000000,  0.000000 
 178644528.000000, -0.423530 , 3.926622, 8.882158, 310174432.000000, 1.540000,  0.420000,  0.140000, 0.000000,  0.000000 
 178664528.000000, -0.370888 , 3.888337, 8.863015, 310194400.000000, 1.050000,  0.420000,  -0.070000, 0.000000,  0.000000 
 178684848.000000, -0.401994 , 3.826123, 8.879765, 310214400.000000, -0.070000,  0.280000,  0.140000, 0.000000,  0.000000 
 178704496.000000, -0.399601 , 3.811767, 8.908479, 310234720.000000, -0.980000,  0.350000,  0.070000, 0.000000,  0.000000 
 178724496.000000, -0.387637 , 3.751946, 8.944371, 310254368.000000, -1.540000,  0.490000,  -0.070000, 0.000000,  0.000000 
 178744464.000000, -0.366102 , 3.749553, 8.949157, 310274368.000000, -1.120000,  0.420000,  -0.070000, 0.000000,  0.000000 
 178764464.000000, -0.373280 , 3.830909, 8.867801, 310294368.000000, -0.210000,  0.420000,  0.070000, 0.000000,  0.000000 
 178784784.000000, -0.401994 , 3.828516, 8.920443, 310334656.000000, 0.350000,  0.420000,  0.210000, 0.000000,  0.000000 
 178804432.000000, -0.354138 , 3.857230, 8.910872, 0.000000, 0.000000,  0.000000,  0.000000, 0.000000,  0.000000 
 178824432.000000, -0.344566 , 3.797409, 8.918050, 310354336.000000, 0.350000,  0.210000,  0.140000, 0.000000,  0.000000 
 178844432.000000, -0.411566 , 3.869194, 8.906086, 310374304.000000, -0.070000,  0.350000,  0.140000, 0.000000,  0.000000 
 178864400.000000, -0.430708 , 3.850052, 8.937192, 310394304.000000, -0.140000,  0.490000,  -0.070000, 0.000000,  0.000000 
 178884720.000000, -0.435494 , 3.823731, 8.920443, 310414272.000000, -0.630000,  0.490000,  -0.070000, 0.000000,  0.000000 
 178904400.000000, -0.363709 , 3.823731, 8.882158, 310434592.000000, -0.560000,  0.210000,  0.280000, 0.000000,  0.000000 
 178924368.000000, -0.366102 , 3.828516, 8.932407, 310454272.000000, -0.140000,  0.210000,  0.210000, 0.000000,  0.000000 
 178944368.000000, -0.387637 , 3.869194, 8.906086, 310474240.000000, 0.210000,  0.350000,  0.140000, 0.000000,  0.000000 
 178964368.000000, -0.413958 , 3.842873, 8.918050, 310494240.000000, -0.140000,  0.420000,  -0.070000, 0.000000,  0.000000 
 178984656.000000, -0.370888 , 3.821337, 8.913264, 310514240.000000, -0.490000,  0.420000,  -0.070000, 0.000000,  0.000000 
 179004336.000000, -0.390030 , 3.854837, 8.934800, 310534528.000000, -0.770000,  0.350000,  -0.070000, 0.000000,  0.000000 
 179024336.000000, -0.361316 , 3.869194, 8.939585, 310554208.000000, -0.630000,  0.350000,  0.070000, 0.000000,  0.000000 
 179044304.000000, -0.366102 , 3.816552, 8.939585, 310574208.000000, -0.420000,  0.350000,  0.070000, 0.000000,  0.000000 
 179064304.000000, -0.349352 , 3.883551, 8.898908, 310594176.000000, -0.420000,  0.350000,  0.140000, 0.000000,  0.000000 
 179084592.000000, -0.401994 , 3.828516, 8.886944, 310614176.000000, 0.210000,  0.420000,  0.140000, 0.000000,  0.000000 
 179104272.000000, -0.418744 , 3.866802, 8.894121, 310634464.000000, 0.210000,  0.420000,  0.140000, 0.000000,  0.000000 
 179124272.000000, -0.399601 , 3.850052, 8.918050, 310654144.000000, -0.350000,  0.420000,  0.070000, 0.000000,  0.000000 
 179144272.000000, -0.394816 , 3.866802, 8.946764, 310674144.000000, -0.350000,  0.350000,  0.070000, 0.000000,  0.000000 
 179164240.000000, -0.387637 , 3.881158, 8.901299, 310694144.000000, -0.140000,  0.350000,  0.140000, 310693408.000000,  1008.917786 
 179184560.000000, -0.392423 , 3.847659, 8.886944, 310714112.000000, -0.140000,  0.350000,  0.070000, 0.000000,  0.000000 
 179204240.000000, -0.433101 , 3.828516, 8.898908, 310734432.000000, -0.140000,  0.350000,  0.140000, 0.000000,  0.000000 
 179224208.000000, -0.394816 , 3.859623, 8.901299, 310754112.000000, -0.350000,  0.420000,  0.070000, 0.000000,  0.000000 
 179244240.000000, -0.382852 , 3.826123, 8.910872, 310774080.000000, -0.280000,  0.420000,  0.140000, 0.000000,  0.000000 
 179264176.000000, -0.375673 , 3.866802, 8.848659, 310794112.000000, -0.350000,  0.350000,  0.140000, 0.000000,  0.000000 
 179284496.000000, -0.430708 , 3.802195, 8.930015, 310814080.000000, -0.350000,  0.350000,  0.070000, 0.000000,  0.000000 
 179304176.000000, -0.397209 , 3.821337, 8.918050, 310834368.000000, -0.210000,  0.560000,  -0.070000, 0.000000,  0.000000 
 179324144.000000, -0.394816 , 3.859623, 8.901299, 310854048.000000, -0.210000,  0.490000,  0.070000, 0.000000,  0.000000 
 179344144.000000, -0.368495 , 3.854837, 8.944371, 310874048.000000, -0.210000,  0.350000,  0.140000, 0.000000,  0.000000 
 179364144.000000, -0.363709 , 3.814159, 8.946764, 310894016.000000, -0.210000,  0.280000,  0.140000, 0.000000,  0.000000 
 179384432.000000, -0.344566 , 3.873980, 8.980263, 310914016.000000, -0.140000,  0.350000,  0.140000, 0.000000,  0.000000 
 179404112.000000, -0.428315 , 3.921836, 8.879765, 310934304.000000, 0.070000,  0.490000,  -0.210000, 0.000000,  0.000000 
 179424112.000000, -0.423530 , 3.878766, 8.886944, 310953984.000000, 0.140000,  0.490000,  -0.280000, 0.000000,  0.000000 
 179444080.000000, -0.385244 , 3.797409, 8.944371, 310973984.000000, -0.910000,  0.280000,  0.140000, 0.000000,  0.000000 
 179464080.000000, -0.380459 , 3.728018, 8.939585, 310993984.000000, -2.100000,  0.140000,  0.350000, 0.000000,  0.000000 
 179484368.000000, -0.406780 , 3.787838, 8.982656, 311013952.000000, -1.330000,  0.210000,  0.210000, 0.000000,  0.000000 
 179504048.000000, -0.387637 , 3.873980, 8.941978, 311034272.000000, 0.490000,  0.280000,  0.140000, 0.000000,  0.000000 
 179524048.000000, -0.413958 , 3.869194, 8.894121, 311053952.000000, 1.470000,  0.420000,  0.070000, 0.000000,  0.000000 
 179544048.000000, -0.428315 , 3.929015, 8.884550, 311073920.000000, 0.910000,  0.420000,  -0.140000, 0.000000,  0.000000 
 179564016.000000, -0.351745 , 3.847659, 8.870193, 311093920.000000, 0.280000,  0.420000,  -0.140000, 0.000000,  0.000000 
 179584336.000000, -0.351745 , 3.840480, 8.932407, 311113888.000000, -0.840000,  0.420000,  0.070000, 0.000000,  0.000000 
 179604016.000000, -0.404387 , 3.747160, 8.968300, 311134208.000000, -1.610000,  0.420000,  0.070000, 0.000000,  0.000000 
 179623984.000000, -0.390030 , 3.778267, 8.927622, 311153888.000000, -1.680000,  0.420000,  -0.070000, 0.000000,  0.000000 
 179643984.000000, -0.399601 , 3.799802, 8.872586, 311173888.000000, -0.910000,  0.350000,  -0.070000, 0.000000,  0.000000 
 179663984.000000, -0.382852 , 3.828516, 8.865408, 311193856.000000, 0.140000,  0.350000,  0.140000, 0.000000,  0.000000 
 179684272.000000, -0.421137 , 3.857230, 8.913264, 311213856.000000, 0.490000,  0.350000,  0.070000, 0.000000,  0.000000 
 179703952.000000, -0.344566 , 3.826123, 8.927622, 311234144.000000, 0.070000,  0.350000,  0.140000, 0.000000,  0.000000 
 179723952.000000, -0.404387 , 3.840480, 8.930015, 311253824.000000, -0.350000,  0.280000,  0.070000, 0.000000,  0.000000 
 179743920.000000, -0.435494 , 3.876373, 8.913264, 311273824.000000, -0.210000,  0.420000,  -0.070000, 0.000000,  0.000000 
 179763920.000000, -0.401994 , 3.840480, 8.930015, 311293792.000000, -0.350000,  0.420000,  0.070000, 0.000000,  0.000000 
 179784208.000000, -0.401994 , 3.838088, 8.882158, 311313792.000000, -0.630000,  0.350000,  0.140000, 0.000000,  0.000000 
 179803888.000000, -0.380459 , 3.806981, 8.896514, 311334080.000000, -0.490000,  0.280000,  0.140000, 0.000000,  0.000000 
 179823888.000000, -0.334995 , 3.888337, 8.913264, 311353792.000000, -0.140000,  0.350000,  0.140000, 0.000000,  0.000000 
 179843888.000000, -0.361316 , 3.854837, 8.910872, 311373760.000000, -0.140000,  0.350000,  0.070000, 0.000000,  0.000000 
 179863856.000000, -0.378066 , 3.830909, 8.889337, 311393760.000000, -0.350000,  0.420000,  -0.070000, 0.000000,  0.000000 
 179884176.000000, -0.373280 , 3.859623, 8.922836, 311413728.000000, -0.560000,  0.350000,  -0.070000, 0.000000,  0.000000 
 179903856.000000, -0.356531 , 3.840480, 8.894121, 311434048.000000, -0.700000,  0.420000,  -0.070000, 0.000000,  0.000000 
 179923824.000000, -0.406780 , 3.830909, 8.934800, 311453728.000000, -0.840000,  0.420000,  -0.070000, 0.000000,  0.000000 
 179943824.000000, -0.387637 , 3.821337, 8.910872, 311473728.000000, -0.770000,  0.350000,  -0.070000, 0.000000,  0.000000 
 179963824.000000, -0.392423 , 3.878766, 8.910872, 311493696.000000, -0.420000,  0.350000,  0.070000, 0.000000,  0.000000 
 179984112.000000, -0.375673 , 3.847659, 8.891729, 311513696.000000, -0.210000,  0.350000,  0.070000, 0.000000,  0.000000 
 180003792.000000, -0.339781 , 3.797409, 8.894121, 311533984.000000, -0.280000,  0.350000,  0.070000, 0.000000,  0.000000 
 180023792.000000, -0.378066 , 3.833302, 8.906086, 311553664.000000, -0.280000,  0.350000,  0.140000, 0.000000,  0.000000 
 180043760.000000, -0.401994 , 3.792624, 8.934800, 311573664.000000, -0.210000,  0.280000,  0.070000, 0.000000,  0.000000 
 180063760.000000, -0.349352 , 3.830909, 8.879765, 311593664.000000, -0.140000,  0.350000,  0.070000, 0.000000,  0.000000 
 180084048.000000, -0.392423 , 3.795017, 8.872586, 311613632.000000, -0.140000,  0.350000,  0.070000, 0.000000,  0.000000 
 180103728.000000, -0.380459 , 3.838088, 8.884550, 311633920.000000, -0.280000,  0.350000,  0.140000, 0.000000,  0.000000 
 180123728.000000, -0.378066 , 3.792624, 8.939585, 311653632.000000, -0.420000,  0.280000,  0.070000, 0.000000,  0.000000 
 180143728.000000, -0.449851 , 3.821337, 8.894121, 311673600.000000, -0.630000,  0.350000,  0.070000, 0.000000,  0.000000 
 180163696.000000, -0.394816 , 3.809374, 8.896514, 311693600.000000, -0.560000,  0.490000,  -0.070000, 311692864.000000,  1008.917725 
 180184016.000000, -0.373280 , 3.823731, 8.898908, 311713568.000000, -0.420000,  0.420000,  -0.070000, 0.000000,  0.000000 
 180203696.000000, -0.346959 , 3.864408, 8.932407, 311733888.000000, 0.070000,  0.280000,  0.280000, 0.000000,  0.000000 
 180223664.000000, -0.387637 , 3.902694, 8.968300, 311753568.000000, 0.350000,  0.350000,  0.140000, 0.000000,  0.000000 
 180243696.000000, -0.421137 , 3.909872, 8.898908, 311773536.000000, 0.350000,  0.490000,  -0.140000, 0.000000,  0.000000 
 180263664.000000, -0.466600 , 3.933800, 8.867801, 311793568.000000, 0.210000,  0.560000,  -0.350000, 0.000000,  0.000000 
 180283952.000000, -0.382852 , 3.806981, 8.898908, 311813536.000000, -0.980000,  0.350000,  0.070000, 0.000000,  0.000000 
 180303632.000000, -0.356531 , 3.728018, 8.997013, 311833824.000000, -2.380000,  0.210000,  0.350000, 0.000000,  0.000000 
 180323600.000000, -0.337388 , 3.735196, 8.932407, 311853504.000000, -1.890000,  0.210000,  0.280000, 0.000000,  0.000000 
 180343600.000000, -0.401994 , 3.854837, 8.941978, 311873472.000000, 0.140000,  0.280000,  0.140000, 0.000000,  0.000000 
 180363600.000000, -0.392423 , 3.957729, 8.906086, 311893472.000000, 1.610000,  0.280000,  0.140000, 0.000000,  0.000000 
 180383888.000000, -0.401994 , 3.895515, 8.860621, 311913472.000000, 1.260000,  0.420000,  -0.140000, 0.000000,  0.000000 
 180403568.000000, -0.373280 , 3.838088, 8.891729, 311933760.000000, -0.210000,  0.420000,  -0.070000, 0.000000,  0.000000 
 180423568.000000, -0.354138 , 3.809374, 8.937192, 311953440.000000, -1.400000,  0.350000,  0.070000, 0.000000,  0.000000 
 180443536.000000, -0.430708 , 3.761517, 8.944371, 311973440.000000, -1.890000,  0.420000,  0.070000, 0.000000,  0.000000 
 180463536.000000, -0.380459 , 3.795017, 8.953942, 311993408.000000, -1.400000,  0.420000,  -0.140000, 0.000000,  0.000000 
 180483856.000000, -0.370888 , 3.845266, 8.894121, 312013408.000000, -0.140000,  0.350000,  -0.140000, 0.000000,  0.000000 
 180503504.000000, -0.361316 , 3.883551, 8.906086, 312033728.000000, 0.700000,  0.350000,  0.070000, 0.000000,  0.000000 
 180523504.000000, -0.387637 , 3.873980, 8.891729, 312053376.000000, 0.630000,  0.350000,  0.070000, 0.000000,  0.000000 
 180543472.000000, -0.399601 , 3.828516, 8.915657, 312073376.000000, -0.070000,  0.350000,  0.140000, 0.000000,  0.000000 
 180563472.000000, -0.406780 , 3.847659, 8.903693, 312093376.000000, -0.420000,  0.350000,  0.070000, 0.000000,  0.000000 
 180583792.000000, -0.366102 , 3.806981, 8.898908, 312133664.000000, -0.560000,  0.420000,  0.070000, 0.000000,  0.000000 
 180603440.000000, -0.437887 , 3.828516, 8.889337, 0.000000, 0.000000,  0.000000,  0.000000, 0.000000,  0.000000 
 180623440.000000, -0.358923 , 3.804588, 8.882158, 312153344.000000, -0.700000,  0.280000,  0.070000, 0.000000,  0.000000 
 180643440.000000, -0.366102 , 3.821337, 8.886944, 312173312.000000, -0.280000,  0.210000,  0.210000, 0.000000,  0.000000 
 180663408.000000, -0.361316 , 3.862016, 8.858230, 312193312.000000, 0.070000,  0.210000,  0.210000, 0.000000,  0.000000 
 180683920.000000, -0.392423 , 3.862016, 8.932407, 312213312.000000, 0.070000,  0.490000,  -0.070000, 0.000000,  0.000000 
 180703408.000000, -0.368495 , 3.850052, 8.918050, 312233792.000000, -0.490000,  0.490000,  -0.140000, 0.000000,  0.000000 
 180723376.000000, -0.392423 , 3.802195, 8.944371, 312253280.000000, -1.050000,  0.350000,  -0.140000, 0.000000,  0.000000 
 180743376.000000, -0.390030 , 3.816552, 8.961121, 312273280.000000, -0.980000,  0.350000,  0.070000, 0.000000,  0.000000 
 180763376.000000, -0.378066 , 3.835695, 8.937192, 312293248.000000, -0.560000,  0.420000,  0.070000, 0.000000,  0.000000 
 180783664.000000, -0.392423 , 3.850052, 8.860621, 312313248.000000, -0.070000,  0.280000,  0.070000, 0.000000,  0.000000 
 180803344.000000, -0.373280 , 3.890730, 8.877372, 312333568.000000, 0.210000,  0.350000,  0.070000, 0.000000,  0.000000 
 180823344.000000, -0.401994 , 3.828516, 8.901299, 312353216.000000, -0.140000,  0.420000,  0.070000, 0.000000,  0.000000 
 180843312.000000, -0.351745 , 3.816552, 8.944371, 312373216.000000, -0.490000,  0.420000,  0.070000, 0.000000,  0.000000 
 180863312.000000, -0.411566 , 3.833302, 8.934800, 312393184.000000, -0.630000,  0.420000,  0.070000, 0.000000,  0.000000 
 180883600.000000, -0.375673 , 3.842873, 8.910872, 312413184.000000, -0.350000,  0.350000,  0.070000, 0.000000,  0.000000 
 180903280.000000, -0.358923 , 3.885944, 8.908479, 312433504.000000, -0.350000,  0.420000,  0.070000, 0.000000,  0.000000 
 180923280.000000, -0.380459 , 3.857230, 8.927622, 312453184.000000, -0.350000,  0.420000,  0.070000, 0.000000,  0.000000 
 180943280.000000, -0.349352 , 3.852444, 8.915657, 312473152.000000, -0.350000,  0.350000,  0.070000, 0.000000,  0.000000 
 180963248.000000, -0.385244 , 3.835695, 8.951550, 312493152.000000, -0.630000,  0.350000,  0.070000, 0.000000,  0.000000 
 180983568.000000, -0.468993 , 3.768696, 8.937192, 312513120.000000, -0.770000,  0.490000,  0.070000, 0.000000,  0.000000 
 181003248.000000, -0.394816 , 3.811767, 8.922836, 312533440.000000, -0.630000,  0.420000,  0.070000, 0.000000,  0.000000 
 181023216.000000, -0.361316 , 3.857230, 8.898908, 312573088.000000, 0.210000,  0.350000,  0.140000, 0.000000,  0.000000 
 181043216.000000, -0.406780 , 3.854837, 8.863015, 0.000000, 0.000000,  0.000000,  0.000000, 0.000000,  0.000000 
 181063216.000000, -0.380459 , 3.881158, 8.901299, 312593088.000000, 0.210000,  0.350000,  0.070000, 0.000000,  0.000000 
 181083504.000000, -0.442672 , 3.921836, 8.872586, 312613088.000000, 0.140000,  0.490000,  -0.210000, 0.000000,  0.000000 
 181103184.000000, -0.397209 , 3.907479, 8.886944, 312633376.000000, 0.070000,  0.490000,  -0.280000, 0.000000,  0.000000 
 181123152.000000, -0.411566 , 3.778267, 8.903693, 312673056.000000, -2.170000,  0.210000,  0.210000, 0.000000,  0.000000 
 181143152.000000, -0.378066 , 3.723232, 8.941978, 0.000000, 0.000000,  0.000000,  0.000000, 0.000000,  0.000000 
 181163152.000000, -0.354138 , 3.797409, 8.886944, 312693024.000000, -1.540000,  0.140000,  0.210000, 312692288.000000,  1008.917297 
 181183440.000000, -0.380459 , 3.866802, 8.939585, 312713024.000000, 0.210000,  0.210000,  0.210000, 0.000000,  0.000000 
 181203120.000000, -0.440279 , 3.897908, 8.894121, 312733312.000000, 1.400000,  0.350000,  0.210000, 0.000000,  0.000000 
 181223120.000000, -0.344566 , 3.852444, 8.860621, 312752992.000000, 1.120000,  0.420000,  0.210000, 0.000000,  0.000000 
 181243152.000000, -0.378066 , 3.833302, 8.894121, 312772992.000000, -0.070000,  0.420000,  0.210000, 0.000000,  0.000000 
 181263088.000000, -0.397209 , 3.811767, 8.941978, 312793024.000000, -1.260000,  0.420000,  0.070000, 0.000000,  0.000000 
 181283408.000000, -0.378066 , 3.756732, 8.901299, 312812960.000000, -1.680000,  0.420000,  -0.070000, 0.000000,  0.000000 
 181303056.000000, -0.411566 , 3.780660, 8.925228, 312833280.000000, -1.260000,  0.420000,  -0.070000, 0.000000,  0.000000 
 181323056.000000, -0.363709 , 3.809374, 8.870193, 312852960.000000, -0.280000,  0.350000,  0.070000, 0.000000,  0.000000 
 181343056.000000, -0.409173 , 3.869194, 8.910872, 312872928.000000, 0.490000,  0.350000,  0.070000, 0.000000,  0.000000 
 181363024.000000, -0.390030 , 3.864408, 8.922836, 312892928.000000, 0.350000,  0.420000,  0.070000, 0.000000,  0.000000 
 181383344.000000, -0.399601 , 3.838088, 8.886944, 312912928.000000, -0.140000,  0.350000,  0.070000, 0.000000,  0.000000 
 181403024.000000, -0.392423 , 3.864408, 8.889337, 312933216.000000, -0.350000,  0.420000,  0.070000, 0.000000,  0.000000 
 181422992.000000, -0.433101 , 3.842873, 8.953942, 312972896.000000, -0.420000,  0.490000,  0.070000, 0.000000,  0.000000 
 181442992.000000, -0.373280 , 3.818945, 8.891729, 0.000000, 0.000000,  0.000000,  0.000000, 0.000000,  0.000000 
 181462992.000000, -0.354138 , 3.842873, 8.889337, 312992864.000000, -0.560000,  0.280000,  0.210000, 0.000000,  0.000000 
 181483280.000000, -0.368495 , 3.804588, 8.927622, 313012864.000000, -0.490000,  0.210000,  0.210000, 0.000000,  0.000000 
 181502960.000000, -0.368495 , 3.864408, 8.927622, 313033152.000000, 0.070000,  0.280000,  0.210000, 0.000000,  0.000000 
 181522960.000000, -0.406780 , 3.850052, 8.877372, 313052832.000000, 0.210000,  0.350000,  0.070000, 0.000000,  0.000000 
 181542928.000000, -0.375673 , 3.876373, 8.882158, 313072832.000000, -0.140000,  0.420000,  -0.070000, 0.000000,  0.000000 
 181562928.000000, -0.325424 , 3.828516, 8.901299, 313092800.000000, -0.700000,  0.420000,  -0.070000, 0.000000,  0.000000 
 181583216.000000, -0.385244 , 3.814159, 8.925228, 313112800.000000, -0.840000,  0.350000,  0.070000, 0.000000,  0.000000 
 181602896.000000, -0.363709 , 3.823731, 8.920443, 313133120.000000, -0.700000,  0.420000,  0.140000, 0.000000,  0.000000 
 181622896.000000, -0.382852 , 3.845266, 8.898908, 313152800.000000, -0.210000,  0.350000,  0.140000, 0.000000,  0.000000 
 181642896.000000, -0.385244 , 3.838088, 8.918050, 313172768.000000, 0.140000,  0.350000,  0.070000, 0.000000,  0.000000 
 181662864.000000, -0.418744 , 3.873980, 8.884550, 313192768.000000, 0.140000,  0.420000,  0.070000, 0.000000,  0.000000 
 181683184.000000, -0.382852 , 3.873980, 8.939585, 313212736.000000, -0.210000,  0.490000,  0.070000, 0.000000,  0.000000 
 181702864.000000, -0.401994 , 3.823731, 8.891729, 313233056.000000, -0.490000,  0.350000,  0.140000, 0.000000,  0.000000 
 181722832.000000, -0.358923 , 3.852444, 8.925228, 313252736.000000, -0.350000,  0.350000,  0.070000, 0.000000,  0.000000 
 181742832.000000, -0.428315 , 3.869194, 8.910872, 313272736.000000, 0.070000,  0.420000,  0.070000, 0.000000,  0.000000 
 181762832.000000, -0.392423 , 3.878766, 8.925228, 313292704.000000, 0.210000,  0.420000,  0.070000, 0.000000,  0.000000 
 181783120.000000, -0.363709 , 3.852444, 8.913264, 313312704.000000, -0.070000,  0.280000,  0.140000, 0.000000,  0.000000 
 181802800.000000, -0.358923 , 3.821337, 8.898908, 313332992.000000, -0.420000,  0.350000,  0.140000, 0.000000,  0.000000 
 181822800.000000, -0.401994 , 3.838088, 8.925228, 313352672.000000, -0.560000,  0.420000,  0.070000, 0.000000,  0.000000 
 181842768.000000, -0.375673 , 3.799802, 8.918050, 313372672.000000, -0.560000,  0.420000,  0.140000, 0.000000,  0.000000 
 181862768.000000, -0.385244 , 3.838088, 8.889337, 313392672.000000, -0.280000,  0.420000,  0.070000, 0.000000,  0.000000 
 181883056.000000, -0.368495 , 3.873980, 8.934800, 313412640.000000, 0.070000,  0.280000,  0.140000, 0.000000,  0.000000 
 181902736.000000, -0.392423 , 3.866802, 8.906086, 313432928.000000, 0.070000,  0.350000,  0.140000, 0.000000,  0.000000 
 181922736.000000, -0.411566 , 3.926622, 8.867801, 313452640.000000, 0.280000,  0.420000,  -0.140000, 0.000000,  0.000000 
 181942736.000000, -0.445065 , 3.909872, 8.853443, 313472608.000000, 0.210000,  0.490000,  -0.280000, 0.000000,  0.000000 
 181962704.000000, -0.387637 , 3.780660, 8.882158, 313492608.000000, -0.910000,  0.350000,  0.070000, 0.000000,  0.000000 
 181983024.000000, -0.351745 , 3.675375, 8.930015, 313512608.000000, -2.310000,  0.140000,  0.350000, 0.000000,  0.000000 
 182002704.000000, -0.380459 , 3.761517, 8.985049, 313532896.000000, -1.540000,  0.140000,  0.280000, 0.000000,  0.000000 
 182022672.000000, -0.363709 , 3.888337, 8.922836, 313552576.000000, 0.560000,  0.280000,  0.140000, 0.000000,  0.000000 
 182042672.000000, -0.387637 , 3.962514, 8.858230, 313572544.000000, 1.610000,  0.350000,  0.070000, 0.000000,  0.000000 
 182062672.000000, -0.397209 , 3.905087, 8.848659, 313592544.000000, 0.980000,  0.420000,  0.070000, 0.000000,  0.000000 
 182082960.000000, -0.354138 , 3.876373, 8.903693, 313612544.000000, -0.210000,  0.420000,  0.070000, 0.000000,  0.000000 
 182102640.000000, -0.382852 , 3.840480, 8.894121, 313632832.000000, -1.330000,  0.420000,  0.070000, 0.000000,  0.000000 
 182122640.000000, -0.382852 , 3.778267, 8.922836, 313652512.000000, -1.890000,  0.490000,  -0.070000, 0.000000,  0.000000 
 182142608.000000, -0.416351 , 3.783052, 8.946764, 313672512.000000, -1.540000,  0.490000,  -0.070000, 0.000000,  0.000000 
 182162608.000000, -0.390030 , 3.826123, 8.891729, 313692480.000000, -0.420000,  0.350000,  0.070000, 313691744.000000,  1008.919800 
 182182896.000000, -0.358923 , 3.881158, 8.937192, 313712480.000000, 0.560000,  0.280000,  0.140000, 0.000000,  0.000000 
 182202576.000000, -0.385244 , 3.881158, 8.913264, 313732768.000000, 0.560000,  0.350000,  0.210000, 0.000000,  0.000000 
 182222576.000000, -0.378066 , 3.847659, 8.877372, 313752448.000000, 0.560000,  0.350000,  0.070000, 0.000000,  0.000000 
 182242576.000000, -0.380459 , 3.854837, 8.906086, 313772448.000000, -0.210000,  0.350000,  0.070000, 0.000000,  0.000000 
 182262544.000000, -0.404387 , 3.845266, 8.946764, 313792480.000000, -0.280000,  0.490000,  -0.070000, 0.000000,  0.000000 
 182282864.000000, -0.387637 , 3.816552, 8.877372, 313812416.000000, -0.560000,  0.420000,  0.140000, 0.000000,  0.000000 
 182302512.000000, -0.392423 , 3.854837, 8.884550, 313832736.000000, -0.560000,  0.280000,  0.210000, 0.000000,  0.000000 
 182322672.000000, -0.370888 , 3.871587, 8.915657, 313852416.000000, -0.140000,  0.280000,  0.210000, 0.000000,  0.000000 
 182342512.000000, -0.373280 , 3.864408, 8.870193, 313872576.000000, 0.070000,  0.350000,  0.140000, 0.000000,  0.000000 
 182362480.000000, -0.382852 , 3.821337, 8.882158, 313892384.000000, -0.140000,  0.420000,  -0.070000, 0.000000,  0.000000 
 182382800.000000, -0.401994 , 3.830909, 8.889337, 313912352.000000, -0.420000,  0.420000,  -0.070000, 0.000000,  0.000000 
 182402480.000000, -0.382852 , 3.811767, 8.906086, 313932672.000000, -0.770000,  0.350000,  -0.070000, 0.000000,  0.000000 
 182422448.000000, -0.361316 , 3.775874, 8.908479, 313952352.000000, -0.840000,  0.420000,  0.070000, 0.000000,  0.000000 
 182442448.000000, -0.387637 , 3.842873, 8.925228, 313972320.000000, -0.770000,  0.420000,  0.070000, 0.000000,  0.000000 
 182462448.000000, -0.337388 , 3.828516, 8.891729, 313992320.000000, -0.350000,  0.350000,  0.070000, 0.000000,  0.000000 
 182482736.000000, -0.332602 , 3.842873, 8.925228, 314012320.000000, -0.140000,  0.350000,  0.070000, 0.000000,  0.000000 
 182502416.000000, -0.382852 , 3.833302, 8.915657, 314032608.000000, -0.140000,  0.420000,  0.070000, 0.000000,  0.000000 
 182522384.000000, -0.401994 , 3.873980, 8.901299, 314052288.000000, -0.280000,  0.420000,  0.140000, 0.000000,  0.000000 
 182542384.000000, -0.392423 , 3.811767, 8.910872, 314072288.000000, -0.280000,  0.350000,  0.070000, 0.000000,  0.000000 
 182562384.000000, -0.382852 , 3.885944, 8.896514, 314092256.000000, -0.210000,  0.350000,  0.070000, 0.000000,  0.000000 
 182582704.000000, -0.406780 , 3.838088, 8.894121, 314112256.000000, -0.210000,  0.350000,  0.070000, 0.000000,  0.000000 
 182602352.000000, -0.409173 , 3.845266, 8.934800, 314132576.000000, -0.490000,  0.350000,  -0.070000, 0.000000,  0.000000 
 182622352.000000, -0.406780 , 3.842873, 8.927622, 314152224.000000, -0.700000,  0.490000,  -0.070000, 0.000000,  0.000000 
 182642320.000000, -0.413958 , 3.816552, 8.920443, 314172224.000000, -0.630000,  0.350000,  0.140000, 0.000000,  0.000000 
 182662320.000000, -0.375673 , 3.826123, 8.915657, 314192224.000000, -0.630000,  0.280000,  0.140000, 0.000000,  0.000000 
 182682640.000000, -0.373280 , 3.816552, 8.937192, 314212192.000000, -0.210000,  0.420000,  0.140000, 0.000000,  0.000000 
 182702288.000000, -0.380459 , 3.830909, 8.939585, 314232512.000000, -0.140000,  0.490000,  0.140000, 0.000000,  0.000000 
 182722288.000000, -0.416351 , 3.921836, 8.851050, 314252192.000000, 0.140000,  0.490000,  -0.210000, 0.000000,  0.000000 
 182742288.000000, -0.416351 , 3.893122, 8.827123, 314272160.000000, 0.210000,  0.490000,  -0.280000, 0.000000,  0.000000 
 182762256.000000, -0.344566 , 3.790231, 8.891729, 314292160.000000, -0.840000,  0.280000,  0.140000, 0.000000,  0.000000 
 182782576.000000, -0.378066 , 3.711268, 8.968300, 314312160.000000, -2.100000,  0.210000,  0.350000, 0.000000,  0.000000 
 182802256.000000, -0.390030 , 3.806981, 8.949157, 314332448.000000, -1.400000,  0.280000,  0.210000, 0.000000,  0.000000 
 182822224.000000, -0.373280 , 3.883551, 8.930015, 314352128.000000, 0.630000,  0.280000,  0.140000, 0.000000,  0.000000 
 182842224.000000, -0.387637 , 3.931407, 8.858230, 314372128.000000, 1.680000,  0.280000,  0.140000, 0.000000,  0.000000 
 182862224.000000, -0.392423 , 3.890730, 8.870193, 314392096.000000, 0.910000,  0.420000,  -0.140000, 0.000000,  0.000000 
 182882512.000000, -0.401994 , 3.893122, 8.918050, 314412096.000000, -0.490000,  0.420000,  -0.070000, 0.000000,  0.000000 
 182902192.000000, -0.387637 , 3.804588, 8.930015, 314432384.000000, -1.680000,  0.420000,  0.070000, 0.000000,  0.000000 
 182922192.000000, -0.399601 , 3.747160, 8.939585, 314452064.000000, -1.960000,  0.420000,  -0.070000, 0.000000,  0.000000 
 182942160.000000, -0.423530 , 3.816552, 8.930015, 314472064.000000, -1.260000,  0.350000,  -0.070000, 0.000000,  0.000000 
 182962160.000000, -0.411566 , 3.797409, 8.915657, 314492032.000000, -0.140000,  0.280000,  -0.070000, 0.000000,  0.000000 
 182982448.000000, -0.423530 , 3.847659, 8.877372, 314512032.000000, 0.560000,  0.420000,  -0.070000, 0.000000,  0.000000 
 183002128.000000, -0.378066 , 3.818945, 8.910872, 314532352.000000, 0.350000,  0.350000,  0.070000, 0.000000,  0.000000 
 183022128.000000, -0.382852 , 3.893122, 8.918050, 314552000.000000, -0.140000,  0.280000,  0.070000, 0.000000,  0.000000 
 183042128.000000, -0.409173 , 3.852444, 8.920443, 314572000.000000, -0.210000,  0.350000,  0.070000, 0.000000,  0.000000 
 183062096.000000, -0.442672 , 3.838088, 8.913264, 314592000.000000, -0.210000,  0.420000,  0.070000, 0.000000,  0.000000 
 183082416.000000, -0.387637 , 3.816552, 8.925228, 314611968.000000, -0.560000,  0.350000,  0.070000, 0.000000,  0.000000 
 183102096.000000, -0.392423 , 3.802195, 8.891729, 314632288.000000, -0.630000,  0.210000,  0.140000, 0.000000,  0.000000 
 183122064.000000, -0.349352 , 3.842873, 8.918050, 314651968.000000, -0.210000,  0.210000,  0.210000, 0.000000,  0.000000 
 183142064.000000, -0.378066 , 3.924229, 8.932407, 314691936.000000, -0.140000,  0.420000,  -0.070000, 314691200.000000,  1008.921021 
 183162064.000000, -0.430708 , 3.881158, 8.901299, 0.000000, 0.000000,  0.000000,  0.000000, 0.000000,  0.000000 
 183182352.000000, -0.413958 , 3.830909, 8.863015, 314711936.000000, -0.630000,  0.420000,  -0.140000, 0.000000,  0.000000 
 183202032.000000, -0.423530 , 3.830909, 8.937192, 314732224.000000, -1.050000,  0.420000,  -0.140000, 0.000000,  0.000000 
 183222032.000000, -0.394816 , 3.816552, 8.934800, 314751904.000000, -1.120000,  0.420000,  0.070000, 0.000000,  0.000000 
 183242032.000000, -0.411566 , 3.773481, 8.958728, 314771904.000000, -0.770000,  0.350000,  0.070000, 0.000000,  0.000000 
 183262000.000000, -0.425922 , 3.888337, 8.863015, 314791936.000000, -0.140000,  0.280000,  0.070000, 0.000000,  0.000000 
 183282288.000000, -0.394816 , 3.900301, 8.903693, 314811872.000000, 0.210000,  0.350000,  0.070000, 0.000000,  0.000000 
 183301968.000000, -0.397209 , 3.823731, 8.937192, 314832160.000000, 0.070000,  0.350000,  0.070000, 0.000000,  0.000000 
 183321968.000000, -0.349352 , 3.862016, 8.918050, 314851840.000000, -0.280000,  0.350000,  0.070000, 0.000000,  0.000000 
 183341936.000000, -0.380459 , 3.842873, 8.932407, 314871840.000000, -0.420000,  0.420000,  0.070000, 0.000000,  0.000000 
 183361936.000000, -0.387637 , 3.852444, 8.908479, 314891840.000000, -0.280000,  0.420000,  0.070000, 0.000000,  0.000000 
 183382352.000000, -0.430708 , 3.830909, 8.896514, 314911808.000000, -0.210000,  0.350000,  0.070000, 0.000000,  0.000000 
 183401936.000000, -0.382852 , 3.828516, 8.910872, 314932224.000000, -0.210000,  0.280000,  0.070000, 0.000000,  0.000000 
 183421904.000000, -0.399601 , 3.850052, 8.901299, 314951808.000000, -0.420000,  0.280000,  0.070000, 0.000000,  0.000000 
 183441904.000000, -0.337388 , 3.790231, 8.930015, 314971776.000000, -0.560000,  0.490000,  -0.070000, 0.000000,  0.000000 
 183461872.000000, -0.397209 , 3.842873, 8.906086, 314991776.000000, -0.700000,  0.490000,  0.070000, 0.000000,  0.000000 
 183482192.000000, -0.366102 , 3.871587, 8.894121, 315011776.000000, -0.490000,  0.350000,  0.070000, 0.000000,  0.000000 
 183501872.000000, -0.349352 , 3.866802, 8.922836, 315032064.000000, -0.490000,  0.350000,  0.140000, 0.000000,  0.000000 
 183521840.000000, -0.349352 , 3.864408, 8.963513, 315051744.000000, -0.490000,  0.420000,  0.070000, 0.000000,  0.000000 
 183541840.000000, -0.387637 , 3.878766, 8.879765, 315071744.000000, -0.490000,  0.490000,  -0.210000, 0.000000,  0.000000 
 183561840.000000, -0.435494 , 3.873980, 8.889337, 315091712.000000, 0.070000,  0.560000,  -0.280000, 0.000000,  0.000000 
 183582128.000000, -0.421137 , 3.799802, 8.930015, 315111712.000000, -0.840000,  0.280000,  0.070000, 0.000000,  0.000000 
 183601808.000000, -0.363709 , 3.763910, 8.949157, 315132000.000000, -2.030000,  0.280000,  0.210000, 0.000000,  0.000000 
 183621808.000000, -0.349352 , 3.735196, 8.925228, 315151680.000000, -1.680000,  0.280000,  0.210000, 0.000000,  0.000000 
 183641808.000000, -0.375673 , 3.878766, 8.951550, 315171680.000000, 0.210000,  0.280000,  0.140000, 0.000000,  0.000000 
 183661776.000000, -0.394816 , 3.938586, 8.874979, 315191680.000000, 1.400000,  0.350000,  0.140000, 0.000000,  0.000000 
 183682064.000000, -0.409173 , 3.919443, 8.872586, 315211648.000000, 1.190000,  0.420000,  0.140000, 0.000000,  0.000000 
 183701776.000000, -0.366102 , 3.852444, 8.877372, 315231968.000000, 1.190000,  0.350000,  0.140000, 0.000000,  0.000000 
 183721744.000000, -0.370888 , 3.842873, 8.922836, 315251648.000000, -1.050000,  0.420000,  0.140000, 0.000000,  0.000000 
 183741744.000000, -0.385244 , 3.763910, 8.965906, 315271616.000000, -1.680000,  0.420000,  0.140000, 0.000000,  0.000000 
 183761744.000000, -0.361316 , 3.754339, 8.925228, 315291616.000000, -1.470000,  0.420000,  -0.070000, 0.000000,  0.000000 
 183782032.000000, -0.390030 , 3.809374, 8.874979, 315311616.000000, -0.490000,  0.350000,  0.070000, 0.000000,  0.000000 
 183801712.000000, -0.423530 , 3.845266, 8.910872, 315331904.000000, 0.490000,  0.350000,  -0.070000, 0.000000,  0.000000 
 183821680.000000, -0.433101 , 3.814159, 8.877372, 315351584.000000, 0.490000,  0.350000,  0.070000, 0.000000,  0.000000 
 183841680.000000, -0.358923 , 3.850052, 8.918050, 315371584.000000, -0.070000,  0.280000,  0.070000, 0.000000,  0.000000 
 183861680.000000, -0.380459 , 3.871587, 8.922836, 315391552.000000, -0.280000,  0.350000,  0.070000, 0.000000,  0.000000 
 183881968.000000, -0.387637 , 3.883551, 8.922836, 315411552.000000, -0.280000,  0.420000,  -0.140000, 0.000000,  0.000000 
 183901648.000000, -0.416351 , 3.816552, 8.908479, 315431840.000000, -0.630000,  0.490000,  -0.140000, 0.000000,  0.000000 
 183921648.000000, -0.399601 , 3.756732, 8.930015, 315451520.000000, -0.840000,  0.280000,  0.140000, 0.000000,  0.000000 
 183941616.000000, -0.356531 , 3.850052, 8.894121, 315471520.000000, -0.420000,  0.210000,  0.210000, 0.000000,  0.000000 
 183961616.000000, -0.363709 , 3.826123, 8.894121, 315491520.000000, 0.140000,  0.280000,  0.070000, 0.000000,  0.000000 
 183981904.000000, -0.409173 , 3.845266, 8.937192, 315511488.000000, 0.280000,  0.420000,  -0.070000, 0.000000,  0.000000 
 184001584.000000, -0.344566 , 3.828516, 8.930015, 315531776.000000, -0.210000,  0.420000,  -0.070000, 0.000000,  0.000000 
 184021584.000000, -0.385244 , 3.806981, 8.934800, 315551456.000000, -0.770000,  0.420000,  -0.070000, 0.000000,  0.000000 
 184041552.000000, -0.411566 , 3.830909, 8.932407, 315571456.000000, -0.910000,  0.420000,  0.070000, 0.000000,  0.000000 
 184061552.000000, -0.399601 , 3.806981, 8.901299, 315591456.000000, -0.630000,  0.420000,  0.070000, 0.000000,  0.000000 
 184081872.000000, -0.423530 , 3.869194, 8.934800, 315611424.000000, -0.630000,  0.280000,  0.140000, 0.000000,  0.000000 
 184101520.000000, -0.428315 , 3.869194, 8.886944, 315631744.000000, 0.350000,  0.350000,  0.070000, 0.000000,  0.000000 
 184121520.000000, -0.370888 , 3.881158, 8.894121, 315651424.000000, 0.210000,  0.490000,  0.070000, 0.000000,  0.000000 
 184141520.000000, -0.368495 , 3.814159, 8.877372, 315691392.000000, -0.490000,  0.350000,  0.140000, 315690656.000000,  1008.918823 
 184161488.000000, -0.334995 , 3.821337, 8.901299, 0.000000, 0.000000,  0.000000,  0.000000, 0.000000,  0.000000 
 184181808.000000, -0.375673 , 3.814159, 8.910872, 315711360.000000, -0.350000,  0.350000,  0.070000, 0.000000,  0.000000 
 184201488.000000, -0.399601 , 3.878766, 8.930015, 315731680.000000, -0.350000,  0.420000,  0.070000, 0.000000,  0.000000 
 184221456.000000, -0.363709 , 3.811767, 8.877372, 315751360.000000, -0.350000,  0.350000,  0.070000, 0.000000,  0.000000 
 184241488.000000, -0.373280 , 3.847659, 8.915657, 315771328.000000, -0.210000,  0.350000,  0.070000, 0.000000,  0.000000 
 184261456.000000, -0.349352 , 3.797409, 8.901299, 315791360.000000, -0.420000,  0.420000,  0.140000, 0.000000,  0.000000 
 184281744.000000, -0.416351 , 3.842873, 8.920443, 315811328.000000, -0.560000,  0.490000,  0.070000, 0.000000,  0.000000 
 184301424.000000, -0.373280 , 3.806981, 8.894121, 315831616.000000, -0.490000,  0.420000,  0.070000, 0.000000,  0.000000 
 184321424.000000, -0.387637 , 3.895515, 8.889337, 315851296.000000, 0.070000,  0.350000,  0.140000, 0.000000,  0.000000 
 184341392.000000, -0.339781 , 3.828516, 8.910872, 315871296.000000, 0.420000,  0.350000,  0.140000, 0.000000,  0.000000 
 184361392.000000, -0.375673 , 3.907479, 8.889337, 315891264.000000, 0.210000,  0.350000,  0.140000, 0.000000,  0.000000 
 184381712.000000, -0.442672 , 3.919443, 8.812766, 315911264.000000, 0.140000,  0.490000,  -0.210000, 0.000000,  0.000000 
 184401360.000000, -0.406780 , 3.878766, 8.865408, 315931584.000000, -0.140000,  0.490000,  -0.280000, 0.000000,  0.000000 
 184421360.000000, -0.392423 , 3.780660, 8.932407, 315951232.000000, -1.400000,  0.280000,  0.210000, 0.000000,  0.000000 
 184441360.000000, -0.351745 , 3.694518, 8.949157, 315971232.000000, -2.240000,  0.210000,  0.420000, 0.000000,  0.000000 
 184461328.000000, -0.346959 , 3.818945, 8.906086, 315991232.000000, -1.120000,  0.210000,  0.280000, 0.000000,  0.000000 
 184481648.000000, -0.399601 , 3.907479, 8.934800, 316011200.000000, 0.980000,  0.280000,  0.140000, 0.000000,  0.000000 
 184501328.000000, -0.416351 , 3.976871, 8.858230, 316031520.000000, 1.820000,  0.420000,  0.140000, 0.000000,  0.000000 
 184521296.000000, -0.392423 , 3.895515, 8.884550, 316051200.000000, 0.770000,  0.420000,  0.140000, 0.000000,  0.000000 
 184541296.000000, -0.368495 , 3.893122, 8.913264, 316071168.000000, -0.560000,  0.350000,  0.140000, 0.000000,  0.000000 
 184561264.000000, -0.368495 , 3.802195, 8.951550, 316091168.000000, -1.400000,  0.350000,  0.140000, 0.000000,  0.000000 
 184581584.000000, -0.406780 , 3.797409, 8.958728, 316111168.000000, -1.680000,  0.490000,  -0.070000, 0.000000,  0.000000 
 184601264.000000, -0.380459 , 3.778267, 8.922836, 316131456.000000, -1.260000,  0.420000,  -0.070000, 0.000000,  0.000000 
 184621232.000000, -0.366102 , 3.818945, 8.884550, 316151136.000000, -0.210000,  0.350000,  -0.070000, 0.000000,  0.000000 
 184641232.000000, -0.354138 , 3.883551, 8.934800, 316171136.000000, 0.630000,  0.350000,  0.140000, 0.000000,  0.000000 
 184661232.000000, -0.397209 , 3.866802, 8.927622, 316191104.000000, 0.420000,  0.350000,  0.140000, 0.000000,  0.000000 
 184681520.000000, -0.375673 , 3.907479, 8.932407, 316211104.000000, -0.210000,  0.350000,  0.070000, 0.000000,  0.000000 
 184701200.000000, -0.392423 , 3.847659, 8.908479, 316231392.000000, -0.280000,  0.350000,  0.070000, 0.000000,  0.000000 
 184721200.000000, -0.394816 , 3.845266, 8.901299, 316251072.000000, -0.350000,  0.420000,  0.070000, 0.000000,  0.000000 
 184741168.000000, -0.378066 , 3.833302, 8.927622, 316271072.000000, -0.630000,  0.350000,  0.140000, 0.000000,  0.000000 
 184761168.000000, -0.330210 , 3.811767, 8.874979, 316291072.000000, -0.490000,  0.210000,  0.280000, 0.000000,  0.000000 
 184781456.000000, -0.318245 , 3.857230, 8.898908, 316311040.000000, -0.490000,  0.280000,  0.210000, 0.000000,  0.000000 
 184801136.000000, -0.368495 , 3.917051, 8.894121, 316331360.000000, 0.210000,  0.350000,  0.140000, 0.000000,  0.000000 
 184821136.000000, -0.401994 , 3.830909, 8.884550, 316351040.000000, -0.070000,  0.420000,  -0.070000, 0.000000,  0.000000 
 184841136.000000, -0.406780 , 3.852444, 8.903693, 316371008.000000, -0.490000,  0.420000,  -0.070000, 0.000000,  0.000000 
 184861104.000000, -0.370888 , 3.897908, 8.891729, 316391008.000000, -0.700000,  0.420000,  -0.070000, 0.000000,  0.000000 
 184881424.000000, -0.385244 , 3.785445, 8.896514, 316410976.000000, -0.700000,  0.350000,  0.070000, 0.000000,  0.000000 
 184901104.000000, -0.368495 , 3.852444, 8.913264, 316431296.000000, -0.700000,  0.420000,  0.070000, 0.000000,  0.000000 
 184921072.000000, -0.411566 , 3.854837, 8.879765, 316450976.000000, -0.420000,  0.350000,  0.070000, 0.000000,  0.000000 
 184941072.000000, -0.411566 , 3.833302, 8.915657, 316470944.000000, -0.140000,  0.350000,  0.070000, 0.000000,  0.000000 
 184961072.000000, -0.406780 , 3.792624, 8.891729, 316490944.000000, -0.140000,  0.420000,  0.070000, 0.000000,  0.000000 
 184981360.000000, -0.406780 , 3.854837, 8.915657, 316510944.000000, -0.350000,  0.350000,  0.070000, 0.000000,  0.000000 
 185001040.000000, -0.387637 , 3.814159, 8.898908, 316531232.000000, -0.350000,  0.350000,  0.140000, 0.000000,  0.000000 
 185021040.000000, -0.370888 , 3.862016, 8.903693, 316550912.000000, -0.140000,  0.420000,  0.070000, 0.000000,  0.000000 
 185041008.000000, -0.382852 , 3.885944, 8.908479, 316570912.000000, -0.070000,  0.350000,  0.070000, 0.000000,  0.000000 
 185061008.000000, -0.373280 , 3.862016, 8.906086, 316590880.000000, -0.210000,  0.350000,  0.070000, 0.000000,  0.000000 
 185081296.000000, -0.418744 , 3.873980, 8.903693, 316610880.000000, -0.490000,  0.350000,  -0.070000, 0.000000,  0.000000 
 185100976.000000, -0.390030 , 3.785445, 8.889337, 316631168.000000, -0.560000,  0.420000,  -0.070000, 0.000000,  0.000000 
 185120976.000000, -0.392423 , 3.790231, 8.946764, 316650880.000000, -0.630000,  0.420000,  0.070000, 0.000000,  0.000000 
 185140976.000000, -0.401994 , 3.826123, 8.925228, 316670848.000000, -0.490000,  0.420000,  0.070000, 0.000000,  0.000000 
 185160944.000000, -0.344566 , 3.890730, 8.951550, 316690848.000000, -0.070000,  0.350000,  0.140000, 316690112.000000,  1008.919128 
 185181264.000000, -0.404387 , 3.854837, 8.920443, 316710816.000000, -0.070000,  0.420000,  0.070000, 0.000000,  0.000000 
 185200944.000000, -0.466600 , 3.912265, 8.882158, 316731136.000000, 0.210000,  0.490000,  -0.210000, 0.000000,  0.000000 
 185220912.000000, -0.394816 , 3.909872, 8.879765, 316750816.000000, 0.210000,  0.490000,  -0.210000, 0.000000,  0.000000 
 185240944.000000, -0.332602 , 3.838088, 8.910872, 316770784.000000, -1.050000,  0.210000,  0.210000, 0.000000,  0.000000 
 185260912.000000, -0.368495 , 3.701697, 8.951550, 316790816.000000, -2.520000,  0.210000,  0.350000, 0.000000,  0.000000 
 185281200.000000, -0.363709 , 3.761517, 8.927622, 316810784.000000, -1.610000,  0.280000,  0.140000, 0.000000,  0.000000 
 185300880.000000, -0.342174 , 3.909872, 8.927622, 316831072.000000, -0.560000,  0.280000,  0.210000, 0.000000,  0.000000 
 185320848.000000, -0.390030 , 3.907479, 8.884550, 316850752.000000, 1.400000,  0.280000,  0.140000, 0.000000,  0.000000 
 185340848.000000, -0.421137 , 3.957729, 8.841480, 316870752.000000, 1.540000,  0.420000,  -0.070000, 0.000000,  0.000000 
 185360848.000000, -0.406780 , 3.893122, 8.913264, 316890720.000000, 0.070000,  0.420000,  -0.070000, 0.000000,  0.000000 
 185381136.000000, -0.409173 , 3.754339, 8.927622, 316910720.000000, -1.260000,  0.420000,  0.070000, 0.000000,  0.000000 
 185400816.000000, -0.387637 , 3.778267, 8.953942, 316931008.000000, -1.960000,  0.420000,  0.070000, 0.000000,  0.000000 
 185420816.000000, -0.358923 , 3.785445, 8.939585, 316950720.000000, -1.680000,  0.420000,  -0.070000, 0.000000,  0.000000 
 185440816.000000, -0.401994 , 3.828516, 8.927622, 316970688.000000, -0.560000,  0.280000,  0.070000, 0.000000,  0.000000 
 185460784.000000, -0.390030 , 3.881158, 8.906086, 316990688.000000, 0.490000,  0.280000,  0.070000, 0.000000,  0.000000 
 185481072.000000, -0.390030 , 3.876373, 8.913264, 317010656.000000, 0.700000,  0.350000,  0.070000, 0.000000,  0.000000 
 185500784.000000, -0.413958 , 3.866802, 8.896514, 317030976.000000, 0.070000,  0.350000,  0.070000, 0.000000,  0.000000 
 185520752.000000, -0.488136 , 3.852444, 8.894121, 317050656.000000, -0.420000,  0.280000,  0.140000, 0.000000,  0.000000 
 185540752.000000, -0.435494 , 3.845266, 8.918050, 317070624.000000, -0.350000,  0.490000,  -0.070000, 0.000000,  0.000000 
 185560752.000000, -0.425922 , 3.821337, 8.884550, 317090624.000000, -0.560000,  0.490000,  -0.070000, 0.000000,  0.000000 
 185581040.000000, -0.370888 , 3.821337, 8.915657, 317110624.000000, -0.700000,  0.350000,  0.140000, 0.000000,  0.000000 
 185600720.000000, -0.392423 , 3.835695, 8.927622, 317130912.000000, -0.350000,  0.280000,  0.140000, 0.000000,  0.000000 
 185620720.000000, -0.356531 , 3.823731, 8.874979, 317150592.000000, 0.140000,  0.280000,  0.210000, 0.000000,  0.000000 
 185640688.000000, -0.447458 , 3.897908, 8.889337, 317170592.000000, 0.070000,  0.350000,  -0.070000, 0.000000,  0.000000 
 185660688.000000, -0.387637 , 3.900301, 8.841480, 317190560.000000, -0.350000,  0.490000,  -0.140000, 0.000000,  0.000000 
 185680976.000000, -0.406780 , 3.797409, 8.906086, 317210560.000000, -0.700000,  0.350000,  -0.070000, 0.000000,  0.000000 
 185700656.000000, -0.394816 , 3.792624, 8.913264, 317230848.000000, -0.910000,  0.350000,  0.070000, 0.000000,  0.000000 
 185720656.000000, -0.346959 , 3.840480, 8.934800, 317250528.000000, -0.700000,  0.350000,  0.070000, 0.000000,  0.000000 
 185740656.000000, -0.373280 , 3.869194, 8.906086, 317270528.000000, -0.280000,  0.350000,  0.070000, 0.000000,  0.000000 
 185760624.000000, -0.390030 , 3.854837, 8.913264, 317290528.000000, 0.070000,  0.350000,  0.070000, 0.000000,  0.000000 
 185780912.000000, -0.433101 , 3.795017, 8.913264, 317310496.000000, -0.070000,  0.420000,  0.070000, 0.000000,  0.000000 
 185800592.000000, -0.397209 , 3.821337, 8.889337, 317330816.000000, -0.350000,  0.420000,  0.070000, 0.000000,  0.000000 
 185820592.000000, -0.392423 , 3.885944, 8.910872, 317350464.000000, -0.560000,  0.350000,  0.070000, 0.000000,  0.000000 
 185840592.000000, -0.418744 , 3.885944, 8.920443, 317370464.000000, -0.210000,  0.420000,  0.070000, 0.000000,  0.000000 
 185860560.000000, -0.382852 , 3.854837, 8.941978, 317390464.000000, -0.070000,  0.350000,  0.070000, 0.000000,  0.000000 
 185880880.000000, -0.351745 , 3.847659, 8.891729, 317410432.000000, -0.070000,  0.280000,  0.070000, 0.000000,  0.000000 
 185900560.000000, -0.404387 , 3.811767, 8.903693, 317430752.000000, -0.490000,  0.350000,  0.070000, 0.000000,  0.000000 
 185920528.000000, -0.334995 , 3.799802, 8.920443, 317450432.000000, -0.700000,  0.420000,  0.070000, 0.000000,  0.000000 
 185940528.000000, -0.382852 , 3.845266, 8.894121, 317470400.000000, -0.770000,  0.420000,  0.070000, 0.000000,  0.000000 
 185960496.000000, -0.385244 , 3.852444, 8.922836, 317490400.000000, -0.280000,  0.350000,  0.070000, 0.000000,  0.000000 
 185980816.000000, -0.392423 , 3.866802, 8.913264, 317510400.000000, 0.140000,  0.350000,  0.140000, 0.000000,  0.000000 
 186000496.000000, -0.354138 , 3.871587, 8.941978, 317530688.000000, 0.140000,  0.420000,  0.140000, 0.000000,  0.000000 
 186020464.000000, -0.413958 , 3.933800, 8.882158, 317550368.000000, 0.140000,  0.490000,  -0.210000, 0.000000,  0.000000 
 186040464.000000, -0.440279 , 3.914658, 8.863015, 317570368.000000, 0.140000,  0.560000,  -0.280000, 0.000000,  0.000000 
 186060464.000000, -0.373280 , 3.830909, 8.922836, 317590336.000000, -1.120000,  0.280000,  0.140000, 0.000000,  0.000000 
 186080784.000000, -0.392423 , 3.735196, 8.946764, 317610336.000000, -2.170000,  0.210000,  0.280000, 0.000000,  0.000000 
 186100432.000000, -0.349352 , 3.751946, 8.956335, 317630656.000000, -1.400000,  0.210000,  0.280000, 0.000000,  0.000000 
 186120432.000000, -0.378066 , 3.883551, 8.901299, 317650304.000000, 0.560000,  0.280000,  0.140000, 0.000000,  0.000000 
 186140400.000000, -0.425922 , 3.936193, 8.863015, 317670304.000000, 1.540000,  0.350000,  0.140000, 0.000000,  0.000000 
 186160400.000000, -0.380459 , 3.919443, 8.865408, 317690304.000000, 0.980000,  0.420000,  0.140000, 317689568.000000,  1008.919983 
 186180720.000000, -0.392423 , 3.862016, 8.889337, 317710272.000000, -0.280000,  0.420000,  0.140000, 0.000000,  0.000000 
 186200368.000000, -0.382852 , 3.809374, 8.930015, 317730592.000000, -1.260000,  0.420000,  0.140000, 0.000000,  0.000000 
 186220368.000000, -0.375673 , 3.754339, 8.965906, 317750272.000000, -1.820000,  0.490000,  -0.070000, 0.000000,  0.000000 
