 Acc_timestamp,Accx,Accy,Accz,Gyro_timestamp,Gyrox,Gyroy,Gyroz,Baro_timestamp,Pressure_Reading
 32909888.000000, 1.512264 , 4.285545, 8.561519, 0.000000, 0.000000,  0.000000,  0.000000, 0.000000,  0.000000
 19968.000000, 1.823331 , 3.940979, 8.635696, 805902720.000000, -17.290001,  -13.790000,  -34.930000, 0.000000,  0.000000
 40000.000000, 1.880759 , 4.098906, 8.463413, 805922752.000000, -17.290001,  -13.790000,  -34.930000, 0.000000,  0.000000 
 59968.000000, 2.033899 , 4.307081, 8.504091, 805962688.000000, -6.160000,  -5.320000,  -14.630000, 0.000000,  0.000000 
 80256.000000, 2.002793 , 4.455436, 8.425128, 0.000000, 0.000000,  0.000000,  0.000000, 0.000000,  0.000000 
 99968.000000, 1.957329 , 4.077370, 8.664411, 805983040.000000, -12.810000,  -4.900000,  -15.890000, 0.000000,  0.000000 
 119936.000000, 1.531406 , 4.120440, 8.477771, 806002688.000000, -19.460001,  1.050000,  -17.920000, 0.000000,  0.000000 
 139904.000000, 1.232304 , 4.335794, 8.264810, 806022720.000000, -16.520000,  6.580000,  -17.570000, 0.000000,  0.000000 
 159936.000000, 0.926022 , 4.063013, 8.324631, 806042688.000000, -13.720000,  8.400000,  -22.469999, 0.000000,  0.000000 
 180224.000000, 0.626920 , 3.986443, 8.367701, 806062656.000000, -15.330000,  10.150000,  -28.559999, 0.000000,  0.000000 
 199872.000000, 0.172283 , 4.244867, 8.171489, 806082944.000000, -9.590000,  11.690000,  -35.490002, 0.000000,  0.000000 
 219840.000000, -0.332602 , 4.125226, 8.068598, 806102656.000000, 0.980000,  14.140000,  -37.520000, 0.000000,  0.000000 
 239872.000000, -0.794417 , 3.890730, 7.903493, 806122624.000000, 1.680000,  15.680000,  -36.540001, 0.000000,  0.000000 
 259840.000000, -0.916451 , 4.046263, 7.594819, 806142592.000000, -3.150000,  15.400000,  -33.250000, 0.000000,  0.000000 
 280128.000000, -1.162912 , 4.139583, 7.185646, 806162624.000000, -5.670000,  15.680000,  -27.230000, 0.000000,  0.000000 
 299840.000000, -1.543371 , 3.742374, 6.955935, 806182912.000000, -12.110000,  19.320000,  -21.490000, 0.000000,  0.000000 
 319808.000000, -1.808974 , 3.653840, 6.568298, 806202560.000000, -24.990000,  24.290001,  -18.200001, 0.000000,  0.000000 
 339776.000000, -1.720440 , 3.723232, 6.340980, 806222592.000000, -37.660000,  28.700001,  -16.240000, 0.000000,  0.000000 
 359808.000000, -1.789831 , 3.469593, 6.477371, 806242560.000000, -49.000000,  35.209999,  -13.860000, 0.000000,  0.000000 
 380096.000000, -2.029114 , 3.029313, 6.592227, 806262528.000000, -64.120003,  45.500000,  -14.070000, 0.000000,  0.000000 
 399744.000000, -2.282753 , 2.801995, 6.692725, 806282880.000000, -76.720001,  58.590000,  -13.020000, 0.000000,  0.000000 
 419776.000000, -2.342573 , 2.897708, 6.798009, 806302528.000000, -81.340004,  71.889999,  -10.780000, 0.000000,  0.000000 
 439744.000000, -2.423929 , 2.804388, 7.037291, 806322496.000000, -86.800003,  83.090004,  -10.640000, 0.000000,  0.000000 
 459712.000000, -2.782853 , 2.335395, 7.190433, 806342528.000000, -96.599998,  95.620003,  -8.820000, 0.000000,  0.000000 
 480064.000000, -3.314059 , 1.694118, 7.326823, 806362496.000000, -105.910004,  109.340004,  -3.570000, 0.000000,  0.000000 
 499712.000000, -3.613162 , 1.483550, 7.513463, 806382784.000000, -113.889999,  122.639999,  4.200000, 0.000000,  0.000000 
 519680.000000, -3.830909 , 1.229911, 7.276574, 806402496.000000, -118.930000,  133.279999,  14.280000, 0.000000,  0.000000 
 539712.000000, -3.823731 , 0.739382, 6.953543, 806422464.000000, -125.720001,  142.100006,  22.889999, 0.000000,  0.000000 
 559680.000000, -4.398008 , -0.126820, 7.702496, 806442432.000000, -134.680008,  151.690002,  31.990000, 0.000000,  0.000000 
 579968.000000, -5.414958 , -0.954736, 7.960921, 806462464.000000, -141.259995,  163.940002,  39.970001, 0.000000,  0.000000 
 599680.000000, -6.386444 , -0.988236, 7.453642, 806482752.000000, -134.050003,  176.050003,  48.090000, 0.000000,  0.000000 
 619648.000000, -6.829116 , -0.689133, 7.085148, 806502400.000000, -114.169998,  185.080002,  57.049999, 0.000000,  0.000000 
 639616.000000, -7.073184 , -0.303888, 7.075576, 806522432.000000, -97.510002,  187.949997,  60.689999, 0.000000,  0.000000 
 659648.000000, -7.925028 , -0.284746, 7.202396, 806542400.000000, -90.860001,  190.050003,  61.180000, 0.000000,  0.000000 
 679936.000000, -9.415757 , -0.488136, 6.991827, 806562368.000000, -84.279999,  199.500000,  65.239998, 0.000000,  0.000000 
 699584.000000, -10.671989 , -0.559920, 6.898508, 806582720.000000, -77.489998,  211.820007,  70.279999, 0.000000,  0.000000 
 719616.000000, -11.789437 , -0.416351, 6.508478, 806602368.000000, -60.900002,  216.860001,  79.730003, 0.000000,  0.000000 
 739584.000000, -12.653246 , 0.155533, 6.276374, 806622336.000000, -37.380001,  215.389999,  91.349998, 0.000000,  0.000000 
 759552.000000, -13.182060 , 0.107677, 5.836094, 806642368.000000, -13.580000,  209.229996,  102.269997, 0.000000,  0.000000 
 779904.000000, -13.244273 , -0.294317, 5.766702, 806662336.000000, 4.200000,  197.259995,  105.699997, 0.000000,  0.000000 
 799552.000000, -12.856635 , 0.174676, 5.606383, 806682624.000000, 19.879999,  178.500000,  102.620003, 0.000000,  0.000000 
 819520.000000, -12.093326 , 0.478565, 4.393222, 806702336.000000, 28.630001,  166.809998,  100.449997, 0.000000,  0.000000 
 839552.000000, -10.832308 , 0.660419, 3.984050, 806722304.000000, 50.470001,  136.009995,  97.510002, 0.000000,  0.000000 
 859520.000000, -10.267602 , 0.720240, 4.070191, 806742272.000000, 56.700001,  104.300003,  83.860001, 0.000000,  0.000000 
 879808.000000, -9.456435 , 1.189233, 4.297509, 806762304.000000, 58.730000,  75.389999,  70.559998, 0.000000,  0.000000 
 899520.000000, -9.552148 , 1.471586, 4.232903, 806782592.000000, 58.869999,  57.540001,  52.639999, 0.000000,  0.000000 
 919488.000000, -9.944571 , 1.648655, 4.079762, 806802240.000000, 55.720001,  48.720001,  34.860001, 0.000000,  0.000000 
 939456.000000, -10.054641 , 0.945165, 3.945765, 806822272.000000, 41.720001,  41.650002,  19.389999, 866812096.000000,  1010.433594 
 959488.000000, -9.846465 , 0.459422, 4.036692, 806842240.000000, 26.600000,  29.610001,  8.610000, 0.000000,  0.000000 
 979776.000000, -9.482756 , 0.662812, 3.878766, 806862208.000000, 23.100000,  14.910000,  3.080000, 0.000000,  0.000000 
 999424.000000, -9.131011 , 1.014557, 3.565305, 806882496.000000, 31.990000,  3.850000,  3.010000, 0.000000,  0.000000 
 1019456.000000, -8.882158 , 1.103091, 3.572484, 806902208.000000, 39.549999,  -4.060000,  2.730000, 0.000000,  0.000000 
 1039424.000000, -8.583055 , 1.148555, 3.462414, 806922176.000000, 36.259998,  -10.430000,  -0.350000, 0.000000,  0.000000 
 1059392.000000, -8.504091 , 1.074377, 3.321238, 806942208.000000, 28.630001,  -15.960000,  -4.690000, 0.000000,  0.000000 
 1079744.000000, -8.748159 , 0.837488, 3.153740, 806962176.000000, 19.809999,  -17.850000,  -10.220000, 0.000000,  0.000000 
 1099392.000000, -8.920443 , 0.772882, 3.072384, 806982464.000000, 12.810000,  -18.549999,  -15.260000, 0.000000,  0.000000 
 1119424.000000, -9.078369 , 0.619741, 3.043670, 807002176.000000, 10.430000,  -20.580000,  -18.969999, 0.000000,  0.000000 
 1139392.000000, -9.293723 , 0.646062, 3.002992, 807022208.000000, 9.310000,  -22.960001,  -23.730000, 0.000000,  0.000000 
 1159360.000000, -9.367901 , 0.401994, 2.924029, 807042112.000000, 9.520000,  -24.080000,  -28.280001, 0.000000,  0.000000 
 1179648.000000, -9.343972 , 0.028714, 2.998207, 807062144.000000, 10.150000,  -25.410000,  -31.850000, 0.000000,  0.000000 
 1199360.000000, -9.310472 , -0.002393, 2.993421, 807082432.000000, 9.660000,  -26.880001,  -35.840000, 0.000000,  0.000000 
 1219328.000000, -9.288938 , 0.385244, 2.778067, 807102080.000000, 14.350000,  -26.809999,  -37.660000, 0.000000,  0.000000 
 1239296.000000, -9.549755 , 0.191426, 2.531606, 807122112.000000, 21.280001,  -27.510000,  -38.779999, 0.000000,  0.000000 
 1259328.000000, -10.849058 , -0.277567, 3.029313, 807142080.000000, 19.040001,  -25.969999,  -42.910000, 0.000000,  0.000000 
 1279616.000000, -12.593425 , -0.399601, 3.397808, 807162048.000000, 10.570000,  -12.040000,  -46.340000, 0.000000,  0.000000 
 1299264.000000, -12.717852 , -0.093320, 2.890530, 807182336.000000, 12.320000,  1.680000,  -44.099998, 0.000000,  0.000000 
 1319296.000000, -10.518847 , -0.141177, 2.658426, 807202048.000000, 21.070000,  -9.380000,  -39.900002, 0.000000,  0.000000 
 1339264.000000, -8.599805 , -0.330210, 2.667997, 807222016.000000, 19.250000,  -39.689999,  -42.070000, 0.000000,  0.000000 
 1359232.000000, -7.855636 , -0.069392, 2.825923, 807242048.000000, 13.300000,  -53.130001,  -47.880001, 0.000000,  0.000000 
 1379584.000000, -8.121240 , 0.267996, 2.651247, 807262016.000000, 16.240000,  -51.660000,  -57.959999, 0.000000,  0.000000 
 1399232.000000, -9.001799 , -0.055035, 2.555535, 807282304.000000, 22.750000,  -47.110001,  -66.360001, 0.000000,  0.000000 
 1419200.000000, -10.059426 , -0.799203, 2.955136, 807302016.000000, 13.930000,  -43.750000,  -72.590004, 0.000000,  0.000000 
 1439232.000000, -11.263017 , -1.088734, 3.146562, 807321984.000000, 2.520000,  -40.880001,  -73.290001, 0.000000,  0.000000 
 1459200.000000, -12.337393 , -0.918844, 2.763710, 807341952.000000, 7.560000,  -38.849998,  -65.519997, 0.000000,  0.000000 
 1479488.000000, -12.768101 , -0.937986, 2.371287, 807361984.000000, 18.690001,  -39.619999,  -52.990002, 0.000000,  0.000000 
 1499136.000000, -12.184253 , -0.842274, 2.182254, 807382272.000000, 22.469999,  -44.869999,  -39.900002, 0.000000,  0.000000 
 1519168.000000, -11.121840 , -0.497707, 2.120041, 807401920.000000, 21.210001,  -52.990002,  -30.520000, 0.000000,  0.000000 
 1539136.000000, -10.279566 , -0.318245, 1.816152, 807421888.000000, 18.900000,  -58.240002,  -25.410000, 0.000000,  0.000000 
 1559104.000000, -9.750752 , -0.514457, 1.720440, 807441920.000000, 10.360000,  -57.540001,  -26.809999, 0.000000,  0.000000 
 1579456.000000, -9.114261 , -0.698704, 1.816152, 807461888.000000, -4.340000,  -55.720001,  -32.689999, 0.000000,  0.000000 
 1599104.000000, -8.408379 , -0.792024, 2.045863, 807482176.000000, -10.850000,  -55.790001,  -37.450001, 0.000000,  0.000000 
 1619072.000000, -8.044669 , -0.569492, 2.002793, 807501888.000000, -6.650000,  -54.880001,  -42.070000, 0.000000,  0.000000 
 1639104.000000, -8.109276 , -0.490529, 1.655833, 807521856.000000, 1.680000,  -51.310001,  -46.200001, 0.000000,  0.000000 
 1659072.000000, -8.267202 , -0.722632, 1.497907, 807541824.000000, 6.440000,  -45.080002,  -47.880001, 0.000000,  0.000000 
 1679424.000000, -8.140383 , -0.720240, 1.055235, 807561856.000000, 7.070000,  -42.209999,  -48.509998, 0.000000,  0.000000 
 1699072.000000, -7.515855 , 0.114855, 0.684347, 807582144.000000, 13.930000,  -45.849998,  -47.529999, 0.000000,  0.000000 
 1719040.000000, -6.640083 , 0.502493, 0.244068, 807601792.000000, 26.320000,  -52.570000,  -42.630001, 0.000000,  0.000000 
 1739008.000000, -6.037091 , 0.222532, 0.196211, 807621824.000000, 21.210001,  -59.430000,  -42.700001, 0.000000,  0.000000 
 1759040.000000, -5.778666 , 0.131605, 0.454636, 807641792.000000, -3.290000,  -58.730000,  -44.380001, 0.000000,  0.000000 
 1779328.000000, -6.017949 , 0.390030, 0.483350, 807661760.000000, -29.190001,  -48.509998,  -40.040001, 0.000000,  0.000000 
 1798976.000000, -6.218946 , 0.265603, 0.758525, 807682112.000000, -44.380001,  -33.250000,  -29.400000, 0.000000,  0.000000 
 1819008.000000, -6.386444 , -0.270389, 1.557728, 807701760.000000, -56.070000,  -19.180000,  -17.430000, 0.000000,  0.000000 
 1838976.000000, -6.731010 , -0.241675, 1.902294, 807721728.000000, -66.500000,  -3.640000,  -2.240000, 0.000000,  0.000000 
 1858944.000000, -7.003791 , -0.289532, 1.974079, 807741760.000000, -63.420002,  17.920000,  18.549999, 0.000000,  0.000000 
 1879296.000000, -6.824330 , -0.552742, 2.177469, 807761728.000000, -60.830002,  37.450001,  41.580002, 0.000000,  0.000000 
 1898944.000000, -6.965507 , -0.035892, 2.249253, 807782016.000000, -60.060001,  52.709999,  63.770000, 0.000000,  0.000000 
 1918912.000000, -7.963314 , -0.088534, 1.938186, 807821696.000000, -50.959999,  97.019997,  108.290001, 867811520.000000,  1010.433838 
 1938944.000000, -9.710074 , -0.725025, 2.356930, 0.000000, 0.000000,  0.000000,  0.000000, 0.000000,  0.000000 
 1958912.000000, -12.425928 , -1.198804, 2.907279, 807841664.000000, -66.639999,  124.459999,  127.400002, 0.000000,  0.000000 
 1979200.000000, -16.721045 , -0.823131, 2.409572, 807861696.000000, -73.919998,  155.960007,  153.229996, 0.000000,  0.000000 
 1998912.000000, -23.294128 , -0.935594, 3.596412, 807881984.000000, -67.550003,  181.440002,  182.770004, 0.000000,  0.000000 
 2018944.000000, -25.055246 , -2.244468, 5.706882, 807901632.000000, -70.070000,  209.229996,  203.770004, 0.000000,  0.000000 
 2039872.000000, -17.599211 , -2.151148, 6.977471, 807921728.000000, -59.500000,  187.320007,  210.699997, 0.000000,  0.000000 
 2058944.000000, -11.198411 , -2.103291, 6.087341, 807942656.000000, -2.940000,  106.260002,  196.279999, 0.000000,  0.000000 
 2079680.000000, -8.688338 , 0.208176, 5.824130, 807961664.000000, 55.860001,  51.590000,  147.139999, 0.000000,  0.000000 
 2099264.000000, -8.937192 , 1.395016, 4.881358, 807982464.000000, 91.559998,  26.180000,  74.480003, 0.000000,  0.000000 
 2119296.000000, -11.686546 , 0.545564, 3.747160, 808002048.000000, 135.520004,  33.320000,  31.360001, 0.000000,  0.000000 
 2139328.000000, -12.406786 , -0.976272, 3.646662, 808022080.000000, 98.139999,  40.250000,  -6.510000, 0.000000,  0.000000 
 2159296.000000, -10.681561 , -1.495514, 3.151347, 808042112.000000, 30.380001,  15.050000,  -15.820000, 0.000000,  0.000000 
 2180032.000000, -9.064013 , -0.425922, 2.684747, 808062016.000000, 5.180000,  -20.790001,  -9.660000, 0.000000,  0.000000 
 2199680.000000, -8.059027 , 0.839881, 2.335395, 808082816.000000, 7.770000,  -33.110001,  -3.710000, 0.000000,  0.000000 
 2219648.000000, -6.946364 , 0.725025, 2.081756, 808102400.000000, 7.980000,  -33.740002,  -0.280000, 0.000000,  0.000000 
 2239680.000000, -5.891129 , -0.339781, 2.402394, 808122368.000000, -9.310000,  -37.869999,  -3.010000, 0.000000,  0.000000 
 2259584.000000, -5.168497 , -1.524228, 2.962314, 808142400.000000, -33.670002,  -40.950001,  -6.230000, 0.000000,  0.000000 
 2280320.000000, -5.137390 , -2.041078, 3.249453, 808162368.000000, -43.189999,  -34.650002,  -4.690000, 0.000000,  0.000000 
 2299904.000000, -5.797810 , -1.986043, 3.177669, 808183104.000000, -28.139999,  -19.950001,  0.140000, 0.000000,  0.000000 
 2319872.000000, -6.757331 , -1.409373, 2.816352, 808202688.000000, 5.880000,  -4.060000,  6.440000, 0.000000,  0.000000 
 2339968.000000, -7.324430 , -1.016950, 2.624927, 808222656.000000, 38.990002,  1.400000,  9.800000, 0.000000,  0.000000 
 2359872.000000, -7.678568 , -0.909273, 2.665605, 808242752.000000, 56.630001,  -4.690000,  9.940000, 0.000000,  0.000000 
 2379968.000000, -8.123632 , -1.021735, 2.689533, 808262656.000000, 58.730000,  -12.460000,  4.550000, 0.000000,  0.000000 
 2400960.000000, -8.654840 , -0.722632, 2.672783, 808282752.000000, 58.450001,  -18.760000,  -3.990000, 0.000000,  0.000000 
 2420928.000000, -9.298509 , -0.344566, 2.589034, 808303680.000000, 55.860001,  -22.330000,  -13.440001, 0.000000,  0.000000 
 2441024.000000, -9.927821 , -0.114855, 2.548356, 808323712.000000, 46.689999,  -25.059999,  -23.870001, 0.000000,  0.000000 
 2460928.000000, -10.104890 , -0.334995, 2.474179, 808343744.000000, 31.920000,  -29.960001,  -36.330002, 0.000000,  0.000000 
 2481280.000000, -9.698111 , -0.401994, 2.433501, 808363712.000000, 17.639999,  -41.790001,  -49.490002, 0.000000,  0.000000 
 2500864.000000, -9.475577 , -0.457029, 2.191825, 808384064.000000, 7.770000,  -56.420002,  -62.230000, 0.000000,  0.000000 
 2520896.000000, -10.188639 , -0.473779, 2.055435, 808403648.000000, 2.660000,  -65.239998,  -74.199997, 0.000000,  0.000000 
 2540992.000000, -11.748759 , -0.495314, 1.966900, 808423680.000000, 1.960000,  -59.990002,  -84.070000, 0.000000,  0.000000 
 2560832.000000, -14.057834 , -0.507278, 1.349552, 808443712.000000, 3.220000,  -48.930000,  -91.209999, 0.000000,  0.000000 
 2581248.000000, -18.075382 , -0.655633, 1.634298, 808463616.000000, 3.290000,  -37.730000,  -95.760002, 0.000000,  0.000000 
 2600832.000000, -20.408382 , -1.153341, 1.543371, 808483968.000000, 1.540000,  -14.840000,  -96.529999, 0.000000,  0.000000 
 2620864.000000, -15.093925 , -0.521635, 1.296910, 808503616.000000, 6.930000,  -23.170000,  -92.820000, 0.000000,  0.000000 
 2640896.000000, -11.198411 , 0.251246, 0.452243, 808523584.000000, 27.299999,  -96.180000,  -84.489998, 0.000000,  0.000000 
 2660864.000000, -10.681561 , 1.897508, -0.471386, 808543680.000000, 41.930000,  -116.199997,  -88.269997, 0.000000,  0.000000 
 2681152.000000, -11.454442 , 3.170490, 0.349352, 808563584.000000, 34.439999,  -79.029999,  -91.840004, 0.000000,  0.000000 
 2700800.000000, -11.454442 , 2.742175, 0.007178, 808583936.000000, 21.070000,  -45.360001,  -83.790001, 0.000000,  0.000000 
 2720768.000000, -10.573883 , 1.330409, 0.296710, 808603584.000000, 1.330000,  -34.230000,  -71.400002, 0.000000,  0.000000 
 2740800.000000, -9.992428 , 0.270389, 0.674776, 808623552.000000, -34.439999,  -25.129999,  -47.320000, 0.000000,  0.000000 
 2760768.000000, -9.339187 , 0.880559, 1.478764, 808643584.000000, -42.209999,  -3.990000,  -19.950001, 0.000000,  0.000000 
 2781120.000000, -8.449057 , 1.931008, 2.091327, 808663552.000000, -23.309999,  14.490000,  10.010000, 0.000000,  0.000000 
 2800896.000000, -7.735995 , 2.689533, 2.210968, 808683904.000000, 4.200000,  24.010000,  26.040001, 0.000000,  0.000000 
 2820736.000000, -7.247860 , 2.294717, 1.907080, 808703616.000000, 17.010000,  31.360001,  29.680000, 0.000000,  0.000000 
 2840768.000000, -7.077969 , 1.012164, 1.758725, 808723456.000000, 10.570000,  38.080002,  30.030001, 0.000000,  0.000000 
 2860736.000000, -7.092326 , 0.038285, 1.572084, 808743552.000000, 1.400000,  43.959999,  35.070000, 0.000000,  0.000000 
 2881088.000000, -6.912865 , -0.122034, 1.457229, 808763456.000000, 9.450000,  46.270000,  44.240002, 0.000000,  0.000000 
 2900672.000000, -6.467800 , 0.490529, 1.371087, 808783808.000000, 26.040001,  43.400002,  55.790001, 0.000000,  0.000000 
 2920704.000000, -5.867201 , 1.100698, 1.421337, 808823424.000000, 18.129999,  27.650000,  66.360001, 868813312.000000,  1010.439026 
 2940736.000000, -5.737988 , 1.007378, 1.619941, 0.000000, 0.000000,  0.000000,  0.000000, 0.000000,  0.000000 
 2960640.000000, -6.620940 , 0.224925, 1.823331, 808843520.000000, -15.820000,  30.940001,  66.709999, 0.000000,  0.000000 
 2980992.000000, -7.812566 , -0.512064, 1.591227, 808863360.000000, -52.639999,  40.459999,  68.180000, 0.000000,  0.000000 
 3000640.000000, -8.776874 , -0.880559, 1.306481, 808883776.000000, -69.300003,  47.040001,  74.410004, 0.000000,  0.000000 
 3020608.000000, -9.511470 , -1.134198, 1.564906, 808903424.000000, -72.870003,  49.490002,  83.720001, 0.000000,  0.000000 
 3040576.000000, -10.133603 , -1.237089, 2.134398, 808923392.000000, -77.980003,  52.080002,  93.660004, 0.000000,  0.000000 
 3060544.000000, -10.825130 , -0.768096, 2.486143, 808943296.000000, -86.449997,  56.209999,  101.779999, 0.000000,  0.000000 
 3080832.000000, -11.554940 , -0.916451, 2.359323, 808963328.000000, -91.489998,  63.279999,  110.529999, 0.000000,  0.000000 
 3100544.000000, -12.519248 , -2.062613, 2.895315, 808983616.000000, -102.410004,  64.050003,  115.150002, 0.000000,  0.000000 
 3120576.000000, -13.485948 , -3.440879, 3.986443, 809003264.000000, -112.209999,  68.320000,  115.500000, 0.000000,  0.000000 
 3140480.000000, -13.753943 , -5.187639, 5.314459, 809023296.000000, -124.320000,  69.370003,  114.520004, 0.000000,  0.000000 
 3160512.000000, -15.048461 , -5.410172, 4.400401, 809043264.000000, -109.970001,  63.070000,  107.099998, 0.000000,  0.000000 
 3180800.000000, -17.773888 , -2.746960, 4.043870, 809063232.000000, -78.750000,  43.400002,  79.870003, 0.000000,  0.000000 
 3200448.000000, -18.027527 , -0.940379, 3.582055, 809083520.000000, -34.090000,  44.240002,  38.920002, 0.000000,  0.000000 
 3220480.000000, -14.438292 , 0.131605, 3.661019, 809103232.000000, 17.360001,  32.200001,  8.750000, 0.000000,  0.000000 
 3240448.000000, -10.147961 , -1.244268, 4.498507, 809123200.000000, 32.200001,  -17.990000,  -25.969999, 0.000000,  0.000000 
 3260416.000000, -8.195417 , -2.199004, 4.898108, 809143168.000000, 14.910000,  -51.590000,  -63.070000, 0.000000,  0.000000 
 3280704.000000, -8.281559 , -2.057827, 4.311867, 809163200.000000, 9.030000,  -48.720001,  -89.110001, 0.000000,  0.000000 
 3300416.000000, -9.736395 , -1.227518, 3.479164, 809183488.000000, 28.210001,  -35.070000,  -99.260002, 0.000000,  0.000000 
 3320384.000000, -10.851451 , -0.736989, 2.691926, 809203200.000000, 53.130001,  -24.990000,  -100.660004, 0.000000,  0.000000 
 3340416.000000, -10.765309 , -0.677169, 2.581856, 809223168.000000, 63.070000,  -33.880001,  -97.650002, 0.000000,  0.000000 
 3360384.000000, -10.248460 , -0.373280, 2.746960, 809243136.000000, 61.740002,  -53.130001,  -96.879997, 0.000000,  0.000000 
 3380672.000000, -9.734003 , 0.299103, 2.323431, 809263168.000000, 59.779999,  -66.080002,  -98.279999, 0.000000,  0.000000 
 3400384.000000, -8.906086 , 0.413958, 1.859223, 809283456.000000, 53.410000,  -71.330002,  -98.699997, 0.000000,  0.000000 
 3420352.000000, -7.948956 , -0.215354, 2.086541, 809303104.000000, 33.320000,  -75.809998,  -102.900002, 0.000000,  0.000000 
 3440320.000000, -7.491928 , -0.595813, 2.718246, 809323136.000000, 6.650000,  -76.580002,  -109.550003, 0.000000,  0.000000 
 3460352.000000, -7.381857 , -0.478565, 2.809174, 809343104.000000, -2.870000,  -69.650002,  -114.239998, 0.000000,  0.000000 
 3480640.000000, -7.135397 , -0.461815, 2.400001, 809363072.000000, 6.230000,  -62.369999,  -114.379997, 0.000000,  0.000000 
 3500288.000000, -6.606583 , -0.933201, 2.213361, 809383360.000000, 15.260000,  -63.349998,  -113.190002, 0.000000,  0.000000 
 3520320.000000, -6.431907 , -1.342373, 2.488536, 809403072.000000, 20.160000,  -65.940002,  -107.730003, 0.000000,  0.000000 
 3540288.000000, -7.259824 , -0.897308, 2.711068, 809423040.000000, 32.200001,  -60.619999,  -98.070000, 0.000000,  0.000000 
 3560256.000000, -8.291130 , -0.284746, 2.203789, 809443072.000000, 51.730000,  -49.000000,  -83.790001, 0.000000,  0.000000 
 3580672.000000, -8.678767 , -0.234497, 1.890330, 809463040.000000, 59.709999,  -42.700001,  -67.480003, 0.000000,  0.000000 
 3600256.000000, -8.305488 , -0.342174, 2.024328, 809483456.000000, 44.939999,  -45.500000,  -54.740002, 0.000000,  0.000000 
 3620224.000000, -8.118847 , -0.301496, 2.273181, 809502976.000000, 26.950001,  -47.250000,  -46.060001, 0.000000,  0.000000 
 3640256.000000, -8.477771 , -0.196211, 2.459821, 809523008.000000, 14.770000,  -40.880001,  -39.830002, 0.000000,  0.000000 
 3660224.000000, -9.085547 , -0.311067, 2.184647, 809542976.000000, 6.720000,  -30.380001,  -35.349998, 0.000000,  0.000000 
 3680512.000000, -10.023535 , -0.875773, 2.132005, 809563008.000000, 1.960000,  -23.030001,  -30.309999, 0.000000,  0.000000 
 3700224.000000, -11.394621 , -1.328017, 1.957329, 809583296.000000, 1.400000,  -10.430000,  -20.719999, 0.000000,  0.000000 
 3720192.000000, -13.696517 , -1.328017, 2.244468, 809602944.000000, 11.060000,  5.110000,  -6.790000, 0.000000,  0.000000 
 3740160.000000, -15.940985 , -0.854238, 2.129612, 809622912.000000, 28.070000,  29.260000,  11.410000, 0.000000,  0.000000 
 3760128.000000, -14.232510 , -0.382852, 1.653440, 809642944.000000, 35.630001,  51.099998,  32.900002, 0.000000,  0.000000 
 3780480.000000, -10.643275 , -0.002393, 1.478764, 809662912.000000, 41.090000,  31.639999,  46.200001, 0.000000,  0.000000 
 3800128.000000, -10.047462 , 0.114855, 1.371087, 809683200.000000, 38.150002,  8.540000,  51.240002, 0.000000,  0.000000 
 3820096.000000, -12.011970 , -0.528814, 1.442872, 809702912.000000, 17.360001,  36.189999,  50.470001, 0.000000,  0.000000 
 3840128.000000, -13.174881 , -1.134198, 1.940579, 809722880.000000, -5.110000,  73.849998,  52.009998, 0.000000,  0.000000 
 3860096.000000, -12.270394 , -1.055235, 2.536392, 809742848.000000, -6.650000,  83.160004,  57.889999, 0.000000,  0.000000 
 3880384.000000, -11.210374 , -0.497707, 2.493321, 809762880.000000, 5.950000,  79.730003,  72.099998, 0.000000,  0.000000 
 3900096.000000, -10.762917 , -0.179462, 2.261217, 809783168.000000, 13.370000,  85.889999,  83.440002, 0.000000,  0.000000 
 3920064.000000, -10.212566 , -0.361316, 2.203789, 809822848.000000, -1.890000,  97.790001,  93.029999, 869812672.000000,  1010.444946 
 3940032.000000, -9.439686 , -0.449851, 2.591427, 0.000000, 0.000000,  0.000000,  0.000000, 0.000000,  0.000000 
 3960064.000000, -8.989835 , -0.212961, 2.981457, 809842816.000000, -8.540000,  94.709999,  95.690002, 0.000000,  0.000000 
 3980352.000000, -8.800802 , -0.447458, 3.256632, 809862784.000000, -14.350000,  93.590004,  97.370003, 0.000000,  0.000000 
 4000000.000000, -8.812766 , -1.002593, 3.625126, 809883136.000000, -22.750000,  94.919998,  96.949997, 0.000000,  0.000000 
 4020032.000000, -8.568698 , -1.127020, 3.663411, 809902784.000000, -27.020000,  93.730003,  97.860001, 0.000000,  0.000000 
 4040000.000000, -7.441679 , -0.617348, 3.239882, 809922752.000000, -16.730000,  82.250000,  99.400002, 0.000000,  0.000000 
 4059968.000000, -6.111269 , -0.212961, 3.287738, 809942784.000000, -0.070000,  57.610001,  97.160004, 0.000000,  0.000000 
 4080320.000000, -5.532206 , -0.093320, 3.323631, 809962752.000000, 3.150000,  37.590000,  90.160004, 0.000000,  0.000000 
 4099968.000000, -6.118448 , -0.361316, 3.168097, 809983040.000000, -8.750000,  31.500000,  81.900002, 0.000000,  0.000000 
 4120000.000000, -7.439285 , -0.914058, 2.792424, 810002752.000000, -28.350000,  34.020000,  74.410004, 0.000000,  0.000000 
 4139968.000000, -8.449057 , -1.225125, 2.512464, 810022720.000000, -46.549999,  33.250000,  68.180000, 0.000000,  0.000000 
 4159936.000000, -9.351151 , -1.473979, 2.471786, 810042688.000000, -58.310001,  26.600000,  63.560001, 0.000000,  0.000000 
 4180224.000000, -9.992428 , -1.591227, 2.639283, 810062720.000000, -62.510002,  18.830000,  57.049999, 0.000000,  0.000000 
 4199936.000000, -10.463813 , -1.727618, 2.756532, 810083008.000000, -64.540001,  11.410000,  49.490002, 0.000000,  0.000000 
 4219904.000000, -11.310873 , -1.931008, 2.921637, 810102656.000000, -67.129997,  4.200000,  42.070000, 0.000000,  0.000000 
 4239872.000000, -12.490535 , -1.947758, 3.046063, 810122624.000000, -68.879997,  3.080000,  32.549999, 0.000000,  0.000000 
 4259904.000000, -12.394822 , -1.445265, 2.751746, 810142656.000000, -66.919998,  3.850000,  20.299999, 0.000000,  0.000000 
 4280192.000000, -12.593425 , -2.005185, 2.388037, 810162624.000000, -57.680000,  -10.640000,  8.540000, 0.000000,  0.000000 
 4299840.000000, -16.299908 , -3.046063, 3.809374, 810182976.000000, -51.869999,  -18.480000,  -6.300000, 0.000000,  0.000000 
 4319872.000000, -16.663616 , -1.306481, 3.074777, 810202624.000000, -53.060001,  17.570000,  -28.280001, 0.000000,  0.000000 
 4339840.000000, -11.341980 , 0.976272, 2.758924, 810222592.000000, -20.370001,  -4.620000,  -41.090000, 0.000000,  0.000000 
 4359808.000000, -8.659625 , 0.629312, 3.598805, 810242560.000000, 6.160000,  -72.940002,  -57.610001, 0.000000,  0.000000 
 4380160.000000, -9.578469 , -0.725025, 4.012764, 810262592.000000, -14.910000,  -71.330002,  -96.529999, 0.000000,  0.000000 
 4399808.000000, -12.411572 , -1.081556, 4.043870, 810282880.000000, -19.389999,  -42.070000,  -126.840004, 0.000000,  0.000000 
 4419776.000000, -14.431112 , -0.701097, 3.680161, 810302592.000000, 16.170000,  -20.370001,  -138.180008, 0.000000,  0.000000 
 4439808.000000, -14.471791 , -0.031107, 2.907279, 810322560.000000, 53.549999,  -27.370001,  -136.500000, 0.000000,  0.000000 
 4459776.000000, -12.727424 , 0.246461, 2.349752, 810342528.000000, 75.669998,  -53.340000,  -133.490005, 0.000000,  0.000000 
 4480064.000000, -10.741381 , 0.684347, 2.167897, 810362496.000000, 83.650002,  -77.699997,  -131.949997, 0.000000,  0.000000 
 4499776.000000, -9.147761 , 0.906880, 2.220540, 810382848.000000, 78.889999,  -89.949997,  -132.089996, 0.000000,  0.000000 
 4519744.000000, -8.104490 , 0.559920, 2.268396, 810402496.000000, 60.970001,  -93.099998,  -135.589996, 0.000000,  0.000000 
 4539712.000000, -7.623533 , -0.057428, 2.502892, 810422464.000000, 38.709999,  -90.160004,  -141.960007, 0.000000,  0.000000 
 4559744.000000, -7.590034 , -0.437887, 2.830709, 810442496.000000, 25.200001,  -81.340004,  -144.479996, 0.000000,  0.000000 
 4580032.000000, -7.580462 , -0.284746, 2.744568, 810462464.000000, 30.799999,  -71.610001,  -140.350006, 0.000000,  0.000000 
 4599680.000000, -7.061220 , -0.222532, 2.215754, 810482752.000000, 50.189999,  -67.550003,  -130.690002, 0.000000,  0.000000 
 4619712.000000, -6.463014 , -0.299103, 1.954936, 810502464.000000, 65.169998,  -71.470001,  -119.419998, 0.000000,  0.000000 
 4639680.000000, -6.252446 , -0.354138, 2.081756, 810522432.000000, 71.260002,  -72.099998,  -108.779999, 0.000000,  0.000000 
 4659648.000000, -6.771688 , -0.062213, 2.155933, 810542400.000000, 75.389999,  -64.260002,  -94.709999, 0.000000,  0.000000 
 4679936.000000, -7.290931 , 0.088534, 2.024328, 810562432.000000, 79.870003,  -51.170002,  -77.419998, 0.000000,  0.000000 
 4699648.000000, -7.094719 , 0.198604, 2.105684, 810582720.000000, 78.680000,  -43.400002,  -60.340000, 0.000000,  0.000000 
 4719616.000000, -6.620940 , 0.394816, 2.148755, 810602368.000000, 70.419998,  -41.509998,  -44.660000, 0.000000,  0.000000 
 4739648.000000, -6.606583 , 0.636491, 2.115255, 810622400.000000, 62.510002,  -33.810001,  -29.820000, 0.000000,  0.000000 
 4759616.000000, -6.805188 , 0.636491, 2.175076, 810642368.000000, 49.700001,  -18.480000,  -17.150000, 0.000000,  0.000000 
 4779904.000000, -7.207181 , 0.490529, 2.404787, 810662336.000000, 31.639999,  -4.130000,  -5.600000, 0.000000,  0.000000 
 4799616.000000, -7.982457 , 0.119641, 2.656033, 810682688.000000, 16.100000,  10.080000,  7.350000, 0.000000,  0.000000 
 4819584.000000, -9.616754 , 0.203390, 1.971686, 810702336.000000, 4.970000,  30.870001,  24.150000, 0.000000,  0.000000 
 4840640.000000, -12.643675 , 0.186640, 1.646262, 810722304.000000, -4.060000,  55.650002,  44.170002, 0.000000,  0.000000 
 4859584.000000, -17.350357 , -0.215354, 2.201397, 810743360.000000, -16.240000,  101.919998,  70.489998, 0.000000,  0.000000 
 4880448.000000, -17.587246 , -0.370888, 3.077170, 810762368.000000, -36.119999,  155.399994,  98.629997, 0.000000,  0.000000 
 4900032.000000, -12.236896 , 0.619741, 2.897708, 810783232.000000, -38.639999,  135.940002,  114.590004, 0.000000,  0.000000 
 4920064.000000, -9.542577 , 1.433301, 1.574477, 810822784.000000, -37.799999,  78.190002,  120.610001, 870812672.000000,  1010.448547 
 4940032.000000, -11.016556 , 0.698704, 1.366302, 0.000000, 0.000000,  0.000000,  0.000000, 0.000000,  0.000000 
 4960000.000000, -14.955141 , -0.734596, 2.029114, 810842816.000000, -76.790001,  119.139999,  109.410004, 0.000000,  0.000000 
 4980800.000000, -17.139788 , -1.837688, 2.629712, 810862784.000000, -89.040001,  150.570007,  102.269997, 0.000000,  0.000000 
 5000384.000000, -16.307087 , -1.842474, 3.091527, 810883520.000000, -62.230000,  135.800003,  111.370003, 0.000000,  0.000000 
 5020352.000000, -14.242079 , -0.861416, 2.754139, 810903168.000000, -23.940001,  101.709999,  127.190002, 0.000000,  0.000000 
 5040448.000000, -12.107682 , 0.234497, 2.301895, 810923136.000000, -2.100000,  78.959999,  135.449997, 0.000000,  0.000000 
 5060352.000000, -9.927821 , 0.756132, 2.557927, 810943232.000000, -7.980000,  61.950001,  127.260002, 0.000000,  0.000000 
 5081088.000000, -7.910671 , 0.457029, 2.622534, 810963136.000000, -31.290001,  43.119999,  113.330002, 0.000000,  0.000000 
 5100672.000000, -6.683154 , -0.619741, 2.993421, 810983808.000000, -62.580002,  31.360001,  98.840004, 0.000000,  0.000000 
 5120704.000000, -6.506085 , -1.718047, 3.644269, 811003392.000000, -89.599998,  28.070000,  80.989998, 0.000000,  0.000000 
 5140736.000000, -6.539584 , -1.950150, 3.694518, 811023488.000000, -90.720001,  32.130001,  69.370003, 0.000000,  0.000000 
 5160640.000000, -6.137590 , -1.249053, 2.931208, 811043456.000000, -64.750000,  29.330000,  65.730003, 0.000000,  0.000000 
 5180736.000000, -5.357530 , -0.437887, 2.261217, 811063360.000000, -32.410000,  12.600000,  63.490002, 0.000000,  0.000000 
 5201664.000000, -4.914857 , -0.483350, 2.084148, 811083520.000000, -23.870001,  2.660000,  59.150002, 0.000000,  0.000000 
 5221696.000000, -5.374279 , -0.837488, 1.986043, 811104448.000000, -36.610001,  -10.920000,  55.720001, 0.000000,  0.000000 
 5241728.000000, -6.853044 , -1.428515, 1.684547, 811124480.000000, -57.470001,  -2.730000,  54.950001, 0.000000,  0.000000 
 5261696.000000, -8.269595 , -1.969293, 1.435694, 811144512.000000, -71.120003,  9.590000,  55.860001, 0.000000,  0.000000 
 5282048.000000, -8.934800 , -2.249253, 1.586441, 811164416.000000, -79.730003,  12.600000,  54.110001, 0.000000,  0.000000 
 5301696.000000, -9.085547 , -1.808974, 1.617548, 811184768.000000, -82.739998,  5.530000,  50.400002, 0.000000,  0.000000 
 5321600.000000, -9.745967 , -1.854438, 1.138984, 811204416.000000, -83.860001,  -3.850000,  44.660000, 0.000000,  0.000000 
 5341696.000000, -11.748759 , -2.890530, 1.406980, 811224384.000000, -90.790001,  -0.560000,  37.310001, 0.000000,  0.000000 
 5361664.000000, -13.986048 , -3.826123, 2.055435, 811244480.000000, -118.790001,  18.690001,  20.930000, 0.000000,  0.000000 
 5381952.000000, -16.113268 , -4.914857, 1.615155, 811264384.000000, -145.949997,  24.850000,  -3.150000, 0.000000,  0.000000 
 5401600.000000, -18.321842 , -5.273781, 2.220540, 811284736.000000, -145.809998,  24.710001,  -26.460001, 0.000000,  0.000000 
 5421632.000000, -15.297315 , -3.333202, 3.742374, 811304320.000000, -144.619995,  28.139999,  -61.459999, 0.000000,  0.000000 
 5441664.000000, -11.507084 , -0.701097, 6.070591, 811324352.000000, -110.879997,  -5.950000,  -80.570000, 0.000000,  0.000000 
 5461568.000000, -9.844072 , 0.507278, 6.616155, 811344448.000000, -86.519997,  -20.790001,  -88.970001, 0.000000,  0.000000 
 5481920.000000, -9.255438 , -1.076770, 6.125626, 811364352.000000, -58.380001,  -14.770000,  -124.669998, 0.000000,  0.000000 
 5501568.000000, -9.506684 , -2.301895, 6.527620, 811384704.000000, -37.590000,  0.070000,  -158.059998, 0.000000,  0.000000 
 5521536.000000, -12.007183 , -3.926622, 6.829116, 811404288.000000, -22.610001,  9.170000,  -178.430008, 0.000000,  0.000000 
 5541568.000000, -14.904892 , -4.031906, 4.998606, 811424320.000000, 21.490000,  29.190001,  -179.339996, 0.000000,  0.000000 
 5561472.000000, -15.797415 , -1.359123, 4.259224, 811444352.000000, 114.099998,  33.670002,  -168.279999, 0.000000,  0.000000 
 5581888.000000, -14.139190 , 1.402194, 2.842674, 811464256.000000, 210.070007,  -0.420000,  -155.889999, 0.000000,  0.000000 
 5601536.000000, -11.562119 , 2.215754, 2.845066, 811484608.000000, 256.480011,  -49.980000,  -145.320007, 0.000000,  0.000000 
 5621440.000000, -9.755538 , 1.296910, 3.055635, 811504256.000000, 221.339996,  -82.389999,  -150.149994, 0.000000,  0.000000 
 5641536.000000, -9.023334 , 0.315853, 3.053242, 811524224.000000, 166.389999,  -88.620003,  -156.240005, 0.000000,  0.000000 
 5661504.000000, -8.271988 , -0.136391, 3.024528, 811544320.000000, 135.940002,  -81.690002,  -157.009995, 0.000000,  0.000000 
 5681792.000000, -7.403394 , -0.217747, 2.792424, 811564224.000000, 128.589996,  -77.419998,  -146.930008, 0.000000,  0.000000 
 5701440.000000, -6.436693 , -0.179462, 2.428715, 811584576.000000, 128.169998,  -77.209999,  -134.889999, 0.000000,  0.000000 
 5721408.000000, -5.749953 , -0.519243, 2.160719, 811604160.000000, 122.919998,  -77.559998,  -120.820000, 0.000000,  0.000000 
 5741504.000000, -5.398208 , -0.976272, 2.127219, 811624192.000000, 109.970001,  -75.809998,  -107.730003, 0.000000,  0.000000 
 5761408.000000, -5.505885 , -1.119841, 1.938186, 811644288.000000, 100.870003,  -70.349998,  -95.830002, 0.000000,  0.000000 
 5781760.000000, -5.809773 , -0.686740, 1.263410, 811664192.000000, 107.449997,  -60.830002,  -80.639999, 0.000000,  0.000000 
 5801344.000000, -5.989235 , -0.169890, 0.832702, 811684544.000000, 116.830002,  -52.430000,  -61.459999, 0.000000,  0.000000 
 5821376.000000, -6.218946 , -0.220140, 0.827917, 811704128.000000, 112.349998,  -44.170002,  -40.810001, 0.000000,  0.000000 
 5841472.000000, -6.776474 , -0.564706, 1.150948, 811724160.000000, 91.070000,  -36.330002,  -25.270000, 0.000000,  0.000000 
 5861312.000000, -7.384251 , -0.598206, 1.136591, 811744192.000000, 68.529999,  -23.940001,  -12.180000, 0.000000,  0.000000 
 5881600.000000, -8.137990 , -0.217747, 0.918844, 811764032.000000, 54.389999,  -11.130000,  2.660000, 0.000000,  0.000000 
 5901248.000000, -9.568897 , 0.189033, 0.641276, 811784384.000000, 42.490002,  4.270000,  15.330000, 0.000000,  0.000000 
 5921280.000000, -11.971292 , 0.102891, -0.081356, 811824000.000000, -5.810000,  65.169998,  36.750000, 871813888.000000,  1010.458313 
 5941248.000000, -15.742380 , -0.512064, 0.430708, 0.000000, 0.000000,  0.000000,  0.000000, 0.000000,  0.000000 
 5961216.000000, -19.113867 , -0.445065, 2.203789, 811844032.000000, -42.349998,  110.529999,  44.939999, 0.000000,  0.000000 
 5981568.000000, -15.369100 , 0.492921, 2.833102, 811864000.000000, -60.060001,  135.869995,  60.619999, 0.000000,  0.000000 
 6001216.000000, -10.281959 , 1.014557, 1.938186, 811884288.000000, -51.799999,  90.370003,  77.349998, 0.000000,  0.000000 
 6021184.000000, -9.126225 , 0.643669, 1.828116, 811904000.000000, -50.959999,  54.040001,  74.830002, 0.000000,  0.000000 
 6041216.000000, -12.002398 , 0.169890, 1.993221, 811923968.000000, -77.699997,  84.910004,  56.770000, 0.000000,  0.000000 
 6061184.000000, -15.553347 , -0.392423, 1.935793, 811943936.000000, -87.639999,  142.100006,  53.340000, 0.000000,  0.000000 
 6081472.000000, -15.785451 , -1.447658, 2.433501, 811963904.000000, -71.820000,  166.669998,  62.720001, 0.000000,  0.000000 
 6101184.000000, -13.983655 , -1.883151, 2.993421, 811984256.000000, -65.099998,  142.940002,  80.849998, 0.000000,  0.000000 
 6121216.000000, -13.359130 , -1.119841, 3.012564, 812003904.000000, -57.680000,  124.739998,  104.090004, 0.000000,  0.000000 
 6141120.000000, -13.074384 , 0.131605, 2.737389, 812023936.000000, -42.000000,  129.009995,  119.070000, 0.000000,  0.000000 
 6161152.000000, -11.772687 , 0.490529, 3.041277, 812043904.000000, -28.630001,  126.139999,  125.300003, 0.000000,  0.000000 
 6181440.000000, -10.272388 , 0.126820, 3.579663, 812063872.000000, -29.610001,  108.290001,  128.380005, 0.000000,  0.000000 
 6201088.000000, -9.458827 , -0.698704, 4.369294, 812084160.000000, -39.549999,  93.239998,  128.940002, 0.000000,  0.000000 
 6221120.000000, -8.685946 , -1.060020, 4.161119, 812103872.000000, -42.070000,  91.840004,  125.650002, 0.000000,  0.000000 
 6241088.000000, -7.597212 , -1.057628, 3.498307, 812123840.000000, -30.730000,  82.529999,  125.370003, 0.000000,  0.000000 
 6261056.000000, -6.357729 , -0.500100, 3.134598, 812143808.000000, -14.000000,  65.519997,  119.770004, 0.000000,  0.000000 
 6281408.000000, -5.489135 , 0.222532, 2.833102, 812163840.000000, -9.870000,  44.590000,  110.389999, 0.000000,  0.000000 
 6301056.000000, -5.467600 , 0.519243, 2.823531, 812184128.000000, -13.230000,  32.200001,  101.709999, 0.000000,  0.000000 
 6321024.000000, -6.465407 , -0.038285, 2.414358, 812203776.000000, -30.870001,  30.660000,  92.330002, 0.000000,  0.000000 
 6341056.000000, -7.814958 , -1.105484, 1.952543, 812223808.000000, -57.750000,  36.119999,  86.519997, 0.000000,  0.000000 
 6361024.000000, -9.047262 , -2.103291, 1.823331, 812243776.000000, -82.669998,  37.310001,  82.949997, 0.000000,  0.000000 
 6381312.000000, -9.968499 , -2.782853, 2.165504, 812263744.000000, -96.459999,  31.570000,  78.120003, 0.000000,  0.000000 
 6401024.000000, -10.310673 , -2.806781, 3.022135, 812284096.000000, -92.750000,  23.799999,  74.620003, 0.000000,  0.000000 
 6420992.000000, -9.698111 , -2.467000, 2.859423, 812303744.000000, -82.809998,  9.170000,  66.849998, 0.000000,  0.000000 
 6440960.000000, -10.083356 , -2.591427, 2.426322, 812323712.000000, -72.730003,  -10.430000,  54.599998, 0.000000,  0.000000 
 6460992.000000, -12.686745 , -3.460021, 3.292524, 812343744.000000, -68.599998,  -5.180000,  34.860001, 0.000000,  0.000000 
 6481280.000000, -15.203994 , -3.203990, 3.787838, 812363712.000000, -61.110001,  22.820000,  9.520000, 0.000000,  0.000000 
 6500928.000000, -13.134203 , -1.880759, 2.792424, 812384000.000000, -34.230000,  24.850000,  -14.210000, 0.000000,  0.000000 
 6520960.000000, -11.629118 , -1.789831, 3.644269, 812403712.000000, 2.660000,  -25.480000,  -20.580000, 0.000000,  0.000000 
 6540928.000000, -13.792230 , -1.701297, 4.453043, 812423680.000000, -0.350000,  -40.880001,  -44.099998, 0.000000,  0.000000 
 6560896.000000, -13.469198 , -0.452243, 4.168297, 812443648.000000, -12.460000,  -16.940001,  -87.779999, 0.000000,  0.000000 
 6581248.000000, -11.554940 , -0.356531, 4.206582, 812463680.000000, 11.970000,  -38.990002,  -107.379997, 0.000000,  0.000000 
 6600896.000000, -11.842079 , -0.318245, 3.854837, 812483968.000000, 28.700001,  -68.599998,  -130.690002, 0.000000,  0.000000 
 6620864.000000, -13.641481 , -0.646062, 3.531806, 812503616.000000, 35.770000,  -67.760002,  -152.389999, 0.000000,  0.000000 
 6640832.000000, -14.751752 , -0.626920, 3.436093, 812523648.000000, 47.950001,  -63.279999,  -167.649994, 0.000000,  0.000000 
 6660864.000000, -14.904892 , 0.043071, 3.113062, 812543616.000000, 66.290001,  -75.389999,  -174.160004, 0.000000,  0.000000 
 6681152.000000, -14.409578 , 0.744168, 2.507678, 812563584.000000, 85.050003,  -93.519997,  -176.050003, 0.000000,  0.000000 
 6700800.000000, -13.268202 , 0.655633, 1.935793, 812583936.000000, 87.430000,  -109.480003,  -178.990005, 0.000000,  0.000000 
 6720832.000000, -11.954542 , 0.263210, 1.969293, 812603584.000000, 77.209999,  -124.739998,  -186.130005, 0.000000,  0.000000 
 6740800.000000, -11.207980 , 0.655633, 2.110470, 812623552.000000, 69.650002,  -133.559998,  -191.940002, 0.000000,  0.000000 
 6760768.000000, -10.583455 , 0.770489, 1.875973, 812643584.000000, 69.019997,  -135.100006,  -195.089996, 0.000000,  0.000000 
 6781120.000000, -9.678967 , 0.282353, 1.832902, 812663552.000000, 62.090000,  -136.710007,  -196.279999, 0.000000,  0.000000 
 6800960.000000, -8.492127 , 0.148355, 1.751546, 812683840.000000, 49.840000,  -138.669998,  -195.580002, 0.000000,  0.000000 
 6820736.000000, -7.353144 , 0.847059, 1.828116, 812703680.000000, 52.709999,  -140.279999,  -189.699997, 0.000000,  0.000000 
 6840768.000000, -6.230910 , 1.641476, 1.674976, 812723520.000000, 61.880001,  -134.050003,  -173.740005, 0.000000,  0.000000 
 6860736.000000, -5.474778 , 1.275374, 1.808974, 812743488.000000, 60.549999,  -122.220001,  -147.490005, 0.000000,  0.000000 
 6881088.000000, -5.639884 , 0.074178, 1.871187, 812763520.000000, 40.810001,  -104.580002,  -120.050003, 0.000000,  0.000000 
 6900800.000000, -6.424729 , -0.220140, 1.952543, 812783872.000000, 24.780001,  -78.610001,  -91.910004, 0.000000,  0.000000 
 6921472.000000, -6.948757 , 0.248854, 1.868794, 812824256.000000, 54.110001,  -36.330002,  -27.790001, 872814080.000000,  1010.467773 
 6940800.000000, -7.367501 , 0.698704, 1.572084, 0.000000, 0.000000,  0.000000,  0.000000, 0.000000,  0.000000 
 6960768.000000, -8.295916 , 0.777667, 1.430908, 812843520.000000, 65.379997,  -22.540001,  -5.740000, 0.000000,  0.000000 
 6981056.000000, -9.363115 , 0.478565, 1.215554, 812863552.000000, 66.989998,  -2.170000,  9.730000, 0.000000,  0.000000 
 7001536.000000, -10.573883 , 0.260818, 1.237089, 812883776.000000, 63.980000,  21.490000,  23.799999, 0.000000,  0.000000 
 7021504.000000, -12.897314 , 0.552742, 1.024128, 812904320.000000, 63.700001,  43.680000,  36.470001, 0.000000,  0.000000 
 7041536.000000, -15.641882 , 0.842274, 0.882952, 812924288.000000, 70.489998,  74.340004,  52.150002, 0.000000,  0.000000 
 7061504.000000, -14.120047 , 0.490529, 0.961915, 812944256.000000, 61.950001,  107.309998,  69.720001, 0.000000,  0.000000 
 7081792.000000, -9.681360 , 0.488136, 1.009771, 812964288.000000, 40.040001,  84.419998,  76.720001, 0.000000,  0.000000 
 7101952.000000, -7.716853 , 0.557528, 0.753739, 812984512.000000, 17.710001,  53.619999,  84.840004, 0.000000,  0.000000 
 7121856.000000, -9.628718 , 0.619741, 0.473779, 813004672.000000, -12.250000,  79.239998,  89.110001, 0.000000,  0.000000 
 7141824.000000, -13.146168 , 0.004786, 0.401994, 813024640.000000, -47.180000,  141.399994,  96.389999, 0.000000,  0.000000 
 7161920.000000, -15.412170 , -0.741775, 0.736989, 813044608.000000, -75.599998,  188.089996,  109.760002, 0.000000,  0.000000 
 7182144.000000, -15.589240 , -1.107877, 1.584049, 813064640.000000, -94.919998,  195.509995,  125.440002, 0.000000,  0.000000 
 7202240.000000, -15.763916 , -0.909273, 2.330609, 813084864.000000, -104.790001,  187.529999,  145.740005, 0.000000,  0.000000 
 7222144.000000, -16.788044 , -0.648455, 2.433501, 813104960.000000, -108.290001,  190.750000,  163.869995, 0.000000,  0.000000 
 7242112.000000, -16.321442 , -0.775275, 2.467000, 813124928.000000, -108.500000,  194.389999,  173.460007, 0.000000,  0.000000 
 7262208.000000, -14.464613 , -1.055235, 2.883351, 813144896.000000, -106.260002,  175.350006,  179.619995, 0.000000,  0.000000 
 7282432.000000, -13.069597 , -1.502693, 3.924229, 813164928.000000, -99.540001,  144.899994,  180.529999, 0.000000,  0.000000 
 7301888.000000, -12.165110 , -2.500499, 4.089334, 813185152.000000, -87.849998,  125.510002,  172.830002, 0.000000,  0.000000 
 7323136.000000, -11.641083 , -1.770689, 3.862016, 813204608.000000, -65.379997,  115.150002,  157.080002, 0.000000,  0.000000 
 7343168.000000, -9.767502 , 0.502493, 2.971886, 813225856.000000, -37.520000,  98.559998,  129.570007, 0.000000,  0.000000 
 7363136.000000, -7.946564 , 1.696511, 2.691926, 813245888.000000, -5.670000,  65.519997,  111.230003, 0.000000,  0.000000 
 7383424.000000, -7.802995 , 1.107877, 2.641676, 813265920.000000, -12.320000,  44.240002,  93.239998, 0.000000,  0.000000 
 7403200.000000, -8.334201 , -0.330210, 2.756532, 813286144.000000, -58.660000,  46.480000,  70.840004, 0.000000,  0.000000 
 7423104.000000, -8.647661 , -1.402194, 2.804388, 813305920.000000, -108.919998,  50.540001,  64.540001, 0.000000,  0.000000 
 7443072.000000, -8.353344 , -2.091327, 2.605784, 813325824.000000, -136.220001,  43.889999,  67.410004, 0.000000,  0.000000 
 7463168.000000, -7.597212 , -2.608176, 2.127219, 813345792.000000, -144.970001,  26.809999,  71.820000, 0.000000,  0.000000 
 7483392.000000, -7.109076 , -3.091527, 1.974079, 813365888.000000, -144.339996,  10.080000,  75.809998, 0.000000,  0.000000 
 7503104.000000, -8.154739 , -4.536791, 2.421536, 813386112.000000, -142.520004,  2.310000,  74.900002, 0.000000,  0.000000 
 7523008.000000, -10.791630 , -6.965507, 4.125226, 813405888.000000, -140.350006,  14.420000,  65.940002, 0.000000,  0.000000 
 7543040.000000, -12.756138 , -7.226324, 4.572684, 813425792.000000, -121.169998,  35.630001,  45.080002, 0.000000,  0.000000 
 7563072.000000, -12.849458 , -5.678168, 4.718646, 813445760.000000, -64.120003,  28.139999,  25.059999, 0.000000,  0.000000 
 7583296.000000, -14.397614 , -3.713661, 4.433900, 813465856.000000, 15.050000,  4.690000,  12.460000, 0.000000,  0.000000 
 7603008.000000, -14.177474 , -1.509871, 3.455236, 813486080.000000, 62.720001,  11.620000,  -23.590000, 0.000000,  0.000000 
 7622976.000000, -11.533404 , -0.172283, 3.431308, 813505792.000000, 95.480003,  -9.170000,  -53.340000, 0.000000,  0.000000 
 7643008.000000, -10.547562 , -0.177069, 3.787838, 813525760.000000, 104.650002,  -45.360001,  -85.330002, 0.000000,  0.000000 
 7663040.000000, -12.145968 , -1.091127, 2.991028, 813545728.000000, 84.419998,  -55.790001,  -134.750000, 0.000000,  0.000000 
 7683264.000000, -13.966907 , -2.036292, 2.352145, 813565760.000000, 67.760002,  -47.459999,  -168.910004, 0.000000,  0.000000 
 7703040.000000, -15.079568 , -2.383251, 2.167897, 813585984.000000, 47.250000,  -52.779999,  -188.369995, 0.000000,  0.000000 
 7722944.000000, -15.929020 , -0.945165, 2.196611, 813605760.000000, 42.560001,  -65.379997,  -193.970001, 0.000000,  0.000000 
 7742912.000000, -15.735202 , 1.284946, 1.536192, 813625664.000000, 74.129997,  -77.769997,  -192.080002, 0.000000,  0.000000 
 7762944.000000, -14.526826 , 2.316252, 1.840081, 813645696.000000, 99.820000,  -97.580002,  -190.680008, 0.000000,  0.000000 
 7783168.000000, -13.363914 , 1.789831, 2.194218, 813665728.000000, 88.129997,  -119.699997,  -202.649994, 0.000000,  0.000000 
 7802944.000000, -12.772887 , 0.658026, 2.904887, 813685952.000000, 61.320000,  -130.479996,  -218.750000, 0.000000,  0.000000 
 7822848.000000, -12.253645 , -0.200997, 3.012564, 813705728.000000, 45.080002,  -131.180008,  -231.139999, 0.000000,  0.000000 
 7842816.000000, -11.318050 , -0.136391, 2.823531, 813725632.000000, 47.599998,  -129.710007,  -234.290009, 0.000000,  0.000000 
 7862912.000000, -10.126426 , -0.095713, 2.091327, 813745600.000000, 66.779999,  -129.220001,  -232.259995, 0.000000,  0.000000 
 7883136.000000, -9.159724 , -0.380459, 1.792224, 813765696.000000, 92.190002,  -131.669998,  -223.649994, 0.000000,  0.000000 
 7902784.000000, -8.786445 , -0.648455, 1.775474, 813785920.000000, 108.849998,  -132.649994,  -211.960007, 0.000000,  0.000000 
 7922752.000000, -8.554340 , -0.729811, 1.978864, 813805504.000000, 115.010002,  -126.980003,  -194.529999, 0.000000,  0.000000 
 7942720.000000, -8.587841 , -0.468993, 1.804188, 813825536.000000, 120.050003,  -116.340004,  -169.960007, 873815360.000000,  1010.484009 
 7962752.000000, -8.204988 , -0.186640, 1.500300, 813845504.000000, 124.040001,  -108.709999,  -140.000000, 0.000000,  0.000000 
 7983040.000000, -7.530212 , -0.002393, 1.131805, 813865472.000000, 116.690002,  -107.520004,  -111.860001, 0.000000,  0.000000 
 8002688.000000, -7.250252 , 0.248854, 1.313660, 813885824.000000, 101.849998,  -104.790001,  -86.239998, 0.000000,  0.000000 
 8022720.000000, -7.226324 , 0.528814, 1.134198, 813905472.000000, 83.650002,  -94.080002,  -67.059998, 0.000000,  0.000000 
 8042688.000000, -7.561320 , 0.646062, 1.079163, 813925440.000000, 67.690002,  -80.849998,  -49.349998, 0.000000,  0.000000 
 8062656.000000, -7.953743 , 0.346959, 1.239482, 813945472.000000, 50.330002,  -67.760002,  -36.049999, 0.000000,  0.000000 
 8083008.000000, -8.532805 , 0.145962, 0.354138, 813965440.000000, 35.560001,  -51.240002,  -21.840000, 0.000000,  0.000000 
 8102656.000000, -9.755538 , -0.038285, 0.914058, 813985728.000000, 26.389999,  -31.780001,  -6.090000, 0.000000,  0.000000 
 8122688.000000, -11.684153 , -0.303888, 1.304088, 814005440.000000, 14.420000,  12.320000,  14.840000, 0.000000,  0.000000 
 8142656.000000, -12.291929 , -0.464208, 1.696511, 814025408.000000, 3.150000,  63.349998,  43.680000, 0.000000,  0.000000 
 8162624.000000, -9.805787 , -0.222532, 1.825724, 814045376.000000, -5.880000,  87.919998,  68.180000, 0.000000,  0.000000 
 8182912.000000, -8.097312 , 0.442672, 1.627119, 814065408.000000, -12.460000,  80.010002,  85.889999, 0.000000,  0.000000 
 8202624.000000, -9.389436 , 1.064806, 1.526621, 814085696.000000, -27.160000,  103.180000,  108.290001, 0.000000,  0.000000 
 8222592.000000, -12.251251 , 0.160319, 1.050449, 814105344.000000, -63.349998,  153.440002,  133.839996, 0.000000,  0.000000 
 8242560.000000, -14.294723 , -0.930808, 1.086342, 814125312.000000, -101.709999,  194.529999,  158.410004, 0.000000,  0.000000 
 8262592.000000, -15.479170 , -1.124627, 1.473979, 814145344.000000, -113.120003,  209.860001,  183.889999, 0.000000,  0.000000 
 8282880.000000, -16.709082 , -0.401994, 1.964507, 814165312.000000, -98.419998,  216.440002,  208.460007, 0.000000,  0.000000 
 8302528.000000, -17.548960 , -0.196211, 2.488536, 814185600.000000, -90.790001,  223.790009,  226.380005, 0.000000,  0.000000 
 8322560.000000, -16.460228 , -0.971486, 2.866602, 814205312.000000, -108.360001,  214.199997,  231.770004, 0.000000,  0.000000 
 8342528.000000, -14.210974 , -1.426122, 3.086741, 814225280.000000, -129.289993,  181.789993,  227.080002, 0.000000,  0.000000 
 8362496.000000, -11.674582 , -1.509871, 2.526821, 814245248.000000, -120.540001,  142.729996,  222.740005, 0.000000,  0.000000 
 8382784.000000, -9.693325 , -2.366502, 3.249453, 814265280.000000, -99.400002,  107.730003,  207.759995, 0.000000,  0.000000 
 8402496.000000, -8.516055 , -1.485943, 3.460021, 814285568.000000, -83.370003,  84.139999,  176.750000, 0.000000,  0.000000 
 8422464.000000, -8.114061 , 0.083749, 3.072384, 814305280.000000, -55.230000,  68.320000,  141.330002, 0.000000,  0.000000 
 8442496.000000, -8.963513 , 0.744168, 2.057827, 814325248.000000, -10.220000,  63.490002,  120.680000, 0.000000,  0.000000 
 8462464.000000, -10.064213 , -0.196211, 1.531406, 814345216.000000, -17.219999,  61.599998,  98.349998, 0.000000,  0.000000 
 8482752.000000, -10.248460 , -1.428515, 1.464408, 814365184.000000, -69.160004,  53.060001,  84.699997, 0.000000,  0.000000 
 8502464.000000, -9.937392 , -2.043471, 1.289732, 814385536.000000, -118.790001,  34.790001,  84.559998, 0.000000,  0.000000 
 8522432.000000, -10.045070 , -2.323431, 1.162912, 814405184.000000, -142.869995,  20.719999,  92.260002, 0.000000,  0.000000 
 8542400.000000, -10.875379 , -2.603391, 1.028914, 814425152.000000, -151.339996,  16.309999,  98.419998, 0.000000,  0.000000 
 8562432.000000, -11.947363 , -3.639483, 0.892523, 814445184.000000, -155.399994,  21.139999,  100.519997, 0.000000,  0.000000 
 8582784.000000, -13.079168 , -5.010571, 1.469193, 814465152.000000, -163.309998,  28.139999,  94.989998, 0.000000,  0.000000 
 8602368.000000, -15.718451 , -5.678168, 2.780460, 814485568.000000, -169.750000,  28.700001,  74.340004, 0.000000,  0.000000 
 8622400.000000, -16.197016 , -3.323631, 3.282953, 814505152.000000, -153.789993,  45.430000,  46.619999, 0.000000,  0.000000 
 8642368.000000, -10.439885 , -1.550549, 4.031906, 814525120.000000, -126.419998,  31.080000,  13.930000, 0.000000,  0.000000 
 8662336.000000, -6.948757 , -1.751546, 5.156533, 814545152.000000, -95.129997,  -24.430000,  -11.970000, 0.000000,  0.000000 
 8682624.000000, -7.604390 , -2.467000, 6.802795, 814565120.000000, -80.849998,  -19.600000,  -62.299999, 0.000000,  0.000000 
 8702336.000000, -10.904092 , -2.177469, 5.783452, 814585408.000000, -53.830002,  24.290001,  -100.169998, 0.000000,  0.000000 
 8722304.000000, -13.110275 , -1.703690, 3.943372, 814605056.000000, 11.060000,  54.740002,  -113.540001, 0.000000,  0.000000 
 8742336.000000, -13.543377 , -1.725225, 3.318845, 814625088.000000, 52.920002,  43.119999,  -119.699997, 0.000000,  0.000000 
 8762304.000000, -12.464212 , -1.134198, 3.177669, 814645056.000000, 54.180000,  12.110000,  -129.570007, 0.000000,  0.000000 
 8782592.000000, -10.882557 , 0.234497, 3.213561, 814665088.000000, 69.860001,  -16.590000,  -135.729996, 0.000000,  0.000000 
 8802304.000000, -9.573684 , 1.081556, 3.244668, 814685376.000000, 89.949997,  -38.639999,  -138.809998, 0.000000,  0.000000 
 8822272.000000, -8.853443 , 0.598206, 3.632305, 814705024.000000, 81.550003,  -50.470001,  -146.720001, 0.000000,  0.000000 
 8842240.000000, -8.937192 , -0.303888, 3.957729, 814724992.000000, 57.680000,  -50.470001,  -159.529999, 0.000000,  0.000000 
 8862272.000000, -8.987441 , -0.232104, 3.622734, 814745024.000000, 52.080002,  -47.599998,  -171.289993, 0.000000,  0.000000 
 8882560.000000, -8.863015 , -0.155533, 2.947958, 814764992.000000, 75.529999,  -51.730000,  -174.930008, 0.000000,  0.000000 
 8902208.000000, -8.918050 , -0.404387, 2.644069, 814785280.000000, 100.309998,  -60.410000,  -177.449997, 0.000000,  0.000000 
 8923456.000000, -9.241080 , -0.648455, 2.502892, 814804992.000000, 113.610001,  -63.139999,  -176.330002, 0.000000,  0.000000 
 8942720.000000, -9.789038 , -0.189033, 2.471786, 814826240.000000, 129.639999,  -61.670002,  -169.399994, 874816064.000000,  1010.499817 
 8962688.000000, -9.997212 , 0.368495, 1.588834, 814845440.000000, 141.750000,  -62.439999,  -157.990005, 0.000000,  0.000000 
 8983040.000000, -9.121440 , 0.236889, 1.189233, 814865472.000000, 135.309998,  -71.190002,  -143.779999, 0.000000,  0.000000 
 9002688.000000, -8.214561 , 0.069392, 1.306481, 814885824.000000, 112.070000,  -82.739998,  -132.720001, 0.000000,  0.000000 
 9023104.000000, -8.133204 , 0.294317, 1.689333, 814905472.000000, 91.139999,  -85.820000,  -123.690002, 0.000000,  0.000000 
 9043072.000000, -8.977871 , 0.452243, 1.686940, 814925888.000000, 79.169998,  -76.650002,  -112.139999, 0.000000,  0.000000 
 9063040.000000, -9.894321 , 0.040678, 1.698904, 814945792.000000, 63.070000,  -61.950001,  -96.529999, 0.000000,  0.000000 
 9083392.000000, -10.861022 , -0.349352, 0.861416, 814965824.000000, 39.970001,  -49.279999,  -77.910004, 0.000000,  0.000000 
 9103040.000000, -13.328021 , -0.543171, 0.289532, 814986176.000000, 25.270000,  -34.509998,  -55.369999, 0.000000,  0.000000 
 9123456.000000, -17.245073 , -1.098306, 1.572084, 815005760.000000, 19.180000,  3.780000,  -21.490000, 0.000000,  0.000000 
 9143360.000000, -18.283558 , -1.296910, 2.629712, 815026240.000000, 11.060000,  59.080002,  20.090000, 0.000000,  0.000000 
 9163328.000000, -12.947563 , 0.074178, 2.878566, 815046080.000000, 19.809999,  54.529999,  43.400002, 0.000000,  0.000000 
 9183680.000000, -8.884550 , 1.672583, 1.878366, 815066048.000000, 41.509998,  -1.680000,  52.639999, 0.000000,  0.000000 
 9203328.000000, -7.750352 , 2.273181, 1.430908, 815086464.000000, 43.889999,  -8.470000,  48.509998, 0.000000,  0.000000 
 9223104.000000, -9.315259 , 0.717847, 1.660619, 815106048.000000, 3.920000,  22.190001,  33.459999, 0.000000,  0.000000 
 9244352.000000, -11.315658 , -0.586242, 2.325824, 815125824.000000, -30.730000,  66.849998,  29.330000, 0.000000,  0.000000 
 9264384.000000, -11.703296 , -1.316052, 2.866602, 815147136.000000, -37.660000,  95.269997,  38.639999, 0.000000,  0.000000 
 9284736.000000, -10.839487 , -0.818345, 2.883351, 815167168.000000, -29.260000,  98.000000,  62.790001, 0.000000,  0.000000 
 9304384.000000, -9.961320 , 0.318245, 2.388037, 815187456.000000, -17.150000,  95.690002,  90.370003, 0.000000,  0.000000 
 9324416.000000, -9.056834 , 0.399601, 2.220540, 815207104.000000, -15.750000,  96.320000,  116.830002, 0.000000,  0.000000 
 9344320.000000, -8.207381 , 0.031107, 2.096112, 815227200.000000, -35.070000,  94.849998,  132.020004, 0.000000,  0.000000 
 9364352.000000, -7.544570 , -0.361316, 2.435893, 815247104.000000, -57.889999,  90.019997,  140.630005, 0.000000,  0.000000 
 9384640.000000, -7.527820 , -1.007378, 2.995814, 815267072.000000, -67.830002,  88.480003,  149.240005, 0.000000,  0.000000 
 9404288.000000, -8.652447 , -1.493121, 3.414558, 815287424.000000, -64.330002,  92.680000,  153.789993, 0.000000,  0.000000 
 9424384.000000, -9.791430 , -1.052842, 2.981457, 815307008.000000, -41.580002,  97.230003,  154.210007, 0.000000,  0.000000 
 9444288.000000, -10.023535 , -0.342174, 2.629712, 815327104.000000, -14.840000,  95.900002,  160.720001, 0.000000,  0.000000 
 9464256.000000, -9.858429 , -0.200997, 2.076970, 815347072.000000, -8.050000,  77.419998,  157.360001, 0.000000,  0.000000 
 9484608.000000, -9.707682 , -0.315853, 2.031506, 815367040.000000, -19.740000,  61.180000,  145.740005, 0.000000,  0.000000 
 9504256.000000, -9.422935 , -0.904487, 2.407180, 815387392.000000, -46.900002,  51.520000,  130.339996, 0.000000,  0.000000 
 9524288.000000, -8.824730 , -0.909273, 2.809174, 815407040.000000, -77.209999,  44.099998,  110.809998, 0.000000,  0.000000 
 9544256.000000, -8.697910 , -0.504886, 2.376073, 815427072.000000, -93.309998,  35.349998,  92.959999, 0.000000,  0.000000 
 9564160.000000, -9.925428 , -1.062413, 1.993221, 815446976.000000, -95.199997,  27.719999,  75.459999, 0.000000,  0.000000 
 9584576.000000, -12.332609 , -2.261217, 2.612962, 815466944.000000, -104.580002,  30.870001,  59.360001, 0.000000,  0.000000 
 9604224.000000, -14.924035 , -3.213561, 3.019742, 815487296.000000, -119.070000,  40.740002,  49.209999, 0.000000,  0.000000 
 9624256.000000, -18.754944 , -4.046263, 3.594020, 815506944.000000, -107.169998,  44.310001,  48.509998, 0.000000,  0.000000 
 9644160.000000, -21.102303 , -3.333202, 2.536392, 815527040.000000, -75.949997,  52.990002,  44.520000, 0.000000,  0.000000 
 9664128.000000, -14.835501 , 0.050249, 2.438286, 815546880.000000, -43.189999,  39.130001,  25.340000, 0.000000,  0.000000 
 9684480.000000, -8.499306 , 1.780260, 3.584448, 815566912.000000, -14.420000,  -37.799999,  3.010000, 0.000000,  0.000000 
 9704128.000000, -5.273781 , 1.375873, 4.534399, 815587264.000000, -21.210001,  -76.019997,  -42.560001, 0.000000,  0.000000 
 9724160.000000, -6.094519 , 0.258425, 4.773681, 815606912.000000, -43.470001,  -61.810001,  -98.139999, 0.000000,  0.000000 
 9744128.000000, -9.193225 , -1.261017, 3.620341, 815626944.000000, -43.330002,  -26.389999,  -135.589996, 0.000000,  0.000000 
 9764096.000000, -11.928220 , -1.627119, 3.192025, 815646848.000000, -22.120001,  -1.050000,  -152.389999, 0.000000,  0.000000 
 9784448.000000, -13.007384 , -1.081556, 2.414358, 815666880.000000, 5.110000,  -11.060000,  -159.669998, 0.000000,  0.000000 
 9804032.000000, -11.428121 , 0.248854, 2.287539, 815687232.000000, 51.660000,  -39.549999,  -154.419998, 0.000000,  0.000000 
 9824128.000000, -8.843873 , 1.191626, 2.395216, 815706816.000000, 81.550003,  -82.110001,  -146.580002, 0.000000,  0.000000 
 9844032.000000, -7.377072 , 1.402194, 2.325824, 815726912.000000, 75.739998,  -108.150002,  -140.839996, 0.000000,  0.000000 
 9864064.000000, -6.920043 , 0.629312, 2.313859, 815746816.000000, 42.279999,  -103.459999,  -140.350006, 0.000000,  0.000000 
 9884416.000000, -6.999006 , -0.265603, 2.600998, 815766784.000000, 6.370000,  -83.510002,  -137.550003, 0.000000,  0.000000 
 9904000.000000, -7.192825 , -0.983450, 2.979064, 815787136.000000, -14.490000,  -62.020000,  -130.550003, 0.000000,  0.000000 
 9924096.000000, -7.240681 , -1.215554, 3.421736, 815826816.000000, 0.630000,  -24.850000,  -99.820000, 875816704.000000,  1010.516235 
 9943936.000000, -7.283752 , -1.390230, 3.426522, 0.000000, 0.000000,  0.000000,  0.000000, 0.000000,  0.000000 
 9963904.000000, -7.424929 , -1.741975, 3.486342, 815846656.000000, 20.440001,  -8.960000,  -80.150002, 0.000000,  0.000000 
 9984256.000000, -8.154739 , -1.978864, 3.682554, 815866688.000000, 40.110001,  5.740000,  -63.000000, 0.000000,  0.000000 
 10003904.000000, -9.657433 , -2.328217, 3.144169, 815886976.000000, 62.439999,  20.580000,  -47.389999, 0.000000,  0.000000 
 10023872.000000, -11.925828 , -3.448057, 1.962115, 815906624.000000, 66.639999,  31.500000,  -41.860001, 0.000000,  0.000000 
 10043904.000000, -14.127225 , -5.869594, 1.641476, 815926656.000000, 17.360001,  40.670002,  -52.360001, 0.000000,  0.000000 
 10063872.000000, -15.390635 , -6.029913, 2.725425, 815946624.000000, -38.639999,  50.959999,  -70.000000, 0.000000,  0.000000 
 10084160.000000, -16.292728 , -5.611169, 2.514857, 815966592.000000, -34.299999,  34.580002,  -75.459999, 0.000000,  0.000000 
 10103872.000000, -14.529219 , -6.278766, 2.589034, 815986944.000000, 15.890000,  16.240000,  -74.760002, 0.000000,  0.000000 
 10123840.000000, -11.542977 , -5.910272, 3.469593, 816006592.000000, 41.369999,  -14.280000,  -74.760002, 0.000000,  0.000000 
 10143808.000000, -9.614362 , -4.256832, 4.218546, 816026624.000000, 48.369999,  -31.639999,  -80.010002, 0.000000,  0.000000 
 10163840.000000, -8.659625 , -2.737389, 3.692125, 816046592.000000, 58.170002,  -34.230000,  -99.120003, 0.000000,  0.000000 
 10184128.000000, -9.116654 , -3.043670, 3.192025, 816066560.000000, 91.209999,  -33.599998,  -107.520004, 0.000000,  0.000000 
 10203776.000000, -10.918450 , -4.567898, 3.522235, 816086848.000000, 101.709999,  -28.910000,  -122.430000, 0.000000,  0.000000 
 10223808.000000, -11.674582 , -5.041678, 3.893122, 816106560.000000, 81.340004,  -14.140000,  -132.229996, 0.000000,  0.000000 
 10243776.000000, -12.083755 , -4.941179, 3.809374, 816126528.000000, 68.110001,  -4.200000,  -122.360001, 0.000000,  0.000000 
 10263744.000000, -10.456635 , -3.919443, 3.239882, 816146496.000000, 76.160004,  -17.639999,  -102.340004, 0.000000,  0.000000 
 10284032.000000, -8.951550 , -2.713461, 2.746960, 816166528.000000, 86.169998,  -43.400002,  -83.930000, 0.000000,  0.000000 
 10303744.000000, -8.087741 , -1.914258, 2.557927, 816186816.000000, 82.879997,  -54.599998,  -71.959999, 0.000000,  0.000000 
 10323712.000000, -7.496714 , -1.706082, 2.457429, 816206464.000000, 65.379997,  -55.369999,  -67.970001, 0.000000,  0.000000 
 10343680.000000, -7.073184 , -1.887937, 2.450250, 816226496.000000, 45.150002,  -55.930000,  -69.090004, 0.000000,  0.000000 
 10363712.000000, -6.608976 , -2.215754, 2.335395, 816246464.000000, 23.309999,  -55.860001,  -71.470001, 0.000000,  0.000000 
 10384000.000000, -6.061020 , -2.172683, 2.328217, 816266432.000000, 8.120000,  -54.320000,  -69.440002, 0.000000,  0.000000 
 10403712.000000, -5.434100 , -2.048256, 2.187040, 816286784.000000, 4.550000,  -52.849998,  -63.000000, 0.000000,  0.000000 
 10423680.000000, -4.943572 , -1.761117, 2.050649, 816306432.000000, 10.220000,  -49.910000,  -54.810001, 0.000000,  0.000000 
 10443648.000000, -4.759324 , -1.741975, 1.823331, 816326400.000000, 18.900000,  -44.099998,  -45.920002, 0.000000,  0.000000 
 10463616.000000, -4.981857 , -1.892723, 1.679761, 816346432.000000, 26.670000,  -34.720001,  -34.930000, 0.000000,  0.000000 
 10483968.000000, -5.625526 , -2.041078, 1.665405, 816366400.000000, 32.970001,  -21.840000,  -19.809999, 0.000000,  0.000000 
 10503616.000000, -6.314659 , -1.847259, 1.270589, 816386688.000000, 43.189999,  -8.330000,  1.610000, 0.000000,  0.000000 
 10523584.000000, -7.027720 , -1.560120, 0.875773, 816406400.000000, 56.000000,  3.360000,  26.180000, 0.000000,  0.000000 
 10543616.000000, -7.678568 , -1.304088, 0.708275, 816426368.000000, 60.689999,  16.030001,  51.590000, 0.000000,  0.000000 
 10563584.000000, -8.408379 , -0.911665, 0.681954, 816446336.000000, 54.670002,  31.290001,  76.510002, 0.000000,  0.000000 
 10583872.000000, -9.229117 , -0.576670, 0.500100, 816466368.000000, 45.709999,  48.230000,  98.419998, 0.000000,  0.000000 
 10603584.000000, -10.071390 , -0.672383, 0.021535, 816486656.000000, 32.689999,  68.389999,  119.489998, 0.000000,  0.000000 
 10623552.000000, -11.523834 , -1.227518, 0.267996, 816506304.000000, 10.010000,  90.790001,  138.809998, 0.000000,  0.000000 
 10643520.000000, -13.119846 , -1.426122, 1.395016, 816526336.000000, -17.920000,  125.090004,  156.869995, 0.000000,  0.000000 
 10663552.000000, -13.746766 , -0.875773, 2.414358, 816546304.000000, -35.630001,  157.220001,  174.720001, 0.000000,  0.000000 
 10683840.000000, -13.170096 , -0.459422, 2.770889, 816566272.000000, -34.650002,  164.850006,  188.369995, 0.000000,  0.000000 
 10703488.000000, -13.179667 , -0.555135, 2.933600, 816586624.000000, -36.470001,  158.970001,  191.869995, 0.000000,  0.000000 
 10723520.000000, -14.519648 , -0.971486, 3.517449, 816606272.000000, -42.209999,  160.930008,  186.830002, 0.000000,  0.000000 
 10743488.000000, -15.744773 , -0.760918, 3.584448, 816626240.000000, -30.520000,  165.550003,  173.250000, 0.000000,  0.000000 
 10763456.000000, -15.792630 , -0.303888, 3.151347, 816646272.000000, 2.940000,  154.350006,  157.570007, 0.000000,  0.000000 
 10783808.000000, -14.945570 , -0.071785, 2.541178, 816666240.000000, 31.990000,  128.309998,  137.479996, 0.000000,  0.000000 
 10803648.000000, -13.548162 , 0.629312, 2.234896, 816686528.000000, 39.830002,  102.340004,  111.160004, 0.000000,  0.000000 
 10823424.000000, -11.765509 , 1.131805, 2.115255, 816706368.000000, 30.799999,  78.959999,  86.099998, 0.000000,  0.000000 
 10843456.000000, -10.200603 , 0.947558, 2.127219, 816726208.000000, 10.640000,  56.490002,  64.260002, 0.000000,  0.000000 
 10863424.000000, -9.293723 , 0.421137, 2.244468, 816746176.000000, -21.420000,  44.170002,  44.939999, 0.000000,  0.000000 
 10883712.000000, -8.839087 , -0.026321, 2.567499, 816766208.000000, -56.349998,  42.070000,  32.480000, 0.000000,  0.000000 
 10903424.000000, -8.295916 , -0.547956, 2.778067, 816786496.000000, -81.480003,  41.020000,  27.370001, 0.000000,  0.000000 
 10923392.000000, -7.494320 , -1.182054, 3.058028, 816806144.000000, -91.000000,  37.310001,  29.190001, 0.000000,  0.000000 
 10943424.000000, -6.546762 , -1.698904, 3.326023, 816826176.000000, -90.230003,  31.360001,  33.529999, 876816000.000000,  1010.533936 
 10963392.000000, -5.556134 , -1.509871, 3.359523, 816846144.000000, -76.230003,  26.389999,  39.830002, 0.000000,  0.000000 
 10983680.000000, -4.850252 , -1.332802, 3.311667, 816866112.000000, -53.200001,  26.530001,  47.529999, 0.000000,  0.000000 
 11003328.000000, -4.723432 , -1.213161, 3.742374, 816886400.000000, -30.380001,  31.430000,  55.230000, 0.000000,  0.000000 
 11023360.000000, -5.283352 , -1.713261, 4.421937, 816906112.000000, -21.629999,  41.580002,  59.080002, 0.000000,  0.000000 
 11043328.000000, -6.398407 , -2.067399, 4.699504, 816926080.000000, -15.750000,  52.150002,  63.279999, 0.000000,  0.000000 
 11063296.000000, -7.252645 , -2.565106, 4.591826, 816946112.000000, -0.560000,  54.950001,  66.150002, 0.000000,  0.000000 
 11083648.000000, -7.812566 , -3.110669, 4.706682, 816966080.000000, 21.559999,  46.900002,  67.550003, 0.000000,  0.000000 
 11103296.000000, -8.322237 , -3.840480, 4.833502, 816986368.000000, 44.660000,  33.040001,  63.209999, 0.000000,  0.000000 
 11123328.000000, -8.992228 , -4.063013, 4.615755, 817006080.000000, 78.260002,  17.430000,  53.410000, 0.000000,  0.000000 
 11143296.000000, -9.556933 , -2.682354, 3.527020, 817026112.000000, 114.660004,  -1.050000,  31.780001, 0.000000,  0.000000 
 11163264.000000, -9.451650 , -0.323031, 2.974278, 817046016.000000, 138.949997,  -22.610001,  -1.190000, 0.000000,  0.000000 
 11183552.000000, -9.533006 , 1.813759, 2.041078, 817066048.000000, 159.250000,  -41.580002,  -14.630000, 0.000000,  0.000000 
 11203264.000000, -10.133603 , 2.376073, 1.631905, 817086336.000000, 142.869995,  -59.920002,  -31.920000, 0.000000,  0.000000 
 11223232.000000, -11.370694 , 1.296910, 1.112662, 817105984.000000, 80.080002,  -70.000000,  -53.480000, 0.000000,  0.000000 
 11243200.000000, -14.555541 , -0.500100, 0.366102, 817126016.000000, 10.010000,  -71.610001,  -70.489998, 0.000000,  0.000000 
 11263232.000000, -21.724440 , -2.122434, 1.698904, 817145984.000000, -34.020000,  -46.619999,  -80.779999, 0.000000,  0.000000 
 11283520.000000, -25.076782 , -3.460021, 1.689333, 817165952.000000, -57.119999,  1.050000,  -87.430000, 0.000000,  0.000000 
 11303168.000000, -17.757137 , -1.849652, 1.354338, 817186240.000000, -42.070000,  -38.150002,  -92.190002, 0.000000,  0.000000 
 11323200.000000, -13.127025 , -0.507278, 1.088734, 817205952.000000, -10.290000,  -144.690002,  -80.150002, 0.000000,  0.000000 
 11343168.000000, -13.045669 , 0.227318, 0.928415, 817225920.000000, 0.980000,  -162.259995,  -95.480003, 0.000000,  0.000000 
 11363136.000000, -14.737395 , 0.614955, 0.337388, 817245952.000000, 2.590000,  -127.540001,  -124.110001, 0.000000,  0.000000 
 11383488.000000, -15.840486 , 0.148355, 0.397209, 817265920.000000, 3.850000,  -104.160004,  -149.800003, 0.000000,  0.000000 
 11403136.000000, -15.349957 , -0.574277, 0.997807, 817286208.000000, -7.000000,  -107.239998,  -170.869995, 0.000000,  0.000000 
 11423104.000000, -13.969299 , -0.789631, 1.607977, 817305856.000000, -17.360001,  -122.570000,  -188.509995, 0.000000,  0.000000 
 11443136.000000, -12.224932 , -0.607777, 1.639083, 817325888.000000, -5.740000,  -129.220001,  -195.369995, 0.000000,  0.000000 
 11463104.000000, -10.509278 , -0.526421, 1.356731, 817365824.000000, 5.180000,  -135.100006,  -197.399994, 0.000000,  0.000000 
 11483392.000000, -8.841480 , -0.655633, 1.205983, 0.000000, 0.000000,  0.000000,  0.000000, 0.000000,  0.000000 
 11503104.000000, -7.374680 , -0.727418, 1.055235, 817386176.000000, -3.080000,  -136.009995,  -193.619995, 0.000000,  0.000000 
 11523072.000000, -6.455836 , -0.904487, 0.619741, 817405824.000000, -7.280000,  -130.479996,  -184.940002, 0.000000,  0.000000 
 11543040.000000, -5.783452 , -1.263410, 1.143769, 817425792.000000, -9.170000,  -117.739998,  -170.240005, 0.000000,  0.000000 
 11563072.000000, -5.517848 , -1.701297, 1.406980, 817445824.000000, -16.450001,  -103.739998,  -151.970001, 0.000000,  0.000000 
 11583360.000000, -5.101498 , -0.926022, 1.761117, 817465792.000000, -22.610001,  -94.779999,  -134.539993, 0.000000,  0.000000 
 11603008.000000, -3.988836 , 1.519442, 0.464208, 817486144.000000, 11.200000,  -88.129997,  -105.070000, 0.000000,  0.000000 
 11623040.000000, -2.632105 , 3.739982, -1.040878, 817505792.000000, 77.980003,  -90.860001,  -63.490002, 0.000000,  0.000000 
 11643008.000000, -1.596013 , 4.106083, -1.435694, 817525760.000000, 100.660004,  -92.540001,  -30.730000, 0.000000,  0.000000 
 11662976.000000, -2.069792 , 2.088934, -0.356531, 817545728.000000, 54.670002,  -74.269997,  -7.980000, 0.000000,  0.000000 
 11683328.000000, -4.048656 , -0.129212, 0.847059, 817565760.000000, -16.870001,  -35.420002,  5.460000, 0.000000,  0.000000 
 11702976.000000, -5.582455 , -1.217947, 1.593620, 817586048.000000, -45.570000,  7.770000,  26.250000, 0.000000,  0.000000 
 11722944.000000, -6.467800 , -1.138984, 1.797010, 817605696.000000, -18.969999,  35.490002,  57.400002, 0.000000,  0.000000 
 11742976.000000, -6.798009 , -0.622134, 1.392623, 817625728.000000, 22.049999,  49.770000,  88.410004, 0.000000,  0.000000 
 11762944.000000, -8.020741 , 0.150748, 1.196411, 817645696.000000, 53.619999,  72.099998,  123.199997, 0.000000,  0.000000 
 11783232.000000, -10.959127 , 0.681954, -0.220140, 817665664.000000, 47.320000,  111.930000,  148.960007, 0.000000,  0.000000 
 11802880.000000, -18.520447 , 0.229711, -1.117448, 817686016.000000, 10.710000,  167.020004,  183.259995, 0.000000,  0.000000 
 11822912.000000, -31.874790 , -1.701297, -0.009571, 817705664.000000, -58.029999,  262.290009,  235.759995, 0.000000,  0.000000 
 11842880.000000, -27.543781 , -4.055835, 5.240282, 817725632.000000, -120.820000,  331.799988,  273.279999, 0.000000,  0.000000 
 11862848.000000, -19.336401 , -1.351945, 7.010970, 817745664.000000, -117.320000,  235.410004,  256.339996, 0.000000,  0.000000 
 11883200.000000, -16.077375 , -0.035892, 5.149354, 817765632.000000, -63.420002,  176.050003,  277.410004, 0.000000,  0.000000 
 11902848.000000, -12.823137 , -1.832902, 2.828316, 817785920.000000, -2.590000,  160.300003,  224.770004, 0.000000,  0.000000 
 11922816.000000, -11.736795 , -0.722632, 1.950150, 817805632.000000, 40.670002,  117.879997,  163.729996, 0.000000,  0.000000 
 11942848.000000, -11.887544 , -0.143569, 1.751546, 817825600.000000, 75.320000,  102.830002,  94.080002, 877815424.000000,  1010.551636 
 11962816.000000, -12.741781 , 0.208176, 1.763510, 817845568.000000, 101.919998,  102.199997,  61.250000, 0.000000,  0.000000 
 11983104.000000, -12.014362 , 0.287139, 1.538585, 817865600.000000, 77.209999,  96.110001,  33.110001, 0.000000,  0.000000 
 12002816.000000, -10.348958 , 0.229711, 2.000400, 817885888.000000, 37.240002,  74.760002,  26.250000, 0.000000,  0.000000 
 12022784.000000, -8.683553 , -0.186640, 2.833102, 817905536.000000, -7.700000,  56.770000,  27.580000, 0.000000,  0.000000 
 12042752.000000, -7.113862 , -0.954736, 3.041277, 817925568.000000, -53.760002,  53.760002,  32.549999, 0.000000,  0.000000 
 12062784.000000, -5.486742 , -1.545763, 3.376273, 817945536.000000, -73.779999,  47.950001,  33.389999, 0.000000,  0.000000 
 12083072.000000, -4.400401 , -1.825724, 3.873980, 817965504.000000, -100.029999,  39.619999,  35.209999, 0.000000,  0.000000 
 12102720.000000, -4.110869 , -2.000400, 4.067799, 817985856.000000, -98.559998,  37.660000,  45.080002, 0.000000,  0.000000 
 12122752.000000, -4.409972 , -2.021935, 4.309474, 818005504.000000, -76.860001,  46.130001,  55.230000, 0.000000,  0.000000 
 12142720.000000, -5.431707 , -2.510071, 4.649254, 818025536.000000, -40.950001,  61.950001,  65.029999, 0.000000,  0.000000 
 12162688.000000, -6.683154 , -3.531806, 4.888536, 818045504.000000, -3.430000,  70.699997,  75.739998, 0.000000,  0.000000 
 12183040.000000, -7.927422 , -4.532006, 5.003392, 818065472.000000, 29.400000,  69.019997,  81.970001, 0.000000,  0.000000 
 12202688.000000, -8.992228 , -4.663611, 4.780859, 818085760.000000, 67.480003,  59.570000,  82.739998, 0.000000,  0.000000 
 12222656.000000, -9.937392 , -3.601198, 3.543770, 818105472.000000, 116.340004,  40.950001,  76.160004, 0.000000,  0.000000 
 12242688.000000, -11.176874 , -1.466800, 2.545963, 818125440.000000, 170.520004,  16.799999,  62.160000, 0.000000,  0.000000 
 12262656.000000, -13.112667 , 0.052642, 1.966900, 818145408.000000, 194.600006,  -4.270000,  41.580002, 0.000000,  0.000000 
 12282944.000000, -15.579668 , 0.282353, 1.631905, 818165440.000000, 160.369995,  -21.000000,  15.470000, 0.000000,  0.000000 
 12302656.000000, -19.401007 , -0.263210, 1.878366, 818185728.000000, 100.309998,  -37.310001,  -12.320000, 0.000000,  0.000000 
 12322624.000000, -19.752750 , -0.583849, 1.289732, 818205376.000000, 41.020000,  -42.349998,  -35.630001, 0.000000,  0.000000 
 12342592.000000, -14.687144 , -0.114855, 1.316052, 818225408.000000, 3.570000,  -92.330002,  -58.799999, 0.000000,  0.000000 
 12362624.000000, -13.098311 , -0.045464, 1.088734, 818245376.000000, -20.299999,  -168.000000,  -71.400002, 0.000000,  0.000000 
 12382912.000000, -15.206388 , -0.248854, 0.468993, 818265344.000000, -52.080002,  -164.570007,  -98.910004, 0.000000,  0.000000 
 12402560.000000, -16.596617 , -0.236889, 0.124427, 818285632.000000, -75.180000,  -131.669998,  -126.139999, 0.000000,  0.000000 
 12422592.000000, -15.974483 , -0.770489, 0.224925, 818305344.000000, -80.709999,  -131.669998,  -149.520004, 0.000000,  0.000000 
 12442560.000000, -15.390635 , -1.201197, 0.844666, 818325312.000000, -78.820000,  -148.050003,  -169.960007, 0.000000,  0.000000 
 12462528.000000, -15.005391 , -1.244268, 1.227518, 818345344.000000, -69.370003,  -143.639999,  -186.130005, 0.000000,  0.000000 
 12482880.000000, -13.380664 , -1.016950, 1.107877, 818365312.000000, -49.279999,  -134.610001,  -195.930008, 0.000000,  0.000000 
 12502528.000000, -11.277373 , -1.186840, 1.055235, 818385600.000000, -28.070000,  -136.990005,  -196.770004, 0.000000,  0.000000 
 12522496.000000, -9.353544 , -1.265803, 1.263410, 818405312.000000, -12.180000,  -143.080002,  -197.119995, 0.000000,  0.000000 
 12542528.000000, -7.980063 , -0.964308, 1.715654, 818425280.000000, 5.460000,  -143.080002,  -196.139999, 0.000000,  0.000000 
 12562496.000000, -7.247860 , -0.299103, 1.428515, 818445248.000000, 30.309999,  -137.059998,  -191.309998, 0.000000,  0.000000 
 12582784.000000, -6.726225 , 0.665205, 0.916451, 818465280.000000, 52.080002,  -129.430008,  -181.300003, 0.000000,  0.000000 
 12602496.000000, -5.618347 , 0.736989, 0.552742, 818485568.000000, 57.470001,  -126.070000,  -166.949997, 0.000000,  0.000000 
 12622464.000000, -5.130211 , -0.110070, 0.978664, 818505216.000000, 48.509998,  -127.470001,  -146.089996, 0.000000,  0.000000 
 12642432.000000, -5.704489 , -0.660419, 0.811167, 818525184.000000, 33.459999,  -123.550003,  -124.389999, 0.000000,  0.000000 
 12662464.000000, -6.510870 , 0.658026, -0.330210, 818545216.000000, 45.920002,  -108.010002,  -91.910004, 0.000000,  0.000000 
 12682752.000000, -6.214160 , 2.151148, -1.165305, 818565184.000000, 82.040001,  -99.610001,  -50.119999, 0.000000,  0.000000 
 12702400.000000, -6.130411 , 2.569891, -0.736989, 818585472.000000, 97.440002,  -99.540001,  -14.350000, 0.000000,  0.000000 
 12722432.000000, -6.876972 , 2.481357, 0.232104, 818605184.000000, 87.570000,  -85.540001,  0.630000, 0.000000,  0.000000 
 12742400.000000, -8.157133 , 1.775474, 0.473779, 818625152.000000, 71.889999,  -57.189999,  16.870001, 0.000000,  0.000000 
 12762368.000000, -8.506484 , 0.323031, 0.646062, 818645184.000000, 53.200001,  -25.900000,  32.759998, 0.000000,  0.000000 
 12782656.000000, -8.401200 , -0.729811, 1.222732, 818665152.000000, 26.740000,  -1.680000,  47.529999, 0.000000,  0.000000 
 12802368.000000, -10.660025 , -0.571885, 2.045863, 818685440.000000, 9.590000,  29.400000,  67.970001, 0.000000,  0.000000 
 12822336.000000, -13.852050 , 0.165105, 1.409373, 818705152.000000, 6.580000,  100.169998,  105.980003, 0.000000,  0.000000 
 12842368.000000, -14.971891 , 0.253639, 1.258625, 818725120.000000, 0.840000,  164.500000,  151.970001, 0.000000,  0.000000 
 12862336.000000, -13.820943 , -0.701097, 2.280360, 818745088.000000, -38.360001,  195.089996,  162.960007, 0.000000,  0.000000 
 12882624.000000, -14.823536 , -0.969093, 2.938386, 818765120.000000, -84.980003,  209.160004,  158.899994, 0.000000,  0.000000 
 12902336.000000, -17.692532 , -0.301496, 3.481557, 818805056.000000, -96.250000,  259.070007,  194.880005, 0.000000,  0.000000 
 12922304.000000, -19.398613 , -1.361516, 3.967300, 818825088.000000, -71.260002,  240.729996,  197.050003, 878814912.000000,  1010.566956 
 12942272.000000, -18.465412 , -3.964907, 3.646662, 0.000000, 0.000000,  0.000000,  0.000000, 0.000000,  0.000000 
 12962304.000000, -15.029318 , -3.524628, 2.397608, 818845056.000000, -30.450001,  194.880005,  182.979996, 0.000000,  0.000000 
 12982592.000000, -11.416157 , -0.753739, 0.866202, 818865024.000000, 37.310001,  138.740005,  164.919998, 0.000000,  0.000000 
 13002240.000000, -8.831908 , 1.442872, 0.512064, 818885312.000000, 93.940002,  100.029999,  135.309998, 0.000000,  0.000000 
 13022272.000000, -7.814958 , 2.053042, 1.399801, 818905024.000000, 98.349998,  85.959999,  92.190002, 0.000000,  0.000000 
 13042240.000000, -7.846066 , 1.239482, 2.500499, 818924992.000000, 51.799999,  94.919998,  48.299999, 0.000000,  0.000000 
 13062208.000000, -7.781459 , 0.334995, 2.763710, 818945024.000000, -6.440000,  104.300003,  22.750000, 0.000000,  0.000000 
 13082496.000000, -7.697710 , -0.792024, 2.847459, 818964992.000000, -52.500000,  96.669998,  12.110000, 0.000000,  0.000000 
 13102208.000000, -7.786245 , -1.481157, 3.144169, 818985280.000000, -77.769997,  88.410004,  13.720000, 0.000000,  0.000000 
 13122240.000000, -7.673782 , -1.229911, 3.084348, 819004928.000000, -89.739998,  82.320000,  23.590000, 0.000000,  0.000000 
 13142144.000000, -7.436893 , -1.110270, 2.679961, 819024960.000000, -78.470001,  73.989998,  40.950001, 0.000000,  0.000000 
 13162176.000000, -7.515855 , -2.033899, 2.909672, 819044928.000000, -67.480003,  63.980000,  59.920002, 0.000000,  0.000000 
 13182464.000000, -8.264810 , -3.227918, 3.598805, 819064896.000000, -69.580002,  61.459999,  75.040001, 0.000000,  0.000000 
 13202112.000000, -9.698111 , -3.531806, 4.709075, 819085248.000000, -58.450001,  66.220001,  86.590004, 0.000000,  0.000000 
 13222144.000000, -11.633904 , -2.486143, 5.491528, 819104896.000000, -22.400000,  67.830002,  92.050003, 0.000000,  0.000000 
 13242112.000000, -13.921442 , -1.287339, 4.271189, 819124864.000000, 22.889999,  62.369999,  91.349998, 0.000000,  0.000000 
 13262080.000000, -16.792830 , -2.471786, 3.823731, 819144896.000000, 43.259998,  44.939999,  83.510002, 0.000000,  0.000000 
 13282432.000000, -19.836498 , -3.802195, 2.785245, 819164864.000000, 28.840000,  29.469999,  63.630001, 0.000000,  0.000000 
 13302080.000000, -16.161125 , -0.811167, 1.974079, 819185152.000000, 15.960000,  8.750000,  21.000000, 0.000000,  0.000000 
 13322048.000000, -11.229517 , 2.349752, 1.596013, 819204864.000000, 50.470001,  -74.480003,  -9.520000, 0.000000,  0.000000 
 13342080.000000, -10.638489 , 1.758725, 1.761117, 819224832.000000, 48.230000,  -131.600006,  -40.810001, 0.000000,  0.000000 
 13362048.000000, -13.069597 , 0.746561, 1.002593, 819244800.000000, -15.680000,  -118.720001,  -87.919998, 0.000000,  0.000000 
 13382400.000000, -14.749359 , 0.380459, 0.588634, 819264832.000000, -71.959999,  -96.459999,  -116.760002, 0.000000,  0.000000 
 13402048.000000, -14.842678 , -0.021535, 0.842274, 819285120.000000, -105.910004,  -99.680000,  -138.460007, 0.000000,  0.000000 
 13422016.000000, -13.990833 , -0.696311, 1.993221, 819304768.000000, -126.910004,  -112.419998,  -157.710007, 0.000000,  0.000000 
 13441984.000000, -11.992826 , -1.277767, 2.622534, 819324800.000000, -138.880005,  -123.690002,  -175.139999, 0.000000,  0.000000 
 13462016.000000, -9.968499 , -1.299303, 2.297110, 819344768.000000, -126.980003,  -135.449997,  -185.149994, 0.000000,  0.000000 
 13482304.000000, -8.372486 , -1.148555, 2.533999, 819364736.000000, -99.610001,  -136.990005,  -190.539993, 0.000000,  0.000000 
 13501952.000000, -7.252645 , -0.961915, 2.589034, 819385088.000000, -70.559998,  -129.779999,  -195.160004, 0.000000,  0.000000 
 13521984.000000, -6.606583 , -0.890130, 2.464607, 819404736.000000, -39.270000,  -118.650002,  -192.710007, 0.000000,  0.000000 
 13541952.000000, -6.812366 , -1.292124, 2.447858, 819424704.000000, -9.170000,  -106.050003,  -187.529999, 0.000000,  0.000000 
 13561920.000000, -7.848458 , -1.524228, 2.330609, 819444736.000000, 18.760000,  -91.489998,  -178.080002, 0.000000,  0.000000 
 13582336.000000, -8.525627 , -1.414158, 1.591227, 819464704.000000, 44.310001,  -81.690002,  -161.419998, 0.000000,  0.000000 
 13601920.000000, -8.312666 , -0.988236, 1.148555, 819485120.000000, 70.070000,  -84.559998,  -139.720001, 0.000000,  0.000000 
 13621888.000000, -7.838887 , -0.433101, 0.803988, 819504704.000000, 85.120003,  -94.849998,  -117.739998, 0.000000,  0.000000 
 13641920.000000, -7.441679 , -0.057428, 0.971486, 819524672.000000, 86.099998,  -100.519997,  -95.199997, 0.000000,  0.000000 
 13661888.000000, -6.996613 , 0.112463, 1.155733, 819544640.000000, 74.480003,  -97.160004,  -73.919998, 0.000000,  0.000000 
 13682176.000000, -6.972685 , 0.150748, 1.234696, 819564672.000000, 57.049999,  -90.930000,  -55.160000, 0.000000,  0.000000 
 13701888.000000, -7.903493 , -0.081356, 1.825724, 819584960.000000, 37.730000,  -75.040001,  -37.939999, 0.000000,  0.000000 
 13721856.000000, -9.004191 , -0.653241, 1.854438, 819604608.000000, 15.540000,  -44.029999,  -17.500000, 0.000000,  0.000000 
 13741824.000000, -9.925428 , -0.693919, 0.626920, 819624640.000000, 15.540000,  -14.070000,  3.640000, 0.000000,  0.000000 
 13761856.000000, -11.959327 , -1.399801, 1.564906, 819644608.000000, -4.130000,  13.440001,  28.139999, 0.000000,  0.000000 
 13782144.000000, -14.974284 , -1.828116, 3.187240, 819664576.000000, -11.550000,  78.330002,  63.000000, 0.000000,  0.000000 
 13801792.000000, -15.653846 , -0.514457, 3.984050, 819684864.000000, -4.130000,  135.029999,  103.320000, 0.000000,  0.000000 
 13821824.000000, -12.873385 , 0.880559, 4.424329, 819704576.000000, 27.020000,  134.050003,  120.959999, 0.000000,  0.000000 
 13841856.000000, -11.492726 , 1.421337, 3.878766, 819724544.000000, 43.330002,  105.559998,  121.940002, 0.000000,  0.000000 
 13861824.000000, -11.928220 , 0.543171, 2.744568, 819744640.000000, 22.610001,  108.639999,  116.480003, 0.000000,  0.000000 
 13882816.000000, -12.102897 , -0.476172, 2.244468, 819764608.000000, 0.140000,  117.180000,  106.680000, 0.000000,  0.000000 
 13901824.000000, -11.205588 , -1.619941, 1.854438, 819785600.000000, -5.390000,  108.010002,  100.870003, 0.000000,  0.000000 
 13922304.000000, -10.109675 , -1.529014, 1.950150, 819825024.000000, 38.709999,  81.129997,  103.180000, 879814912.000000,  1010.589050 
 13942208.000000, -8.841480 , 0.323031, 2.007578, 0.000000, 0.000000,  0.000000,  0.000000, 0.000000,  0.000000 
 13962176.000000, -7.470392 , 1.359123, 1.607977, 819844992.000000, 51.730000,  64.050003,  100.169998, 0.000000,  0.000000 
 13982528.000000, -6.345766 , 0.835095, 1.732404, 819864896.000000, 31.990000,  50.610001,  87.570000, 0.000000,  0.000000 
 14002176.000000, -6.063413 , -0.495314, 2.344966, 819885312.000000, -19.180000,  50.119999,  72.940002, 0.000000,  0.000000 
 14022592.000000, -6.238089 , -1.241875, 3.129812, 819904896.000000, -43.470001,  58.029999,  64.610001, 0.000000,  0.000000 
 14042496.000000, -6.608976 , -1.110270, 3.117848, 819925376.000000, -68.180000,  64.540001,  62.720001, 0.000000,  0.000000 
 14062528.000000, -7.377072 , -0.933201, 2.648855, 819945280.000000, -50.540001,  68.879997,  68.389999, 0.000000,  0.000000 
 14082880.000000, -8.446664 , -1.615155, 2.756532, 819965312.000000, -37.240002,  73.989998,  78.750000, 0.000000,  0.000000 
 14102528.000000, -9.619147 , -2.287539, 3.268596, 819985600.000000, -36.400002,  76.580002,  87.570000, 0.000000,  0.000000 
 14122816.000000, -10.631311 , -1.990828, 4.022335, 820005248.000000, -29.889999,  80.080002,  93.870003, 0.000000,  0.000000 
 14142656.000000, -10.643275 , -1.239482, 4.168297, 820025536.000000, -8.960000,  78.120003,  107.940002, 0.000000,  0.000000 
 14162688.000000, -9.731609 , -0.725025, 4.096512, 820045440.000000, 10.010000,  64.959999,  109.199997, 0.000000,  0.000000 
 14182976.000000, -8.953942 , -0.323031, 3.101098, 820065408.000000, 13.090000,  40.810001,  101.779999, 0.000000,  0.000000 
 14202624.000000, -8.985049 , -0.330210, 2.900101, 820085760.000000, 4.830000,  19.879999,  82.949997, 0.000000,  0.000000 
 14222400.000000, -10.901700 , -1.165305, 2.251646, 820105408.000000, -10.780000,  11.060000,  56.000000, 0.000000,  0.000000 
 14243712.000000, -20.226528 , -2.646462, 2.821138, 820125184.000000, -26.670000,  14.210000,  25.129999, 0.000000,  0.000000 
 14263680.000000, -21.162125 , -1.545763, 1.584049, 820146432.000000, -22.820000,  62.369999,  -5.740000, 0.000000,  0.000000 
 14284032.000000, -13.143774 , -0.205783, 1.502693, 820166400.000000, 9.590000,  0.770000,  -24.430000, 0.000000,  0.000000 
 14303680.000000, -9.655040 , 0.138784, 1.746760, 820186816.000000, 23.170000,  -105.699997,  -24.430000, 0.000000,  0.000000 
 14323712.000000, -10.272388 , 0.033500, 2.041078, 820206400.000000, 2.100000,  -102.900002,  -52.220001, 0.000000,  0.000000 
 14343616.000000, -11.717653 , 0.265603, 1.667797, 820226496.000000, -10.850000,  -80.639999,  -73.570000, 0.000000,  0.000000 
 14363648.000000, -11.770294 , 0.157926, 1.849652, 820246400.000000, -22.540001,  -47.880001,  -80.709999, 0.000000,  0.000000 
 14384000.000000, -11.361122 , -0.696311, 2.232504, 820266432.000000, -27.370001,  -49.070000,  -92.190002, 0.000000,  0.000000 
 14403648.000000, -11.164910 , -1.150948, 2.490928, 820286720.000000, -44.799999,  -56.420002,  -98.419998, 0.000000,  0.000000 
 14423680.000000, -10.303494 , -1.024128, 2.687140, 820306368.000000, -51.869999,  -56.279999,  -101.849998, 0.000000,  0.000000 
 14443584.000000, -8.673983 , -0.354138, 2.471786, 820326400.000000, -36.470001,  -61.180000,  -101.010002, 0.000000,  0.000000 
 14463552.000000, -6.953543 , 0.129212, 2.380858, 820346368.000000, -16.030001,  -75.180000,  -99.750000, 0.000000,  0.000000 
 14483968.000000, -5.501099 , 0.299103, 2.586641, 820366336.000000, -1.050000,  -87.150002,  -99.959999, 0.000000,  0.000000 
 14503552.000000, -5.103891 , 0.031107, 2.833102, 820386688.000000, 5.180000,  -91.489998,  -102.620003, 0.000000,  0.000000 
 14523648.000000, -5.919843 , -0.251246, 2.938386, 820406272.000000, 9.660000,  -82.599998,  -102.410004, 0.000000,  0.000000 
 14543552.000000, -7.511070 , -0.145962, 2.421536, 820426368.000000, 18.620001,  -64.959999,  -97.160004, 0.000000,  0.000000 
 14563520.000000, -8.425128 , 0.074178, 1.911865, 820446336.000000, 35.490002,  -53.200001,  -88.480003, 0.000000,  0.000000 
 14583872.000000, -8.470592 , 0.198604, 1.887937, 820466304.000000, 46.759998,  -56.910000,  -75.529999, 0.000000,  0.000000 
 14603520.000000, -7.575676 , 0.452243, 2.400001, 820486656.000000, 49.209999,  -68.459999,  -63.980000, 0.000000,  0.000000 
 14623552.000000, -6.431907 , 1.000200, 2.536392, 820506304.000000, 47.599998,  -80.010002,  -52.920002, 0.000000,  0.000000 
 14643520.000000, -5.989235 , 1.344766, 1.844866, 820526272.000000, 41.369999,  -83.930000,  -39.689999, 0.000000,  0.000000 
 14663424.000000, -6.680761 , 0.684347, 1.538585, 820546240.000000, 20.650000,  -70.910004,  -26.809999, 0.000000,  0.000000 
 14683840.000000, -8.193025 , -0.399601, 1.713261, 820566208.000000, -13.230000,  -38.220001,  -14.070000, 0.000000,  0.000000 
 14703424.000000, -10.542776 , -0.356531, 1.409373, 820586560.000000, -34.439999,  2.590000,  2.310000, 0.000000,  0.000000 
 14723520.000000, -14.907285 , -0.236889, 3.263810, 820606208.000000, -30.309999,  49.770000,  25.830000, 0.000000,  0.000000 
 14743424.000000, -19.915462 , -0.387637, 4.725825, 820626304.000000, -26.250000,  118.580002,  62.020000, 0.000000,  0.000000 
 14763456.000000, -16.366907 , 0.945165, 5.615955, 820646144.000000, -25.340000,  146.649994,  87.500000, 0.000000,  0.000000 
 14783744.000000, -11.327622 , 2.593820, 4.979464, 820666176.000000, -4.270000,  78.260002,  92.190002, 0.000000,  0.000000 
 14803584.000000, -10.332209 , 2.280360, 3.771089, 820686528.000000, 0.140000,  32.060001,  83.160004, 0.000000,  0.000000 
 14823424.000000, -12.035898 , -0.028714, 2.550749, 820706368.000000, -31.360001,  42.139999,  55.930000, 0.000000,  0.000000 
 14843392.000000, -13.007384 , -1.581656, 1.686940, 820746176.000000, -10.850000,  53.549999,  35.349998, 0.000000,  0.000000 
 14863296.000000, -11.966506 , -1.761117, 1.694118, 0.000000, 0.000000,  0.000000,  0.000000, 0.000000,  0.000000 
 14883584.000000, -10.238889 , -0.239282, 1.624727, 820766080.000000, 27.510000,  27.160000,  39.759998, 0.000000,  0.000000 
 14903296.000000, -8.559127 , 1.170090, 1.385444, 820786368.000000, 48.790001,  8.120000,  46.900002, 0.000000,  0.000000 
 14923264.000000, -6.853044 , 1.004985, 1.847259, 820826048.000000, -13.160000,  -0.630000,  30.100000, 880815872.000000,  1010.612793 
 14943296.000000, -5.800202 , 0.081356, 2.620141, 0.000000, 0.000000,  0.000000,  0.000000, 0.000000,  0.000000 
 14963264.000000, -5.388636 , -0.894916, 2.974278, 820846016.000000, -60.689999,  7.000000,  18.270000, 0.000000,  0.000000 
 14983552.000000, -5.268995 , -1.316052, 3.065206, 820866048.000000, -75.529999,  18.830000,  17.150000, 0.000000,  0.000000 
 15003264.000000, -5.192425 , -1.686940, 2.828316, 820886336.000000, -65.800003,  27.930000,  22.120001, 0.000000,  0.000000 
 15023232.000000, -5.357530 , -1.435694, 2.794817, 820905984.000000, -42.700001,  32.060001,  31.920000, 0.000000,  0.000000 
 15043200.000000, -6.273981 , -1.131805, 2.550749, 820925952.000000, -14.420000,  39.480000,  45.849998, 0.000000,  0.000000 
 15063232.000000, -7.436893 , -0.971486, 2.426322, 820945984.000000, 12.530000,  49.209999,  59.990002, 0.000000,  0.000000 
 15083520.000000, -8.128418 , -0.808774, 2.550749, 820965952.000000, 23.660000,  52.500000,  72.519997, 0.000000,  0.000000 
 15103168.000000, -8.401200 , -0.490529, 2.902494, 820986240.000000, 20.370001,  48.509998,  82.739998, 0.000000,  0.000000 
 15123200.000000, -8.248059 , -0.133998, 2.845066, 821005952.000000, 9.450000,  42.139999,  86.660004, 0.000000,  0.000000 
 15143168.000000, -8.767302 , -0.088534, 2.871387, 821025984.000000, -6.650000,  34.020000,  81.550003, 0.000000,  0.000000 
 15163136.000000, -10.392029 , -0.509671, 2.636890, 821045888.000000, -24.150000,  34.790001,  69.090004, 0.000000,  0.000000 
 15183424.000000, -13.739587 , -1.639083, 1.983650, 821065920.000000, -42.349998,  41.580002,  54.670002, 0.000000,  0.000000 
 15203136.000000, -21.336800 , -2.644069, 3.182454, 821086208.000000, -48.790001,  52.849998,  37.240002, 0.000000,  0.000000 
 15223104.000000, -22.423140 , -2.261217, 2.529213, 821105856.000000, -38.990002,  95.199997,  20.719999, 0.000000,  0.000000 
 15243072.000000, -12.344571 , 0.279960, 1.875973, 821125888.000000, 10.220000,  37.240002,  4.480000, 0.000000,  0.000000 
 15263104.000000, -8.341379 , 0.906880, 1.459622, 821145856.000000, 52.360001,  -87.010002,  5.950000, 0.000000,  0.000000 
 15283392.000000, -10.052249 , -0.074178, 1.804188, 821165824.000000, 40.180000,  -83.090004,  -34.860001, 0.000000,  0.000000 
 15303040.000000, -14.021940 , -0.658026, 1.830509, 821186176.000000, 2.310000,  -23.730000,  -65.029999, 0.000000,  0.000000 
 15323072.000000, -14.921642 , -0.708275, 2.175076, 821205824.000000, -1.820000,  13.370000,  -78.610001, 0.000000,  0.000000 
 15343040.000000, -11.978470 , -0.775275, 2.644069, 821225792.000000, 5.880000,  -10.010000,  -81.970001, 0.000000,  0.000000 
 15363008.000000, -10.021141 , -0.650848, 2.687140, 821245824.000000, 9.520000,  -47.040001,  -77.349998, 0.000000,  0.000000 
 15383360.000000, -8.882158 , -0.145962, 2.275574, 821265792.000000, 18.410000,  -50.540001,  -79.169998, 0.000000,  0.000000 
 15403008.000000, -7.573284 , 0.447458, 2.349752, 821286080.000000, 33.389999,  -45.990002,  -79.940002, 0.000000,  0.000000 
 15422976.000000, -6.441479 , 0.382852, 2.768496, 821305792.000000, 41.720001,  -48.790001,  -78.540001, 0.000000,  0.000000 
 15443008.000000, -5.783452 , -0.093320, 3.364309, 821325760.000000, 33.950001,  -49.209999,  -79.519997, 0.000000,  0.000000 
 15462976.000000, -5.726025 , -0.792024, 3.546163, 821345728.000000, 24.010000,  -42.770000,  -75.529999, 0.000000,  0.000000 
 15483264.000000, -6.061020 , -0.803988, 3.273381, 821365760.000000, 28.840000,  -34.299999,  -67.480003, 0.000000,  0.000000 
 15502976.000000, -6.532406 , -0.287139, 2.627320, 821386048.000000, 50.610001,  -32.270000,  -57.049999, 0.000000,  0.000000 
 15522944.000000, -6.764510 , 0.311067, 2.029114, 821405696.000000, 78.540001,  -39.130001,  -45.360001, 0.000000,  0.000000 
 15542912.000000, -6.472585 , 0.957129, 1.627119, 821425728.000000, 91.419998,  -53.689999,  -37.520000, 0.000000,  0.000000 
 15562944.000000, -6.183054 , 1.263410, 1.356731, 821445696.000000, 84.209999,  -71.750000,  -31.360001, 0.000000,  0.000000 
 15583232.000000, -6.388836 , 0.892523, 1.253839, 821465664.000000, 56.630001,  -82.879997,  -28.630001, 0.000000,  0.000000 
 15602880.000000, -7.133004 , 0.342174, 1.253839, 821486016.000000, 16.170000,  -79.940002,  -24.639999, 0.000000,  0.000000 
 15622912.000000, -7.960921 , -0.035892, 1.134198, 821505664.000000, -17.219999,  -66.500000,  -20.510000, 0.000000,  0.000000 
 15642880.000000, -8.415558 , -0.019143, 1.079163, 821525632.000000, -36.470001,  -53.760002,  -15.820000, 0.000000,  0.000000 
 15662848.000000, -9.267403 , -0.033500, 0.926022, 821545600.000000, -41.720001,  -42.209999,  -7.560000, 0.000000,  0.000000 
 15683200.000000, -10.147961 , -0.294317, 1.155733, 821565632.000000, -48.860001,  -22.120001,  0.420000, 0.000000,  0.000000 
 15703040.000000, -12.059827 , -0.287139, 0.918844, 821585920.000000, -58.869999,  6.090000,  14.980000, 0.000000,  0.000000 
 15722816.000000, -16.488941 , -1.304088, 2.146362, 821605760.000000, -72.169998,  38.920002,  30.940001, 0.000000,  0.000000 
 15742848.000000, -21.827328 , -2.450250, 4.165904, 821625600.000000, -88.900002,  111.090004,  59.290001, 0.000000,  0.000000 
 15762816.000000, -16.747364 , -1.323231, 5.371887, 821645568.000000, -88.970001,  150.850006,  79.519997, 0.000000,  0.000000 
 15783104.000000, -10.640882 , 0.689133, 5.029713, 821665536.000000, -36.680000,  77.279999,  94.220001, 0.000000,  0.000000 
 15802816.000000, -8.441878 , 1.799403, 3.732803, 821685888.000000, 12.390000,  23.940001,  89.949997, 0.000000,  0.000000 
 15822784.000000, -9.836893 , 0.720240, 3.019742, 821705536.000000, 19.740000,  32.970001,  59.920002, 0.000000,  0.000000 
 15842752.000000, -12.100503 , -0.851845, 2.663212, 821725504.000000, 13.860000,  55.230000,  31.290001, 0.000000,  0.000000 
 15862784.000000, -11.930614 , -1.734797, 2.380858, 821745536.000000, 15.050000,  58.240002,  12.460000, 0.000000,  0.000000 
 15883072.000000, -9.623933 , -0.799203, 2.096112, 821765504.000000, 37.029999,  22.889999,  8.820000, 0.000000,  0.000000 
 15903552.000000, -7.802995 , 0.964308, 1.641476, 821785856.000000, 64.190002,  -16.240000,  12.320000, 0.000000,  0.000000 
 15922752.000000, -6.400801 , 1.919044, 1.612763, 821825536.000000, 30.870001,  -32.200001,  -5.880000, 881815360.000000,  1010.637268 
 15943808.000000, -5.400600 , 1.564906, 1.864009, 0.000000, 0.000000,  0.000000,  0.000000, 0.000000,  0.000000 
 15963712.000000, -5.048856 , 0.059821, 2.364109, 821846528.000000, -29.330000,  -25.059999,  -18.200001, 0.000000,  0.000000 
 15984000.000000, -5.056034 , -1.222732, 2.730211, 821866496.000000, -80.220001,  -11.690000,  -26.389999, 0.000000,  0.000000 
 16003712.000000, -4.878965 , -1.854438, 2.995814, 821886720.000000, -95.620003,  -1.750000,  -28.280001, 0.000000,  0.000000 
 16023680.000000, -5.075177 , -1.744368, 3.148954, 821906496.000000, -73.430000,  5.110000,  -20.230000, 0.000000,  0.000000 
 16044096.000000, -5.970093 , -1.758725, 3.058028, 821926464.000000, -37.099998,  15.680000,  -4.830000, 0.000000,  0.000000 
 16064064.000000, -6.991827 , -1.634298, 2.902494, 821946880.000000, -3.640000,  28.630001,  14.000000, 0.000000,  0.000000 
 16084352.000000, -7.640282 , -1.040878, 2.959922, 821966848.000000, 22.190001,  35.770000,  32.619999, 0.000000,  0.000000 
 16104128.000000, -8.042276 , -0.473779, 3.378666, 821987072.000000, 40.740002,  35.349998,  52.080002, 0.000000,  0.000000 
 16124032.000000, -8.449057 , 0.040678, 3.601198, 822006848.000000, 45.920002,  33.880001,  64.470001, 0.000000,  0.000000 
 16144448.000000, -9.193225 , 0.260818, 3.548556, 822026816.000000, 34.650002,  31.920000,  66.989998, 0.000000,  0.000000 
 16164352.000000, -10.581062 , -0.035892, 3.263810, 822047232.000000, 14.420000,  31.150000,  60.970001, 0.000000,  0.000000 
 16184640.000000, -12.997812 , -0.698704, 2.117648, 822067136.000000, -7.000000,  32.340000,  49.770000, 0.000000,  0.000000 
 16204416.000000, -19.140188 , -1.533799, 2.400001, 822087424.000000, -16.100000,  36.400002,  37.799999, 0.000000,  0.000000 
 16224320.000000, -27.012575 , -2.045863, 1.801795, 822107200.000000, -13.930000,  68.180000,  24.290001, 0.000000,  0.000000 
 16244096.000000, -17.788242 , 0.078963, 2.488536, 822127104.000000, 0.560000,  76.860001,  4.130000, 0.000000,  0.000000 
 16265408.000000, -8.671589 , 1.773082, 1.555335, 822146880.000000, 37.730000,  -61.110001,  5.880000, 0.000000,  0.000000 
 16285696.000000, -5.441278 , 1.639083, 1.387837, 822168128.000000, 51.029999,  -140.630005,  -14.140000, 0.000000,  0.000000 
 16305472.000000, -7.195218 , 0.291924, 1.701297, 822188416.000000, 6.790000,  -103.879997,  -66.779999, 0.000000,  0.000000 
 16325376.000000, -11.550155 , -1.165305, 1.785046, 822208192.000000, -42.349998,  -35.070000,  -88.620003, 0.000000,  0.000000 
 16345472.000000, -14.620146 , -2.194218, 2.428715, 822228160.000000, -45.779999,  24.080000,  -86.940002, 0.000000,  0.000000 
 16365312.000000, -13.354343 , -2.684747, 3.335595, 822248192.000000, -32.480000,  30.100000,  -72.660004, 0.000000,  0.000000 
 16385664.000000, -10.004392 , -1.426122, 2.998207, 822268096.000000, -7.280000,  -8.890000,  -47.810001, 0.000000,  0.000000 
 16405440.000000, -7.673782 , -0.040678, 2.115255, 822288384.000000, 31.430000,  -41.160000,  -22.469999, 0.000000,  0.000000 
 16425344.000000, -5.685347 , 0.818345, 1.971686, 822308160.000000, 56.070000,  -43.049999,  -9.240000, 0.000000,  0.000000 
 16445376.000000, -4.048656 , 0.885344, 2.390430, 822328064.000000, 48.650002,  -42.770000,  -8.260000, 0.000000,  0.000000 
 16465280.000000, -3.404987 , 0.404387, 2.931208, 822348160.000000, 23.870001,  -38.779999,  -12.810000, 0.000000,  0.000000 
 16485568.000000, -3.785445 , -0.502493, 3.287738, 822368064.000000, -3.780000,  -25.059999,  -17.360001, 0.000000,  0.000000 
 16505344.000000, -4.728218 , -1.100698, 2.907279, 822388352.000000, -14.070000,  -6.650000,  -16.170000, 0.000000,  0.000000 
 16525312.000000, -5.644669 , -0.859023, 2.368894, 822408128.000000, 3.010000,  3.010000,  -14.140000, 0.000000,  0.000000 
 16545280.000000, -6.041877 , 0.081356, 2.038685, 822428032.000000, 33.529999,  0.840000,  -8.890000, 0.000000,  0.000000 
 16565248.000000, -6.266802 , 0.643669, 1.648655, 822448064.000000, 53.270000,  -10.500000,  -0.630000, 0.000000,  0.000000 
 16585536.000000, -6.757331 , 0.665205, 1.581656, 822468032.000000, 52.150002,  -22.120001,  5.740000, 0.000000,  0.000000 
 16605312.000000, -7.300502 , 0.047856, 1.885544, 822488256.000000, 25.900000,  -26.389999,  10.920000, 0.000000,  0.000000 
 16625216.000000, -8.214561 , -0.452243, 1.806581, 822508032.000000, -11.550000,  -21.840000,  18.129999, 0.000000,  0.000000 
 16645312.000000, -9.753145 , -0.162712, 1.110270, 822527936.000000, -37.520000,  -14.140000,  24.150000, 0.000000,  0.000000 
 16665216.000000, -11.976077 , -0.078963, 0.909273, 822548032.000000, -46.830002,  0.770000,  28.350000, 0.000000,  0.000000 
 16685504.000000, -14.277972 , 0.057428, 1.194018, 822567936.000000, -54.599998,  26.460001,  31.570000, 0.000000,  0.000000 
 16705216.000000, -15.823736 , -0.332602, 0.600598, 822588224.000000, -66.360001,  39.480000,  29.750000, 0.000000,  0.000000 
 16725184.000000, -18.632910 , -1.146162, 3.577270, 822608000.000000, -73.080002,  35.910000,  29.190001, 0.000000,  0.000000 
 16745216.000000, -17.426928 , -1.155733, 4.871787, 822627904.000000, -84.840004,  74.199997,  33.180000, 0.000000,  0.000000 
 16765120.000000, -12.413965 , 0.658026, 4.934000, 822648000.000000, -76.510002,  55.299999,  31.639999, 0.000000,  0.000000 
 16785408.000000, -10.528419 , 1.409373, 4.862216, 822667904.000000, -17.430000,  24.710001,  32.200001, 0.000000,  0.000000 
 16805184.000000, -11.011770 , 1.485943, 4.201797, 822688192.000000, 32.759998,  6.510000,  14.630000, 0.000000,  0.000000 
 16825088.000000, -11.624333 , 1.538585, 3.610770, 822707968.000000, 47.950001,  27.440001,  -9.310000, 0.000000,  0.000000 
 16845184.000000, -11.600404 , 1.308874, 3.510271, 822727872.000000, 58.380001,  31.710001,  -24.710001, 0.000000,  0.000000 
 16865024.000000, -10.049855 , 0.413958, 3.084348, 822747904.000000, 54.670002,  11.480000,  -28.070000, 0.000000,  0.000000 
 16885376.000000, -8.260024 , 0.031107, 2.428715, 822767808.000000, 40.180000,  -14.910000,  -19.250000, 0.000000,  0.000000 
 16904960.000000, -6.506085 , 0.634098, 2.299503, 822788096.000000, 30.030001,  -33.459999,  -11.480000, 0.000000,  0.000000 
 16924992.000000, -5.206782 , 1.215554, 2.361716, 822827712.000000, -7.980000,  -43.330002,  -13.090000, 882817600.000000,  1010.663757 
 16944960.000000, -4.409972 , 1.112662, 2.486143, 0.000000, 0.000000,  0.000000,  0.000000, 0.000000,  0.000000 
 16964928.000000, -4.074977 , 0.354138, 2.703890, 822847744.000000, -40.110001,  -35.630001,  -18.969999, 0.000000,  0.000000 
 16985280.000000, -4.010371 , -0.457029, 2.730211, 822867712.000000, -64.470001,  -25.900000,  -22.469999, 0.000000,  0.000000 
 17004928.000000, -4.429115 , -1.323231, 2.818745, 822888000.000000, -66.709999,  -15.400000,  -20.020000, 0.000000,  0.000000 
 17024896.000000, -5.386244 , -1.811367, 2.962314, 822907712.000000, -52.220001,  -2.170000,  -12.600000, 0.000000,  0.000000 
 17044928.000000, -6.594619 , -1.686940, 3.062813, 822927680.000000, -25.200001,  16.030001,  1.330000, 0.000000,  0.000000 
 17064896.000000, -7.496714 , -0.981057, 2.883351, 822947648.000000, 10.710000,  32.410000,  19.389999, 0.000000,  0.000000 
 17085248.000000, -8.001599 , -0.330210, 2.816352, 822967680.000000, 39.480000,  39.900002,  41.020000, 0.000000,  0.000000 
 17104896.000000, -8.535198 , -0.045464, 3.101098, 822987968.000000, 45.709999,  42.349998,  57.680000, 0.000000,  0.000000 
 17124928.000000, -9.355937 , 0.023928, 3.134598, 823007616.000000, 30.520000,  41.650002,  65.099998, 0.000000,  0.000000 
 17144832.000000, -10.396815 , -0.026321, 2.373680, 823027648.000000, 14.700000,  40.950001,  69.510002, 0.000000,  0.000000 
 17164864.000000, -12.624532 , -0.770489, 0.981057, 823047616.000000, 0.910000,  35.279999,  66.360001, 0.000000,  0.000000 
 17185152.000000, -18.647268 , -1.493121, 1.993221, 823067584.000000, -13.790000,  35.770000,  56.139999, 0.000000,  0.000000 
 17204800.000000, -25.055246 , -1.725225, 1.667797, 823087936.000000, -25.340000,  84.629997,  44.799999, 0.000000,  0.000000 
 17224832.000000, -17.024933 , 0.026321, 2.335395, 823107584.000000, -13.230000,  77.000000,  25.340000, 0.000000,  0.000000 
 17244800.000000, -10.521241 , 1.756332, 1.634298, 823147584.000000, 21.139999,  -101.150002,  2.590000, 0.000000,  0.000000 
 17264768.000000, -9.133404 , 1.646262, 1.663012, 0.000000, 0.000000,  0.000000,  0.000000, 0.000000,  0.000000 
 17285120.000000, -10.648061 , 0.270389, 1.596013, 823167552.000000, -15.680000,  -63.560001,  -43.680000, 0.000000,  0.000000 
 17304768.000000, -12.069397 , -0.552742, 1.931008, 823187840.000000, -36.540001,  -24.430000,  -74.550003, 0.000000,  0.000000 
 17324736.000000, -11.868401 , -1.067199, 2.553142, 823207552.000000, -27.930000,  -13.440001,  -85.610001, 0.000000,  0.000000 
 17344768.000000, -10.777272 , -1.481157, 2.799603, 823227520.000000, -15.190001,  -22.330000,  -80.010002, 0.000000,  0.000000 
 17364736.000000, -9.408579 , -1.272982, 2.349752, 823247488.000000, -3.500000,  -30.730000,  -68.459999, 0.000000,  0.000000 
 17385024.000000, -7.611568 , -0.555135, 2.105684, 823267520.000000, 14.140000,  -37.590000,  -54.110001, 0.000000,  0.000000 
 17404736.000000, -5.812167 , 0.179462, 2.139183, 823287808.000000, 29.540001,  -44.170002,  -37.310001, 0.000000,  0.000000 
 17424704.000000, -4.412365 , 0.409173, 2.392823, 823307456.000000, 33.950001,  -48.860001,  -25.690001, 0.000000,  0.000000 
 17444672.000000, -3.749553 , 0.141177, 2.596212, 823327488.000000, 26.880001,  -44.520000,  -20.510000, 0.000000,  0.000000 
 17464704.000000, -4.031906 , -0.256032, 2.885744, 823347456.000000, 16.170000,  -31.990000,  -18.690001, 0.000000,  0.000000 
 17484992.000000, -4.972286 , -0.385244, 2.519642, 823367424.000000, 15.820000,  -16.520000,  -14.210000, 0.000000,  0.000000 
 17504640.000000, -5.912664 , -0.110070, 1.947758, 823387712.000000, 31.570000,  -5.180000,  -7.280000, 0.000000,  0.000000 
 17524672.000000, -6.336195 , 0.301496, 1.617548, 823407424.000000, 48.509998,  -3.850000,  0.630000, 0.000000,  0.000000 
 17544640.000000, -6.338587 , 0.478565, 1.505085, 823427392.000000, 51.310001,  -11.480000,  10.080000, 0.000000,  0.000000 
 17564608.000000, -6.417551 , 0.313460, 1.899901, 823447424.000000, 38.430000,  -16.379999,  18.549999, 0.000000,  0.000000 
 17584960.000000, -6.838687 , 0.114855, 2.024328, 823467392.000000, 14.140000,  -13.300000,  25.549999, 0.000000,  0.000000 
 17604608.000000, -7.676175 , 0.155533, 1.581656, 823487680.000000, -7.840000,  0.070000,  31.360001, 0.000000,  0.000000 
 17624576.000000, -9.492328 , 0.315853, 1.261017, 823507392.000000, -21.629999,  20.230000,  36.820000, 0.000000,  0.000000 
 17644608.000000, -12.378072 , 0.229711, 1.557728, 823527360.000000, -36.189999,  48.369999,  41.650002, 0.000000,  0.000000 
 17664576.000000, -15.416957 , -0.311067, 1.526621, 823547328.000000, -55.299999,  83.860001,  48.230000, 0.000000,  0.000000 
 17684864.000000, -17.682961 , -1.689333, 2.878566, 823567360.000000, -74.760002,  98.139999,  50.750000, 0.000000,  0.000000 
 17704576.000000, -21.133410 , -1.993221, 6.099305, 823587648.000000, -80.290001,  102.199997,  53.130001, 0.000000,  0.000000 
 17724544.000000, -17.845673 , -0.090927, 4.867002, 823607296.000000, -49.840000,  124.739998,  57.750000, 0.000000,  0.000000 
 17744512.000000, -10.772489 , 1.892723, 2.981457, 823627328.000000, 23.240000,  70.980003,  57.540001, 0.000000,  0.000000 
 17764544.000000, -6.541977 , 1.792224, 2.220540, 823647296.000000, 65.660004,  -13.790000,  40.320000, 0.000000,  0.000000 
 17784832.000000, -6.288338 , 0.725025, 2.991028, 823667264.000000, 58.730000,  -34.090000,  -0.420000, 0.000000,  0.000000 
 17804480.000000, -10.310673 , 0.562313, 3.404987, 823687552.000000, 50.610001,  -2.310000,  -29.889999, 0.000000,  0.000000 
 17824512.000000, -13.808979 , 0.787239, 2.014757, 823707264.000000, 61.110001,  43.049999,  -41.230000, 0.000000,  0.000000 
 17844480.000000, -13.024135 , 0.665205, 1.540978, 823727232.000000, 60.900002,  40.180000,  -34.930000, 0.000000,  0.000000 
 17864448.000000, -9.832108 , 0.832702, 1.871187, 823747264.000000, 28.630001,  -15.400000,  -28.840000, 0.000000,  0.000000 
 17884736.000000, -7.960921 , 1.272982, 2.502892, 823767232.000000, -8.890000,  -57.330002,  -21.139999, 0.000000,  0.000000 
 17904448.000000, -7.252645 , 1.229911, 2.919244, 823787520.000000, -44.310001,  -55.090000,  -23.030001, 0.000000,  0.000000 
 17925248.000000, -6.898508 , 0.624527, 3.177669, 823827968.000000, -98.559998,  -27.930000,  -33.459999, 883817856.000000,  1010.688232 
 17944512.000000, -6.465407 , -0.320638, 3.297310, 0.000000, 0.000000,  0.000000,  0.000000, 0.000000,  0.000000 
 17964928.000000, -6.199803 , -1.383051, 3.326023, 823847232.000000, -102.269997,  -19.670000,  -32.970001, 0.000000,  0.000000 
 17985152.000000, -6.245267 , -2.053042, 3.342773, 823867712.000000, -86.309998,  -11.060000,  -27.440001, 0.000000,  0.000000 
 18004864.000000, -6.537192 , -2.275574, 3.259024, 823887936.000000, -50.750000,  -0.420000,  -17.850000, 0.000000,  0.000000 
 18024896.000000, -6.407979 , -1.442872, 2.859423, 823907584.000000, 0.280000,  7.280000,  -4.480000, 0.000000,  0.000000 
 18044800.000000, -6.147161 , -0.579063, 2.622534, 823927680.000000, 50.959999,  5.880000,  9.030000, 0.000000,  0.000000 
 18065280.000000, -6.329016 , 0.026321, 2.579463, 823947584.000000, 81.550003,  5.180000,  19.879999, 0.000000,  0.000000 
 18085504.000000, -7.314859 , 0.229711, 2.632105, 823968064.000000, 85.470001,  12.040000,  28.000000, 0.000000,  0.000000 
 18105216.000000, -8.396415 , 0.179462, 2.732604, 823988224.000000, 74.410004,  22.469999,  33.599998, 0.000000,  0.000000 
 18125248.000000, -9.255438 , -0.026321, 2.670390, 824007936.000000, 57.400002,  28.770000,  38.500000, 0.000000,  0.000000 
 18145152.000000, -9.257831 , 0.057428, 2.488536, 824028032.000000, 41.439999,  24.360001,  40.670002, 0.000000,  0.000000 
 18165248.000000, -8.827123 , 0.370888, 1.823331, 824047936.000000, 30.520000,  10.710000,  40.810001, 0.000000,  0.000000 
 18185472.000000, -9.870394 , 0.299103, 1.672583, 824068032.000000, 19.040001,  -4.830000,  35.980000, 0.000000,  0.000000 
 18205184.000000, -12.378072 , -0.052642, 1.464408, 824088256.000000, 3.640000,  3.570000,  28.280001, 0.000000,  0.000000 
 18225216.000000, -16.725830 , -0.526421, 1.416551, 824107904.000000, -11.830000,  25.830000,  20.719999, 0.000000,  0.000000 
 18245120.000000, -21.233908 , -1.000200, 2.045863, 824128000.000000, -21.420000,  52.360001,  10.570000, 0.000000,  0.000000 
 18264896.000000, -19.891535 , -0.789631, 2.596212, 824147904.000000, -28.139999,  55.790001,  2.450000, 0.000000,  0.000000 
 18286464.000000, -13.177275 , 0.397209, 2.457429, 824167680.000000, -20.510000,  7.630000,  2.380000, 0.000000,  0.000000 
 18306176.000000, -9.097511 , 1.138984, 1.797010, 824189248.000000, 0.140000,  -65.309998,  -1.960000, 0.000000,  0.000000 
 18326272.000000, -8.152347 , 0.689133, 1.950150, 824208960.000000, 4.340000,  -76.230003,  -28.910000, 0.000000,  0.000000 
 18346112.000000, -10.368099 , -0.131605, 2.321038, 824228992.000000, -6.020000,  -44.590000,  -54.389999, 0.000000,  0.000000 
 18366208.000000, -12.911672 , -0.725025, 2.821138, 824248896.000000, -0.420000,  0.210000,  -68.529999, 0.000000,  0.000000 
 18386432.000000, -13.050454 , -1.306481, 3.172883, 824268992.000000, 14.210000,  19.040001,  -65.730003, 0.000000,  0.000000 
 18406144.000000, -10.801201 , -0.928415, 3.022135, 824289216.000000, 28.070000,  -0.140000,  -48.299999, 0.000000,  0.000000 
 18426176.000000, -8.501699 , -0.112463, 2.455036, 824308864.000000, 45.430000,  -31.500000,  -27.860001, 0.000000,  0.000000 
 18446080.000000, -6.838687 , 0.870987, 2.280360, 824328896.000000, 58.170002,  -43.959999,  -14.070000, 0.000000,  0.000000 
 18466176.000000, -5.764310 , 1.435694, 2.390430, 824348864.000000, 53.619999,  -45.290001,  -7.490000, 0.000000,  0.000000 
 18486400.000000, -5.501099 , 1.112662, 2.608176, 824368896.000000, 35.279999,  -38.990002,  -7.140000, 0.000000,  0.000000 
 18506048.000000, -6.044270 , 0.349352, 2.708675, 824389120.000000, 9.520000,  -26.740000,  -9.100000, 0.000000,  0.000000 
 18526144.000000, -6.989435 , -0.327817, 2.514857, 824408832.000000, -8.190000,  -14.980000,  -9.730000, 0.000000,  0.000000 
 18546048.000000, -7.752745 , -0.521635, 2.017149, 824428864.000000, -6.370000,  -7.630000,  -7.140000, 0.000000,  0.000000 
 18566080.000000, -8.147561 , -0.198604, 1.507478, 824448832.000000, 8.260000,  -8.610000,  -2.310000, 0.000000,  0.000000 
 18586432.000000, -8.987441 , 0.234497, 1.172483, 824468864.000000, 23.379999,  -15.960000,  3.850000, 0.000000,  0.000000 
 18606016.000000, -10.076177 , 0.768096, 1.217947, 824489216.000000, 30.660000,  -14.980000,  7.700000, 0.000000,  0.000000 
 18626048.000000, -11.040483 , 1.007378, 1.519442, 824508800.000000, 25.059999,  -7.560000,  12.040000, 0.000000,  0.000000 
 18646016.000000, -11.315658 , 0.887737, 1.483550, 824528832.000000, 6.790000,  -2.730000,  14.000000, 0.000000,  0.000000 
 18666048.000000, -11.212767 , 0.413958, 0.897308, 824548736.000000, -20.370001,  -4.480000,  16.030001, 0.000000,  0.000000 
 18686272.000000, -12.088539 , 0.169890, 0.526421, 824568768.000000, -44.029999,  -5.250000,  16.799999, 0.000000,  0.000000 
 18705920.000000, -13.627125 , 0.098106, 0.516850, 824589056.000000, -58.939999,  11.970000,  19.180000, 0.000000,  0.000000 
 18726016.000000, -14.696717 , -0.081356, 1.217947, 824608704.000000, -65.870003,  34.580002,  25.969999, 0.000000,  0.000000 
 18745920.000000, -13.593626 , -0.004786, 2.182254, 824628800.000000, -68.879997,  45.990002,  33.599998, 0.000000,  0.000000 
 18766016.000000, -10.985448 , 0.579063, 2.933600, 824648640.000000, -63.349998,  36.049999,  41.860001, 0.000000,  0.000000 
 18786240.000000, -8.571091 , 1.069592, 3.069991, 824668736.000000, -47.459999,  21.559999,  46.759998, 0.000000,  0.000000 
 18806080.000000, -6.891330 , 1.282553, 2.730211, 824688960.000000, -32.689999,  13.650000,  41.160000, 0.000000,  0.000000 
 18825920.000000, -6.898508 , 1.100698, 2.342573, 824708864.000000, -19.950001,  11.760000,  30.520000, 0.000000,  0.000000 
 18845888.000000, -8.518449 , 0.636491, 1.473979, 824728704.000000, -11.340000,  28.280001,  21.280001, 0.000000,  0.000000 
 18865920.000000, -10.016356 , 0.244068, 0.952343, 824748672.000000, -3.500000,  47.950001,  19.740000, 0.000000,  0.000000 
 18886144.000000, -10.389636 , 0.215354, 0.976272, 824768640.000000, 3.430000,  49.000000,  23.100000, 0.000000,  0.000000 
 18905856.000000, -9.990034 , 0.863809, 1.447658, 824788928.000000, 8.330000,  34.860001,  31.290001, 0.000000,  0.000000 
 18925888.000000, -8.975478 , 1.799403, 1.792224, 824828672.000000, 0.980000,  18.690001,  36.400002, 884818496.000000,  1010.712463 
 18945792.000000, -8.252845 , 1.998007, 2.017149, 0.000000, 0.000000,  0.000000,  0.000000, 0.000000,  0.000000 
 18965760.000000, -8.044669 , 1.514657, 2.108077, 824848512.000000, -22.469999,  21.210001,  28.000000, 0.000000,  0.000000 
 18986048.000000, -8.305488 , 0.937986, 2.309074, 824868480.000000, -42.349998,  30.309999,  18.830000, 0.000000,  0.000000 
