time,seconds_elapsed,z,y,x
1633782736521888300,0.00488818359375,-8.099420550179481,-5.528673990115523,0.05947378710135817
1633782736541767400,0.024767333984375,-8.092650617653131,-5.538835903167724,0.026263956743106245
1633782736561646300,0.044646240234375,-8.07925863663852,-5.55838932942152,0.016584016238281037
1633782736581525200,0.064525146484375,-8.06199361358285,-5.583411542475223,0.012479748982429737
1633782736601404200,0.084404052734375,-8.039361510536073,-5.615958305814862,0.00804688452645205
1633782736621283300,0.104283447265625,-8.010430015084147,-5.657144302684069,0.010874152974784373
1633782736641162200,0.124162353515625,-7.982775699961185,-5.696076383146643,0.019885197225119916
1633782736661041200,0.144041259765625,-7.96488056230843,-5.721012671482563,0.03281660010683117
1633782736680920300,0.16392041015625,-7.964978177464008,-5.720833807784318,0.039553893022192636
1633782736700798200,0.183798095703125,-7.985417154380679,-5.692278744429349,0.03815138526352821
1633782736720677400,0.203677490234375,-8.026859171837568,-5.633790899625421,0.017885538707347586
1633782736740556300,0.223556396484375,-8.09196263538897,-5.539843618905544,-0.025545522258465642
1633782736760435500,0.243435546875,-8.180075803127885,-5.408403350615501,-0.07695971376555971
1633782736780314000,0.263314208984375,-8.27473327794373,-5.262139607203006,-0.0951966779927723
1633782736800193300,0.283193359375,-8.356578032937646,-5.131895270699262,-0.04044153061087709
1633782736820072200,0.303072265625,-8.406295126786828,-5.049592835065722,0.07872435795105993
1633782736839951400,0.322951416015625,-8.416517245593667,-5.028361246466637,0.21956066948734224
1633782736859830300,0.342830322265625,-8.398535014179348,-5.050197815221548,0.361244172437489
1633782736879709200,0.362709228515625,-8.377257248350977,-5.076019069698453,0.47536352276615795
1633782736899588400,0.38258837890625,-8.369396013456582,-5.082161810237169,0.5433444049173966
1633782736919466800,0.402466796875,-8.379584229993819,-5.0639270653665065,0.5564142047729342
1633782736939345000,0.422344970703125,-8.395316052132845,-5.040513456553221,0.531300842837058
1633782736959223800,0.442223876953125,-8.403917291739582,-5.028330851328373,0.5103344445127993
1633782736979103000,0.46210302734375,-8.401688509774207,-5.031798819699883,0.5128492768779397
1633782736998981600,0.481981689453125,-8.39673936293423,-5.038773334887623,0.5252797924492508
1633782737018860800,0.50186083984375,-8.394246961596608,-5.04323732855916,0.5222622347263619
1633782737038740000,0.521739990234375,-8.397222762537002,-5.04019781473279,0.5034230942217632
1633782737058619000,0.541618896484375,-8.405531741198898,-5.029508078414201,0.47060960623733694
1633782737078497800,0.561497802734375,-8.420076983901858,-5.0093672076612705,0.42300566861722616
1633782737098376700,0.581376708984375,-8.438472472292185,-4.983704943138361,0.3538969514798373
1633782737118255900,0.601255859375,-8.452320964902638,-4.965736155727505,0.26480248108599336
1633782737138134800,0.621134765625,-8.450625266900659,-4.972635852113366,0.1737952541396953
1633782737158013000,0.641012939453125,-8.431146074926852,-5.007614226514101,0.09979154063551686
1633782737177891800,0.660891845703125,-8.401242519572376,-5.0583711848050354,0.04891676008461509
1633782737197770800,0.680770751953125,-8.371836976867913,-5.107064196303487,0.02493225148161873
1633782737217649700,0.700649658203125,-8.346472233986853,-5.148412105736136,0.02527732945908792
1633782737237528800,0.72052880859375,-8.326390399944781,-5.180695249703526,0.04480684054775629
1633782737257408000,0.740407958984375,-8.313271975174546,-5.201562096643448,0.06031376332314685
1633782737277286700,0.76028662109375,-8.3079130784899,-5.209767614930868,0.08531727167638019
1633782737297165800,0.780165771484375,-8.319054065707325,-5.190772407081723,0.1400554542237427
1633782737317044700,0.800044677734375,-8.358200081181526,-5.124823724877834,0.21692973646186292
1633782737336924000,0.819923828125,-8.411747546973825,-5.031870715892315,0.3052277409820817
1633782737356802800,0.839802734375,-8.446325523880123,-4.966648594397306,0.40295408358294516
1633782737376681000,0.859680908203125,-8.44327315057218,-4.964376557812094,0.48630522455181924
1633782737396559600,0.8795595703125,-8.418627369615436,-5.00304677246809,0.5163565543465316
1633782737416438800,0.899438720703125,-8.391317337885498,-5.051292624720931,0.4905256552584469
1633782737436318000,0.91931787109375,-8.373026478913426,-5.084243877208233,0.4618167165160179
1633782737456196900,0.93919677734375,-8.373059796661138,-5.085859495711326,0.44304249447379257
1633782737476075800,0.95907568359375,-8.394064590767025,-5.053323838287592,0.41710283778160806
1633782737495954700,0.97895458984375,-8.42113555304408,-5.010110719504953,0.3919898411719128
1633782737515833900,0.998833740234375,-8.438178457781673,-4.982592597982287,0.37590350650679316
1633782737535712800,1.018712646484375,-8.436250704589485,-4.987691382426023,0.3507044755814597
1633782737555592000,1.038592041015625,-8.42130272630453,-5.016092716524005,0.3014253164918162
1633782737575470800,1.058470947265625,-8.403477146756648,-5.049499311563372,0.23348701310697942
1633782737595349800,1.078349853515625,-8.389521102118492,-5.074987973085046,0.17554310245402155
1633782737615227600,1.0982275390625,-8.378141045448183,-5.094788652098178,0.1423519128641579
1633782737635106800,1.11810693359375,-8.364486614105106,-5.117511940559744,0.12968880324652418
1633782737654986000,1.137986083984375,-8.3451377705127,-5.1491626318424935,0.12320781632992438
1633782737674865000,1.157864990234375,-8.322735384568572,-5.185585944354534,0.11024772392655723
1633782737694743800,1.177743896484375,-8.30300543270409,-5.217528312060237,0.08876506490954197
1633782737714622700,1.197622802734375,-8.288631454914809,-5.240615757659078,0.07011840107000898
1633782737734502000,1.217501953125,-8.279795822030305,-5.254655973449349,0.06292824297074694
1633782737754380800,1.237380859375,-8.275437042298913,-5.261438765457272,0.06919423999637365
1633782737774259700,1.257259765625,-8.275528812235594,-5.260941921851039,0.0921762707256712
1633782737794139000,1.277138916015625,-8.280657407295703,-5.251701799818873,0.14398011685418896
1633782737814017800,1.297017822265625,-8.293241579058765,-5.230108392170071,0.196208965195436
1633782737833896000,1.31689599609375,-8.32094791662991,-5.183284681674838,0.25645335307680067
1633782737853774800,1.33677490234375,-8.362172491943836,-5.113158421525359,0.3163444157421589
1633782737873654000,1.356654052734375,-8.419225335508585,-5.01494413101077,0.37062205897253003
1633782737893532700,1.37653271484375,-8.492299924069643,-4.885133509749174,0.43209414375163613
1633782737913411800,1.396411865234375,-8.56578776960671,-4.745559034842253,0.526622475762479
1633782737933291300,1.416291259765625,-8.616247790777683,-4.638746427330374,0.6424128645759075
1633782737953170200,1.436170166015625,-8.631949802300333,-4.59516973593235,0.7377279995828867
1633782737973049000,1.456049072265625,-8.60713392547369,-4.633439845354855,0.7866777623213828
1633782737992928300,1.47592822265625,-8.545688399907947,-4.7450163062676785,0.7914628046408295
1633782738012807200,1.49580712890625,-8.461301559215784,-4.899745972469448,0.7544880687911063
1633782738032686300,1.515686279296875,-8.3791148589164,-5.048256033504009,0.6898761881489306
1633782738052565000,1.53556494140625,-8.321092293536662,-5.15155741802454,0.6255157980497926
1633782738072443100,1.555443115234375,-8.298738422909379,-5.192037896972894,0.5865760822700337
1633782738092322000,1.575322021484375,-8.313159746971726,-5.170511709341406,0.5723387730050832
1633782738112201200,1.595201171875,-8.357057925409078,-5.099453721299767,0.5705647490698844
1633782738132080000,1.615080078125,-8.416189913335442,-5.001805247974396,0.565754901102744
1633782738151959300,1.634959228515625,-8.479376729610562,-4.896245270872115,0.5452854194499552
1633782738171838200,1.654838134765625,-8.538597564864158,-4.796343757922947,0.507767955025658
1633782738191717000,1.674717041015625,-8.589334649410842,-4.709986493940651,0.4579756039831787
1633782738211596300,1.69459619140625,-8.627811387321353,-4.645484795674681,0.38823805089034136
1633782738231475200,1.71447509765625,-8.65394653005302,-4.604060898396373,0.2867367015291005
1633782738251354000,1.73435400390625,-8.665630538105964,-4.587837785609066,0.17021348666278643
1633782738271233000,1.75423291015625,-8.663971664983034,-4.593712522861361,0.06148937840720173
1633782738291112200,1.7741123046875,-8.650473300984501,-4.619461004363,-0.016793243108747993
1633782738310990000,1.793989990234375,-8.627421511220932,-4.661865437111258,-0.07067473347824998
1633782738330869200,1.813869140625,-8.596476337859034,-4.717442362904548,-0.12930665379483253
1633782738350748400,1.83374853515625,-8.562906661212443,-4.775977261720597,-0.19249705026652664
1633782738370627000,1.853626953125,-8.533869367298484,-4.825744624452293,-0.23589628447210415
1633782738390506200,1.87350634765625,-8.514336983832717,-4.8606610395327206,-0.22454337153704837
1633782738410385200,1.89338525390625,-8.510493167886137,-4.870532737466693,-0.14072251243088393
1633782738430264300,1.913264404296875,-8.532232706007362,-4.834347909885644,-0.021669413760770112
1633782738450143000,1.93314306640625,-8.57981103426218,-4.748924127361178,0.07031713851250242
1633782738470022100,1.953022216796875,-8.64551480179429,-4.627814114427566,0.0937540049037896
1633782738489901300,1.9729013671875,-8.710076413553953,-4.505424290816485,0.07815500623104162
1633782738509780200,1.9927802734375,-8.755929817712307,-4.415927852025628,0.06050425352710299
1633782738529659400,2.012659423828125,-8.773424557870626,-4.381145000196993,0.05450861614176537
1633782738549537300,2.032537353515625,-8.759028368249535,-4.409925689001381,0.04858412146361079
1633782738569416200,2.052416259765625,-8.71302708005309,-4.500325506372749,0.024788205651717726
1633782738589295000,2.072295166015625,-8.646150761610269,-4.627567446190119,-0.008915989232136053
1633782738609174300,2.09217431640625,-8.577720783984661,-4.753125670704245,-0.02972578535148641
1633782738629053200,2.11205322265625,-8.525839790099859,-4.84563970375061,-0.014895115586556493
1633782738648932000,2.13193212890625,-8.49379746915102,-4.9014597906500095,0.038551520179770885
1633782738668811000,2.15181103515625,-8.475092184159159,-4.932607793107628,0.11216487352633848
1633782738688690200,2.171690185546875,-8.460531743887067,-4.955530403533578,0.18031594287902117
1633782738708569300,2.1915693359375,-8.444882923856378,-4.979749483510852,0.23754606097312642
1633782738728448300,2.2114482421875,-8.42219879836142,-5.015636789450049,0.28343901169057933
1633782738748327200,2.2313271484375,-8.391976094055176,-5.063506209605932,0.32560912422630933
1633782738768206000,2.2512060546875,-8.359405365318059,-5.1143929317563765,0.36566421736944466
1633782738788085200,2.271085205078125,-8.333454346981645,-5.154425082415342,0.3947381169667467
1633782738807964200,2.290964111328125,-8.32077957432568,-5.173664620414376,0.4101311356054619
1633782738827843000,2.310843017578125,-8.326645836010576,-5.163756974384189,0.4158945945030078
1633782738847721200,2.33072119140625,-8.351282849138975,-5.123558819508553,0.4190587941549718
1633782738867600100,2.35060009765625,-8.387985563114285,-5.063426130107045,0.41689752446785566
1633782738887479300,2.370479248046875,-8.422212242364884,-5.006801741087436,0.410687783107534
1633782738907358200,2.390358154296875,-8.444926178476214,-4.967153621309995,0.42542960782852024
1633782738927236600,2.410236572265625,-8.456023326551914,-4.944821377992629,0.4634613419178873
1633782738947115800,2.43011572265625,-8.459354516801238,-4.932811791247129,0.5263717889370396
1633782738966994400,2.449994384765625,-8.461426646900177,-4.92365233323574,0.576447998422198
1633782738986873600,2.46987353515625,-8.464431089413166,-4.91608160572052,0.596597344742529
1633782739006752500,2.48975244140625,-8.472632516047359,-4.902836047439277,0.5891341692550107
1633782739026631700,2.509631591796875,-8.507525550252199,-4.846326516970992,0.5527312784764915
1633782739046510300,2.52951025390625,-8.576240774559974,-4.726136541491747,0.5311472597105428
1633782739066389500,2.549389404296875,-8.65698487483561,-4.571951941952109,0.569432018712908
1633782739086268700,2.5692685546875,-8.718618616449833,-4.440909148547053,0.6590900778062642
1633782739106147600,2.589147705078125,-8.736336643970013,-4.389661191868782,0.7600533017028123
1633782739126025700,2.609025634765625,-8.697415084901452,-4.453639450782537,0.8309341065466403
1633782739145904600,2.628904541015625,-8.610386789789795,-4.618243153005838,0.8387230068571865
1633782739165783600,2.648783447265625,-8.498727326768636,-4.832037879377603,0.7703457823321223
1633782739185662500,2.668662353515625,-8.395767887553571,-5.025598211494088,0.651791591361165
1633782739205541600,2.688541748046875,-8.329961828690767,-5.1477580257415765,0.5316988291786984
1633782739225420500,2.708420654296875,-8.31779500555694,-5.1759337343901395,0.44089061366952953
1633782739245299500,2.728299560546875,-8.34549140625596,-5.135894569468498,0.38176158488523215
1633782739265178600,2.7481787109375,-8.388502280464769,-5.068285845097899,0.34043343959897754
1633782739285057500,2.7680576171875,-8.426181145995855,-5.006874221801757,0.3179121399829164
1633782739304936700,2.787936767578125,-8.4468539316684,-4.972834589555859,0.30325697063207624
1633782739324815600,2.807815673828125,-8.448359660056234,-4.972712424480915,0.2602543527949601
1633782739344694500,2.827694580078125,-8.435541679537296,-4.99808535066843,0.1765345794430934
1633782739364573400,2.847573486328125,-8.414358606255053,-5.0362213123172515,0.07367470987867564
1633782739384452600,2.86745263671875,-8.392422084257007,-5.073088276943564,-0.03750525339669548
1633782739404331800,2.887331787109375,-8.369414133635162,-5.109133403792977,-0.1416097892599646
1633782739424209700,2.907209716796875,-8.3468322994709,-5.143582785883545,-0.21052631742665542
1633782739444088600,2.927088623046875,-8.33038619158268,-5.169701562002301,-0.2218833402812481
1633782739463967500,2.946967529296875,-8.326089955693483,-5.177005163013935,-0.21266678178776055
1633782739483846700,2.9668466796875,-8.331236086410284,-5.168809581598639,-0.21046214788295328
1633782739503725600,2.9867255859375,-8.33527104101479,-5.163015216106176,-0.1921357792060822
1633782739523604700,3.006604736328125,-8.3219176384449,-5.186440515357256,-0.13000392447714693
1633782739543483400,3.0264833984375,-8.288270804908871,-5.241513583281636,-0.03851814306655433
1633782739563362600,3.046362548828125,-8.255574988487362,-5.292814146929979,0.04450404907574411
1633782739583241500,3.066241455078125,-8.25511087810695,-5.292630607056617,0.10762834434155374
1633782739603120600,3.08612060546875,-8.300344104540347,-5.220331094521284,0.15103820953899993
1633782739622999600,3.10599951171875,-8.365051846772431,-5.113406258806586,0.2221848622447811
1633782739642878500,3.12587841796875,-8.41048673325777,-5.031340554538369,0.34599874557591975
1633782739662757600,3.145757568359375,-8.425963119331001,-4.99713433355391,0.4496354264654219
1633782739682636500,3.165636474609375,-8.416947453704475,-5.009392926624417,0.4810039032733068
1633782739702515700,3.185515625,-8.38985954029262,-5.056070506647229,0.46560748710110783
1633782739722394400,3.205394287109375,-8.353989185488224,-5.117794849154353,0.43523361082114276
1633782739742272500,3.2252724609375,-8.3266727240175,-5.165370254799723,0.3947872898707166
1633782739762151400,3.2451513671875,-8.318377773880957,-5.18217876625955,0.34640772823560984
1633782739782030600,3.265030517578125,-8.329484858828783,-5.1669268365919585,0.3048429246492684
1633782739801909800,3.28490966796875,-8.351241348084807,-5.133716640907526,0.26852022296749056
1633782739821788700,3.30478857421875,-8.374533376345038,-5.097666837882995,0.22664739461159333
1633782739841667600,3.32466748046875,-8.392593933692574,-5.069840673324466,0.17738960710354149
1633782739861546500,3.34454638671875,-8.406493279707432,-5.0483086404740805,0.12581895780954508
1633782739881425700,3.36442578125,-8.419312429270148,-5.027759773442149,0.08480455464757979
1633782739901304600,3.3843046875,-8.433888651633263,-5.003634801489114,0.05953010669874493
1633782739921183000,3.404182861328125,-8.44541542329788,-4.984296479290723,0.04617244351226836
1633782739941061600,3.4240615234375,-8.444684770935773,-4.985508193168044,0.04885830789564643
1633782739960940800,3.44394091796875,-8.428556058433651,-5.012649882593751,0.056229571882588786
1633782739980819700,3.46381982421875,-8.409449791425466,-5.044698048761487,0.05055768655890133
1633782740000699000,3.483698974609375,-8.39868056012988,-5.062806536903977,0.023364139081793835
1633782740020577800,3.503577880859375,-8.39396054587066,-5.070679462236166,0.005018137547624064
1633782740040456700,3.523456787109375,-8.384934943372011,-5.085497092139721,0.03128364350206684
1633782740060335900,3.5433359375,-8.370995849868654,-5.107856807985901,0.08131034672311507
1633782740080214800,3.56321484375,-8.363351472595333,-5.120118908187747,0.09549273832989856
1633782740100093000,3.583093017578125,-8.375967793062328,-5.0997968356490135,0.07498363705277443
1633782740119971800,3.602971923828125,-8.422467093908786,-5.023087689977884,0.03191178533777129
1633782740139850800,3.622850830078125,-8.512553023025394,-4.8689612503662705,-0.006292845075001241
1633782740159729700,3.642729736328125,-8.62917975306511,-4.6591345508426425,0.00999042323459289
1633782740179608800,3.66260888671875,-8.740176368263363,-4.44505457778871,0.14555493755601345
1633782740199487700,3.68248779296875,-8.816978452914952,-4.278295743358135,0.35701596028320487
1633782740219367000,3.702366943359375,-8.849711094215511,-4.1935684186652304,0.5166965634232387
1633782740239245800,3.722245849609375,-8.834173333343863,-4.219702392353117,0.5673403071306645
1633782740259124700,3.742124755859375,-8.769009079515934,-4.355359693816304,0.5529110189575701
1633782740279004000,3.76200390625,-8.671846343880892,-4.550654302379488,0.5108935762329027
1633782740298882800,3.7818828125,-8.577489897838234,-4.731554474887251,0.45765846432540563
1633782740318761700,3.80176171875,-8.515695997226238,-4.8452945435747505,0.420036187819764
1633782740338640600,3.821640625,-8.4966154491812,-4.880503219600022,0.39824557709842917
1633782740358519800,3.841519775390625,-8.503546709749102,-4.868524027992785,0.39692558054104443
1633782740378398700,3.861398681640625,-8.517175422129034,-4.842862640252709,0.41807409396655854
1633782740398277600,3.881277587890625,-8.527728380325437,-4.820975218093395,0.4543542351482436
1633782740418156800,3.90115673828125,-8.538229900595546,-4.799619710853696,0.4823579847633838
1633782740438035700,3.92103564453125,-8.548242760565877,-4.780969078658521,0.4901624114366248
1633782740457915000,3.940914794921875,-8.555351715788245,-4.770068037676811,0.4720057733034715
1633782740477792800,3.960792724609375,-8.555376265707611,-4.774635199461877,0.4228250148206949
1633782740497672000,3.980671875,-8.544284962850808,-4.7998429982155555,0.3564918633438647
1633782740517550600,4.000550537109375,-8.524823891055583,-4.838507952174544,0.294288651278615
1633782740537429800,4.0204296875,-8.5042609954983,-4.877088442720472,0.24887486238023265
1633782740557308700,4.04030859375,-8.487009416446089,-4.908572837525606,0.21671750021697953
1633782740577187800,4.060187744140625,-8.47436328536272,-4.931901690664887,0.17858977667354045
1633782740597066800,4.080066650390625,-8.457774554133415,-4.961854930379986,0.12817635285696014
1633782740616945700,4.099945556640625,-8.433292439305783,-5.0041982805907725,0.08923338567418977
1633782740636824800,4.119824951171875,-8.413315234681964,-5.03777263341248,0.08577335401396266
1633782740656703700,4.139703857421875,-8.412365386611222,-5.038199334391951,0.13797736930805257
1633782740676583000,4.1595830078125,-8.441382806780934,-4.98792109952867,0.18463124879486859
1633782740696461600,4.179461669921875,-8.499297235611081,-4.88897235725969,0.17401592941936103
1633782740716340700,4.1993408203125,-8.562246735998988,-4.777767360007763,0.17677768575027583
1633782740736220000,4.219219970703125,-8.601745218172669,-4.703147587831318,0.24651774132745338
1633782740756098800,4.239098876953125,-8.602460088443756,-4.695391859138011,0.3483681415883824
1633782740775977700,4.258977783203125,-8.573372525647281,-4.743030393147468,0.4139180337330326
1633782740795856600,4.278856689453125,-8.532163732424378,-4.816061434827745,0.4220364947915077
1633782740815735800,4.29873583984375,-8.498986854487658,-4.875930797117948,0.40362102305907754
1633782740835614700,4.31861474609375,-8.488950029119849,-4.8932493039265275,0.40524431341197337
1633782740855492900,4.338492919921875,-8.506101070407032,-4.8601586429685355,0.44213703353405
1633782740875371800,4.358371826171875,-8.538107735520601,-4.797894494496286,0.5013084036227315
1633782740895250700,4.378250732421875,-8.572434952536225,-4.731034250405431,0.5486908074466511
1633782740915129600,4.398129638671875,-8.603723824769258,-4.674793015484512,0.5409568156611174
1633782740935012400,4.418012451171875,-8.630774328780173,-4.632637296800315,0.4677485542504117
1633782740954891300,4.437891357421875,-8.646245454156398,-4.611867188233137,0.37881968621443957
1633782740974770400,4.4577705078125,-8.652872178819775,-4.60398169568032,0.3186516332386061
1633782740994649300,4.4776494140625,-8.656339562669396,-4.600328726130724,0.2741166730013676
1633782741014528300,4.4975283203125,-8.656236686816811,-4.603706385870278,0.21408035664642228
1633782741034407400,4.517407470703125,-8.650390298876166,-4.617062418788671,0.15450203145835548
1633782741054286300,4.537286376953125,-8.640937410876154,-4.6358436916261905,0.11636136623495258
1633782741074165200,4.557165283203125,-8.629895207858086,-4.656941424712539,0.09049382493090816
1633782741094044200,4.577044189453125,-8.622308698251842,-4.67149397393912,0.0575994354636874
1633782741113923300,4.59692333984375,-8.620726397496462,-4.6746945235460995,0.026249364245461763
1633782741133802500,4.616802490234375,-8.620669698873161,-4.674776356610655,0.030096230665652545
1633782741153681200,4.63668115234375,-8.614569043910503,-4.685476322062313,0.07682169353435747
1633782741173560300,4.656560302734375,-8.593893920150398,-4.722191895519197,0.12754960839389823
1633782741193439200,4.676439208984375,-8.557471192160248,-4.7869551673308015,0.15854074892252681
1633782741213318400,4.696318359375,-8.508033499774337,-4.872936583738029,0.19554916784614323
1633782741233196300,4.7161962890625,-8.45021142540276,-4.970024208310246,0.25132547040274367
1633782741253075500,4.736075439453125,-8.400393793788552,-5.050967046028376,0.30249259866345674
1633782741272954000,4.7559541015625,-8.379077449515462,-5.0857051819324495,0.3115232426634058
1633782741292833300,4.775833251953125,-8.391160686019063,-5.067169992810488,0.2873908911215141
1633782741312712400,4.79571240234375,-8.41615718010962,-5.025703425434232,0.2845866656220518
1633782741332591400,4.81559130859375,-8.433778176996112,-4.9931619227916,0.3318129107698798
1633782741352470300,4.83547021484375,-8.41900789336562,-5.010679459303617,0.42868992479871953
1633782741372349200,4.85534912109375,-8.358550794315338,-5.101296718817949,0.5308391801420599
1633782741392228400,4.875228271484375,-8.2677014796108,-5.241908135557174,0.5812877666035666
1633782741412107300,4.895107177734375,-8.18733790308535,-5.370796965798736,0.5407538039023057
1633782741431986400,4.914986328125,-8.148091934368013,-5.439686377629638,0.4345089498084038
1633782741451865300,4.934865234375,-8.16098765629828,-5.426937955215573,0.34206392687764015
1633782741471744300,4.954744140625,-8.210954340994357,-5.353363600438833,0.30349839643882587
1633782741491623400,4.97462353515625,-8.274933184430003,-5.25366579336822,0.3079937898956239
1633782741511502300,4.99450244140625,-8.330186285096406,-5.163414444556832,0.3428311118578538
1633782741531381200,5.01438134765625,-8.366964402395487,-5.1001457952171565,0.3909042013596743
1633782741551260200,5.03426025390625,-8.385601882848142,-5.066675487291812,0.42527982409428805
1633782741571139300,5.054139404296875,-8.391752222171425,-5.055959447488188,0.43145595544595267
1633782741591018200,5.074018310546875,-8.393598142299055,-5.055535669118166,0.3993156174827367
1633782741610897400,5.0938974609375,-8.397231530365348,-5.0536798121184106,0.3423626540958881
1633782741630775300,5.113775390625,-8.402546587908267,-5.047442379033566,0.30152981804590673
1633782741650654200,5.133654296875,-8.411239597451686,-5.033238497114181,0.2965554454331286
1633782741670533400,5.153533447265625,-8.42305921458304,-5.0113499059110875,0.3298795315545052
1633782741690412300,5.173412353515625,-8.43486304962337,-4.988165429678559,0.3763904863061383
1633782741710291500,5.19329150390625,-8.439756082361937,-4.9773915222078555,0.40801600661501286
1633782741730170400,5.21317041015625,-8.433917293205857,-4.986677821469307,0.4152943270549178
1633782741750049300,5.23304931640625,-8.414369127649069,-5.02190052601993,0.3863809517815709
1633782741769928200,5.25292822265625,-8.379089139953255,-5.085413505509496,0.31593240087516605
1633782741789807400,5.272807373046875,-8.335507772380113,-5.161274509918689,0.22569725427990778
1633782741809686500,5.2926865234375,-8.312804357662797,-5.2007133708596225,0.14230758966524154
1633782741829565200,5.312565185546875,-8.347369475087524,-5.146381476691365,0.08097801862936467
1633782741849444400,5.3324443359375,-8.444786477744579,-4.985502347949147,0.02702785607097903
1633782741869323300,5.3523232421875,-8.562631351402402,-4.78034568606317,-0.004657041158759966
1633782741889202400,5.372202392578125,-8.658443841472268,-4.604524131993949,-0.00923686948750983
1633782741909081300,5.392081298828125,-8.71537978065908,-4.495835209216177,0.0017468037097773048
1633782741928957000,5.41195703125,-8.737782166603207,-4.4521141409114,-0.014880797083547804
1633782741948836000,5.431836181640625,-8.734739145645499,-4.457360809393227,-0.08155793740916997
1633782741968715000,5.451715087890625,-8.71489404296875,-4.493291369952261,-0.17702497504223136
1633782741988594200,5.47159423828125,-8.684293152999878,-4.5484886487782,-0.2543322327369824
1633782742008472000,5.49147216796875,-8.650416017839312,-4.611308093045651,-0.27663187069268896
1633782742028351000,5.51135107421875,-8.617708510980009,-4.673757242695987,-0.24794753666855393
1633782742048230100,5.531230224609375,-8.589591254520416,-4.72779921400696,-0.19290910166613756
1633782742068109000,5.551109130859375,-8.570529995697736,-4.764478839367627,-0.12703402355457655
1633782742087988200,5.57098828125,-8.566790809169412,-4.772516015350818,-0.05970916219323408
1633782742107867000,5.590866943359375,-8.577787419480085,-4.7530973213925956,-0.0039041704003888295
1633782742127746000,5.61074609375,-8.596344235911966,-4.719205280923843,0.048499699149746445
1633782742147625000,5.630625,-8.612992588374018,-4.687619763831794,0.11383302593426778
1633782742167504100,5.650504150390625,-8.624854291081428,-4.663488654398918,0.18479705208213998
1633782742187383300,5.67038330078125,-8.628717396250366,-4.653663718216121,0.24297860741587354
1633782742207262000,5.690261962890625,-8.623291279548406,-4.661518815630674,0.28190162778915834
1633782742227141000,5.71014111328125,-8.605094528600572,-4.693933769284189,0.2995397767398506
1633782742247020000,5.73002001953125,-8.576293381530046,-4.747097788716852,0.28745851299762726
1633782742266899200,5.749899169921875,-8.54441063505709,-4.8072377846419805,0.23215401093754917
1633782742286777900,5.76977783203125,-8.514374393233656,-4.863638301777839,0.1443360267529264
1633782742306657000,5.789656982421875,-8.485394966986775,-4.915910925328731,0.04775671702902764
1633782742326536200,5.8095361328125,-8.454189096862077,-4.969495216000079,-0.03453468803713331
1633782742346415000,5.8294150390625,-8.416205695426463,-5.032912333899736,-0.08752217044266872
1633782742366293000,5.84929296875,-8.371018061700463,-5.107274624183773,-0.11039962655263952
1633782742386172200,5.869172119140625,-8.31581639896035,-5.196824546727538,-0.10295542976022698
1633782742406051000,5.889051025390625,-8.257683358943462,-5.289184850516915,-0.07464506644790526
1633782742425930000,5.908929931640625,-8.208519222801923,-5.365544452098011,-0.03912515534926206
1633782742445809200,5.92880908203125,-8.175005660256742,-5.41657379758954,0.019810682100628037
1633782742465688000,5.94868798828125,-8.150383260175586,-5.452380439507961,0.11483011068021878
1633782742485567000,5.96856689453125,-8.123644890853763,-5.4888779862999915,0.22136395604964346
1633782742505446000,5.98844580078125,-8.084132380154728,-5.542692578595877,0.30943142148330804
1633782742525325000,6.008324951171875,-8.028840116521716,-5.618194686564803,0.379472085708566
1633782742545204200,6.028204345703125,-7.9643667675673955,-5.704694573888182,0.4423803773032501
1633782742565083100,6.048083251953125,-7.915521195855736,-5.77049712561965,0.46505003588143734
1633782742584962000,6.067962158203125,-7.901110977709293,-5.792564580520987,0.4347721307892352
1633782742604841000,6.087841064453125,-7.932738872638344,-5.754094856873154,0.3639114919506013
1633782742624720100,6.10772021484375,-8.007941120877861,-5.653807851737738,0.27877361369542775
1633782742644599000,6.12759912109375,-8.113472456407546,-5.504153881365061,0.21503067964119835
1633782742664478000,6.14747802734375,-8.22124543338418,-5.342279896366596,0.20384157896572722
1633782742684357000,6.167357177734375,-8.311089370438456,-5.2002895924896,0.23057403000341728
1633782742704236000,6.187236083984375,-8.37568722255528,-5.0942117289930575,0.2593355209169909
1633782742724114200,6.2071142578125,-8.417882688727975,-5.022788414770364,0.2850039411860518
1633782742743993000,6.2269931640625,-8.447908409157394,-4.971086284583807,0.3025434886004776
1633782742763872300,6.246872314453125,-8.482747667348384,-4.912232529076934,0.28869126966297626
1633782742783751000,6.2667509765625,-8.527455993124843,-4.837944180811942,0.21720216019507496
1633782742803630000,6.286630126953125,-8.580265792292357,-4.747479481510818,0.1042116221000906
1633782742823509000,6.306509033203125,-8.634955998378992,-4.648410327732563,-0.014029253721551503
1633782742843388200,6.32638818359375,-8.685674378225206,-4.551574339833856,-0.1123167487529572
1633782742863267000,6.34626708984375,-8.726040290883184,-4.470712458397448,-0.1983384697711095
1633782742883146000,6.36614599609375,-8.753973422947526,-4.410483322884142,-0.2932112678380683
1633782742903025200,6.386025146484375,-8.769402462747692,-4.3716582099273795,-0.3956831061992794
1633782742922904600,6.405904541015625,-8.771822967892884,-4.358295455007255,-0.4803817893195897
1633782742942783500,6.425783447265625,-8.76580706860423,-4.36636127256304,-0.515653812904656
1633782742962662400,6.445662353515625,-8.759488971498609,-4.383040604685247,-0.48031007579024876
1633782742982541600,6.46554150390625,-8.757818992459773,-4.394514769379795,-0.399035010443069
1633782743002420700,6.485420654296875,-8.76278742852211,-4.3915293238282205,-0.31369452228788286
1633782743022299600,6.505299560546875,-8.765067648413776,-4.391357766653597,-0.2448474152287468
1633782743042177800,6.525177734375,-8.74835382950008,-4.4281791385725136,-0.1671022227744572
1633782743062056400,6.545056396484375,-8.704044147652388,-4.517208544373512,-0.06945643459651618
1633782743081935600,6.564935546875,-8.639989900892973,-4.6390506709739565,0.012997756390989525
1633782743101814500,6.584814453125,-8.568350313571095,-4.769679622881114,0.06254463221433107
1633782743121693700,6.604693603515625,-8.501016899010539,-4.887927232120931,0.10614889203929341
1633782743141572400,6.624572265625,-8.451798402333258,-4.971235337665677,0.15590610783630982
1633782743161451500,6.644451416015625,-8.43583160239458,-4.9970583457082505,0.19113916938416659
1633782743181330700,6.66433056640625,-8.451644088554382,-4.969236857324838,0.21628436949672175
1633782743201209600,6.684209716796875,-8.488245095720886,-4.904783966636657,0.25134357231501486
1633782743221088800,6.7040888671875,-8.53479115831852,-4.8221290643036365,0.27349247668841853
1633782743240967400,6.723967529296875,-8.584820971378683,-4.733903960622847,0.24776587822502477
1633782743260846600,6.7438466796875,-8.632882699236273,-4.6495106901898975,0.16053857167623936
1633782743280725500,6.7637255859375,-8.675973068422078,-4.571363912931084,0.022548089441575575
1633782743300604700,6.783604736328125,-8.701490956038237,-4.520744609545171,-0.1315610542586539
1633782743320483600,6.803483642578125,-8.70245366359055,-4.512628523106873,-0.2717858189010061
1633782743340362500,6.823362548828125,-8.681108093222976,-4.5461263035610315,-0.376140858926624
1633782743360241700,6.84324169921875,-8.648860020568966,-4.6017017680495975,-0.4381102622359991
1633782743380119600,6.86311962890625,-8.615071148213744,-4.661837672321498,-0.4671250155245885
1633782743399998700,6.882998779296875,-8.588746620389818,-4.710003445075452,-0.46870296889841556
1633782743419877600,6.902877685546875,-8.572623753106594,-4.740325225841999,-0.45806496276706454
1633782743439756500,6.922756591796875,-8.563967568442225,-4.7566941768407816,-0.45022794899847357
1633782743459635500,6.942635498046875,-8.559009069252014,-4.765414366652071,-0.45230227105449883
1633782743479514600,6.9625146484375,-8.563012459674477,-4.756223636719584,-0.4727928320279345
1633782743499393500,6.9823935546875,-8.582970959597825,-4.71642383351177,-0.5082698766658083
1633782743519272400,7.0022724609375,-8.623571850055455,-4.6366821882769464,-0.5527824241418391
1633782743539151600,7.022151611328125,-8.679501827070116,-4.52610847466588,-0.5924293748755007
1633782743559030500,7.042030517578125,-8.745257032528519,-4.392128166504204,-0.6325142786350101
1633782743578909700,7.06190966796875,-8.824452734318376,-4.218416736456752,-0.7101941690344363
1633782743598788600,7.08178857421875,-8.918611027440429,-3.997364001780748,-0.8061295548316091
1633782743618667500,7.10166748046875,-9.012182460585237,-3.7719714843347667,-0.8503981740165502
1633782743638546400,7.12154638671875,-9.085436497366429,-3.6038036598891017,-0.7986392721414566
1633782743658425600,7.141425537109375,-9.11680369553268,-3.5505212747737764,-0.6693795627608895
1633782743678304800,7.1613046875,-9.09598653295338,-3.6276664737746116,-0.52291730110161
1633782743698182700,7.1811826171875,-9.030002779436112,-3.802409584957361,-0.41365781189426776
1633782743718061600,7.2010615234375,-8.940672052600979,-4.013061337128281,-0.3606985577860847
1633782743737940500,7.2209404296875,-8.850266974532603,-4.209840923552215,-0.3469853454604745
1633782743757819600,7.240819580078125,-8.779550347274542,-4.35519895029664,-0.3494600284783169
1633782743777698600,7.260698486328125,-8.7344387013942,-4.446103794580698,-0.33484895399753
1633782743797577700,7.28057763671875,-8.708131124705076,-4.50087524921,-0.2845408537189476
1633782743817456400,7.300456298828125,-8.69021845139563,-4.539702407993376,-0.20393908452345058
1633782743837335600,7.32033544921875,-8.677969210675359,-4.566166636548936,-0.1155537579128053
1633782743857214500,7.34021435546875,-8.672132759606837,-4.5784649771079415,-0.04643620901498943
1633782743877093600,7.36009375,-8.675819339165091,-4.57166172683388,-0.021272370417334603
1633782743896972500,7.37997265625,-8.686330211785435,-4.551478185983002,-0.045823817304265685
1633782743916851500,7.3998515625,-8.699024273663758,-4.526216903476417,-0.10355883901347405
1633782743936734200,7.419734130859375,-8.707944662222266,-4.507438845509291,-0.15835611307062208
1633782743956613000,7.439613037109375,-8.711793738865852,-4.499098887187242,-0.1820551512291655
1633782743976492300,7.4594921875,-8.708232246991992,-4.506740926373005,-0.1623647459237836
1633782743996370200,7.4793701171875,-8.695051278379559,-4.533425811941921,-0.120496456745686
1633782744016249000,7.4992490234375,-8.669806362485884,-4.58207819916904,-0.09696243642312474
1633782744036128000,7.5191279296875,-8.630570915162563,-4.655702238306403,-0.08982653839490376
1633782744056007200,7.539007080078125,-8.580809397649764,-4.747156825427711,-0.06783197976641822
1633782744075886300,7.55888623046875,-8.532358962735533,-4.834135436178744,-0.01925029685506597
1633782744095765000,7.578764892578125,-8.496905956560372,-4.895820615719258,0.06260470553822815
1633782744115644200,7.59864404296875,-8.482427349352836,-4.918807815814018,0.15536303220186382
1633782744135523000,7.618523193359375,-8.492169575688242,-4.89943646812886,0.22127474339623002
1633782744155402200,7.63840234375,-8.519284961628914,-4.850352703747153,0.2573831447402015
1633782744175281200,7.65828125,-8.551004626494645,-4.792399111950397,0.28916529864920304
1633782744195160000,7.67816015625,-8.5837092107445,-4.731423541983962,0.3224206303833052
1633782744215039200,7.698039306640625,-8.617578747120499,-4.667051023055612,0.3554674521995708
1633782744234918100,7.717918212890625,-8.654945477962494,-4.597745139378309,0.35076720208674667
1633782744254797300,7.73779736328125,-8.695753873690963,-4.524518282864988,0.2880698498290032
1633782744274676000,7.757676025390625,-8.733428063046931,-4.455836668565869,0.20769449153421446
1633782744294554000,7.77755419921875,-8.759603537788987,-4.405199245001375,0.18425958420457317
1633782744314433000,7.79743310546875,-8.77147693093419,-4.378422881756722,0.2469704352647066
1633782744334312200,7.817312255859375,-8.772042748123408,-4.371342568106949,0.33617727999184277
1633782744354191000,7.837191162109375,-8.768304146116972,-4.375826435522735,0.3733282491913065
1633782744374070300,7.8570703125,-8.76008167669475,-4.39372887969911,0.35566984290387477
1633782744393949000,7.876948974609375,-8.744905734872818,-4.425945680432021,0.32864717674795535
1633782744413828000,7.896828125,-8.723983942875266,-4.46847870799601,0.30851686392165717
1633782744433707300,7.916707275390625,-8.702756445929408,-4.511407164618372,0.2821636579925194
1633782744453586200,7.936586181640625,-8.678094882881641,-4.560799264296889,0.24527241744147613
1633782744473465000,7.956465087890625,-8.643915549904108,-4.627107427462935,0.20732262601451948
1633782744493344000,7.976343994140625,-8.59801304590702,-4.713499470497667,0.16574434189209714
1633782744513223200,7.99622314453125,-8.543977504336834,-4.812253566977382,0.11424603631510398
1633782744533102000,8.01610205078125,-8.488638478952646,-4.910246908217668,0.05364287529105786
1633782744552980200,8.035980224609375,-8.443992697018384,-4.986897017177939,-0.014970067960821324
1633782744572859100,8.055859130859375,-8.416934594222903,-5.032005740448832,-0.06720055912823882
1633782744592738000,8.075738037109375,-8.405359891763329,-5.051166952514648,-0.07763591426038183
1633782744612617200,8.0956171875,-8.397867490181326,-5.063949861720204,-0.05124301564167253
1633782744632496000,8.11549609375,-8.384307166862488,-5.086626972952485,-0.0009557711355093488
1633782744652375300,8.135375244140626,-8.360987081551551,-5.124367797803878,0.07162184160263277
1633782744672254200,8.155254150390626,-8.343191312620043,-5.151726929372549,0.14576919222804716
1633782744692133000,8.175133056640625,-8.356860941532254,-5.127406727108359,0.20728050390584393
1633782744712012000,8.195011962890625,-8.409601182594894,-5.036438169938325,0.28858671330995855
1633782744731891200,8.21489111328125,-8.471075934255122,-4.92255167851746,0.4239598640695214
1633782744751770400,8.234770263671875,-8.507958680972456,-4.83940197840482,0.6043309346692636
1633782744771649000,8.25464892578125,-8.496945704048871,-4.834955228129029,0.7716873331341892
1633782744791528200,8.274528076171874,-8.437823068472742,-4.920094348493218,0.8753283248726278
1633782744811406000,8.294406005859376,-8.348484742853046,-5.067137844106555,0.892915857880935
1633782744831285200,8.31428515625,-8.264004963180422,-5.218123355343938,0.8048565392211079
1633782744851164200,8.3341640625,-8.208951769000292,-5.3236891776651145,0.6647033876433969
1633782744871043300,8.354043212890625,-8.197196449276804,-5.3547214447885745,0.5507419312901795
1633782744890922000,8.373921875,-8.224549735626578,-5.317762125703692,0.49857309690732504
1633782744910801200,8.39380126953125,-8.269519342687726,-5.247560462230443,0.498538062126562
1633782744930676500,8.413676513671875,-8.308177282384037,-5.184502240771055,0.5152730699587613
1633782744950555400,8.433555419921875,-8.329227669197321,-5.149752414429187,0.523827401683852
1633782744970434300,8.453434326171875,-8.33433814407885,-5.141957815030217,0.5190974505525082
1633782744990313200,8.473313232421875,-8.336046701562404,-5.141277431550622,0.49796676504462956
1633782745010192400,8.4931923828125,-8.343750115546584,-5.130432212409377,0.48049968007821586
1633782745030071600,8.513071533203124,-8.363987432411312,-5.097741072162986,0.4765804973404854
1633782745049949400,8.532949462890626,-8.397410978585482,-5.042497323846817,0.4765479833103716
1633782745069828600,8.55282861328125,-8.436893678668142,-4.975125330841541,0.48717418940607454
1633782745089707300,8.572707275390625,-8.470841540977359,-4.912393857118487,0.5325522311376407
1633782745109586400,8.59258642578125,-8.488899760237336,-4.87223544973135,0.6085114352243021
1633782745129465300,8.61246533203125,-8.484242289820314,-4.869837740939856,0.6875313785884529
1633782745149344500,8.632344482421875,-8.458452015003562,-4.90403402505219,0.7585706619296223
1633782745169223400,8.652223388671874,-8.418424540519714,-4.959526779693364,0.8388110504668206
1633782745189102300,8.672102294921874,-8.379195522937177,-5.012753342968225,0.9120144530393183
1633782745208981500,8.6919814453125,-8.347733632224799,-5.05315841859281,0.9753534642014652
1633782745228860400,8.7118603515625,-8.331129703426361,-5.06783576324284,1.0390914846185595
1633782745248739600,8.731739501953125,-8.351294539576768,-5.027388017520308,1.0731425881065428
1633782745268618200,8.7516181640625,-8.414462066629529,-4.927113871866465,1.0443958015717565
1633782745288497400,8.771497314453125,-8.476288115945458,-4.827342707298696,1.0097945168551057
1633782745308375300,8.791375244140625,-8.498806237223745,-4.788216857829689,1.006803079954162
1633782745328254500,8.81125439453125,-8.48290490373671,-4.819434710653126,0.9918435573618859
1633782745348133400,8.83113330078125,-8.451253043410182,-4.888392219284176,0.9221337690588086
1633782745368012500,8.851012451171876,-8.419153439316153,-4.961240013352036,0.8211814318824558
1633782745387891200,8.87089111328125,-8.397062019017339,-5.011614109805226,0.7371944772280752
1633782745407770400,8.890770263671875,-8.388668284681438,-5.030787596830725,0.7012902201540768
1633782745427649500,8.9106494140625,-8.388907354134322,-5.028993699151277,0.7112245349954813
1633782745447528400,8.930528564453125,-8.387458324369788,-5.026540460780263,0.7448594588980079
1633782745467407400,8.950407470703125,-8.381510229620337,-5.0331356212615965,0.7669540210019796
1633782745487286300,8.970286376953124,-8.370759118503331,-5.0515112359076735,0.7635504961688071
1633782745507165400,8.99016552734375,-8.353435058736801,-5.082575651735067,0.7469484670665115
1633782745527043300,9.010043212890626,-8.327806111961603,-5.126947292903066,0.7296849783807993
1633782745546922500,9.029922607421875,-8.30046860770285,-5.172369319906831,0.7205587650518864
1633782745566801400,9.049801513671875,-8.282665824508667,-5.202113300785422,0.7112291381053626
1633782745586680300,9.069680419921875,-8.2799548119843,-5.2089562985479825,0.6924689080558717
1633782745606559500,9.0895595703125,-8.287591590473056,-5.20054970473051,0.6636942836660892
1633782745626438400,9.1094384765625,-8.298897412863374,-5.186024920293688,0.6354778046157211
1633782745646317600,9.129317626953124,-8.313428042519092,-5.166915730676054,0.6002295637650414
1633782745666196200,9.1491962890625,-8.3290984898597,-5.146160527417063,0.559940442670323
1633782745686075400,9.169075439453126,-8.338096035307645,-5.134199455988407,0.5352952827680856
1633782745705954300,9.188954345703126,-8.333917288318275,-5.139631417909264,0.5480842929208651
1633782745725833500,9.20883349609375,-8.315345858839153,-5.165370254799723,0.5868219833225011
1633782745745712600,9.228712646484375,-8.294656706553697,-5.196294385373592,0.6062796941168606
1633782745765590500,9.248590576171875,-8.283765310183167,-5.213704954379796,0.6057239964628591
1633782745785469200,9.26846923828125,-8.29140618032515,-5.202375751113891,0.5985415010802447
1633782745805348400,9.288348388671874,-8.324737956562638,-5.150283744826913,0.5862539741761982
1633782745825227500,9.3082275390625,-8.387333821207285,-5.049416309455037,0.5713213030582294
1633782745845106400,9.3281064453125,-8.460832772660256,-4.925087334474921,0.5728908904625103
1633782745864985300,9.3479853515625,-8.520757956790924,-4.815352994297444,0.6159893333569169
1633782745884864300,9.3678642578125,-8.554298991864918,-4.747594632323086,0.6743151194669306
1633782745904743400,9.387743408203125,-8.553092538684606,-4.744653025913238,0.7094058682009577
1633782745924626000,9.4076259765625,-8.508253864526749,-4.82411760777235,0.7126688885848969
1633782745944504800,9.4275048828125,-8.422324470567704,-4.9746816787272685,0.6981213808596134
1633782745964383700,9.4473837890625,-8.315773144340515,-5.1551031278073784,0.6657390873666852
1633782745984261600,9.46726171875,-8.222109941259026,-5.31041877720356,0.6055953651145101
1633782746004140800,9.487140869140624,-8.164944284969568,-5.404804449340701,0.5405213468533009
1633782746024019700,9.507019775390624,-8.153854735678435,-5.42494765818119,0.5049512536371127
1633782746043899000,9.52689892578125,-8.178565983086823,-5.386793576353788,0.513707501142472
1633782746063778000,9.546778076171876,-8.218997362196445,-5.320830865624547,0.554278873244673
1633782746083656700,9.56665673828125,-8.259521680286527,-5.252297427624463,0.6033705286718904
1633782746103535900,9.586535888671875,-8.292882098096609,-5.194677597826719,0.6432885514318942
1633782746123414800,9.606414794921875,-8.311029164683818,-5.163284680697322,0.6615716654889285
1633782746143294000,9.6262939453125,-8.307413896796106,-5.171642174676061,0.6413875401161611
1633782746163172600,9.646172607421875,-8.278701597052812,-5.224682859990001,0.5798058574827387
1633782746183051800,9.6660517578125,-8.230693060687184,-5.308931168994307,0.49124699180293824
1633782746202929700,9.6859296875,-8.170227193808556,-5.409626170408726,0.3920632352016866
1633782746222808800,9.705808837890626,-8.097920082488656,-5.522787854686379,0.30477155817979945
1633782746242687700,9.725687744140625,-8.011390384548902,-5.649786925658583,0.2606042439448647
1633782746262567000,9.74556689453125,-7.9126465172022575,-5.787397991538048,0.25775753101054577
1633782746282445800,9.76544580078125,-7.8042855112046,-5.9326212859869,0.2598415159440599
1633782746302324700,9.78532470703125,-7.693301755487918,-6.07602028761804,0.25585514972163365
1633782746322204000,9.805203857421875,-7.5963354192078105,-6.195774209767579,0.28009224027963353
1633782746342082800,9.825082763671874,-7.542448346197605,-6.257285786306857,0.358094878093712
1633782746361961700,9.844961669921876,-7.5598746972948305,-6.228902572387456,0.46845940593350677
1633782746381840600,9.864840576171876,-7.659121837988495,-6.101126087301969,0.5333848825694992
1633782746401719800,9.8847197265625,-7.804764819154143,-5.914537932285666,0.5237022044016048
1633782746421597700,9.90459765625,-7.939396576961874,-5.733836497220397,0.5093920490961522
1633782746441476900,9.924476806640625,-8.018586433532834,-5.618317436161637,0.5542291523514316
1633782746461356000,9.94435595703125,-8.03862150582373,-5.58123536747992,0.6330589069057255
1633782746481234700,9.964234619140624,-8.025864315581321,-5.597901255598664,0.6476016653906553
1633782746501113900,9.98411376953125,-7.993232212045788,-5.651985312485695,0.5776584336578846
1633782746520992800,10.00399267578125,-7.944795805656909,-5.726815220281481,0.5041760314809158
1633782746540872000,10.023871826171876,-7.902804337623715,-5.789017701694369,0.45093043471202254
1633782746560750800,10.043750732421875,-7.884809246727824,-5.816474448418617,0.41084048945121465
1633782746580629800,10.063629638671875,-7.884899263098835,-5.817250108966231,0.39792262875437734
1633782746600509000,10.083509033203125,-7.885069943490624,-5.816403721269965,0.4068139738814905
1633782746620387800,10.103387939453125,-7.875641605409979,-5.829264371886849,0.40538328349124636
1633782746640265700,10.123265625,-7.853510437622666,-5.861177513498068,0.3733126497633755
1633782746660145000,10.143144775390626,-7.822257221224904,-5.905870641705394,0.3215157539654523
1633782746680023800,10.16302392578125,-7.790152356433868,-5.950148759371042,0.28221555257653813
1633782746699902700,10.18290283203125,-7.770645107409358,-5.976587268963455,0.26050430896803733
1633782746719782000,10.202781982421875,-7.771436550047993,-5.976383855345845,0.24079839556626975
1633782746739660800,10.222660888671875,-7.790207301491498,-5.952784368571638,0.21776037859972566
1633782746759540000,10.2425400390625,-7.816554041147231,-5.91910012563467,0.19006441629212348
1633782746779418600,10.262418701171875,-7.842585138982534,-5.885189672726392,0.16965234564868734
1633782746799297800,10.2822978515625,-7.862329119372367,-5.858668745547533,0.17366448563318698
1633782746819177000,10.302177001953124,-7.876900665560364,-5.838381744322181,0.19525065982360393
1633782746839056000,10.322055908203126,-7.884426384890079,-5.826705335053801,0.23600986438179386
1633782746858934000,10.34193408203125,-7.881251846507191,-5.8283858354866505,0.29355324967615304
1633782746878812700,10.361812744140625,-7.872073683795333,-5.837964395692945,0.3449894954681396
1633782746898691800,10.38169189453125,-7.872136227637529,-5.835020743456482,0.39036921770013866
1633782746918570800,10.40157080078125,-7.890256990739703,-5.804353217992186,0.472980865413323
1633782746938446300,10.4214462890625,-7.934971746256947,-5.732044353106618,0.5918407247999683
1633782746958325500,10.441325439453125,-8.028936562633515,-5.592880797088146,0.652876683184132
1633782746978204200,10.4612041015625,-8.182036289545893,-5.373189998415112,0.5945530890312045
1633782746998083300,10.481083251953125,-8.354751986554264,-5.111336466795206,0.4926863038910553
1633782747017962200,10.500962158203125,-8.509339321675895,-4.853053779399395,0.45760490750726307
1633782747037841400,10.52084130859375,-8.6289704942286,-4.63159187940061,0.5095149082908407
1633782747057720000,10.540719970703124,-8.707243820476531,-4.474491100153327,0.5772540175754577
1633782747077598200,10.56059814453125,-8.741925842279196,-4.401064629414678,0.6162331520501524
1633782747097477000,10.58047705078125,-8.741447118851543,-4.4057451884463426,0.5889752888988703
1633782747117356300,10.600356201171875,-8.717040991869569,-4.466970056998729,0.4793302344400435
1633782747137235200,10.620235107421875,-8.680164674893021,-4.551717255435884,0.3271023219261318
1633782747157114400,10.6401142578125,-8.647668180435895,-4.62086034976691,0.18938200525222346
1633782747176993300,10.6599931640625,-8.634410054934024,-4.6489241224735975,0.06966525047502946
1633782747196872200,10.6798720703125,-8.635673206737637,-4.647069726778566,-0.01651445014189812
1633782747216751400,10.69975146484375,-8.642015269240737,-4.634993796798587,-0.05283803888130933
1633782747236630300,10.71963037109375,-8.648450270724297,-4.622973688659072,-0.05294689695010893
1633782747256509200,10.73950927734375,-8.657475873222946,-4.6060073562890285,-0.05650366698307916
1633782747276388000,10.75938818359375,-8.672696823230385,-4.576536054871976,-0.1001445735905785
1633782747296266200,10.779266357421875,-8.691855697208643,-4.5375364621311425,-0.18108466222919523
1633782747316145200,10.799145263671875,-8.707202903944253,-4.505322291746736,-0.23889343872778115
1633782747336024300,10.8190244140625,-8.713263811418413,-4.493346022748947,-0.24343837041473015
1633782747355903500,10.838903564453124,-8.706711905556917,-4.507862916140258,-0.2066906299876049
1633782747375782100,10.8587822265625,-8.683983356398343,-4.553223568345606,-0.16424886090364307
1633782747395661300,10.878661376953126,-8.645023218885063,-4.627504610086977,-0.14198975588772444
1633782747415540200,10.898540283203126,-8.593242178243399,-4.722990644681453,-0.1411592872797977
1633782747435419400,10.91841943359375,-8.533082016313076,-4.830850423158705,-0.14063895320012235
1633782747455298300,10.93829833984375,-8.473498777487874,-4.935444477838278,-0.10767081351010128
1633782747475177200,10.95817724609375,-8.429615796619654,-5.0109080073624845,-0.05253142518412787
1633782747495056400,10.978056396484375,-8.415433542010188,-5.034892109540104,-0.026891198963089846
1633782747514934300,10.997934326171874,-8.41870978720188,-5.0288265258908265,-0.08130473896623588
1633782747534813200,11.017813232421876,-8.395390870934724,-5.066555075782537,-0.13349154739719815
1633782747554692400,11.0376923828125,-8.326771508216858,-5.177720033285022,-0.16269556704703717
1633782747574571300,11.0575712890625,-8.242160795640945,-5.309067947116493,-0.22574975165212527
1633782747594450200,11.0774501953125,-8.179316509193182,-5.3990428170740605,-0.34569530564993617
1633782747614329300,11.097329345703125,-8.151417863920331,-5.432688481566309,-0.45899186835363504
1633782747634208300,11.117208251953125,-8.156255951601267,-5.4208273633807895,-0.5103992168447002
1633782747654087400,11.13708740234375,-8.194858946239949,-5.367219107311963,-0.45566615799702703
1633782747673966000,11.156966064453124,-8.272308096623421,-5.260917956453562,-0.24909694416569544
1633782747693845200,11.17684521484375,-8.375705342733859,-5.100311799433827,0.06897406704020687
1633782747713724400,11.196724365234376,-8.477344347000122,-4.912796008178591,0.4116473488546908
1633782747733602300,11.216602294921875,-8.558869368520378,-4.734200313220918,0.7095669039815664
1633782747753481500,11.2364814453125,-8.6152833296597,-4.595703404417634,0.9092812286831438
1633782747773360000,11.256360107421875,-8.649446880546211,-4.50948204177469,1.0109530392404644
1633782747793239300,11.2762392578125,-8.661612534636259,-4.473877059908211,1.0636145890437065
1633782747813118200,11.2961181640625,-8.661072436410189,-4.463669846409559,1.109890310267359
1633782747832997400,11.315997314453124,-8.66464971037507,-4.446642723762989,1.1496049194097517
1633782747852876300,11.335876220703126,-8.685243585592508,-4.405033533045649,1.1543864545978606
1633782747872755200,11.355755126953126,-8.714695305526256,-4.3591850973233575,1.105429604531452
1633782747892634400,11.37563427734375,-8.729350438344477,-4.347764708642662,1.0323604958631099
1633782747912513300,11.39551318359375,-8.71610517232418,-4.387831638354063,0.9730540281526744
1633782747932392400,11.415392333984375,-8.68637814258039,-4.456893776403367,0.9237546482589095
1633782747952271000,11.43527099609375,-8.657458337566256,-4.525187268167734,0.8610906137488782
1633782747972149200,11.455149169921874,-8.632335002225638,-4.587232513192296,0.7813294600959867
1633782747992028200,11.475028076171874,-8.596488028296827,-4.667256774760783,0.6982084746211766
1633782748011907300,11.4949072265625,-8.536147249102592,-4.785943652200698,0.6319164588723332
1633782748031786200,11.5147861328125,-8.45088421009779,-4.944919577670097,0.5483688454832881
1633782748051665400,11.53466552734375,-8.342194118276238,-5.136041284462809,0.4463802240617573
1633782748071544000,11.5545439453125,-8.225195632314682,-5.328167784383893,0.3566096445046365
1633782748091423200,11.57442333984375,-8.147268927547335,-5.45202797280848,0.260351018102467
1633782748111302400,11.594302490234375,-8.150012673297525,-5.452227879294753,0.14452501911954022
1633782748131181300,11.614181396484375,-8.226058971145749,-5.338212793058156,0.07627946728328243
1633782748151060200,11.634060302734374,-8.329581889462471,-5.174786902442574,0.10014029014110565
1633782748170938400,11.6539384765625,-8.409359190532564,-5.042036720597744,0.17584500801004468
1633782748190817300,11.6738173828125,-8.429023091423511,-5.007209152844548,0.22316844818834214
1633782748210696200,11.6936962890625,-8.388837796029447,-5.074334477612376,0.2211723242013715
1633782748230575400,11.713575439453125,-8.317485793477296,-5.191583723464608,0.19305934205809608
1633782748250454300,11.733454345703125,-8.256881979432702,-5.289091327014565,0.14069959734617732
1633782748270333200,11.753333251953125,-8.239749642845988,-5.317210337039828,0.0646808268256951
1633782748290212400,11.77321240234375,-8.275421844729781,-5.261895861575007,-0.01495179023532546
1633782748310091300,11.79309130859375,-8.343714459711313,-5.152603712207078,-0.05904262000932358
1633782748329970400,11.812970458984376,-8.416705461642145,-5.032544669631124,-0.05422063407981768
1633782748349849300,11.832849365234376,-8.474432258945702,-4.935006086421013,-0.00986581618245691
1633782748369728300,11.852728271484375,-8.508098966225981,-4.876493691697717,0.049467375138122584
1633782748389606100,11.872606201171875,-8.520544606301188,-4.854196811954677,0.08646395749347284
1633782748409485300,11.8924853515625,-8.521839906808733,-4.851940265199541,0.08547089133551344
1633782748429364200,11.9123642578125,-8.518589965102077,-4.858150225755572,0.0487723831778625
1633782748449243400,11.932243408203124,-8.511091718301177,-4.871518241372704,0.003814894956538046
1633782748469122000,11.9521220703125,-8.499562608548999,-4.8915550672292705,-0.022451188955339603
1633782748489001200,11.972001220703126,-8.485473877441883,-4.9159156015038485,-0.029800996879010926
1633782748508880400,11.99188037109375,-8.468557813954353,-4.945038235613703,-0.022656874445138964
1633782748528759300,12.01175927734375,-8.448063307458161,-4.979989137485623,0.017926009998342488
1633782748548638500,12.031638427734375,-8.42281488443315,-5.021348737356067,0.112396389860427
1633782748568517000,12.05151708984375,-8.39073456956148,-5.069051568773388,0.265847624491062
1633782748588396300,12.071396240234375,-8.352854043978452,-5.120593539962172,0.42394729684889315
1633782748608274200,12.091274169921874,-8.32340992282927,-5.158856927382946,0.5267081447519362
1633782748628153300,12.1111533203125,-8.319011395609378,-5.161408949953318,0.5694657383194193
1633782748648032300,12.1310322265625,-8.337365382945537,-5.126534620448947,0.6143073716193437
1633782748667911200,12.1509111328125,-8.36354319577515,-5.072388019719719,0.7017180171120911
1633782748687790300,12.170790283203125,-8.387898469352722,-5.017144271403551,0.8011280202172696
1633782748707669200,12.190669189453125,-8.409735622629523,-4.970771227285265,0.859161180056259
1633782748727548400,12.21054833984375,-8.442969199189543,-4.918879127484559,0.8314341650232672
1633782748747427300,12.23042724609375,-8.502457745468616,-4.827299452678859,0.7588022056631744
1633782748767306200,12.25030615234375,-8.587841780504585,-4.67136421007961,0.773118973372504
1633782748787185200,12.27018505859375,-8.68153070254922,-4.4670860845938325,0.9200792476817965
1633782748807064300,12.290064208984376,-8.763212375935911,-4.259451342156529,1.110660417857021
1633782748826942200,12.309942138671875,-8.827100618478655,-4.090466356109083,1.2331944722443817
1633782748846821400,12.3298212890625,-8.875409014573693,-3.9719843535915014,1.2731236009202898
1633782748866700300,12.3497001953125,-8.907203498241305,-3.8945112378105518,1.2903075215637683
1633782748886579200,12.3695791015625,-8.926429007714987,-3.8368575057432053,1.3295776018090546
1633782748906458400,12.389458251953124,-8.943917318132518,-3.7869235542729496,1.3549682097837328
1633782748926337000,12.4093369140625,-8.953363191869855,-3.7718428895190357,1.3344915312051773
1633782748946216200,12.42921630859375,-8.932119912832976,-3.8310216391965746,1.3080122512109578
1633782748966094800,12.4490947265625,-8.88345495838523,-3.953963251471519,1.273102558132261
1633782748985974000,12.46897412109375,-8.82455619469285,-4.098086767984927,1.2260831789344548
1633782749005853200,12.488853271484375,-8.768185488173366,-4.236125411626697,1.1595490249928087
1633782749025732000,12.508732177734375,-8.712898485237359,-4.370139622057974,1.0759482201118022
1633782749045610000,12.52860986328125,-8.650482068812847,-4.512777576188743,0.9871093684468418
1633782749065489200,12.5484892578125,-8.56099469011128,-4.695037346611917,0.9145379071023315
1633782749085368000,12.5683681640625,-8.430691901418566,-4.928513801792263,0.896423135349527
1633782749105247000,12.5882470703125,-8.28668967319727,-5.165214771977067,0.9064867025937885
1633782749125126100,12.608126220703125,-8.175604210671782,-5.334948238304257,0.9317805721957236
1633782749145005000,12.628005126953125,-8.13127640864551,-5.39583437642157,0.9683496498540043
1633782749164884000,12.647884033203125,-8.1605954421103,-5.328561752137541,1.0869666038628667
1633782749184763000,12.667762939453125,-8.25052530388236,-5.143503290906549,1.282024992517382
1633782749204642000,12.68764208984375,-8.390936229613423,-4.86314291947633,1.453413240314275
1633782749224521200,12.707521240234374,-8.547821904805302,-4.542898281425237,1.5707313136190175
1633782749244400000,12.727400146484374,-8.685485577654838,-4.238778556483984,1.662974566899985
1633782749264278300,12.7472783203125,-8.790508379140496,-3.975544091899693,1.7585210995100438
1633782749284157000,12.767156982421875,-8.878106583094596,-3.7385584595546124,1.8365159010775387
1633782749304036000,12.7870361328125,-8.956239624089003,-3.533572478060424,1.8627990739777682
1633782749323915000,12.8069150390625,-9.001946313253045,-3.4195758042633533,1.8552233780264853
1633782749343794200,12.826794189453125,-8.993498802903295,-3.440855615918338,1.856846595314145
1633782749363673000,12.846673095703125,-8.937711449229717,-3.5768583698183294,1.8691667093135416
1633782749383552000,12.866552001953124,-8.866799591660499,-3.752734868945181,1.8620501553066073
1633782749403431200,12.88643115234375,-8.80711581507027,-3.9071515236750245,1.8273643341116605
1633782749423310000,12.90631005859375,-8.761989556142687,-4.025200103211403,1.7876472407512365
1633782749443189200,12.926189208984376,-8.72444162351489,-4.119457472793758,1.7562946556322276
1633782749463067100,12.946067138671875,-8.681923501259089,-4.221638913373649,1.7240530127190052
1633782749482946000,12.965946044921875,-8.624463830459117,-4.3607647677302355,1.6651536645047367
1633782749502825000,12.985824951171875,-8.559274442189931,-4.526606779576838,1.555323608867824
1633782749522704100,13.0057041015625,-8.50506295953095,-4.673609650918841,1.4112630745880306
1633782749542583000,13.0255830078125,-8.472969785177707,-4.774449906022847,1.258491118325293
1633782749562462200,13.045462158203126,-8.4488489048779,-4.849157064221799,1.1282801726344973
1633782749582340900,13.0653408203125,-8.41285521595478,-4.931823364731669,1.0350666860818862
1633782749602220000,13.085219970703125,-8.360446983325481,-5.037407891753316,0.9475393554069101
1633782749622099200,13.10509912109375,-8.293938913673163,-5.161327701410651,0.8611912245791405
1633782749641978000,13.12497802734375,-8.225183941876887,-5.2800961196541785,0.7983265529304743
1633782749661857000,13.14485693359375,-8.1773431632936,-5.360542113766074,0.7523508375667035
1633782749681735000,13.16473486328125,-8.19612209804356,-5.347769141432643,0.628755364492908
1633782749701614000,13.184614013671874,-8.283286002233623,-5.2288674521982665,0.46529845768455413
1633782749721493000,13.204492919921876,-8.390396715909242,-5.062282805290818,0.38068515129275615
1633782749741372200,13.2243720703125,-8.478724987703561,-4.9101878715068095,0.4143288795562461
1633782749761251000,13.2442509765625,-8.534406542915105,-4.805307108840346,0.4932733465313911
1633782749781130000,13.2641298828125,-8.565836869445443,-4.746793252812326,0.5145657984722405
1633782749801009200,13.284009033203125,-8.589065769341587,-4.71189992634654,0.4431020791739225
1633782749820888000,13.30388818359375,-8.613599906617402,-4.674689262849093,0.35150490524414923
1633782749840767200,13.323767333984375,-8.648025323310494,-4.613388698711991,0.31415340850390494
1633782749860645000,13.34364501953125,-8.68468010649085,-4.543225613683462,0.325295016775839
1633782749880524000,13.36352392578125,-8.703818522202969,-4.5060988290771835,0.3301547317666933
1633782749900403000,13.38340283203125,-8.689189692869782,-4.535273777896165,0.31568142178878184
1633782749920282000,13.4032822265625,-8.643345641061662,-4.623767177124321,0.289384329961054
1633782749940160800,13.423160888671875,-8.58533067446649,-4.733402440841496,0.23953922581803053
1633782749960040000,13.4430400390625,-8.535464527535439,-4.825441842113435,0.1770389487686567
1633782749979918600,13.462918701171875,-8.502737146931887,-4.884731066428125,0.1150969083902426
1633782749999797800,13.4827978515625,-8.487953419297932,-4.911448685222864,0.052033161372365425
1633782750019676700,13.5026767578125,-8.483976332360506,-4.918585697495937,-0.0067672353916539574
1633782750039555800,13.522555908203126,-8.482239133304358,-4.921330612289905,-0.050099718224909155
1633782750059435000,13.54243505859375,-8.474235859590769,-4.9349125629186625,-0.06594543993403204
1633782750079313000,13.56231298828125,-8.449898706191778,-4.976703539943695,-0.04495996701654512
1633782750099191600,13.582191650390625,-8.406396833595633,-5.050002000388503,-0.018719379732583183
1633782750119070700,13.60207080078125,-8.352844691628217,-5.138098801514506,-0.01763730641718721
1633782750138950000,13.621949951171874,-8.305129000729321,-5.2148623077213765,-0.020579431133554316
1633782750158828800,13.641828857421874,-8.279661381995677,-5.2552440024703735,0.0009054278320574666
1633782750178707700,13.661707763671876,-8.283657758155465,-5.248851671084761,0.0308389342251583
1633782750198586600,13.681586669921876,-8.316597320204973,-5.196296723461151,0.05564480796430725
1633782750218465800,13.7014658203125,-8.372175415042042,-5.105750775617361,0.0915077694801148
1633782750238344700,13.7213447265625,-8.452921853405236,-4.970272045591473,0.1220461521394085
1633782750258222800,13.741222900390625,-8.568160343956947,-4.768453295956552,0.1373279746217653
1633782750278101800,13.761101806640625,-8.708601080304383,-4.504098010648787,0.20917552387220784
1633782750297980700,13.780980712890624,-8.845000432306527,-4.219226883795857,0.3667055431159213
1633782750317859800,13.80085986328125,-8.935698940363526,-3.9954757038161155,0.5998700828028842
1633782750337738800,13.82073876953125,-8.95400791951418,-3.907316651108861,0.8538159465707839
1633782750357618000,13.840617919921876,-8.900677311342955,-3.9751957168534395,1.0705823091644793
1633782750377496800,13.860496826171875,-8.794629258462786,-4.168989565464854,1.201837430145964
1633782750397375700,13.880375732421875,-8.671172390142083,-4.416769563546777,1.2137976978570222
1633782750417254700,13.900254638671875,-8.56266876080334,-4.643162490206956,1.1367199380692095
1633782750437133800,13.9201337890625,-8.480786011886597,-4.806293197268247,1.0706068590838462
1633782750457011700,13.94001171875,-8.427153790420293,-4.897070323519409,1.0826680298861115
1633782750476891000,13.959890869140626,-8.399201953655481,-4.927163556227088,1.1605366477906702
1633782750496769800,13.979769775390626,-8.38724965005517,-4.925225281640887,1.2516333613850175
1633782750516648700,13.999648681640625,-8.383676467743516,-4.912080553385615,1.3250740067794917
1633782750536528000,14.01952783203125,-8.388961714670062,-4.892614805415272,1.3630949637465177
1633782750556406800,14.03940673828125,-8.40783884909749,-4.8613352855324745,1.358695267482847
1633782750576286000,14.059285888671875,-8.435525312924385,-4.816684827423096,1.3460454831376671
1633782750596164600,14.07916455078125,-8.46088070345521,-4.767909690599144,1.3604834660738705
1633782750616043800,14.099043701171874,-8.47782950016856,-4.727523611935973,1.3954608175612986
1633782750635922700,14.118922607421876,-8.483999713236093,-4.702807103830576,1.4407403673544525
1633782750655800800,14.13880078125,-8.480640465936064,-4.688573995816707,1.50545614676252
1633782750675679700,14.1586796875,-8.477074882408976,-4.671742395742237,1.5762015617236493
1633782750695559000,14.178558837890625,-8.476213881665467,-4.648932890301943,1.6466941709674894
1633782750715437800,14.198437744140625,-8.465693656694889,-4.632738711348176,1.7436022011891006
1633782750735316700,14.218316650390625,-8.435213762757181,-4.6364866657048465,1.8763098590664564
1633782750755196000,14.23819580078125,-8.40498462871015,-4.651121340256929,1.9732428775988518
1633782750775074800,14.25807470703125,-8.408804479259253,-4.642086969929934,1.9782386400595307
1633782750794953700,14.27795361328125,-8.453053955352306,-4.587288335032761,1.9165204350322484
1633782750814832600,14.29783251953125,-8.506133803632855,-4.5055996473833915,1.8750049139477312
1633782750834711800,14.3177119140625,-8.534481946238875,-4.442807091122865,1.895908001244813
1633782750854589700,14.337589599609375,-8.538313487225771,-4.427106833165884,1.9152835867136715
1633782750874468900,14.35746875,-8.532556531134247,-4.460905350132286,1.861769292538613
1633782750894347800,14.37734765625,-8.522519705766438,-4.524100641974806,1.7520158092692493
1633782750914226700,14.397226806640624,-8.517977970683575,-4.578931425575912,1.627214686732739
1633782750934105900,14.41710595703125,-8.52982681390941,-4.591600645273924,1.5263187559187412
1633782750953984800,14.43698486328125,-8.553900347936153,-4.560342460440099,1.484738499034941
1633782750973864000,14.456864013671876,-8.574523449248074,-4.519198841407895,1.491567322141677
1633782750993742600,14.47674267578125,-8.586396257871389,-4.49825512983948,1.4865692215934394
1633782751013621800,14.496621826171875,-8.587650641846656,-4.510270561803877,1.442253986787796
1633782751033500700,14.516500732421875,-8.580206755581498,-4.548023369354009,1.3659868857957422
1633782751053378800,14.53637890625,-8.568816762039065,-4.595224388729036,1.2765860163338483
1633782751073257700,14.5562578125,-8.55754075026512,-4.63750431831479,1.1968431289900094
1633782751093137000,14.576136962890626,-8.549016667547821,-4.670563707351684,1.1271761569153518
1633782751113015800,14.596015869140626,-8.539560856938362,-4.70169826580584,1.0678564643971622
1633782751132894700,14.615894775390625,-8.523477737143635,-4.741616726957261,1.0187165859140455
1633782751152774000,14.63577392578125,-8.499786480432748,-4.792891571642458,0.9758079299706965
1633782751172652800,14.65565283203125,-8.469302494841813,-4.853261869192123,0.9418827178847045
1633782751192531700,14.67553173828125,-8.433377779501676,-4.91858043679893,0.9252521933402865
1633782751212410600,14.69541064453125,-8.391542378813028,-4.9854573397636415,0.9474267618779092
1633782751232288800,14.715288818359374,-8.350274548879264,-5.0434787360996,1.0033040588572621
1633782751252167700,14.735167724609376,-8.328877540585399,-5.072468099218606,1.0345274646386504
1633782751272046800,14.755046875,-8.3419638166517,-5.05062159359157,1.0359720374237746
1633782751291925800,14.77492578125,-8.402161387982964,-4.9525762299031015,1.0227677610009909
1633782751311804700,14.7948046875,-8.524726860421895,-4.745774138897657,0.9884569836635142
1633782751331683800,14.814683837890625,-8.69255069373548,-4.437022370241582,0.9606174481667578
1633782751351562800,14.834562744140625,-8.863918483266234,-4.072851496702432,1.006586441528797
1633782751371442000,14.85444189453125,-9.005333617603778,-3.7186771165207024,1.1161523663368076
1633782751391320800,14.87432080078125,-9.09845146176219,-3.4512899161711332,1.2153846017222851
1633782751411199000,14.894198974609376,-9.132137458264827,-3.3381641799896955,1.277150518348813
1633782751431077600,14.91407763671875,-9.104674866321682,-3.399810488824546,1.3101784893341362
1633782751450956800,14.933956787109375,-9.025328357884288,-3.6063065826207397,1.3070515894852577
1633782751470835700,14.953835693359375,-8.919758443909883,-3.8864097644194957,1.2264235168047248
1633782751490715000,14.97371484375,-8.814342843714355,-4.152020602746307,1.1128679378386586
1633782751510593800,14.99359375,-8.736016910496353,-4.341057319958508,1.003799295028299
1633782751530472700,15.01347265625,-8.687884455490112,-4.456367414441704,0.9120531045492738
1633782751550352000,15.033351806640624,-8.651999487638474,-4.532261152076721,0.8785759284917265
1633782751570230800,15.053230712890626,-8.619153449091314,-4.588527229177951,0.908841522091627
1633782751590109000,15.07310888671875,-8.60304987103045,-4.607069724823535,0.9658266341824084
1633782751609987800,15.09298779296875,-8.622236217537521,-4.5601919460535045,1.015913365061581
1633782751629866800,15.11286669921875,-8.670868438759445,-4.461579303871095,1.0395832136582583
1633782751649745700,15.13274560546875,-8.722358972021937,-4.352620624241233,1.0702953819818795
1633782751669624800,15.152624755859375,-8.756289883196354,-4.270078534632921,1.124367602300644
1633782751689503700,15.172503662109374,-8.758528602033852,-4.242959057039022,1.20659105441384
1633782751709382700,15.192382568359376,-8.726504401263593,-4.2781475670591,1.309945557361096
1633782751729261800,15.21226171875,-8.67378520298898,-4.355345665290952,1.4024261265292763
1633782751749140700,15.232140625,-8.617702081239223,-4.448735312128067,1.4540809104427694
1633782751769020000,15.25202001953125,-8.560006848117709,-4.546691243967413,1.4913986875765024
1633782751788897800,15.271897705078125,-8.50351222295761,-4.635851582671702,1.539333866444975
1633782751808777000,15.29177685546875,-8.457359543591737,-4.704621167515218,1.584295582460612
1633782751828655600,15.311655517578124,-8.432676937755941,-4.738958905924856,1.6132592266164718
1633782751848534800,15.33153466796875,-8.447199384105206,-4.71416582545191,1.6099210221044717
1633782751868413700,15.35141357421875,-8.517396371403336,-4.605186103034019,1.5545421031013131
1633782751888292900,15.37129296875,-8.636253636974097,-4.403513191610575,1.481412715613097
1633782751908171800,15.391171875,-8.760084599304198,-4.163741143417358,1.4472618780776858
1633782751928050700,15.41105078125,-8.845565080451966,-3.9763711903735994,1.4542461840070784
1633782751947929900,15.430929931640625,-8.871645278126001,-3.9176103738471864,1.4548637313835322
1633782751967807700,15.450807861328125,-8.84990047930777,-3.984721377828717,1.4041510506257413
1633782751987687000,15.47068701171875,-8.818218808364868,-4.094697710068524,1.2817378461390734
1633782752007565800,15.49056591796875,-8.80252965632379,-4.165511367960274,1.1551510092295705
1633782752027444700,15.51044482421875,-8.80542128611207,-4.173810409750044,1.1019267109770328
1633782752047323600,15.53032373046875,-8.81647868669927,-4.1442078831687565,1.1250016624204813
1633782752067202800,15.550202880859375,-8.821548245048522,-4.1175329344719644,1.1817766388919204
1633782752087082000,15.57008203125,-8.817067300242185,-4.114861377175152,1.223775778774917
1633782752106961000,15.5899609375,-8.805620023554564,-4.137248273289203,1.2306965179488063
1633782752126839800,15.60983984375,-8.789351610320805,-4.1795200195685025,1.2038680591907351
1633782752146718700,15.62971875,-8.772004754200577,-4.227422465211153,1.1624172008402645
1633782752166596900,15.649596923828126,-8.759702321988344,-4.2638793877318495,1.1213107720132915
1633782752186475800,15.669475830078126,-8.755916373708844,-4.282774350076914,1.0780306524090468
1633782752206355000,15.68935498046875,-8.754754928714036,-4.295224374066293,1.0371603704255075
1633782752226233600,15.709233642578125,-8.750824019005893,-4.311517921741307,1.0021380838178098
1633782752246112800,15.72911279296875,-8.745072908133269,-4.33080509827435,0.9686151689223944
1633782752265992000,15.748991943359375,-8.740970733511448,-4.346330584186315,0.9355356138803065
1633782752285870800,15.768870849609375,-8.734014338502288,-4.361908092546463,0.9279755538895725
1633782752305750000,15.78875,-8.71735429560244,-4.387081112247706,0.965214420568198
1633782752325628700,15.808628662109374,-8.69249750224352,-4.424823982925713,1.0157779021136462
1633782752345506800,15.8285068359375,-8.670128434047102,-4.4634103186905385,1.0378975986588745
1633782752365385700,15.8483857421875,-8.658121185389161,-4.48573934713751,1.0418549579825251
1633782752385265000,15.868264892578125,-8.65484143306613,-4.4847225713104,1.0730166967045516
1633782752405143800,15.888143798828125,-8.660965468904376,-4.459864901168644,1.1259048218052834
1633782752425022700,15.908022705078125,-8.689237039142846,-4.39474740909189,1.1635026579894125
1633782752444901600,15.927901611328124,-8.746344827765226,-4.27959045934379,1.1648767958868294
1633782752464780800,15.94778076171875,-8.819829166170955,-4.129282701237499,1.1532650493524967
1633782752484660000,15.967659912109376,-8.887446658369898,-3.9831630424708124,1.1480802671257406
1633782752504539000,15.987538818359376,-8.923962909862398,-3.8920167906463146,1.1770634196996688
1633782752524417800,16.007417724609375,-8.913847174039482,-3.8929315674036737,1.2485196132786571
1633782752544295700,16.027295654296875,-8.860665618950128,-3.9854309874027964,1.3324153094530105
1633782752564174800,16.0471748046875,-8.791916492372751,-4.127821688774228,1.354132343481481
1633782752584053800,16.0670537109375,-8.739739730411767,-4.26146385102272,1.2756404060468076
1633782752603933000,16.086932861328126,-8.721484527274965,-4.338454736244678,1.1330914453737437
1633782752623811800,16.106811767578126,-8.738114175036548,-4.338367642483115,0.9971489702936261
1633782752643690800,16.126690673828126,-8.775735757422447,-4.280587069165707,0.9129186353374272
1633782752663570000,16.14656982421875,-8.822344363862275,-4.19184261778593,0.8746882003381847
1633782752683448800,16.16644873046875,-8.867944085520506,-4.09711061642915,0.8623417828537523
1633782752703328000,16.186327880859373,-8.90585149911046,-4.019238564458489,0.8378050882946699
1633782752723206000,16.206205810546876,-8.928300062283872,-3.980163276132941,0.7836725160907954
1633782752743084800,16.226084716796876,-8.93358355564475,-3.981367975747585,0.7142695287145674
1633782752762963700,16.245963623046876,-8.931498566064239,-3.9980686429187653,0.6435520246736705
1633782752782843000,16.2658427734375,-8.9328552413702,-4.002336529496312,0.5964793809186667
1633782752802721800,16.2857216796875,-8.94468187276423,-3.9773835822865364,0.5860630547139793
1633782752822601000,16.30560107421875,-8.968781125754118,-3.922650413841009,0.5866583171933889
1633782752842479600,16.325479736328123,-8.997742431822418,-3.8560090731978414,0.5849925394056364
1633782752862358800,16.34535888671875,-9.02446794166267,-3.7956311768636106,0.5679304185109213
1633782752882238000,16.365238037109375,-9.04428966346383,-3.75450889288038,0.5242811368007213
1633782752902115800,16.38511572265625,-9.056958590900898,-3.73422686009109,0.4443394389491528
1633782752921995000,16.4049951171875,-9.06249167510867,-3.7312303086236116,0.3457546711543575
1633782752941878300,16.424878173828127,-9.060537618431448,-3.742160575699806,0.27069829765893516
1633782752961757200,16.444757080078126,-9.057254943498968,-3.752751820079982,0.23102213909709826
1633782752981636400,16.46463623046875,-9.058692867347597,-3.7495185372471806,0.2271136238838546
1633782753001515300,16.484515380859374,-9.058715079179406,-3.74910031183511,0.23304533375408498
1633782753021394200,16.504394287109374,-9.042698594880104,-3.7865816089674826,0.2485647735177539
1633782753041273300,16.5242734375,-9.001430764946342,-3.880713890865445,0.29101103611374274
1633782753061152300,16.54415234375,-8.939897561097144,-4.017160589140653,0.333232531776838
1633782753081030400,16.564030517578125,-8.876972610628604,-4.153580107147992,0.342797903707996
1633782753100909300,16.583909423828125,-8.83421775700748,-4.24604971653074,0.3131222753578797
1633782753120788200,16.603788330078125,-8.822999612900615,-4.27188879892528,0.27573510451605543
1633782753140667100,16.623667236328124,-8.837047427475452,-4.242577364245057,0.2784123061023652
1633782753160546300,16.64354638671875,-8.857884463799,-4.1954149233147495,0.32674664035625756
1633782753180425200,16.66342529296875,-8.873194261133671,-4.156801699542999,0.39725104963574553
1633782753200304400,16.683304443359376,-8.88341579541862,-4.128834665209054,0.45610736242588606
1633782753220183300,16.703183349609375,-8.89760623333454,-4.09591702273041,0.47587070510331536
1633782753240062200,16.723062255859375,-8.916123302277922,-4.056914507380128,0.4632277523577213
1633782753259941400,16.74294140625,-8.930691341334581,-4.025712728908657,0.45471894027478993
1633782753279819300,16.7628193359375,-8.941072450095415,-4.0032811168700455,0.44871308745611455
1633782753299698400,16.782698486328126,-8.953381896570324,-3.978770068208873,0.42039329416174437
1633782753319577300,16.802577392578126,-8.971716010162234,-3.9425753037557003,0.3671472590014338
1633782753339456300,16.822456298828126,-8.996782062357664,-3.891378492742777,0.29234409308210013
1633782753359335200,16.842335205078125,-9.02403714902997,-3.8325340895861384,0.22094176684850825
1633782753379214300,16.86221435546875,-9.04697612606883,-3.7790512134626506,0.2034033336789347
1633782753399093500,16.882093505859373,-9.065448771348596,-3.7329669231578704,0.23017050897013394
1633782753418972200,16.90197216796875,-9.080990623873472,-3.6915465330108996,0.2801333942739293
1633782753438851300,16.921851318359376,-9.095193921270965,-3.6528804100081325,0.3229492938999086
1633782753458729200,16.941729248046876,-9.109496587389707,-3.6154271699264644,0.3407961719641462
1633782753478608400,16.9616083984375,-9.124438135933875,-3.5782755431398745,0.3330983840031549
1633782753498487300,16.9814873046875,-9.141407975435257,-3.534160214820504,0.3387590766459703
1633782753518366500,17.001366455078124,-9.163346835520864,-3.4716122809708114,0.3890572583187371
1633782753538245000,17.0212451171875,-9.197669960883259,-3.3728193137854334,0.44422706461586053
1633782753558124300,17.041124267578127,-9.25216259857118,-3.2221661032423374,0.43071602379884566
1633782753578003200,17.061003173828126,-9.31525647586584,-3.0402289889022707,0.3916420506475493
1633782753597882400,17.08088232421875,-9.362285353544355,-2.8884990890383717,0.4178129588123411
1633782753617760300,17.10076025390625,-9.374290848636626,-2.82468215816617,0.560557697785832
1633782753637639200,17.12063916015625,-9.339590122133492,-2.8864497552931305,0.7815631957866251
1633782753657518300,17.140518310546874,-9.262319835448265,-3.069806965564191,0.9778055335287004
1633782753677397200,17.160397216796873,-9.155539961162209,-3.338881388348341,1.0946903299827129
1633782753697276400,17.1802763671875,-9.04488412222564,-3.622315175874531,1.1132307798016816
1633782753717155300,17.2001552734375,-8.963048135060072,-3.842665315239131,1.0334787593033163
1633782753737034200,17.2200341796875,-8.924235881584883,-3.960594067788124,0.9176543586224317
1633782753756913200,17.2399130859375,-8.917799711057544,-3.999164036940038,0.8061725171905011
1633782753776792300,17.259792236328124,-8.917667609110474,-4.014455421835184,0.7278308018814772
1633782753796670200,17.279670166015624,-8.905075254040955,-4.047908778625726,0.6960287194292992
1633782753816549400,17.29954931640625,-8.876509669291973,-4.110502889704704,0.6940675023589283
1633782753836428300,17.31942822265625,-8.845738683453202,-4.174458060003817,0.7051170119006186
1633782753856307200,17.33930712890625,-8.839728629383444,-4.189656213657558,0.69019204916507
1633782753876186400,17.359186279296875,-8.867607400912046,-4.139664102259278,0.6317466552633791
1633782753896065300,17.379065185546875,-8.91614434506595,-4.045029131536186,0.5572169359905645
1633782753915944400,17.3989443359375,-8.967674041295052,-3.937209977330267,0.4995832603305578
1633782753935819500,17.418819580078125,-9.00673004039824,-3.8493209737360474,0.4815876945106312
1633782753955698400,17.438698486328125,-9.023535629248618,-3.8046485960558054,0.5204170452510938
1633782753975577600,17.45857763671875,-9.013808015960455,-3.8180055057570335,0.5869239458596334
1633782753995455500,17.47845556640625,-8.978577128103375,-3.8936630965486168,0.6284321238879114
1633782754015334700,17.498334716796876,-8.923907964804767,-4.015990084056556,0.6372403573088348
1633782754035213600,17.518213623046876,-8.855788952824472,-4.160906504513323,0.657451078427583
1633782754055092500,17.538092529296875,-8.779933209112286,-4.31103715248704,0.7057768640488385
1633782754074971600,17.5579716796875,-8.707055019906162,-4.442545517577231,0.7882691962312907
1633782754094850600,17.5778505859375,-8.647652982866763,-4.5355569787517185,0.9039915247771888
1633782754114729700,17.597729736328127,-8.617728969246148,-4.569975381182134,1.010179351454228
1633782754134608400,17.6176083984375,-8.63173411372304,-4.536567617098987,1.0407263192787766
1633782754154486800,17.63748681640625,-8.68667507970035,-4.4422804369002575,0.9890420900750905
1633782754174365400,17.657365478515626,-8.755428297930955,-4.317012135243416,0.9360898867622017
1633782754194244600,17.67724462890625,-8.81756122123897,-4.18822559633255,0.9379569227430969
1633782754214123500,17.69712353515625,-8.870837468874454,-4.068487456274032,0.9623092006459831
1633782754234002700,17.717002685546873,-8.918409951910377,-3.969336761692166,0.9363319518897681
1633782754253881300,17.73688134765625,-8.950473315647244,-3.9089644183158874,0.8828409655250609
1633782754273760500,17.756760498046877,-8.95601925933659,-3.8996532768741248,0.8676446385022252
1633782754293639700,17.7766396484375,-8.939435204282402,-3.9315027055993674,0.8945224162947386
1633782754313518600,17.7965185546875,-8.915871957865356,-3.98193671554625,0.9065272537998854
1633782754333396700,17.816396728515624,-8.897108805206418,-4.029853481975198,0.8787048155684024
1633782754353275600,17.836275634765624,-8.884252246242761,-4.068530418632925,0.82916300522089
1633782754373154600,17.856154541015623,-8.872465946859121,-4.102448762586713,0.7871757749713957
1633782754393033500,17.876033447265623,-8.857992015826701,-4.136716650630533,0.7706756718736142
1633782754412912600,17.89591259765625,-8.842915442726015,-4.163256282509863,0.800331024620682
1633782754432791600,17.91579150390625,-8.840672047713399,-4.152337705871463,0.8780633758597075
1633782754452670500,17.93567041015625,-8.866492717668413,-4.069394634246826,0.9978585798677057
1633782754472549600,17.955549560546874,-8.928393585786223,-3.8951279084041714,1.1323208993926643
1633782754492428500,17.975428466796874,-9.016977878168225,-3.648399465201795,1.246464726575464
1633782754512306400,17.995306396484374,-9.104000328060984,-3.3855762117668986,1.3510872766971587
1633782754532185600,18.015185546875,-9.16460414210558,-3.173744017639756,1.4518160342507063
1633782754552064800,18.035064697265625,-9.185390909546614,-3.0622084732592105,1.556231955884397
1633782754571943400,18.054943359375,-9.170511904844641,-3.0584184333264828,1.6486885596551
1633782754591822600,18.074822509765625,-9.14056217226088,-3.122297908040881,1.6946265733569859
1633782754611701500,18.094701416015624,-9.119050597676635,-3.188593211725354,1.6870590607121585
1633782754631580700,18.11458056640625,-9.124737995663285,-3.199542183502018,1.6347693398959933
1633782754651459300,18.134459228515624,-9.148663061130046,-3.1541470445051787,1.5886182679653167
1633782754671338500,18.15433837890625,-9.168931357654929,-3.1007708436265586,1.576800696660578
1633782754691216400,18.17421630859375,-9.175257638067006,-3.0741093389332295,1.5921327058270573
1633782754711095600,18.194095458984375,-9.16751096946299,-3.09208630965054,1.6019121954329312
1633782754730974700,18.213974609375,-9.147085436549782,-3.1581092261344192,1.5898291050598023
1633782754750853600,18.233853515625,-9.119762545338272,-3.24840236826092,1.5646714290581643
1633782754770732500,18.253732666015626,-9.09634075321853,-3.3360715916246173,1.5157830411180853
1633782754790611500,18.273611572265626,-9.089131844753027,-3.3962139256373045,1.4226011918127537
1633782754810490600,18.29349072265625,-9.107108230948448,-3.4026334372907874,1.2857106952928006
1633782754830369500,18.31336962890625,-9.13636881222427,-3.368001392109692,1.1634906022254377
1633782754850248400,18.33324853515625,-9.15785116071403,-3.332163478270173,1.0958240101877599
1633782754870126600,18.353126708984377,-9.161835261914133,-3.3203006065189835,1.0985270586013793
1633782754890005500,18.373005615234376,-9.152890907958149,-3.3289994612812994,1.1457483170468359
1633782754909884400,18.392884521484376,-9.143238113471865,-3.341760158655047,1.1849967699822037
1633782754929763300,18.412763427734376,-9.14031784211099,-3.347631388776004,1.1909424535788595
1633782754949642500,18.432642578125,-9.145876645281911,-3.344420025514066,1.1567965114142744
1633782754969521400,18.452521484375,-9.154237646391987,-3.3427816106572745,1.093678011135012
1633782754989400300,18.472400390625,-9.154118403926491,-3.363075333884358,1.0306420745726674
1633782755009279200,18.492279296875,-9.141367643424868,-3.408828492538631,0.992809845110774
1633782755029158400,18.512158447265627,-9.118608699128032,-3.4696783902987836,0.9913047743100672
1633782755049036300,18.532036376953126,-9.094498924744128,-3.526377013598382,1.0124898203536867
1633782755068915500,18.55191552734375,-9.072381200960278,-3.5702488885506987,1.0562222137700765
1633782755088794000,18.571794189453126,-9.040669134879112,-3.619329438062012,1.1563478177987039
1633782755108673300,18.59167333984375,-9.00396875899136,-3.669486384633183,1.2782022193588316
1633782755128552200,18.61155224609375,-8.986893705549836,-3.688040278455615,1.343313135564327
1633782755148431400,18.631431396484373,-9.012554801028966,-3.638889878578484,1.3048834516659378
1633782755168310500,18.651310546875,-9.0744656060189,-3.5245626576527953,1.18402441781871
1633782755188189200,18.671189208984377,-9.125092800450325,-3.426038278275728,1.0795013094834982
1633782755208068400,18.691068359375,-9.131549429243803,-3.405122331497073,1.0910230396468192
1633782755227946200,18.7109462890625,-9.109515292090178,-3.4436183586299416,1.1526515936292707
1633782755247825400,18.730825439453124,-9.08483327077627,-3.5017324016854166,1.1722023895345628
1633782755267704300,18.750704345703124,-9.068742552196978,-3.552724922297895,1.1429974109034984
1633782755287583200,18.770583251953123,-9.061761607268451,-3.589918342399597,1.0804379327464848
1633782755307462100,18.790462158203123,-9.0557229116261,-3.6221406960904594,1.021941247048974
1633782755327341300,18.81034130859375,-9.046409139835834,-3.6543145344644783,0.9893668650500476
1633782755347220500,18.830220458984375,-9.034152884852885,-3.6873765538498757,0.9786289056755602
1633782755367099400,18.850099365234374,-9.024972968575359,-3.7143279814004897,0.9612561113964766
1633782755386978300,18.869978271484374,-9.020760319316386,-3.7328885972246524,0.9283360577650368
1633782755406857200,18.889857177734374,-9.018659547644853,-3.748236973004043,0.8859390776708722
1633782755426735400,18.9097353515625,-9.014515287446976,-3.767027013669908,0.8475854546833783
1633782755446614300,18.9296142578125,-9.005112668329478,-3.793812144742906,0.8278396476626396
1633782755466493400,18.949493408203125,-8.992885054919123,-3.82591993214339,0.8128605435870587
1633782755486372400,18.969372314453125,-8.979261603236198,-3.8654143226638435,0.7757669305980205
1633782755506251300,18.989251220703125,-8.96004719967842,-3.9221009632647035,0.7106818064209074
1633782755526130200,19.009130126953124,-8.931444205528496,-3.998093192838132,0.6441561280466616
1633782755546009300,19.02900927734375,-8.902048599696158,-4.0728973816707725,0.5791591570770368
1633782755565888500,19.048888427734376,-8.883142239174246,-4.122131075917184,0.5178848233597353
1633782755585767200,19.06876708984375,-8.872063211277126,-4.149024928061664,0.49240971543937917
1633782755605645300,19.088645263671875,-8.857018786880374,-4.178502366958559,0.5135398529579863
1633782755625524200,19.108524169921875,-8.83309781306684,-4.2222453548341985,0.5651692467018962
1633782755645403400,19.1284033203125,-8.808576535272598,-4.266557374769449,0.6130725691273808
1633782755665282300,19.1482822265625,-8.788027668240666,-4.303823275585472,0.6465762678656727
1633782755685161500,19.168161376953126,-8.770967812368273,-4.3329231133416295,0.6828538152314723
1633782755705040100,19.1880400390625,-8.760224300035834,-4.347802118043601,0.7248935793858021
1633782755724919300,19.207919189453126,-8.77097365758717,-4.32132152287513,0.7527179173134267
1633782755744798500,19.227798583984374,-8.813108333483338,-4.234615883846581,0.7533467898014933
1633782755764677400,19.247677490234373,-8.875603660362959,-4.101621079590917,0.7554801485683769
1633782755784555500,19.267555419921877,-8.930254703482985,-3.9769194719061254,0.7778471709381789
1633782755804434200,19.28743408203125,-8.945190991330147,-3.9317221935689446,0.8339715745463967
1633782755824313300,19.307313232421876,-8.91002732349038,-3.9944790939942,0.9088101771052927
1633782755844192300,19.327192138671876,-8.839073380345106,-4.140002248172462,0.9494972845416515
1633782755864071400,19.347071533203124,-8.759496570283174,-4.314066729441285,0.9112821201767772
1633782755883950300,19.366950439453124,-8.694605872699618,-4.467540258102119,0.7844084291499107
1633782755903829200,19.386829345703124,-8.650200913783907,-4.577517174863815,0.6250964035939425
1633782755923708200,19.406708251953123,-8.620338274961709,-4.649355791889131,0.49359698899518695
1633782755943587000,19.426587158203127,-8.59638807505369,-4.700429561044276,0.42245274744220074
1633782755963465200,19.44646533203125,-8.57483207680583,-4.74026794269681,0.41533045781422406
1633782755983344000,19.46634423828125,-8.55828893828392,-4.767647824792563,0.44227267914507534
1633782756003223300,19.486223388671874,-8.551739955031872,-4.777079377743601,0.4665146285412833
1633782756023102000,19.50610205078125,-8.556530111917853,-4.768624268609285,0.4651796536104753
1633782756042981000,19.525981201171874,-8.572978557893633,-4.7418116650074715,0.4354921886920929
1633782756062860300,19.5458603515625,-8.599333480855822,-4.696989357462525,0.40016668135412037
1633782756082739200,19.5657392578125,-8.62746067418754,-4.6458889925613995,0.3911835297577083
1633782756102618000,19.5856181640625,-8.6506433968544,-4.599335331179201,0.42763186711315065
1633782756122497000,19.6054970703125,-8.671081204727292,-4.553285819926858,0.5003251647390425
1633782756142376200,19.625376220703124,-8.695099209174513,-4.499479118676484,0.5659682881250977
1633782756162254000,19.645254150390624,-8.718315249589086,-4.448580121566355,0.6095075701221824
1633782756182133200,19.66513330078125,-8.728113005504012,-4.422724380297959,0.6556991201937198
1633782756202012200,19.68501220703125,-8.718893926259875,-4.430305921468139,0.723644163846597
1633782756221891000,19.70489111328125,-8.702242651188373,-4.449209943902492,0.8036736861120909
1633782756241770200,19.724770263671875,-8.697334420880674,-4.4441938693061465,0.880854467882961
1633782756261649200,19.744649169921875,-8.721082376214861,-4.389000682133436,0.9218344207860529
1633782756281528300,19.7645283203125,-8.774537487548589,-4.287076723445952,0.893784019017592
1633782756301407000,19.784406982421874,-8.822039243435858,-4.196736527307332,0.8540564042631537
1633782756321286100,19.8042861328125,-8.835013875821232,-4.169824847245216,0.8517513421911745
1633782756341164000,19.8241640625,-8.820814670076965,-4.198911533258855,0.856009438027069
1633782756361043200,19.844043212890625,-8.803851260316371,-4.241767801427841,0.8185312826998531
1633782756380922000,19.863922119140625,-8.79958249695599,-4.264960168705881,0.7401634100362658
1633782756400801300,19.88380126953125,-8.811718340429664,-4.254354895800351,0.6515118245717137
1633782756420680000,19.903679931640625,-8.830701273319125,-4.222617695277929,0.5988277706757188
1633782756440559000,19.92355908203125,-8.843532113319634,-4.194890314918756,0.6043286696469411
1633782756460438300,19.943438232421876,-8.846744061103463,-4.182188946516812,0.6440491605408489
1633782756480317200,19.963317138671876,-8.849895218610763,-4.1720366780757905,0.6662172262724488
1633782756500196000,19.983196044921876,-8.862293512412904,-4.150700752319396,0.6338971112955362
1633782756520074200,20.00307421875,-8.883213550844788,-4.116201685868203,0.5619442567734048
1633782756539953200,20.022953125,-8.901174739471077,-4.086230618235469,0.49213053317181765
1633782756559832000,20.04283203125,-8.904347524288296,-4.083778256647289,0.45357572505641724
1633782756579711200,20.062711181640626,-8.888497628727555,-4.120970215444267,0.427313485346362
1633782756599590100,20.082590087890626,-8.859916846409439,-4.187063274554908,0.3751777860481292
1633782756619469000,20.102468994140626,-8.82839708802998,-4.260019789694249,0.2863952494139783
1633782756639348200,20.12234814453125,-8.810677891466021,-4.302891839954257,0.16570640276819468
1633782756659227100,20.14222705078125,-8.81898102490902,-4.28896414462775,0.027436911795905326
1633782756679106300,20.162106201171873,-8.85430368270278,-4.214370383675396,-0.10376249009310268
1633782756698984200,20.181984130859377,-8.908128211870789,-4.095560464377701,-0.20497480251304803
1633782756718863400,20.20186328125,-8.96748699429035,-3.961828870280087,-0.24180746301095932
1633782756738742000,20.221741943359376,-9.018563101533054,-3.846951614256203,-0.19199699178989976
1633782756758621200,20.24162109375,-9.056146689996122,-3.7610578761324285,-0.10505321489023044
1633782756778500000,20.2615,-9.081791418862343,-3.700011286756396,-0.03694752133252332
1633782756798379300,20.281379150390624,-9.100081108790636,-3.6549554627165195,0.014304971098614623
1633782756818258000,20.3012578125,-9.11618819398284,-3.614394612008333,0.0406212345593376
1633782756838137000,20.32113720703125,-9.132935915166138,-3.57192412828654,0.035020848135859706
1633782756858016300,20.341016357421875,-9.154300190234183,-3.5169559820413587,0.01393716869103955
1633782756877894100,20.36089404296875,-9.18709420633316,-3.430346789124608,0.02011116745112231
1633782756897773300,20.380773193359374,-9.23000980347395,-3.3125478004351256,0.06576652143686078
1633782756917652200,20.40065234375,-9.26592867359519,-3.2085753847852345,0.13412520565823652
1633782756937531000,20.42053076171875,-9.274329422193764,-3.1796704850792885,0.2165452123899944
1633782756957409800,20.440409912109374,-9.239600054118037,-3.271649388335645,0.31062607462797315
1633782756977288700,20.460288818359373,-9.164698250129819,-3.4727284255191684,0.34474538451395925
1633782756997167900,20.48016796875,-9.081209819582105,-3.6908290323913095,0.28247613974148406
1633782757017046800,20.500046875,-9.018156858819722,-3.8482416540667415,0.18511740661030635
