 Acc_timestamp,Accx,Accy,Accz,Gyro_timestamp,Gyrox,Gyroy,Gyroz,Baro_timestamp,Pressure_Reading
 20859392.000000, 3.038885 , -8.106883, 5.568098, 3629320960.000000, 41.439999,  50.330002,  203.419998, 0.000000,  0.000000 
 20879360.000000, 4.103691 , -6.168696, 3.926622, 3629340928.000000, 125.230003,  47.880001,  169.470001, 0.000000,  0.000000 
 20900352.000000, 9.858429 , -2.280360, 2.780460, 3629360896.000000, 138.110001,  13.930000,  208.740005, 0.000000,  0.000000 
 20919296.000000, 11.363515 , -1.689333, 3.766303, 3629381888.000000, 86.239998,  -19.809999,  232.610001, 0.000000,  0.000000 
 20939264.000000, 12.490535 , -2.189433, 3.735196, 3629400832.000000, 3.430000,  -34.930000,  220.080002, 0.000000,  0.000000 
 20959232.000000, 13.962120 , -2.636890, 1.808974, 3629420800.000000, -5.250000,  -42.840000,  194.600006, 0.000000,  0.000000 
 20979200.000000, 17.395821 , -2.304288, -0.897308, 3629440768.000000, 54.110001,  -53.130001,  160.089996, 0.000000,  0.000000 
 21000192.000000, 16.359728 , -2.251646, 2.426322, 3629460736.000000, 61.529999,  -66.709999,  92.820000, 0.000000,  0.000000 
 21019648.000000, 12.181859 , -9.994821, 9.997212, 3629481728.000000, -76.580002,  -41.650002,  -15.260000, 0.000000,  0.000000 
 21039616.000000, 10.195816 , -22.734209, 15.024533, 3629500672.000000, -215.040009,  -25.410000,  -123.129997, 0.000000,  0.000000 
 21059584.000000, 5.381458 , -33.990047, 19.736000, 3629520640.000000, -190.610001,  -36.189999,  -215.320007, 0.000000,  0.000000 
 21079552.000000, -0.138784 , -34.119259, 19.097116, 3629540608.000000, -52.920002,  -38.290001,  -338.589996, 0.000000,  0.000000 
 21100544.000000, -0.117248 , -30.769304, 19.238295, 3629560576.000000, 64.610001,  -64.889999,  -417.130005, 0.000000,  0.000000 
 21119488.000000, -2.770889 , -23.114666, 16.474585, 3629581568.000000, 61.459999,  -118.300003,  -404.459991, 0.000000,  0.000000 
 21139456.000000, -8.061419 , -18.247665, 14.830715, 3629600512.000000, 57.119999,  -118.580002,  -432.459991, 0.000000,  0.000000 
 21159424.000000, -12.961920 , -13.842479, 12.655639, 3629640448.000000, 105.070000,  -59.430000,  -374.989990, 0.000000,  0.000000 
 21179392.000000, -15.692131 , -7.336394, 7.097112, 0.000000, 0.000000,  0.000000,  0.000000, 0.000000,  0.000000 
 21200384.000000, -13.076776 , -3.160919, 1.313660, 3629660416.000000, 95.970001,  -25.969999,  -305.339996, 0.000000,  0.000000 
 21219328.000000, -9.372685 , 0.397209, 1.162912, 3629681408.000000, 109.760002,  -5.040000,  -200.199997, 0.000000,  0.000000 
 21239296.000000, -7.499106 , 4.792823, 2.110470, 3629700864.000000, 100.379997,  -5.390000,  -148.119995, 0.000000,  0.000000 
 21259264.000000, -9.198010 , 5.998806, -0.638884, 3629720832.000000, 53.689999,  24.570000,  -102.269997, 0.000000,  0.000000 
 21279232.000000, -12.050256 , 4.536791, -2.593820, 3629740800.000000, 18.760000,  73.290001,  -84.279999, 0.000000,  0.000000 
 21302272.000000, -8.865408 , 3.960121, -1.988436, 3629760768.000000, 3.640000,  85.680000,  -76.230003, 0.000000,  0.000000 
 21319168.000000, -5.977271 , 4.754539, -1.722832, 3629783296.000000, -2.170000,  52.570000,  14.560000, 0.000000,  0.000000 
 21339136.000000, -6.156733 , 4.106083, -2.895315, 3629800704.000000, -4.130000,  40.180000,  98.769997, 0.000000,  0.000000 
 21359104.000000, -6.183054 , 2.246860, -3.101098, 3629820672.000000, -17.780001,  58.730000,  141.190002, 0.000000,  0.000000 
 21379072.000000, -6.293124 , 1.091127, 0.368495, 3629840640.000000, -56.630001,  76.440002,  204.960007, 0.000000,  0.000000 
 21400064.000000, -8.822337 , -4.500899, 7.616355, 3629860608.000000, -103.389999,  97.720001,  262.640015, 0.000000,  0.000000 
 21419008.000000, -18.283558 , -22.753351, 12.770494, 3629881600.000000, -152.039993,  117.110001,  307.579987, 0.000000,  0.000000 
 21438976.000000, -18.290737 , -48.770512, 23.052454, 3629900544.000000, -249.899994,  139.089996,  322.910004, 0.000000,  0.000000 
 21458944.000000, -6.419943 , -34.904102, 19.401007, 3629920512.000000, -290.850006,  106.540001,  390.179993, 0.000000,  0.000000 
 21479424.000000, -0.928415 , -24.674786, 16.431513, 3629940480.000000, -172.410004,  10.500000,  349.720001, 0.000000,  0.000000 
 21499904.000000, 5.051248 , -17.355143, 18.190239, 3629960448.000000, -186.270004,  17.430000,  242.130005, 0.000000,  0.000000 
 21519360.000000, 6.819544 , -14.232510, 15.668202, 3629981440.000000, -166.460007,  43.959999,  199.009995, 0.000000,  0.000000 
 21539328.000000, 3.897908 , -12.232110, 12.519248, 3630000384.000000, -63.000000,  58.590000,  162.889999, 0.000000,  0.000000 
 21559296.000000, 3.579663 , -7.506285, 7.259824, 3630020352.000000, 79.590004,  58.380001,  95.269997, 0.000000,  0.000000 
 21579264.000000, 7.444071 , -3.493521, 2.433501, 3630040320.000000, 171.289993,  25.690001,  103.809998, 0.000000,  0.000000 
 21600256.000000, 12.949955 , 0.552742, 2.373680, 3630081280.000000, 153.369995,  -83.230003,  160.720001, 5892494336.000000,  1006.114807 
 21619200.000000, 13.667803 , 1.880759, 2.995814, 0.000000, 0.000000,  0.000000,  0.000000, 0.000000,  0.000000 
 21639168.000000, 10.650455 , 1.500300, 4.579862, 3630100224.000000, 59.430000,  -74.410004,  125.160004, 0.000000,  0.000000 
 21659136.000000, 10.671989 , 1.639083, 4.311867, 3630120192.000000, 22.260000,  -62.720001,  93.800003, 0.000000,  0.000000 
 21679104.000000, 11.944970 , 2.694318, 3.952943, 3630140160.000000, 41.650002,  -93.239998,  69.300003, 0.000000,  0.000000 
 21700096.000000, 10.564312 , 1.397408, 7.070791, 3630160128.000000, 14.560000,  -104.440002,  5.180000, 0.000000,  0.000000 
 21719040.000000, 8.417950 , -4.969893, 10.559525, 3630181120.000000, -79.590004,  -83.930000,  -69.160004, 0.000000,  0.000000 
 21739008.000000, 8.226524 , -18.640089, 14.388042, 3630200576.000000, -208.110001,  -82.250000,  -148.680008, 0.000000,  0.000000 
 21758976.000000, 9.097511 , -41.304909, 25.861629, 3630220544.000000, -290.429993,  -111.370003,  -231.770004, 0.000000,  0.000000 
 21778944.000000, -1.146162 , -38.744583, 18.022739, 3630240512.000000, -270.410004,  -116.059998,  -231.419998, 0.000000,  0.000000 
 21799936.000000, -4.543970 , -27.524637, 16.086946, 3630260480.000000, 65.449997,  -85.120003,  -388.500000, 0.000000,  0.000000 
 21818880.000000, -4.584648 , -20.465813, 10.360922, 3630280960.000000, 175.350006,  -99.959999,  -387.730011, 0.000000,  0.000000 
 21838848.000000, -4.400401 , -16.125233, 9.166903, 3630300416.000000, 129.850006,  -147.139999,  -371.910004, 0.000000,  0.000000 
 21858816.000000, -5.958128 , -11.952149, 10.267602, 3630320384.000000, 61.320000,  -146.860001,  -371.489990, 0.000000,  0.000000 
 21878784.000000, -7.460821 , -8.441878, 7.403394, 3630340352.000000, 19.320000,  -88.059998,  -345.940002, 0.000000,  0.000000 
 21899776.000000, -6.929615 , -4.759324, 3.014957, 3630360320.000000, 62.510002,  -19.040001,  -287.420013, 0.000000,  0.000000 
 21918720.000000, -5.948557 , -0.421137, 0.760918, 3630381312.000000, 108.290001,  -0.490000,  -225.190002, 0.000000,  0.000000 
 21938688.000000, -5.589634 , 3.486342, 0.174676, 3630400256.000000, 109.900002,  7.280000,  -180.320007, 0.000000,  0.000000 
 21959168.000000, -6.798009 , 4.582255, 0.488136, 3630420224.000000, 74.059998,  42.420002,  -140.350006, 0.000000,  0.000000 
 21979136.000000, -8.815158 , 3.120241, 0.169890, 3630440192.000000, 24.780001,  98.910004,  -123.129997, 0.000000,  0.000000 
 21999616.000000, -10.813165 , 2.833102, -1.840081, 3630460160.000000, -3.080000,  138.949997,  -96.949997, 0.000000,  0.000000 
 22019072.000000, -12.504892 , 4.185047, -2.670390, 3630481152.000000, -3.080000,  155.750000,  -37.730000, 0.000000,  0.000000 
 22039040.000000, -11.129018 , 5.656632, -1.497907, 3630500096.000000, -1.050000,  158.059998,  18.969999, 0.000000,  0.000000 
 22059008.000000, -8.346166 , 3.136991, 1.205983, 3630520064.000000, -26.530001,  146.649994,  72.309998, 0.000000,  0.000000 
 22078976.000000, -9.186047 , -0.830309, 6.510870, 3630540032.000000, -46.130001,  145.740005,  131.110001, 0.000000,  0.000000 
 22099968.000000, -11.942577 , -8.927622, 8.614161, 3630560000.000000, -41.299999,  174.300003,  198.520004, 0.000000,  0.000000 
 22118912.000000, -16.027126 , -19.037296, 17.029718, 3630580992.000000, -28.280001,  180.669998,  305.899994, 0.000000,  0.000000 
 22138880.000000, -13.251451 , -30.709488, 22.430319, 3630599936.000000, -93.800003,  185.430008,  361.970001, 0.000000,  0.000000 
 22158848.000000, -6.977471 , -24.519253, 18.955940, 3630619904.000000, -143.289993,  153.229996,  383.670013, 0.000000,  0.000000 
 22178816.000000, -2.151148 , -17.950956, 16.046268, 3630639872.000000, -112.000000,  90.790001,  364.839996, 0.000000,  0.000000 
 22199808.000000, 3.268596 , -14.880964, 16.180265, 3630660352.000000, -122.639999,  64.540001,  319.200012, 0.000000,  0.000000 
 22218752.000000, 6.498906 , -13.768302, 17.336000, 3630680832.000000, -223.369995,  67.900002,  288.679993, 0.000000,  0.000000 
 22238720.000000, 4.797609 , -12.447463, 16.455442, 3630700288.000000, -271.250000,  73.290001,  246.259995, 0.000000,  0.000000 
 22258688.000000, 3.890730 , -9.509077, 11.614761, 3630720256.000000, -167.649994,  75.040001,  182.770004, 0.000000,  0.000000 
 22278656.000000, 7.216753 , -5.264209, 8.717053, 3630740224.000000, -3.920000,  54.320000,  145.460007, 0.000000,  0.000000 
 22301696.000000, 12.961920 , -0.756132, 7.374680, 3630760192.000000, 78.820000,  9.870000,  160.369995, 0.000000,  0.000000 
 22318592.000000, 14.849857 , 2.110470, 6.317052, 3630782720.000000, 87.360001,  -25.129999,  172.059998, 0.000000,  0.000000 
 22338560.000000, 11.775080 , 1.289732, 6.941578, 3630800128.000000, 48.299999,  -25.549999,  137.130005, 0.000000,  0.000000 
 22358528.000000, 11.140982 , 0.744168, 6.147161, 3630820096.000000, 24.710001,  -15.610000,  85.470001, 0.000000,  0.000000 
 22378496.000000, 11.700903 , 1.462015, 6.352944, 3630840064.000000, 0.700000,  -49.980000,  42.139999, 0.000000,  0.000000 
 22399488.000000, 9.724431 , -2.012364, 10.736595, 3630860032.000000, -69.930000,  -79.590004,  -28.210001, 0.000000,  0.000000 
 22418432.000000, 7.042077 , -9.695717, 15.450456, 3630881024.000000, -137.199997,  -89.529999,  -107.449997, 0.000000,  0.000000 
 22438400.000000, 4.890929 , -22.655245, 15.699310, 3630899968.000000, -133.910004,  -104.510002,  -187.529999, 0.000000,  0.000000 
 22458880.000000, 2.378466 , -28.323841, 19.877178, 3630919936.000000, -42.910000,  -127.680000,  -266.489990, 0.000000,  0.000000 
 22478848.000000, 0.794417 , -30.233313, 20.925234, 3630939904.000000, -25.690001,  -142.100006,  -321.299988, 0.000000,  0.000000 
 22499328.000000, -1.404587 , -27.129822, 20.453848, 3630959872.000000, 22.820000,  -171.710007,  -346.290009, 0.000000,  0.000000 
 22518784.000000, -6.345766 , -20.204992, 14.663218, 3630999808.000000, 121.660004,  -153.580002,  -373.380005, 0.000000,  0.000000 
 22538752.000000, -9.382257 , -14.711074, 11.576476, 0.000000, 0.000000,  0.000000,  0.000000, 0.000000,  0.000000 
 22558720.000000, -8.700303 , -10.336994, 12.263215, 3631019776.000000, 146.300003,  -145.949997,  -345.940002, 0.000000,  0.000000 
 22578688.000000, -10.755738 , -7.645068, 7.587641, 3631039744.000000, 98.489998,  -142.029999,  -293.160004, 0.000000,  0.000000 
 22599680.000000, -11.186446 , -3.522235, 3.294917, 3631059712.000000, 86.519997,  -90.510002,  -268.660004, 0.000000,  0.000000 
 22618624.000000, -7.984849 , 1.328017, 1.945365, 3631080704.000000, 101.220001,  -46.130001,  -220.290009, 5893493760.000000,  1006.113953 
 22638592.000000, -7.750352 , 5.146961, 1.337588, 3631099648.000000, 73.080002,  -20.370001,  -150.220001, 0.000000,  0.000000 
 22658560.000000, -11.339586 , 5.257031, -2.837888, 3631119616.000000, 28.210001,  36.820000,  -135.800003, 0.000000,  0.000000 
 22678528.000000, -11.609976 , 5.180461, -4.149154, 3631139584.000000, 4.970000,  88.690002,  -130.059998, 0.000000,  0.000000 
 22699520.000000, -8.879765 , 4.859823, -4.168297, 3631160064.000000, -37.029999,  90.370003,  -69.930000, 0.000000,  0.000000 
 22718464.000000, -8.740981 , 3.996014, -4.223332, 3631180544.000000, -54.110001,  76.370003,  10.290000, 0.000000,  0.000000 
 22738432.000000, -9.083155 , 2.081756, -4.390830, 3631200000.000000, -97.230003,  84.629997,  43.610001, 0.000000,  0.000000 
 22758400.000000, -8.611769 , -0.492921, -2.266003, 3631219968.000000, -133.000000,  105.279999,  100.379997, 0.000000,  0.000000 
 22778368.000000, -8.846266 , -1.064806, 6.723832, 3631239936.000000, -142.660004,  104.720001,  172.899994, 0.000000,  0.000000 
 22799360.000000, -13.701303 , -15.163318, 10.387242, 3631259904.000000, -159.110001,  117.320000,  242.270004, 0.000000,  0.000000 
 22818304.000000, -18.843477 , -26.433510, 15.538989, 3631280896.000000, -184.729996,  135.240005,  313.110016, 0.000000,  0.000000 
 22838272.000000, -14.648861 , -43.104305, 23.095526, 3631299840.000000, -221.970001,  156.800003,  346.360016, 0.000000,  0.000000 
 22858240.000000, -5.678168 , -29.527430, 21.372692, 3631319808.000000, -199.779999,  111.020004,  404.320007, 0.000000,  0.000000 
 22878208.000000, -3.488736 , -23.444876, 18.666409, 3631339776.000000, -143.289993,  53.130001,  371.980011, 0.000000,  0.000000 
 22899200.000000, 1.562513 , -15.948163, 19.159330, 3631359744.000000, -175.979996,  79.940002,  239.399994, 0.000000,  0.000000 
 22918144.000000, 4.673182 , -12.550355, 17.235500, 3631380736.000000, -135.800003,  101.500000,  213.990005, 0.000000,  0.000000 
 22938624.000000, 3.156133 , -8.874979, 14.761322, 3631399680.000000, -19.110001,  97.090004,  182.000000, 0.000000,  0.000000 
 22958592.000000, 2.440679 , -6.037091, 10.638489, 3631419648.000000, 111.300003,  76.720001,  128.309998, 0.000000,  0.000000 
 22978560.000000, 4.881358 , -2.780460, 7.343572, 3631439616.000000, 214.410004,  36.049999,  133.770004, 0.000000,  0.000000 
 22999040.000000, 7.269395 , 0.088534, 4.335794, 3631459584.000000, 244.720001,  -13.230000,  183.050003, 0.000000,  0.000000 
 23018496.000000, 7.702496 , 2.079363, 2.120041, 3631480576.000000, 191.940002,  -33.670002,  201.320007, 0.000000,  0.000000 
 23038464.000000, 8.499306 , 2.620141, 3.747160, 3631499520.000000, 69.440002,  -22.610001,  180.669998, 0.000000,  0.000000 
 23058432.000000, 9.829715 , 1.493121, 6.422336, 3631519488.000000, -42.209999,  -26.740000,  161.910004, 0.000000,  0.000000 
 23078400.000000, 10.521241 , -0.002393, 7.831708, 3631539456.000000, -110.040001,  -51.660000,  124.599998, 0.000000,  0.000000 
 23099392.000000, 11.547763 , -3.538985, 10.425529, 3631580416.000000, -140.559998,  -92.260002,  -1.750000, 0.000000,  0.000000 
 23118336.000000, 10.674382 , -8.456236, 14.806787, 0.000000, 0.000000,  0.000000,  0.000000, 0.000000,  0.000000 
 23138304.000000, 7.216753 , -16.053448, 13.722836, 3631599360.000000, -96.739998,  -118.440002,  -84.000000, 0.000000,  0.000000 
 23158272.000000, 4.871787 , -23.081167, 16.831116, 3631619328.000000, -36.820000,  -144.619995,  -209.229996, 0.000000,  0.000000 
 23178240.000000, 5.479564 , -28.733015, 20.008783, 3631639808.000000, -77.419998,  -179.059998,  -300.790009, 0.000000,  0.000000 
 23199232.000000, 2.897708 , -28.374090, 20.059032, 3631659776.000000, -50.049999,  -213.500000,  -306.250000, 0.000000,  0.000000 
 23218176.000000, -1.861616 , -23.143379, 16.534405, 3631680256.000000, 43.330002,  -225.330002,  -385.489990, 0.000000,  0.000000 
 23238144.000000, -3.089134 , -19.420149, 13.940585, 3631699712.000000, 65.519997,  -226.169998,  -432.320007, 0.000000,  0.000000 
 23258112.000000, -2.660819 , -14.598611, 13.584054, 3631719680.000000, 62.160000,  -232.889999,  -396.899994, 0.000000,  0.000000 
 23278080.000000, -6.034698 , -10.040283, 9.927821, 3631739648.000000, 58.240002,  -198.380005,  -339.290009, 0.000000,  0.000000 
 23301120.000000, -11.650653 , -6.027520, 4.326223, 3631759616.000000, 50.049999,  -135.729996,  -325.709991, 0.000000,  0.000000 
 23318016.000000, -13.464413 , -2.000400, 1.928615, 3631782144.000000, 17.360001,  -82.879997,  -310.100006, 0.000000,  0.000000 
 23337984.000000, -13.045669 , 1.055235, 0.861416, 3631799552.000000, -25.969999,  -45.360001,  -242.199997, 0.000000,  0.000000 
 23357952.000000, -14.189439 , 3.613162, 1.911865, 3631819520.000000, -62.930000,  24.500000,  -201.039993, 0.000000,  0.000000 
 23377920.000000, -15.814165 , 3.625126, -0.234497, 3631839488.000000, -95.129997,  93.029999,  -178.710007, 0.000000,  0.000000 
 23398912.000000, -15.187245 , 4.680361, -3.495914, 3631859456.000000, -64.610001,  137.970001,  -134.470001, 0.000000,  0.000000 
 23417856.000000, -12.078968 , 4.876573, -4.208975, 3631880448.000000, 9.100000,  128.940002,  -64.680000, 0.000000,  0.000000 
 23438336.000000, -9.477970 , 4.771288, -3.440879, 3631899392.000000, 73.290001,  85.050003,  34.580002, 0.000000,  0.000000 
 23458304.000000, -8.678767 , 4.709075, -0.933201, 3631919360.000000, 26.740000,  93.940002,  139.720001, 0.000000,  0.000000 
 23478272.000000, -12.399607 , 1.385444, 4.285545, 3631939328.000000, -72.800003,  142.240005,  246.750000, 0.000000,  0.000000 
 23498752.000000, -19.484755 , -11.653046, 7.477571, 3631959296.000000, -158.970001,  198.449997,  302.470001, 0.000000,  0.000000 
 23518208.000000, -23.059631 , -36.519257, 25.184460, 3631980288.000000, -237.229996,  217.139999,  343.769989, 0.000000,  0.000000 
 23538176.000000, -11.801401 , -44.063831, 29.587252, 3631999232.000000, -315.839996,  213.080002,  392.910004, 0.000000,  0.000000 
 23558144.000000, -5.931807 , -30.860233, 23.772696, 3632019200.000000, -212.589996,  153.860001,  426.860016, 0.000000,  0.000000 
 23578112.000000, -0.318245 , -24.751358, 22.640886, 3632039168.000000, -125.160004,  101.849998,  337.470001, 0.000000,  0.000000 
 23599104.000000, 4.132405 , -17.438890, 18.836300, 3632059136.000000, -141.470001,  97.580002,  270.059998, 0.000000,  0.000000 
 23618048.000000, 5.072784 , -12.181859, 13.421343, 3632099072.000000, 0.630000,  56.490002,  156.029999, 5894493184.000000,  1006.118530 
 23638016.000000, 4.453043 , -7.030113, 9.590433, 0.000000, 0.000000,  0.000000,  0.000000, 0.000000,  0.000000 
 23657984.000000, 6.664011 , -3.728018, 6.675975, 3632119552.000000, 52.080002,  31.920000,  105.139999, 0.000000,  0.000000 
 23677952.000000, 11.703296 , -1.088734, 4.577469, 3632139520.000000, 68.599998,  0.420000,  122.150002, 0.000000,  0.000000 
 23698944.000000, 15.263817 , 1.933401, 4.019942, 3632159488.000000, 75.040001,  -39.130001,  162.820007, 0.000000,  0.000000 
 23717888.000000, 14.713466 , 3.400201, 4.620540, 3632179968.000000, 49.139999,  -49.209999,  163.380005, 0.000000,  0.000000 
 23737856.000000, 16.620546 , 1.909473, 2.945565, 3632199424.000000, 14.910000,  -48.020000,  132.789993, 0.000000,  0.000000 
 23757824.000000, 15.921842 , -0.093320, 2.155933, 3632219392.000000, 23.520000,  -87.639999,  120.959999, 0.000000,  0.000000 
 23777792.000000, 13.091133 , -2.852244, 6.585048, 3632239360.000000, -26.320000,  -101.779999,  59.080002, 0.000000,  0.000000 
 23798784.000000, 11.724831 , -10.325029, 13.799409, 3632259328.000000, -140.350006,  -98.279999,  -39.619999, 0.000000,  0.000000 
 23817728.000000, 8.874979 , -23.657837, 17.979670, 3632280320.000000, -194.180008,  -112.770004,  -129.639999, 0.000000,  0.000000 
 23837696.000000, 2.557927 , -33.899117, 20.965912, 3632299264.000000, -119.070000,  -126.349998,  -240.800003, 0.000000,  0.000000 
 23857664.000000, -1.710868 , -31.566118, 20.788843, 3632319232.000000, -19.389999,  -142.309998,  -381.429993, 0.000000,  0.000000 
 23877632.000000, -0.023928 , -28.247271, 22.947166, 3632339200.000000, 76.580002,  -176.050003,  -415.589996, 0.000000,  0.000000 
 23899136.000000, -2.952743 , -22.186251, 19.061224, 3632359168.000000, 101.290001,  -226.169998,  -399.279999, 0.000000,  0.000000 
 23918080.000000, -5.505885 , -17.505890, 14.976677, 3632380160.000000, 113.750000,  -218.750000,  -402.290009, 0.000000,  0.000000 
 23938048.000000, -6.199803 , -12.997812, 15.689737, 3632399104.000000, 106.330002,  -209.020004,  -401.450012, 0.000000,  0.000000 
 23958016.000000, -8.193025 , -9.238688, 12.485749, 3632419072.000000, 59.990002,  -164.990005,  -369.670013, 0.000000,  0.000000 
 23977984.000000, -6.726225 , -4.163511, 5.369494, 3632439040.000000, 81.059998,  -111.930000,  -332.570007, 0.000000,  0.000000 
 23998464.000000, -5.883951 , 0.119641, 2.038685, 3632459008.000000, 126.209999,  -82.180000,  -248.779999, 0.000000,  0.000000 
 24017920.000000, -10.068997 , 1.768296, 1.753939, 3632480000.000000, 61.320000,  -75.949997,  -216.229996, 0.000000,  0.000000 
 24037888.000000, -14.522040 , 0.598206, 1.057628, 3632498944.000000, -62.720001,  -50.820000,  -222.460007, 0.000000,  0.000000 
 24057856.000000, -17.395821 , 0.674776, 0.275175, 3632518912.000000, -139.789993,  4.690000,  -208.600006, 0.000000,  0.000000 
 24077824.000000, -15.979269 , 1.127020, -0.775275, 3632538880.000000, -109.760002,  41.930000,  -159.529999, 0.000000,  0.000000 
 24098816.000000, -14.196616 , 2.682354, -3.105884, 3632558848.000000, -4.410000,  48.090000,  -85.260002, 0.000000,  0.000000 
 24117760.000000, -10.183852 , 3.409772, -3.754339, 3632579840.000000, 87.290001,  49.070000,  1.890000, 0.000000,  0.000000 
 24137728.000000, -8.197811 , 1.421337, 2.500499, 3632598784.000000, 71.050003,  74.199997,  131.039993, 0.000000,  0.000000 
 24157696.000000, -10.454242 , -4.658825, 7.042077, 3632619264.000000, -1.610000,  133.559998,  208.039993, 0.000000,  0.000000 
 24177664.000000, -10.741381 , -11.231910, 12.466606, 3632639232.000000, -25.410000,  187.250000,  283.360016, 0.000000,  0.000000 
 24198656.000000, -6.927221 , -20.207388, 21.238693, 3632659200.000000, -46.619999,  220.710007,  372.399994, 0.000000,  0.000000 
 24217600.000000, -10.918450 , -29.491539, 25.871199, 3632679680.000000, -152.669998,  253.960007,  453.040009, 0.000000,  0.000000 
 24237568.000000, -4.587041 , -28.465019, 25.012173, 3632699136.000000, -240.520004,  260.750000,  429.940002, 0.000000,  0.000000 
 24257536.000000, 3.297310 , -23.172094, 23.966513, 3632719104.000000, -192.779999,  226.729996,  409.570007, 0.000000,  0.000000 
 24277504.000000, 3.256632 , -19.214367, 21.540190, 3632739072.000000, -183.680008,  220.290009,  369.809998, 0.000000,  0.000000 
 24300544.000000, 2.627320 , -15.067604, 18.049061, 3632759040.000000, -162.889999,  194.180008,  248.779999, 0.000000,  0.000000 
 24317440.000000, 5.601598 , -10.480563, 12.949955, 3632781568.000000, -68.389999,  144.690002,  189.419998, 0.000000,  0.000000 
 24337408.000000, 9.303294 , -5.946165, 8.008778, 3632798976.000000, 54.110001,  85.260002,  189.350006, 0.000000,  0.000000 
 24357376.000000, 11.858829 , -1.217947, 4.443472, 3632818944.000000, 110.669998,  37.590000,  180.389999, 0.000000,  0.000000 
 24377344.000000, 13.624733 , 1.258625, 5.280960, 3632838912.000000, 72.730003,  20.790001,  154.630005, 0.000000,  0.000000 
 24398336.000000, 14.325829 , 0.854238, 6.350551, 3632858880.000000, 4.200000,  11.550000,  138.460007, 0.000000,  0.000000 
 24417792.000000, 16.938791 , -0.868595, 5.943772, 3632879872.000000, -27.230000,  -24.430000,  115.500000, 0.000000,  0.000000 
 24437760.000000, 17.414963 , 0.394816, 5.295317, 3632898816.000000, 26.110001,  -75.459999,  77.489998, 0.000000,  0.000000 
 24457728.000000, 13.057633 , 0.574277, 7.511070, 3632918784.000000, 45.920002,  -99.120003,  -1.190000, 0.000000,  0.000000 
 24477696.000000, 10.621738 , -5.192425, 9.102298, 3632938752.000000, -29.889999,  -99.120003,  -96.459999, 0.000000,  0.000000 
 24498176.000000, 10.320245 , -15.467206, 12.143576, 3632958720.000000, -121.169998,  -129.220001,  -166.529999, 0.000000,  0.000000 
 24517632.000000, 10.088140 , -32.398819, 22.437496, 3632979712.000000, -160.860001,  -152.180008,  -251.720001, 0.000000,  0.000000 
 24537600.000000, -0.428315 , -37.785065, 22.939989, 3632998656.000000, -167.020004,  -137.619995,  -297.220001, 0.000000,  0.000000 
 24557568.000000, -2.813959 , -31.252655, 22.293928, 3633018624.000000, -64.610001,  -129.850006,  -406.980011, 0.000000,  0.000000 
 24577536.000000, -5.699703 , -24.469006, 16.500904, 3633038592.000000, 50.540001,  -150.360001,  -372.959991, 0.000000,  0.000000 
 24598528.000000, -8.303094 , -18.312271, 13.713267, 3633058560.000000, 77.769997,  -164.779999,  -348.600006, 0.000000,  0.000000 
 24617472.000000, -10.813165 , -11.636297, 10.291530, 3633079552.000000, 87.849998,  -153.300003,  -335.649994, 5895492608.000000,  1006.118958 
 24637440.000000, -13.799409 , -6.281159, 3.885944, 3633098496.000000, 83.440002,  -145.389999,  -291.269989, 0.000000,  0.000000 
 24657408.000000, -9.068797 , -1.172483, 2.086541, 3633118976.000000, 70.769997,  -120.959999,  -275.660004, 0.000000,  0.000000 
 24677376.000000, -6.781260 , 1.856830, 1.071985, 3633138944.000000, 63.279999,  -70.209999,  -206.779999, 0.000000,  0.000000 
 24698368.000000, -12.598210 , 2.416751, -1.031307, 3633158912.000000, 37.099998,  -28.210001,  -145.180008, 0.000000,  0.000000 
 24717312.000000, -14.385650 , 1.526621, -2.175076, 3633179392.000000, 17.920000,  32.549999,  -160.020004, 0.000000,  0.000000 
 24737280.000000, -13.253844 , 1.813759, -2.885744, 3633198848.000000, 31.010000,  74.410004,  -140.139999, 0.000000,  0.000000 
 24757248.000000, -10.882557 , 4.027121, -3.905087, 3633218816.000000, 52.290001,  62.090000,  -74.550003, 0.000000,  0.000000 
 24777216.000000, -10.980663 , 4.015156, -4.472186, 3633238784.000000, 41.790001,  43.959999,  -8.610000, 0.000000,  0.000000 
 24798208.000000, -9.827322 , 1.203590, -2.677568, 3633258752.000000, -24.920000,  68.180000,  45.990002, 0.000000,  0.000000 
 24817152.000000, -7.860423 , -0.983450, 2.663212, 3633279744.000000, -80.639999,  93.870003,  104.650002, 0.000000,  0.000000 
 24837120.000000, -8.226524 , -5.357530, 9.011370, 3633298688.000000, -78.540001,  117.529999,  173.460007, 0.000000,  0.000000 
 24857088.000000, -12.100503 , -16.735401, 14.371292, 3633318656.000000, -62.439999,  155.050003,  230.580002, 0.000000,  0.000000 
 24877056.000000, -11.511869 , -28.733015, 22.222145, 3633338624.000000, -86.169998,  191.589996,  281.329987, 0.000000,  0.000000 
 24898048.000000, -6.601797 , -27.651459, 26.060230, 3633358592.000000, -142.729996,  200.130005,  336.350006, 0.000000,  0.000000 
 24917504.000000, -2.550749 , -19.401007, 22.990240, 3633379584.000000, -125.860001,  174.720001,  307.790009, 0.000000,  0.000000 
 24937472.000000, 1.529014 , -14.045869, 21.272192, 3633398528.000000, -77.349998,  170.869995,  242.970001, 0.000000,  0.000000 
 24957440.000000, 2.395216 , -11.081161, 17.108681, 3633418496.000000, -60.549999,  181.509995,  200.339996, 0.000000,  0.000000 
 24977408.000000, 1.904687 , -7.735995, 15.510277, 3633438464.000000, -42.980000,  166.809998,  153.440002, 0.000000,  0.000000 
 24998400.000000, 3.462414 , -5.292924, 12.906885, 3633458432.000000, -31.150000,  124.949997,  131.949997, 0.000000,  0.000000 
 25017344.000000, 7.056434 , -3.409772, 9.954143, 3633479424.000000, 13.860000,  69.019997,  157.710007, 0.000000,  0.000000 
 25037312.000000, 10.892128 , -0.813560, 8.310273, 3633498368.000000, 49.700001,  19.600000,  186.550003, 0.000000,  0.000000 
 25057280.000000, 13.631909 , 1.579263, 8.829515, 3633518336.000000, 28.770000,  -14.980000,  187.320007, 0.000000,  0.000000 
 25077248.000000, 13.978869 , 2.596212, 8.434700, 3633538304.000000, -17.290001,  -48.930000,  166.460007, 0.000000,  0.000000 
 25098240.000000, 14.529219 , -0.411566, 6.206983, 3633558272.000000, -19.180000,  -88.970001,  124.110001, 0.000000,  0.000000 
 25117184.000000, 14.708681 , -1.514657, 8.575876, 3633579264.000000, 35.910000,  -135.869995,  62.860001, 0.000000,  0.000000 
 25137152.000000, 10.131211 , -3.510271, 10.856236, 3633598720.000000, 15.260000,  -164.080002,  -23.730000, 0.000000,  0.000000 
 25157120.000000, 6.190232 , -12.090932, 12.208181, 3633618688.000000, -29.610001,  -156.029999,  -125.090004, 0.000000,  0.000000 
 25177088.000000, 6.984650 , -26.354549, 22.636101, 3633638656.000000, -74.199997,  -181.440002,  -230.930008, 0.000000,  0.000000 
 25198080.000000, 2.569891 , -32.958740, 22.356144, 3633658624.000000, -114.449997,  -205.589996,  -249.339996, 0.000000,  0.000000 
 25217024.000000, -1.261017 , -27.091537, 21.037695, 3633679104.000000, -71.540001,  -214.199997,  -312.970001, 0.000000,  0.000000 
 25236992.000000, -4.778467 , -19.767109, 17.182859, 3633698560.000000, 38.430000,  -219.380005,  -376.600006, 0.000000,  0.000000 
 25256960.000000, -7.197611 , -15.093925, 13.440485, 3633718528.000000, 84.980003,  -210.419998,  -347.760010, 0.000000,  0.000000 
 25276928.000000, -9.085547 , -10.325029, 8.298308, 3633738496.000000, 108.080002,  -177.380005,  -316.329987, 0.000000,  0.000000 
 25299968.000000, -11.023734 , -5.637490, 5.635098, 3633758464.000000, 73.010002,  -144.410004,  -278.880005, 0.000000,  0.000000 
 25316864.000000, -9.389436 , -2.108077, 3.479164, 3633780992.000000, 30.450001,  -79.309998,  -258.860016, 0.000000,  0.000000 
 25336832.000000, -7.640282 , 0.942772, 2.009971, 3633798400.000000, 21.070000,  -21.840000,  -196.699997, 0.000000,  0.000000 
 25356800.000000, -8.918050 , 3.414558, 1.091127, 3633818368.000000, 27.299999,  37.029999,  -156.029999, 0.000000,  0.000000 
 25377280.000000, -11.607583 , 3.720839, -1.414158, 3633838336.000000, 11.760000,  84.209999,  -133.350006, 0.000000,  0.000000 
 25397760.000000, -11.239087 , 3.235096, -1.603191, 3633858304.000000, 4.410000,  110.529999,  -99.820000, 0.000000,  0.000000 
 25417216.000000, -9.375079 , 2.825923, 0.009571, 3633879296.000000, 9.310000,  102.129997,  -41.720001, 0.000000,  0.000000 
 25437184.000000, -7.623533 , 3.713661, 0.729811, 3633898240.000000, 3.710000,  81.199997,  12.530000, 0.000000,  0.000000 
 25457152.000000, -6.953543 , 2.555535, 0.926022, 3633918208.000000, -30.030001,  94.360001,  82.599998, 0.000000,  0.000000 
 25477120.000000, -9.078369 , -0.294317, 4.347759, 3633938176.000000, -33.740002,  116.900002,  131.809998, 0.000000,  0.000000 
 25498112.000000, -11.739187 , -3.967300, 10.459028, 3633958144.000000, -16.520000,  157.919998,  160.089996, 0.000000,  0.000000 
 25517056.000000, -12.059827 , -10.277173, 15.280564, 3633979136.000000, -8.540000,  194.669998,  202.369995, 0.000000,  0.000000 
 25537024.000000, -11.050055 , -17.723637, 20.848663, 3633998080.000000, -22.400000,  234.290009,  242.199997, 0.000000,  0.000000 
 25556992.000000, -11.540584 , -23.466410, 25.677380, 3634018048.000000, -133.979996,  252.350006,  256.130005, 0.000000,  0.000000 
 25576960.000000, -6.498906 , -23.708086, 23.705694, 3634038016.000000, -249.479996,  258.369995,  262.570007, 0.000000,  0.000000 
 25597952.000000, 0.926022 , -16.244873, 21.355942, 3634078976.000000, -80.849998,  144.550003,  251.160004, 5896492032.000000,  1006.118530 
 25616896.000000, 5.405386 , -11.064411, 16.922041, 0.000000, 0.000000,  0.000000,  0.000000, 0.000000,  0.000000 
 25636864.000000, 5.503492 , -7.628319, 12.894921, 3634098432.000000, 10.850000,  115.500000,  220.639999, 0.000000,  0.000000 
 25656832.000000, 4.242475 , -4.170690, 10.638489, 3634118400.000000, 49.840000,  84.489998,  144.410004, 0.000000,  0.000000 
 25676800.000000, 5.362316 , -1.730011, 7.824530, 3634138368.000000, 61.250000,  48.509998,  103.879997, 0.000000,  0.000000 
 25697792.000000, 8.738588 , -0.284746, 4.711468, 3634158336.000000, 68.809998,  3.430000,  121.940002, 0.000000,  0.000000 
 25716736.000000, 11.406586 , 1.282553, 3.713661, 3634178816.000000, 52.080002,  -42.070000,  147.279999, 0.000000,  0.000000 
 25736704.000000, 10.363315 , 1.186840, 3.821337, 3634198272.000000, -18.620001,  -67.620003,  148.330002, 0.000000,  0.000000 
 25756672.000000, 9.140583 , 0.033500, 3.091527, 3634218240.000000, -97.790001,  -83.090004,  119.070000, 0.000000,  0.000000 
 25776640.000000, 10.590633 , 0.088534, 3.022135, 3634238208.000000, -128.100006,  -110.389999,  82.669998, 0.000000,  0.000000 
 25797632.000000, 13.064812 , 0.720240, 3.605984, 3634258176.000000, -111.650002,  -151.270004,  49.560001, 0.000000,  0.000000 
 25816576.000000, 11.708081 , -0.868595, 7.838887, 3634279168.000000, -107.449997,  -173.949997,  -6.370000, 0.000000,  0.000000 
 25836544.000000, 9.396614 , -7.709675, 15.964913, 3634298112.000000, -175.910004,  -156.869995,  -89.949997, 0.000000,  0.000000 
 25856512.000000, 8.946764 , -24.497717, 21.927826, 3634318080.000000, -213.779999,  -138.949997,  -174.649994, 0.000000,  0.000000 
 25876992.000000, 4.637290 , -38.840298, 30.410383, 3634338048.000000, -150.220001,  -159.180008,  -260.750000, 0.000000,  0.000000 
 25897472.000000, -1.777867 , -34.820354, 28.113276, 3634358016.000000, -92.540001,  -152.949997,  -300.089996, 0.000000,  0.000000 
 25916928.000000, -4.055835 , -23.473591, 24.098116, 3634379008.000000, 105.769997,  -140.070007,  -379.890015, 0.000000,  0.000000 
 25936896.000000, -9.798609 , -16.790438, 17.369499, 3634397952.000000, 153.860001,  -181.860001,  -373.450012, 0.000000,  0.000000 
 25956864.000000, -13.505091 , -9.202796, 14.940784, 3634417920.000000, 146.720001,  -182.139999,  -428.679993, 0.000000,  0.000000 
 25976832.000000, -11.502297 , -3.203990, 12.892529, 3634437888.000000, 87.919998,  -172.410004,  -406.630005, 0.000000,  0.000000 
 25997824.000000, -9.683753 , -0.023928, 5.501099, 3634457856.000000, 93.379997,  -120.820000,  -338.660004, 0.000000,  0.000000 
 26016768.000000, -9.154939 , 3.548556, -0.655633, 3634478848.000000, 168.559998,  -62.299999,  -279.929993, 0.000000,  0.000000 
 26036736.000000, -7.637890 , 7.520642, -2.522035, 3634497792.000000, 219.660004,  -28.280001,  -232.259995, 0.000000,  0.000000 
 26056704.000000, -8.839087 , 7.599605, -6.173482, 3634517760.000000, 216.440002,  -22.190001,  -154.070007, 0.000000,  0.000000 
 26076672.000000, -9.075976 , 5.874380, -8.604590, 3634537728.000000, 147.350006,  8.750000,  -102.900002, 0.000000,  0.000000 
 26097664.000000, -6.850651 , 2.624927, -7.791030, 3634557696.000000, -40.529999,  47.740002,  -48.580002, 0.000000,  0.000000 
 26116608.000000, -7.506285 , 0.512064, -4.299902, 3634578688.000000, -219.729996,  62.720001,  28.210001, 0.000000,  0.000000 
 26136576.000000, -8.279166 , -1.521835, -2.067399, 3634598144.000000, -266.070007,  90.510002,  67.199997, 0.000000,  0.000000 
 26156544.000000, -8.066205 , -2.433501, -0.909273, 3634618112.000000, -171.570007,  105.209999,  142.660004, 0.000000,  0.000000 
 26176512.000000, -8.836694 , -1.095913, 5.180461, 3634638080.000000, -39.759998,  114.099998,  224.559998, 0.000000,  0.000000 
 26197504.000000, -12.672389 , -9.604790, 12.033505, 3634658048.000000, 6.860000,  161.979996,  285.250000, 0.000000,  0.000000 
 26216448.000000, -19.747965 , -24.914070, 23.842085, 3634679040.000000, -87.639999,  192.639999,  301.910004, 0.000000,  0.000000 
 26236416.000000, -11.736795 , -33.719654, 27.148966, 3634697984.000000, -232.050003,  241.430008,  286.089996, 0.000000,  0.000000 
 26256384.000000, -2.916851 , -23.700909, 23.633907, 3634717952.000000, -261.799988,  194.320007,  311.989990, 0.000000,  0.000000 
 26276352.000000, 2.883351 , -16.752151, 26.522047, 3634737920.000000, -273.279999,  130.759995,  253.889999, 0.000000,  0.000000 
 26299392.000000, 6.015556 , -12.820745, 25.201208, 3634757888.000000, -235.899994,  139.580002,  189.070007, 0.000000,  0.000000 
 26316288.000000, 4.132405 , -9.580862, 16.168303, 3634780928.000000, -92.400002,  136.850006,  167.440002, 0.000000,  0.000000 
 26336256.000000, 3.091527 , -5.661418, 9.540184, 3634797824.000000, 88.970001,  112.070000,  98.070000, 0.000000,  0.000000 
 26356736.000000, 5.261817 , -0.361316, 7.989635, 3634837760.000000, 185.009995,  3.150000,  127.260002, 0.000000,  0.000000 
 26376704.000000, 8.999406 , 2.158326, 5.931807, 0.000000, 0.000000,  0.000000,  0.000000, 0.000000,  0.000000 
 26397184.000000, 10.181459 , 1.672583, 5.056034, 3634857728.000000, 130.410004,  -34.509998,  166.180008, 0.000000,  0.000000 
 26416640.000000, 11.073983 , 0.969093, 4.199404, 3634878720.000000, 41.020000,  -40.950001,  147.630005, 0.000000,  0.000000 
 26436608.000000, 13.088740 , 0.849452, 2.849852, 3634897664.000000, -15.540000,  -52.990002,  134.610001, 0.000000,  0.000000 
 26456576.000000, 16.567905 , 0.145962, 1.636691, 3634917632.000000, -12.600000,  -86.169998,  127.889999, 0.000000,  0.000000 
 26476544.000000, 18.623339 , 0.279960, -0.303888, 3634937600.000000, 1.050000,  -115.779999,  85.120003, 0.000000,  0.000000 
 26497536.000000, 15.553347 , -2.103291, 3.909872, 3634957568.000000, -72.870003,  -114.169998,  15.330000, 0.000000,  0.000000 
 26516480.000000, 13.442878 , -18.049061, 16.314266, 3634978560.000000, -221.550003,  -88.410004,  -79.590004, 0.000000,  0.000000 
 26536448.000000, 11.040483 , -47.717670, 30.594629, 3634997504.000000, -272.160004,  -92.260002,  -185.220001, 0.000000,  0.000000 
 26556416.000000, -1.658226 , -42.884167, 23.129021, 3635017472.000000, -347.619995,  -87.639999,  -241.009995, 0.000000,  0.000000 
 26576384.000000, -2.112862 , -35.509487, 22.274784, 3635037440.000000, -219.449997,  -74.480003,  -389.899994, 0.000000,  0.000000 
 26597376.000000, -5.532206 , -26.916864, 18.374485, 3635057920.000000, 114.940002,  -96.529999,  -475.860016, 0.000000,  0.000000 
 26616320.000000, -8.932407 , -22.238895, 15.242280, 3635078400.000000, 108.849998,  -177.520004,  -473.760010, 5897491456.000000,  1006.117126 
 26636288.000000, -17.716459 , -14.639289, 12.667603, 3635097856.000000, 91.000000,  -154.699997,  -517.440002, 0.000000,  0.000000 
 26656256.000000, -16.582260 , -6.187840, 11.456835, 3635117824.000000, 39.759998,  -126.489998,  -519.679993, 0.000000,  0.000000 
 26676224.000000, -13.476377 , -0.495314, 3.256632, 3635137792.000000, 39.830002,  -51.029999,  -409.360016, 0.000000,  0.000000 
 26697216.000000, -8.992228 , 3.242275, -1.354338, 3635157760.000000, 134.610001,  0.700000,  -274.470001, 0.000000,  0.000000 
 26716160.000000, -5.300103 , 8.126025, -1.780260, 3635178752.000000, 209.160004,  -12.880000,  -191.520004, 0.000000,  0.000000 
 26736128.000000, -5.300103 , 9.054441, -1.430908, 3635197696.000000, 136.710007,  -12.530000,  -122.360001, 0.000000,  0.000000 
 26756096.000000, -8.238488 , 4.878965, -2.100898, 3635217664.000000, -0.350000,  59.290001,  -86.379997, 0.000000,  0.000000 
 26776064.000000, -10.217353 , 2.400001, -1.555335, 3635237632.000000, -98.279999,  99.540001,  -68.739998, 0.000000,  0.000000 
 26797056.000000, -10.145569 , 2.199004, 0.162712, 3635257600.000000, -143.500000,  114.169998,  -8.330000, 0.000000,  0.000000 
 26816000.000000, -7.479963 , 2.309074, 1.210768, 3635278592.000000, -142.940002,  110.250000,  57.820000, 0.000000,  0.000000 
 26836480.000000, -6.180661 , 2.079363, 0.184247, 3635297536.000000, -92.190002,  99.540001,  112.419998, 0.000000,  0.000000 
 26856448.000000, -5.103891 , 0.854238, 0.272782, 3635317504.000000, -17.290001,  93.169998,  161.559998, 0.000000,  0.000000 
 26876416.000000, -5.359922 , -1.761117, 6.903293, 3635337472.000000, 29.190001,  92.050003,  212.520004, 0.000000,  0.000000 
 26896896.000000, -12.464212 , -14.019548, 17.166111, 3635357440.000000, 17.780001,  109.900002,  246.119995, 0.000000,  0.000000 
 26916352.000000, -7.764710 , -25.031317, 23.533411, 3635378432.000000, -49.630001,  127.680000,  221.130005, 0.000000,  0.000000 
 26936320.000000, -6.419943 , -23.478374, 23.408983, 3635397376.000000, -46.759998,  138.110001,  319.130005, 0.000000,  0.000000 
 26956288.000000, -5.225924 , -21.817757, 21.320049, 3635417344.000000, 4.830000,  124.599998,  325.290009, 0.000000,  0.000000 
 26976256.000000, 1.605584 , -16.108482, 16.098909, 3635437312.000000, -98.419998,  100.309998,  254.869995, 0.000000,  0.000000 
 26997248.000000, 4.656433 , -10.820344, 15.022141, 3635457280.000000, -143.080002,  96.459999,  245.699997, 0.000000,  0.000000 
 27016192.000000, 3.244668 , -9.628718, 16.981861, 3635478272.000000, -178.779999,  122.150002,  222.600006, 0.000000,  0.000000 
 27036160.000000, 2.505285 , -9.748360, 15.584454, 3635497216.000000, -191.660004,  133.139999,  180.880005, 0.000000,  0.000000 
 27056128.000000, 5.312066 , -8.264810, 10.832308, 3635517184.000000, -88.620003,  109.059998,  155.050003, 0.000000,  0.000000 
 27076096.000000, 7.350751 , -3.371487, 6.264410, 3635537664.000000, 84.139999,  69.720001,  158.059998, 0.000000,  0.000000 
 27097088.000000, 8.867801 , 0.792024, 5.474778, 3635557632.000000, 150.360001,  52.709999,  156.869995, 0.000000,  0.000000 
 27116032.000000, 10.372886 , 1.328017, 6.281159, 3635578112.000000, 65.730003,  44.590000,  147.559998, 0.000000,  0.000000 
 27136000.000000, 12.631711 , 1.289732, 5.625526, 3635597568.000000, -37.660000,  26.530001,  139.089996, 0.000000,  0.000000 
 27155968.000000, 13.509877 , 1.780260, 6.616155, 3635617536.000000, -60.689999,  -6.020000,  123.830002, 0.000000,  0.000000 
 27175936.000000, 12.567105 , 2.088934, 7.762317, 3635637504.000000, -24.780001,  -34.439999,  84.000000, 0.000000,  0.000000 
 27196928.000000, 12.619746 , -0.495314, 8.190632, 3635657472.000000, 1.190000,  -51.590000,  25.410000, 0.000000,  0.000000 
 27215872.000000, 11.174481 , -7.188039, 11.586047, 3635678464.000000, -1.820000,  -72.379997,  -34.020000, 0.000000,  0.000000 
 27235840.000000, 9.410972 , -19.525433, 14.177474, 3635697408.000000, -77.279999,  -92.190002,  -105.910004, 0.000000,  0.000000 
 27255808.000000, 9.011370 , -33.791443, 25.373489, 3635717376.000000, -142.100006,  -121.379997,  -183.680008, 0.000000,  0.000000 
 27275776.000000, -0.279960 , -36.002411, 25.074387, 3635737344.000000, -142.100006,  -138.529999,  -272.579987, 0.000000,  0.000000 
 27298816.000000, -5.335995 , -29.465218, 19.240686, 3635780352.000000, 158.759995,  -198.589996,  -409.429993, 0.000000,  0.000000 
 27316224.000000, -4.333402 , -20.027925, 13.919049, 0.000000, 0.000000,  0.000000,  0.000000, 0.000000,  0.000000 
 27336192.000000, -5.682954 , -15.060425, 12.619746, 3635797248.000000, 119.489998,  -231.279999,  -384.160004, 0.000000,  0.000000 
 27356160.000000, -7.879565 , -12.184253, 13.861622, 3635817216.000000, 15.820000,  -213.850006,  -393.470001, 0.000000,  0.000000 
 27376128.000000, -9.288938 , -8.604590, 10.753345, 3635837184.000000, -42.840000,  -154.070007,  -373.309998, 0.000000,  0.000000 
 27396608.000000, -8.329416 , -4.522435, 4.752146, 3635857152.000000, 14.420000,  -85.330002,  -319.970001, 0.000000,  0.000000 
 27416064.000000, -7.640282 , 0.179462, 2.371287, 3635878144.000000, 83.790001,  -58.029999,  -253.540009, 0.000000,  0.000000 
 27436032.000000, -8.461020 , 4.058227, 1.780260, 3635897088.000000, 73.779999,  -41.020000,  -217.210007, 0.000000,  0.000000 
 27456000.000000, -11.339586 , 5.264209, 2.014757, 3635917056.000000, 0.490000,  -3.640000,  -188.930008, 0.000000,  0.000000 
 27475968.000000, -13.048061 , 3.139383, -0.196211, 3635937024.000000, -63.000000,  44.310001,  -173.740005, 0.000000,  0.000000 
 27496960.000000, -14.864214 , 4.321437, -4.328616, 3635956992.000000, -32.549999,  58.799999,  -130.410004, 0.000000,  0.000000 
 27515904.000000, -13.416556 , 7.561320, -8.520842, 3635977984.000000, 9.940000,  42.700001,  -55.790001, 0.000000,  0.000000 
 27535872.000000, -9.585647 , 8.336594, -7.980063, 3635996928.000000, -5.880000,  34.580002,  42.000000, 0.000000,  0.000000 
 27555840.000000, -9.212367 , 5.326423, -5.424529, 3636017408.000000, -91.699997,  68.739998,  127.470001, 0.000000,  0.000000 
 27575808.000000, -11.720046 , 1.313660, 1.875973, 3636037376.000000, -153.020004,  115.919998,  210.210007, 0.000000,  0.000000 
 27596800.000000, -16.409977 , -15.074783, 9.791430, 3636057344.000000, -178.850006,  167.020004,  316.260010, 0.000000,  0.000000 
 27615744.000000, -19.599611 , -41.034512, 24.069403, 3636078336.000000, -200.339996,  182.559998,  364.279999, 5898490880.000000,  1006.117126 
 27635712.000000, -2.641676 , -38.309090, 26.423939, 3636097280.000000, -250.040009,  142.729996,  379.540009, 0.000000,  0.000000 
 27655680.000000, -6.675975 , -29.347967, 22.985453, 3636117248.000000, -37.099998,  89.669998,  456.679993, 0.000000,  0.000000 
 27675648.000000, -0.818345 , -23.114666, 17.596817, 3636137216.000000, -44.520000,  85.750000,  288.190002, 0.000000,  0.000000 
 27696640.000000, 2.833102 , -15.412170, 17.749958, 3636157184.000000, -76.440002,  108.080002,  238.979996, 0.000000,  0.000000 
 27715584.000000, 3.098706 , -13.390236, 17.209181, 3636178176.000000, -82.739998,  141.050003,  212.589996, 0.000000,  0.000000 
 27735552.000000, 2.354537 , -11.097912, 15.498313, 3636197120.000000, -84.629997,  141.190002,  173.880005, 0.000000,  0.000000 
 27755520.000000, 4.058227 , -8.441878, 11.272588, 3636217088.000000, -55.090000,  110.320000,  140.979996, 0.000000,  0.000000 
 27775488.000000, 5.398208 , -5.867201, 8.195417, 3636237056.000000, 9.170000,  65.519997,  139.440002, 0.000000,  0.000000 
 27796480.000000, 6.666404 , -4.213760, 6.003592, 3636257024.000000, 33.389999,  31.010000,  139.580002, 0.000000,  0.000000 
 27815936.000000, 7.944171 , -2.806781, 6.072984, 3636278016.000000, 5.110000,  9.940000,  136.710007, 0.000000,  0.000000 
 27835904.000000, 8.953942 , -1.048056, 7.161718, 3636296960.000000, -41.509998,  -8.680000,  134.259995, 0.000000,  0.000000 
 27855872.000000, 10.691131 , 0.361316, 5.228317, 3636316928.000000, -50.400002,  -32.970001,  129.009995, 0.000000,  0.000000 
 27875840.000000, 12.885350 , 1.040878, 3.809374, 3636336896.000000, -13.230000,  -59.430000,  112.559998, 0.000000,  0.000000 
 27896832.000000, 12.744174 , 1.172483, 4.893322, 3636356864.000000, 23.870001,  -82.180000,  75.040001, 0.000000,  0.000000 
 27915776.000000, 9.547362 , -2.108077, 9.717253, 3636377856.000000, 17.780001,  -87.360001,  14.910000, 0.000000,  0.000000 
 27935744.000000, 8.075776 , -7.367501, 13.471591, 3636396800.000000, -8.260000,  -79.029999,  -49.630001, 0.000000,  0.000000 
 27955712.000000, 6.343372 , -13.689339, 13.875979, 3636436736.000000, 38.500000,  -129.850006,  -199.289993, 0.000000,  0.000000 
 27975680.000000, 5.209175 , -22.363321, 20.836700, 0.000000, 0.000000,  0.000000,  0.000000, 0.000000,  0.000000 
 27996672.000000, 3.876373 , -30.790840, 27.649063, 3636456704.000000, 20.580000,  -174.649994,  -289.029999, 0.000000,  0.000000 
 28015616.000000, -1.459622 , -31.183266, 24.593431, 3636477696.000000, -18.340000,  -198.169998,  -302.260010, 0.000000,  0.000000 
 28035584.000000, -4.352544 , -24.004797, 20.468204, 3636496640.000000, 46.130001,  -221.410004,  -384.440002, 0.000000,  0.000000 
 28055552.000000, -5.871986 , -18.537197, 14.986248, 3636537088.000000, 105.489998,  -254.660004,  -398.160004, 0.000000,  0.000000 
 28075520.000000, -7.929814 , -13.131810, 14.883357, 0.000000, 0.000000,  0.000000,  0.000000, 0.000000,  0.000000 
 28096512.000000, -10.521241 , -8.329416, 12.134004, 3636557056.000000, 36.470001,  -223.790009,  -390.670013, 0.000000,  0.000000 
 28115456.000000, -8.190632 , -4.098906, 5.871986, 3636577536.000000, 42.139999,  -161.000000,  -355.459991, 0.000000,  0.000000 
 28135424.000000, -6.821937 , 0.145962, 0.284746, 3636596992.000000, 110.040001,  -112.209999,  -268.239990, 0.000000,  0.000000 
 28155392.000000, -6.513263 , 5.510671, 0.155533, 3636616960.000000, 109.270004,  -90.160004,  -225.190002, 0.000000,  0.000000 
 28175360.000000, -6.166305 , 7.070791, -0.488136, 3636636928.000000, 34.860001,  -51.240002,  -191.309998, 0.000000,  0.000000 
 28196352.000000, -6.668797 , 4.606184, -1.131805, 3636656896.000000, -22.540001,  6.440000,  -154.419998, 0.000000,  0.000000 
 28215296.000000, -9.121440 , 3.340380, -2.737389, 3636677888.000000, -15.330000,  51.029999,  -138.320007, 0.000000,  0.000000 
 28235264.000000, -12.928421 , 2.947958, -5.965307, 3636696832.000000, -15.890000,  76.090004,  -66.430000, 0.000000,  0.000000 
 28255232.000000, -11.930614 , 2.225325, -5.240282, 3636716800.000000, -69.370003,  87.779999,  -2.590000, 0.000000,  0.000000 
 28275200.000000, -8.705089 , 1.002593, -2.885744, 3636736768.000000, -135.029999,  91.139999,  52.849998, 0.000000,  0.000000 
 28298240.000000, -8.350951 , -1.031307, -0.339781, 3636756736.000000, -164.779999,  81.059998,  123.900002, 0.000000,  0.000000 
 28315648.000000, -9.212367 , -3.917051, 6.044270, 3636796672.000000, -129.430008,  95.620003,  280.420013, 0.000000,  0.000000 
 28335616.000000, -10.901700 , -13.375877, 8.188239, 0.000000, 0.000000,  0.000000,  0.000000, 0.000000,  0.000000 
 28355584.000000, -11.557333 , -25.033709, 15.527027, 3636816640.000000, -124.529999,  95.129997,  339.429993, 0.000000,  0.000000 
 28375552.000000, -5.221139 , -33.937405, 23.052454, 3636836608.000000, -136.360001,  101.360001,  398.230011, 0.000000,  0.000000 
 28396032.000000, -4.007978 , -28.309483, 21.391834, 3636856576.000000, -98.629997,  108.639999,  465.989990, 0.000000,  0.000000 
 28415488.000000, 1.095913 , -23.767908, 20.379669, 3636877568.000000, -104.790001,  129.080002,  368.899994, 0.000000,  0.000000 
 28435456.000000, 5.833702 , -17.431713, 21.432512, 3636896512.000000, -86.379997,  170.449997,  312.899994, 0.000000,  0.000000 
 28455424.000000, 4.663611 , -14.823536, 19.932213, 3636916480.000000, -76.650002,  191.940002,  295.750000, 0.000000,  0.000000 
 28475392.000000, 2.117648 , -11.016556, 17.015362, 3636936448.000000, -43.330002,  205.029999,  215.880005, 0.000000,  0.000000 
 28496384.000000, 3.900301 , -7.412964, 11.992826, 3636956416.000000, 2.870000,  179.899994,  138.389999, 0.000000,  0.000000 
 28515328.000000, 5.659025 , -5.721239, 9.291330, 3636977408.000000, 80.220001,  123.480003,  126.349998, 0.000000,  0.000000 
 28535296.000000, 8.128418 , -2.581856, 5.395815, 3636996352.000000, 117.389999,  65.730003,  147.839996, 0.000000,  0.000000 
 28555264.000000, 7.944171 , -0.315853, 5.051248, 3637016832.000000, 76.019997,  38.080002,  142.380005, 0.000000,  0.000000 
 28575232.000000, 7.484749 , 0.093320, 5.809773, 3637036800.000000, -36.049999,  33.250000,  122.360001, 0.000000,  0.000000 
 28596224.000000, 9.920642 , -0.452243, 4.632504, 3637056768.000000, -112.770004,  13.370000,  120.190002, 0.000000,  0.000000 
 28615168.000000, 12.272788 , -1.062413, 3.333202, 3637077248.000000, -106.610001,  -32.900002,  116.199997, 5899490304.000000,  1006.117493 
 28635136.000000, 12.026326 , -0.892523, 4.029513, 3637096704.000000, -79.519997,  -72.099998,  66.570000, 0.000000,  0.000000 
 28655104.000000, 10.540384 , -0.815953, 5.797810, 3637116672.000000, -70.489998,  -75.180000,  -15.540000, 0.000000,  0.000000 
 28675072.000000, 9.085547 , -3.261417, 7.611568, 3637136640.000000, -44.029999,  -66.849998,  -91.070000, 0.000000,  0.000000 
 28696064.000000, 7.515855 , -10.384850, 9.226725, 3637156608.000000, -7.560000,  -62.230000,  -161.770004, 0.000000,  0.000000 
 28715008.000000, 6.092126 , -22.358536, 17.871992, 3637177600.000000, -27.650000,  -59.150002,  -226.240005, 0.000000,  0.000000 
 28734976.000000, 5.111069 , -34.425537, 24.751358, 3637196544.000000, -53.760002,  -64.260002,  -257.320007, 0.000000,  0.000000 
 28754944.000000, 0.933201 , -34.241291, 25.275385, 3637216512.000000, 15.960000,  -93.099998,  -275.660004, 0.000000,  0.000000 
 28774912.000000, -3.424129 , -28.666016, 22.978275, 3637236480.000000, 169.190002,  -129.990005,  -352.869995, 0.000000,  0.000000 
 28795904.000000, -6.005985 , -22.607388, 18.386450, 3637256448.000000, 229.250000,  -160.229996,  -349.369995, 0.000000,  0.000000 
 28815360.000000, -8.271988 , -16.601404, 18.620945, 3637277440.000000, 200.759995,  -201.320007,  -349.440002, 0.000000,  0.000000 
 28835328.000000, -13.627125 , -12.093326, 15.687346, 3637296384.000000, 101.360001,  -211.399994,  -353.850006, 0.000000,  0.000000 
 28855296.000000, -12.119646 , -6.118448, 8.396415, 3637316352.000000, 85.889999,  -165.410004,  -351.750000, 0.000000,  0.000000 
 28875264.000000, -10.200603 , -0.495314, 2.591427, 3637336320.000000, 171.220001,  -135.169998,  -269.010010, 0.000000,  0.000000 
 28896256.000000, -10.451849 , 4.584648, 0.172283, 3637356288.000000, 187.460007,  -131.389999,  -212.520004, 0.000000,  0.000000 
 28915200.000000, -9.889536 , 5.974878, -1.667797, 3637377280.000000, 141.960007,  -101.989998,  -181.930008, 0.000000,  0.000000 
 28935168.000000, -9.250652 , 4.419543, -2.443072, 3637396224.000000, 89.180000,  -54.670002,  -162.399994, 0.000000,  0.000000 
 28955136.000000, -12.124433 , 3.744767, -6.518049, 3637416192.000000, 79.940002,  -17.500000,  -164.080002, 0.000000,  0.000000 
 28975104.000000, -15.665810 , 4.089334, -11.514263, 3637436160.000000, 60.619999,  14.840000,  -98.980003, 0.000000,  0.000000 
 28996096.000000, -11.330014 , 2.282753, -9.798609, 3637456128.000000, -52.430000,  67.690002,  -25.059999, 0.000000,  0.000000 
 29015040.000000, -7.975278 , -1.794617, -6.912865, 3637477120.000000, -206.080002,  95.059998,  56.770000, 0.000000,  0.000000 
 29035008.000000, -7.482357 , -5.345565, -2.376073, 3637496576.000000, -293.230011,  124.739998,  130.619995, 0.000000,  0.000000 
 29055488.000000, -11.105090 , -9.748360, 3.960121, 3637516544.000000, -280.769989,  138.809998,  246.960007, 0.000000,  0.000000 
 29074944.000000, -14.900107 , -18.046667, 7.965706, 3637536512.000000, -241.919998,  166.529999,  362.320007, 0.000000,  0.000000 
 29095936.000000, -11.227123 , -30.384060, 15.500705, 3637556480.000000, -261.170013,  184.449997,  477.470001, 0.000000,  0.000000 
 29114880.000000, -10.155140 , -38.196625, 19.597218, 3637576960.000000, -304.429993,  157.990005,  525.770020, 0.000000,  0.000000 
 29134848.000000, -12.093326 , -44.315075, 26.096123, 3637596416.000000, -478.239990,  160.860001,  447.860016, 0.000000,  0.000000 
 29154816.000000, -0.514457 , -34.325039, 26.732615, 3637616384.000000, -523.179993,  141.470001,  340.480011, 0.000000,  0.000000 
 29174784.000000, 2.682354 , -22.609779, 17.984455, 3637636352.000000, -126.070000,  107.660004,  347.690002, 0.000000,  0.000000 
 29195776.000000, 0.715454 , -15.108281, 10.269995, 3637656320.000000, 194.880005,  79.800003,  247.940002, 0.000000,  0.000000 
 29214720.000000, 1.244268 , -9.580862, 4.953143, 3637677312.000000, 266.279999,  32.480000,  160.509995, 0.000000,  0.000000 
 29234688.000000, 4.699504 , -5.300103, 1.730011, 3637696256.000000, 231.419998,  -15.610000,  161.839996, 0.000000,  0.000000 
 29254656.000000, 8.657232 , -1.811367, 0.490529, 3637716224.000000, 136.080002,  -59.990002,  187.740005, 0.000000,  0.000000 
 29275136.000000, 11.150554 , -0.382852, 0.882952, 3637736192.000000, 2.380000,  -86.309998,  182.000000, 0.000000,  0.000000 
 29297664.000000, 11.148161 , -0.344566, 3.120241, 3637779200.000000, -203.000000,  -77.559998,  126.139999, 0.000000,  0.000000 
 29315072.000000, 11.693724 , -0.040678, 4.668397, 3637796096.000000, -191.800003,  -76.650002,  83.650002, 0.000000,  0.000000 
 29335040.000000, 12.799208 , -0.476172, 4.275974, 0.000000, 0.000000,  0.000000,  0.000000, 0.000000,  0.000000 
 29355008.000000, 12.067005 , -2.924029, 8.142776, 3637816064.000000, -128.589996,  -77.910004,  28.350000, 0.000000,  0.000000 
 29374976.000000, 9.913465 , -6.929615, 12.380465, 3637836032.000000, -73.500000,  -61.250000,  -22.400000, 0.000000,  0.000000 
 29395968.000000, 7.805387 , -11.810973, 13.471591, 3637856000.000000, -7.490000,  -41.790001,  -74.480003, 0.000000,  0.000000 
 29414912.000000, 7.010970 , -18.946369, 14.586647, 3637876992.000000, 85.400002,  -48.580002,  -146.440002, 0.000000,  0.000000 
 29434880.000000, 5.905487 , -26.792435, 24.564716, 3637895936.000000, 176.259995,  -75.459999,  -218.190002, 0.000000,  0.000000 
 29454848.000000, -0.004786 , -30.338598, 29.400612, 3637915904.000000, 203.910004,  -105.209999,  -270.130005, 0.000000,  0.000000 
 29474816.000000, -1.009771 , -27.598818, 26.309084, 3637935872.000000, 282.940002,  -160.789993,  -344.890015, 0.000000,  0.000000 
 29495808.000000, 0.533599 , -21.403797, 24.380468, 3637956352.000000, 382.829987,  -232.330002,  -374.220001, 0.000000,  0.000000 
 29514752.000000, -6.089733 , -16.845470, 25.457239, 3637976832.000000, 343.420013,  -289.309998,  -397.880005, 0.000000,  0.000000 
 29534720.000000, -7.817351 , -13.148561, 22.499712, 3637996288.000000, 273.700012,  -309.470001,  -479.290009, 0.000000,  0.000000 
 29554688.000000, -8.851050 , -8.240881, 14.567505, 3638016256.000000, 256.410004,  -288.540009,  -459.899994, 0.000000,  0.000000 
 29574656.000000, -11.904292 , -3.529413, 7.666604, 3638036224.000000, 296.380005,  -261.100006,  -393.540009, 0.000000,  0.000000 
 29595648.000000, -11.856436 , -0.689133, 0.205783, 3638056192.000000, 290.989990,  -262.989990,  -303.029999, 0.000000,  0.000000 
 29614592.000000, -10.841879 , 1.138984, -3.340380, 3638077184.000000, 149.449997,  -251.089996,  -239.680008, 5900489728.000000,  1006.119080 
 29634560.000000, -14.744574 , -0.040678, -6.372087, 3638096128.000000, -83.650002,  -200.759995,  -182.839996, 0.000000,  0.000000 
 29654528.000000, -15.151353 , -3.194418, -5.613562, 3638116096.000000, -309.049988,  -124.809998,  -168.139999, 0.000000,  0.000000 
 29674496.000000, -13.579268 , -5.814559, -3.476771, 3638136064.000000, -404.739990,  -59.570000,  -92.889999, 0.000000,  0.000000 
 29695488.000000, -12.756138 , -2.266003, -3.500700, 3638156032.000000, -252.910004,  -30.380001,  -22.750000, 0.000000,  0.000000 
 29714432.000000, -10.102496 , -0.138784, -3.952943, 3638177024.000000, -39.970001,  -4.270000,  30.309999, 0.000000,  0.000000 
 29734400.000000, -7.111469 , -1.529014, -2.866602, 3638195968.000000, 79.169998,  36.189999,  108.570000, 0.000000,  0.000000 
 29754368.000000, -7.348359 , -2.100898, 3.457629, 3638215936.000000, 92.050003,  87.500000,  170.940002, 0.000000,  0.000000 
 29774848.000000, -10.437491 , -4.965107, 7.903493, 3638235904.000000, 14.910000,  148.190002,  234.500000, 0.000000,  0.000000 
 29795328.000000, -7.867601 , -11.968900, 17.156538, 3638255872.000000, -83.650002,  199.639999,  282.519989, 0.000000,  0.000000 
 29814784.000000, -6.506085 , -17.824135, 28.457842, 3638276864.000000, -134.119995,  247.660004,  340.619995, 0.000000,  0.000000 
 29834752.000000, -11.239087 , -21.085552, 30.163923, 3638295808.000000, -169.330002,  299.809998,  417.059998, 0.000000,  0.000000 
 29854720.000000, -5.075177 , -24.303902, 35.818161, 3638315776.000000, -216.300003,  330.399994,  369.179993, 0.000000,  0.000000 
 29874688.000000, 0.540778 , -14.050655, 34.564323, 3638335744.000000, -168.490005,  333.410004,  359.799988, 0.000000,  0.000000 
 29895680.000000, 3.342773 , -9.760324, 28.194628, 3638355712.000000, -50.540001,  310.660004,  290.640015, 0.000000,  0.000000 
 29914624.000000, 4.821537 , -6.037091, 19.834106, 3638376704.000000, 56.070000,  261.519989,  226.100006, 0.000000,  0.000000 
 29934592.000000, 9.145369 , -3.314059, 13.993226, 3638395648.000000, 88.199997,  198.240005,  191.729996, 0.000000,  0.000000 
 29954560.000000, 11.700903 , -1.792224, 10.009177, 3638415616.000000, 34.439999,  137.899994,  195.369995, 0.000000,  0.000000 
 29974528.000000, 12.361321 , -2.914458, 7.889136, 3638435584.000000, -97.440002,  93.590004,  165.479996, 0.000000,  0.000000 
 29995520.000000, 13.875979 , -3.201597, 8.913264, 3638455552.000000, -220.639999,  62.020000,  137.130005, 0.000000,  0.000000 
 30014464.000000, 17.022539 , -1.610370, 8.425128, 3638476544.000000, -270.410004,  10.430000,  125.230003, 0.000000,  0.000000 
 30034432.000000, 17.087147 , -1.016950, 6.068198, 3638496000.000000, -184.729996,  -61.040001,  107.800003, 0.000000,  0.000000 
 30054400.000000, 14.847464 , -0.095713, 4.283153, 3638515968.000000, -38.570000,  -116.480003,  43.750000, 0.000000,  0.000000 
 30074368.000000, 11.447264 , 1.222732, 6.874579, 3638535936.000000, 48.509998,  -147.559998,  -37.380001, 0.000000,  0.000000 
 30095360.000000, 7.814958 , -1.926222, 9.408579, 3638555904.000000, 37.029999,  -157.009995,  -114.309998, 0.000000,  0.000000 
 30114304.000000, 7.453642 , -9.360723, 12.124433, 3638576896.000000, -22.680000,  -160.089996,  -192.009995, 0.000000,  0.000000 
 30134272.000000, 8.221739 , -20.642881, 18.613768, 3638595840.000000, -49.770000,  -188.930008,  -246.750000, 0.000000,  0.000000 
 30154240.000000, 6.446264 , -30.467812, 29.237900, 3638615808.000000, -33.529999,  -200.550003,  -299.250000, 0.000000,  0.000000 
 30174208.000000, -0.440279 , -31.671400, 26.866613, 3638635776.000000, -26.320000,  -202.930008,  -330.540009, 0.000000,  0.000000 
 30195200.000000, -1.397408 , -23.691336, 22.973490, 3638655744.000000, 84.559998,  -210.350006,  -403.899994, 0.000000,  0.000000 
 30214144.000000, -3.933800 , -17.130217, 17.407784, 3638676736.000000, 128.100006,  -224.839996,  -356.299988, 0.000000,  0.000000 
 30234112.000000, -7.996813 , -11.569297, 13.804193, 3638695680.000000, 98.629997,  -241.500000,  -351.190002, 0.000000,  0.000000 
 30254592.000000, -9.863215 , -6.364908, 10.624132, 3638715648.000000, 68.389999,  -214.059998,  -342.230011, 0.000000,  0.000000 
 30274560.000000, -8.719445 , -3.125026, 3.225525, 3638755584.000000, 30.940001,  -103.809998,  -216.649994, 0.000000,  0.000000 
 30297088.000000, -6.561120 , 0.346959, 0.468993, 0.000000, 0.000000,  0.000000,  0.000000, 0.000000,  0.000000 
 30314496.000000, -6.419943 , 3.771089, 0.162712, 3638778624.000000, 27.930000,  -56.070000,  -174.229996, 0.000000,  0.000000 
 30334464.000000, -8.977871 , 4.689932, -0.823131, 3638795520.000000, 0.210000,  -6.510000,  -136.009995, 0.000000,  0.000000 
 30354432.000000, -11.904292 , 4.103691, -2.967100, 3638815488.000000, -16.170000,  58.590000,  -127.260002, 0.000000,  0.000000 
 30374400.000000, -10.738988 , 3.790231, -5.603990, 3638835456.000000, -45.430000,  80.570000,  -128.100006, 0.000000,  0.000000 
 30395392.000000, -8.822337 , 3.048456, -5.130211, 3638855424.000000, -63.139999,  100.590004,  -87.500000, 0.000000,  0.000000 
 30414336.000000, -8.858230 , 3.122634, -2.723032, 3638876416.000000, -80.500000,  105.209999,  2.660000, 0.000000,  0.000000 
 30434304.000000, -9.315259 , 3.148954, -1.797010, 3638895360.000000, -112.629997,  125.930000,  66.989998, 0.000000,  0.000000 
 30454272.000000, -8.958728 , 1.641476, 0.370888, 3638915328.000000, -140.979996,  144.410004,  147.490005, 0.000000,  0.000000 
 30474240.000000, -8.458629 , -5.357530, 8.776874, 3638935296.000000, -158.759995,  146.369995,  211.050003, 0.000000,  0.000000 
 30495232.000000, -11.648260 , -18.881763, 16.819151, 3638955776.000000, -143.779999,  150.220001,  262.079987, 0.000000,  0.000000 
 30514176.000000, -9.157332 , -25.990841, 23.595625, 3638976256.000000, -100.940002,  168.210007,  333.410004, 0.000000,  0.000000 
 30534144.000000, -4.345366 , -25.234707, 25.055246, 3638995712.000000, -30.940001,  145.180008,  416.570007, 0.000000,  0.000000 
 30554112.000000, -6.032306 , -25.952555, 23.394629, 3639015680.000000, -51.240002,  139.720001,  401.309998, 0.000000,  0.000000 
 30574080.000000, 2.117648 , -20.152353, 21.882364, 3639035648.000000, -165.059998,  127.820000,  292.529999, 0.000000,  0.000000 
 30595072.000000, 5.096712 , -11.638690, 20.461027, 3639055616.000000, -183.680008,  126.980003,  261.029999, 0.000000,  0.000000 
 30614016.000000, 3.706482 , -9.930215, 17.075182, 3639076608.000000, -109.970001,  137.130005,  195.300003, 5901489152.000000,  1006.121399 
 30633984.000000, 4.173083 , -7.678568, 13.036098, 3639095552.000000, -9.240000,  131.529999,  126.000000, 0.000000,  0.000000 
 30653952.000000, 5.582455 , -4.311867, 10.528419, 3639115520.000000, 77.000000,  105.559998,  112.000000, 0.000000,  0.000000 
 30673920.000000, 7.738388 , -2.612962, 7.185646, 3639135488.000000, 113.680000,  66.360001,  102.830002, 0.000000,  0.000000 
 30694912.000000, 9.298509 , -2.612962, 5.335995, 3639155456.000000, 134.399994,  32.830002,  114.660004, 0.000000,  0.000000 
 30713856.000000, 9.592826 , 1.852045, 5.687739, 3639176448.000000, 103.739998,  6.650000,  117.529999, 0.000000,  0.000000 
 30734336.000000, 8.961121 , 2.684747, 6.431907, 3639195392.000000, 68.879997,  -20.299999,  126.349998, 0.000000,  0.000000 
 30754304.000000, 8.504091 , 2.581856, 8.894121, 3639215360.000000, 44.450001,  -51.310001,  114.099998, 0.000000,  0.000000 
 30774272.000000, 8.343772 , 2.660819, 9.564112, 3639235328.000000, 52.920002,  -88.340004,  98.699997, 0.000000,  0.000000 
 30794752.000000, 9.037691 , 1.660619, 10.724631, 3639255296.000000, 56.209999,  -117.459999,  52.639999, 0.000000,  0.000000 
 30814208.000000, 7.360322 , -2.615355, 11.789437, 3639276288.000000, 12.110000,  -148.190002,  2.310000, 0.000000,  0.000000 
 30834176.000000, 6.764510 , -10.966305, 13.217952, 3639295232.000000, -61.389999,  -187.110001,  -69.720001, 0.000000,  0.000000 
 30854144.000000, 6.848258 , -22.518852, 20.908484, 3639315200.000000, -127.889999,  -226.100006,  -162.680008, 0.000000,  0.000000 
 30874112.000000, 3.172883 , -28.426733, 21.925432, 3639335168.000000, -149.589996,  -237.860001,  -212.940002, 0.000000,  0.000000 
 30895104.000000, 2.378466 , -24.959534, 19.499113, 3639355136.000000, -60.060001,  -250.040009,  -287.070007, 0.000000,  0.000000 
 30914048.000000, -0.136391 , -18.690338, 14.988641, 3639376128.000000, 39.270000,  -272.440002,  -318.010010, 0.000000,  0.000000 
 30934016.000000, -0.306281 , -15.656239, 12.660425, 3639395072.000000, 35.770000,  -279.089996,  -340.130005, 0.000000,  0.000000 
 30954496.000000, -1.191626 , -11.148161, 11.598011, 3639415040.000000, 1.470000,  -261.380005,  -325.850006, 0.000000,  0.000000 
 30973952.000000, -4.800002 , -7.408179, 7.836494, 3639435520.000000, -49.980000,  -198.240005,  -302.329987, 0.000000,  0.000000 
 30994944.000000, -7.077969 , -4.180261, 4.685147, 3639455488.000000, -77.279999,  -131.949997,  -298.480011, 0.000000,  0.000000 
 31013888.000000, -7.786245 , -1.246661, 2.737389, 3639475968.000000, -92.540001,  -70.699997,  -267.750000, 0.000000,  0.000000 
 31033856.000000, -10.011569 , 3.366701, 2.689533, 3639495424.000000, -65.379997,  -5.460000,  -222.880005, 0.000000,  0.000000 
 31053824.000000, -10.951948 , 6.144768, 2.225325, 3639515392.000000, -61.740002,  65.660004,  -201.180008, 0.000000,  0.000000 
 31073792.000000, -11.243874 , 6.137590, 1.191626, 3639535360.000000, -60.130001,  121.379997,  -155.680008, 0.000000,  0.000000 
 31094784.000000, -10.600205 , 6.125626, -0.325424, 3639555328.000000, -21.700001,  145.389999,  -115.570000, 0.000000,  0.000000 
 31113728.000000, -10.715059 , 5.647062, -2.553142, 3639576320.000000, 47.880001,  133.279999,  -42.000000, 0.000000,  0.000000 
 31133696.000000, -8.944371 , 6.104091, -3.388237, 3639595264.000000, 56.070000,  126.770004,  26.320000, 0.000000,  0.000000 
 31153664.000000, -8.025528 , 3.797409, -3.373880, 3639615232.000000, -54.950001,  130.410004,  102.129997, 0.000000,  0.000000 
 31173632.000000, -11.684153 , -0.232104, -0.299103, 3639635200.000000, -162.330002,  142.940002,  165.130005, 0.000000,  0.000000 
 31194624.000000, -13.622340 , -9.322437, 9.418150, 3639655168.000000, -277.059998,  161.770004,  213.149994, 0.000000,  0.000000 
 31214080.000000, -18.927227 , -31.944181, 18.211773, 3639676160.000000, -306.250000,  151.059998,  307.089996, 0.000000,  0.000000 
 31234048.000000, -10.423136 , -35.665020, 24.138794, 3639695104.000000, -212.589996,  133.350006,  371.980011, 0.000000,  0.000000 
 31254016.000000, -4.615755 , -30.111280, 24.234507, 3639715072.000000, -63.279999,  86.590004,  434.489990, 0.000000,  0.000000 
 31273984.000000, -1.959722 , -25.014568, 19.310080, 3639735040.000000, -29.400000,  90.160004,  381.079987, 0.000000,  0.000000 
 31296512.000000, 4.369294 , -17.185251, 19.463219, 3639755008.000000, -73.430000,  103.529999,  277.690002, 0.000000,  0.000000 
 31313920.000000, 4.438686 , -12.916457, 18.125631, 3639778048.000000, -129.850006,  123.340004,  235.130005, 0.000000,  0.000000 
 31333888.000000, 1.856830 , -12.284752, 15.280564, 3639794944.000000, -137.690002,  130.550003,  163.380005, 0.000000,  0.000000 
 31353856.000000, 3.404987 , -9.298509, 10.839487, 3639814912.000000, -51.450001,  106.120003,  112.629997, 0.000000,  0.000000 
 31373824.000000, 6.573084 , -4.778467, 8.140383, 3639834880.000000, 39.759998,  58.099998,  121.520004, 0.000000,  0.000000 
 31394816.000000, 8.815158 , -1.148555, 6.412765, 3639854848.000000, 64.820000,  18.340000,  121.940002, 0.000000,  0.000000 
 31413760.000000, 8.616554 , 0.055035, 5.840880, 3639875840.000000, 43.470001,  -2.030000,  124.529999, 0.000000,  0.000000 
 31433728.000000, 9.674182 , 0.241675, 4.914857, 3639894784.000000, 8.680000,  -11.200000,  116.970001, 0.000000,  0.000000 
 31453696.000000, 10.889735 , 1.150948, 4.534399, 3639914752.000000, 0.910000,  -39.060001,  109.900002, 0.000000,  0.000000 
 31473664.000000, 9.906286 , 2.644069, 3.881158, 3639935232.000000, 24.990000,  -77.349998,  85.680000, 0.000000,  0.000000 
 31494656.000000, 9.975677 , 3.208775, 3.713661, 3639955200.000000, 38.639999,  -92.330002,  26.389999, 0.000000,  0.000000 
 31513600.000000, 9.640682 , 1.296910, 6.013163, 3639975680.000000, 21.770000,  -110.739998,  -31.710001, 0.000000,  0.000000 
 31533568.000000, 8.841480 , -4.536791, 8.066205, 3639995136.000000, -44.170002,  -120.470001,  -90.930000, 0.000000,  0.000000 
 31553536.000000, 9.549755 , -13.684553, 13.485948, 3640015104.000000, -108.290001,  -123.270004,  -144.479996, 0.000000,  0.000000 
 31573504.000000, 10.770095 , -29.938995, 25.749165, 3640035072.000000, -114.940002,  -132.369995,  -198.449997, 0.000000,  0.000000 
 31594496.000000, 2.411965 , -34.112080, 26.115267, 3640076032.000000, 133.139999,  -143.080002,  -329.630005, 5902488576.000000,  1006.118469 
 31613440.000000, 0.605384 , -26.246870, 23.973688, 0.000000, 0.000000,  0.000000,  0.000000, 0.000000,  0.000000 
 31633408.000000, -2.105684 , -17.802599, 19.448862, 3640094976.000000, 271.459991,  -181.369995,  -317.589996, 0.000000,  0.000000 
 31653376.000000, -5.886343 , -13.012171, 16.735401, 3640114944.000000, 267.540009,  -217.279999,  -308.420013, 0.000000,  0.000000 
 31673344.000000, -9.202796 , -7.216753, 17.395821, 3640134912.000000, 233.449997,  -200.690002,  -307.019989, 0.000000,  0.000000 
 31694336.000000, -12.770494 , -3.668197, 7.850852, 3640154880.000000, 182.630005,  -156.240005,  -268.519989, 0.000000,  0.000000 
 31713792.000000, -11.408978 , -0.232104, 1.304088, 3640175872.000000, 181.649994,  -123.129997,  -233.520004, 0.000000,  0.000000 
 31733760.000000, -7.556533 , 3.046063, -0.622134, 3640194816.000000, 155.889999,  -96.879997,  -187.669998, 0.000000,  0.000000 
 31753728.000000, -7.097112 , 5.745167, -1.521835, 3640214784.000000, 79.379997,  -81.830002,  -154.000000, 0.000000,  0.000000 
 31773696.000000, -9.305687 , 6.156733, -2.280360, 3640234752.000000, -25.760000,  -11.620000,  -163.240005, 0.000000,  0.000000 
 31794176.000000, -9.078369 , 4.421937, -3.381058, 3640254720.000000, -123.270004,  63.980000,  -168.979996, 0.000000,  0.000000 
 31813632.000000, -8.539984 , 2.986243, -4.728218, 3640275712.000000, -197.889999,  91.910004,  -123.550003, 0.000000,  0.000000 
 31833600.000000, -9.339187 , 3.139383, -4.299902, 3640294656.000000, -252.000000,  115.360001,  -60.689999, 0.000000,  0.000000 
 31853568.000000, -8.999406 , 2.935993, -3.792624, 3640314624.000000, -292.600006,  141.050003,  18.969999, 0.000000,  0.000000 
 31873536.000000, -8.803195 , -0.059821, -3.026921, 3640334592.000000, -326.690002,  146.440002,  118.370003, 0.000000,  0.000000 
 31894528.000000, -11.686546 , -4.467400, 3.426522, 3640354560.000000, -312.410004,  130.970001,  194.460007, 0.000000,  0.000000 
 31913472.000000, -15.373885 , -17.460426, 6.391229, 3640376064.000000, -251.440002,  119.279999,  266.000000, 0.000000,  0.000000 
 31933440.000000, -18.061026 , -37.696526, 16.022341, 3640394496.000000, -155.330002,  85.470001,  344.679993, 0.000000,  0.000000 
 31953408.000000, -7.850852 , -35.885162, 17.386250, 3640414976.000000, -100.099998,  70.559998,  380.730011, 0.000000,  0.000000 
 31973376.000000, -5.132604 , -29.173294, 15.431314, 3640434944.000000, 2.730000,  2.450000,  387.450012, 0.000000,  0.000000 
 31994368.000000, -4.759324 , -21.061625, 13.062418, 3640454912.000000, -113.190002,  15.260000,  283.220001, 0.000000,  0.000000 
 32013312.000000, 0.940379 , -14.153545, 14.806787, 3640475392.000000, -210.139999,  24.710001,  161.070007, 0.000000,  0.000000 
 32033280.000000, 3.921836 , -11.772687, 17.721243, 3640514816.000000, -153.720001,  69.160004,  155.750000, 0.000000,  0.000000 
 32053248.000000, 2.299503 , -10.985448, 15.840486, 0.000000, 0.000000,  0.000000,  0.000000, 0.000000,  0.000000 
 32073216.000000, 0.337388 , -8.334201, 13.629518, 3640534784.000000, 7.350000,  66.220001,  125.790001, 0.000000,  0.000000 
 32094208.000000, 2.146362 , -4.902894, 9.631111, 3640554752.000000, 168.070007,  34.160000,  124.389999, 0.000000,  0.000000 
 32113152.000000, 5.771489 , -1.399801, 5.800202, 3640575744.000000, 271.950012,  -17.360001,  173.949997, 0.000000,  0.000000 
 32133120.000000, 8.183454 , 1.871187, 3.584448, 3640594688.000000, 278.459991,  -49.560001,  209.300003, 0.000000,  0.000000 
 32153088.000000, 10.205389 , 4.744967, -1.246661, 3640614656.000000, 183.539993,  -48.790001,  206.080002, 0.000000,  0.000000 
 32173056.000000, 12.672389 , 3.517449, 1.706082, 3640634624.000000, 18.480000,  -37.590000,  184.800003, 0.000000,  0.000000 
 32194048.000000, 14.596218 , -0.464208, 1.746760, 3640654592.000000, -136.500000,  -69.090004,  153.509995, 0.000000,  0.000000 
 32213504.000000, 17.324036 , -2.455036, 3.101098, 3640675584.000000, -277.410004,  -115.290001,  83.860001, 0.000000,  0.000000 
 32233472.000000, 17.974882 , -6.317052, 4.649254, 3640694528.000000, -352.589996,  -131.809998,  7.070000, 0.000000,  0.000000 
 32253440.000000, 14.746965 , -13.272987, 7.994420, 3640714496.000000, -304.429993,  -115.779999,  -53.410000, 0.000000,  0.000000 
 32273408.000000, 10.978271 , -25.588844, 13.986048, 3640734464.000000, -251.440002,  -86.800003,  -91.279999, 0.000000,  0.000000 
 32295936.000000, 4.792823 , -38.383266, 25.050459, 3640754432.000000, -144.339996,  -33.880001,  -193.830002, 0.000000,  0.000000 
 32313344.000000, 1.354338 , -41.948574, 21.822542, 3640777472.000000, -78.190002,  9.730000,  -290.079987, 0.000000,  0.000000 
 32333312.000000, -1.112662 , -39.407394, 21.578474, 3640794368.000000, 94.010002,  -14.840000,  -375.619995, 0.000000,  0.000000 
 32353280.000000, -5.623133 , -30.520452, 19.726431, 3640814336.000000, 217.000000,  -44.869999,  -396.619995, 0.000000,  0.000000 
 32373248.000000, -11.535798 , -23.306091, 16.335800, 3640834304.000000, 205.940002,  -55.369999,  -413.279999, 0.000000,  0.000000 
 32394240.000000, -16.426727 , -16.953148, 14.289936, 3640854272.000000, 169.820007,  -60.060001,  -433.929993, 0.000000,  0.000000 
 32413184.000000, -17.694923 , -9.879964, 9.937392, 3640875264.000000, 122.010002,  -95.620003,  -403.269989, 0.000000,  0.000000 
 32433152.000000, -15.280564 , -4.359723, 2.742175, 3640894720.000000, 129.289993,  -86.309998,  -316.329987, 0.000000,  0.000000 
 32453120.000000, -12.236896 , 0.212961, -0.564706, 3640914688.000000, 149.940002,  -79.590004,  -225.540009, 0.000000,  0.000000 
 32473088.000000, -9.607183 , 4.814359, -0.251246, 3640934656.000000, 115.709999,  -71.889999,  -182.490005, 0.000000,  0.000000 
 32494080.000000, -9.391829 , 5.735595, -1.770689, 3640954624.000000, 31.639999,  -52.360001,  -147.350006, 0.000000,  0.000000 
 32513024.000000, -10.657632 , 3.407379, -4.486543, 3640975104.000000, -6.860000,  8.260000,  -133.910004, 0.000000,  0.000000 
 32532992.000000, -9.262616 , 2.608176, -5.149354, 3640994560.000000, -21.490000,  46.549999,  -115.779999, 0.000000,  0.000000 
 32552960.000000, -7.568498 , 4.340580, -4.821537, 3641014528.000000, -39.900002,  46.340000,  -30.660000, 0.000000,  0.000000 
 32572928.000000, -7.353144 , 4.637290, -4.448257, 3641034496.000000, -73.430000,  54.880001,  56.910000, 0.000000,  0.000000 
 32593920.000000, -7.044470 , 2.701497, -3.620341, 3641054464.000000, -116.550003,  76.720001,  102.550003, 0.000000,  0.000000 
 32612864.000000, -6.637690 , 0.351745, -1.500300, 3641075456.000000, -141.889999,  96.879997,  147.699997, 5903488512.000000,  1006.121948 
 32632832.000000, -9.734003 , -3.991228, 5.625526, 3641094400.000000, -151.339996,  118.930000,  217.630005, 0.000000,  0.000000 
 32652800.000000, -19.448862 , -21.253050, 12.646068, 3641114368.000000, -167.860001,  161.979996,  292.600006, 0.000000,  0.000000 
 32673280.000000, -16.948362 , -44.628536, 24.670002, 3641134336.000000, -213.990005,  174.440002,  324.170013, 0.000000,  0.000000 
 32693760.000000, -2.569891 , -34.803604, 23.655445, 3641154304.000000, -198.869995,  136.009995,  376.670013, 0.000000,  0.000000 
 32713216.000000, -2.691926 , -23.696123, 17.163717, 3641175296.000000, -36.750000,  58.799999,  400.470001, 0.000000,  0.000000 
 32733184.000000, -0.607777 , -16.591831, 13.103097, 3641194240.000000, -49.630001,  70.980003,  254.940002, 0.000000,  0.000000 
 32753152.000000, 3.964907 , -12.756138, 15.366707, 3641214208.000000, -124.389999,  76.790001,  205.100006, 0.000000,  0.000000 
 32773120.000000, 4.984250 , -11.954542, 14.955141, 3641234176.000000, -178.779999,  61.670002,  215.040009, 0.000000,  0.000000 
 32794112.000000, 2.854637 , -8.688338, 12.839886, 3641254144.000000, -126.419998,  36.959999,  177.520004, 0.000000,  0.000000 
 32813056.000000, 3.512664 , -5.249853, 8.623734, 3641275136.000000, -31.430000,  14.560000,  129.009995, 0.000000,  0.000000 
 32833024.000000, 6.790830 , -2.591427, 3.799802, 3641294080.000000, 62.510002,  -22.680000,  138.460007, 0.000000,  0.000000 
 32852992.000000, 10.250853 , -0.667598, 2.270789, 3641314048.000000, 118.510002,  -63.980000,  169.680008, 0.000000,  0.000000 
 32872960.000000, 11.581261 , 1.363909, 3.402594, 3641334016.000000, 127.050003,  -70.840004,  164.779999, 0.000000,  0.000000 
 32893952.000000, 11.306087 , 1.878366, 4.192225, 3641353984.000000, 86.169998,  -43.959999,  131.180008, 0.000000,  0.000000 
 32912896.000000, 11.885150 , 2.287539, 2.395216, 3641374976.000000, 57.680000,  -28.350000,  108.010002, 0.000000,  0.000000 
 32932864.000000, 10.973484 , 2.091327, 3.122634, 3641394432.000000, 21.280001,  -31.430000,  77.629997, 0.000000,  0.000000 
 32952832.000000, 7.965706 , -4.106083, 8.678767, 3641414400.000000, -76.580002,  -24.639999,  8.120000, 0.000000,  0.000000 
 32972800.000000, 6.199803 , -14.871392, 16.529619, 3641434368.000000, -211.680008,  -15.960000,  -87.709999, 0.000000,  0.000000 
 32993792.000000, 5.747560 , -31.805397, 16.213766, 3641454336.000000, -273.350006,  -31.639999,  -175.839996, 0.000000,  0.000000 
 33012736.000000, 3.158526 , -36.148373, 18.245272, 3641474816.000000, -132.020004,  -59.570000,  -231.770004, 0.000000,  0.000000 
 33032704.000000, 1.730011 , -38.842690, 24.500109, 3641494272.000000, 33.180000,  -67.269997,  -351.470001, 0.000000,  0.000000 
 33052672.000000, -8.956335 , -28.718657, 24.725035, 3641514240.000000, 180.389999,  -111.720001,  -366.309998, 0.000000,  0.000000 
 33072640.000000, -8.090133 , -21.985254, 16.826328, 3641534208.000000, 333.059998,  -158.619995,  -418.950012, 0.000000,  0.000000 
 33093632.000000, -8.360522 , -16.089338, 14.782858, 3641554176.000000, 261.940002,  -231.839996,  -393.399994, 0.000000,  0.000000 
 33112576.000000, -14.294723 , -9.659825, 10.671989, 3641575168.000000, 162.399994,  -222.949997,  -339.570007, 0.000000,  0.000000 
 33132544.000000, -13.684553 , -5.333601, 5.733203, 3641594112.000000, 106.470001,  -195.930008,  -331.730011, 0.000000,  0.000000 
 33152512.000000, -12.191431 , -1.445265, 0.524028, 3641614080.000000, 53.900002,  -137.899994,  -278.600006, 0.000000,  0.000000 
 33172992.000000, -9.200402 , 2.644069, -2.323431, 3641634048.000000, 49.209999,  -83.510002,  -210.139999, 0.000000,  0.000000 
 33193472.000000, -7.310073 , 4.443472, -3.364309, 3641654016.000000, 14.140000,  -32.759998,  -160.509995, 0.000000,  0.000000 
 33212928.000000, -11.700903 , 5.690133, -4.723432, 3641675008.000000, -30.520000,  19.040001,  -135.380005, 0.000000,  0.000000 
 33232896.000000, -13.780266 , 7.051648, -4.855037, 3641693952.000000, -54.180000,  79.870003,  -111.790001, 0.000000,  0.000000 
 33252864.000000, -11.330014 , 9.231510, -5.730811, 3641713920.000000, -21.700001,  105.840004,  -10.220000, 0.000000,  0.000000 
 33272832.000000, -10.585848 , 10.939985, -8.140383, 3641733888.000000, 31.500000,  97.160004,  112.209999, 0.000000,  0.000000 
 33295360.000000, -12.669996 , 9.183653, -9.241080, 3641753856.000000, 16.030001,  119.559998,  199.220001, 0.000000,  0.000000 
 33312768.000000, -16.587046 , 5.312066, -2.574677, 3641776896.000000, -83.440002,  161.139999,  266.140015, 0.000000,  0.000000 
 33332736.000000, -22.439888 , -9.068797, 7.960921, 3641793792.000000, -231.419998,  194.740005,  328.929993, 0.000000,  0.000000 
 33352704.000000, -29.871996 , -52.926846, 24.402004, 3641813760.000000, -325.640015,  151.199997,  337.260010, 0.000000,  0.000000 
 33372672.000000, -7.671390 , -41.553761, 24.538395, 3641833728.000000, -243.669998,  135.380005,  294.209991, 0.000000,  0.000000 
 33393664.000000, -8.549555 , -28.503304, 21.207586, 3641853696.000000, 69.650002,  85.889999,  442.399994, 0.000000,  0.000000 
 33412608.000000, -3.330809 , -28.091738, 17.077576, 3641874688.000000, 18.830000,  116.059998,  314.019989, 0.000000,  0.000000 
 33432576.000000, 5.115855 , -16.579868, 17.422142, 3641894144.000000, -186.339996,  114.169998,  171.500000, 0.000000,  0.000000 
 33452544.000000, 5.802595 , -9.688539, 15.055640, 3641914112.000000, -102.199997,  135.660004,  163.940002, 0.000000,  0.000000 
 33472512.000000, 2.074577 , -8.166703, 10.157533, 3641934080.000000, -15.610000,  152.250000,  102.059998, 0.000000,  0.000000 
 33493504.000000, 1.342373 , -5.860023, 6.927221, 3641954048.000000, 9.450000,  131.740005,  43.470001, 0.000000,  0.000000 
 33512448.000000, 3.720839 , -2.385644, 8.659625, 3641975040.000000, -16.100000,  84.699997,  60.130001, 0.000000,  0.000000 
 33532416.000000, 6.087341 , -1.272982, 7.846066, 3641993984.000000, -58.730000,  33.599998,  88.970001, 0.000000,  0.000000 
 33552384.000000, 7.211967 , -0.277567, 7.063612, 3642013952.000000, -43.820000,  0.490000,  105.070000, 0.000000,  0.000000 
 33572352.000000, 8.257630 , 2.165504, 7.197611, 3642033920.000000, -2.660000,  -29.469999,  106.260002, 0.000000,  0.000000 
 33593344.000000, 9.480364 , 3.905087, 6.120840, 3642053888.000000, 31.500000,  -60.340000,  121.940002, 0.000000,  0.000000 
 33612288.000000, 12.145968 , 1.083949, 1.158126, 3642074880.000000, 77.000000,  -100.940002,  120.540001, 5904487424.000000,  1006.119202 
 33632256.000000, 12.679568 , -1.703690, 3.924229, 3642093824.000000, 65.449997,  -139.229996,  79.660004, 0.000000,  0.000000 
 33652736.000000, 11.105090 , -7.424929, 11.609976, 3642113792.000000, -108.220001,  -137.410004,  19.530001, 0.000000,  0.000000 
 33672704.000000, 10.004392 , -20.925234, 16.845470, 3642133760.000000, -190.259995,  -115.080002,  -36.750000, 0.000000,  0.000000 
 33693184.000000, 6.917650 , -33.332016, 21.889544, 3642153728.000000, -115.010002,  -114.379997,  -140.000000, 0.000000,  0.000000 
 33712640.000000, 2.254039 , -32.702705, 24.268007, 3642174720.000000, -74.129997,  -136.360001,  -297.079987, 0.000000,  0.000000 
 33732608.000000, -0.435494 , -30.467812, 22.420748, 3642193664.000000, 42.070000,  -145.180008,  -398.089996, 0.000000,  0.000000 
 33752576.000000, -4.309474 , -23.810976, 21.059233, 3642213632.000000, 122.989998,  -170.729996,  -435.679993, 0.000000,  0.000000 
 33772544.000000, -7.769495 , -17.036898, 19.623539, 3642233600.000000, 98.769997,  -171.220001,  -469.489990, 0.000000,  0.000000 
 33793536.000000, -11.239087 , -12.454641, 18.013168, 3642253568.000000, 73.500000,  -176.960007,  -445.480011, 0.000000,  0.000000 
 33812480.000000, -13.356737 , -9.159724, 13.019348, 3642274560.000000, 51.939999,  -164.500000,  -396.619995, 0.000000,  0.000000 
 33832448.000000, -10.470992 , -4.208975, 7.128219, 3642293504.000000, 47.320000,  -117.389999,  -345.170013, 0.000000,  0.000000 
 33852416.000000, -7.623533 , 0.363709, 2.163112, 3642313472.000000, 78.540001,  -109.410004,  -251.930008, 0.000000,  0.000000 
 33872384.000000, -6.530013 , 3.491128, 0.047856, 3642333440.000000, 78.190002,  -116.620003,  -184.869995, 0.000000,  0.000000 
 33893376.000000, -10.243673 , 2.768496, 0.004786, 3642353408.000000, -6.860000,  -83.510002,  -148.680008, 0.000000,  0.000000 
 33912320.000000, -13.660624 , -0.485743, -2.184647, 3642374400.000000, -99.820000,  -9.380000,  -128.380005, 0.000000,  0.000000 
 33932288.000000, -11.363515 , -0.770489, -5.582455, 3642393856.000000, -66.779999,  34.580002,  -112.419998, 0.000000,  0.000000 
 33952256.000000, -8.453842 , 1.734797, -7.456036, 3642413824.000000, 18.270000,  28.280001,  -44.240002, 0.000000,  0.000000 
 33972224.000000, -5.453243 , 2.045863, -6.329016, 3642433792.000000, 57.820000,  30.940001,  32.060001, 0.000000,  0.000000 
 33993216.000000, -3.780660 , 0.351745, -5.245068, 3642453760.000000, 54.250000,  57.330002,  82.949997, 0.000000,  0.000000 
 34012160.000000, -3.962514 , 0.796810, -2.952743, 3642474752.000000, 61.320000,  88.620003,  121.169998, 0.000000,  0.000000 
 34032128.000000, -4.646862 , 0.811167, 0.971486, 3642493696.000000, 42.209999,  140.070007,  186.339996, 0.000000,  0.000000 
 34052096.000000, -6.151947 , -8.817552, 3.227918, 3642513664.000000, -20.299999,  186.619995,  270.899994, 0.000000,  0.000000 
 34072064.000000, -12.679568 , -23.413771, 12.655639, 3642533632.000000, -187.809998,  211.119995,  306.179993, 0.000000,  0.000000 
 34093056.000000, -20.300707 , -38.337807, 26.187050, 3642553600.000000, -419.019989,  230.930008,  325.850006, 0.000000,  0.000000 
 34112000.000000, -4.127619 , -31.022945, 27.132215, 3642574592.000000, -420.209991,  206.779999,  338.940002, 0.000000,  0.000000 
 34131968.000000, 1.457229 , -19.324436, 22.274784, 3642593536.000000, -218.330002,  151.690002,  325.989990, 0.000000,  0.000000 
 34152448.000000, -1.459622 , -13.562519, 20.338991, 3642613504.000000, -51.939999,  197.820007,  289.100006, 0.000000,  0.000000 
 34172416.000000, -3.029313 , -7.972885, 20.322243, 3642633472.000000, -31.360001,  205.800003,  142.029999, 0.000000,  0.000000 
 34192896.000000, -0.179462 , -4.876573, 13.529020, 3642653440.000000, -33.040001,  169.889999,  116.970001, 0.000000,  0.000000 
 34212352.000000, 2.746960 , -2.299503, 6.652047, 3642674432.000000, 55.160000,  85.050003,  146.440002, 0.000000,  0.000000 
 34232320.000000, 4.271189 , -0.193819, 3.098706, 3642693376.000000, 157.360001,  -2.940000,  193.619995, 0.000000,  0.000000 
 34252288.000000, 7.721639 , 2.009971, 2.175076, 3642713344.000000, 142.589996,  -51.799999,  228.899994, 0.000000,  0.000000 
 34272256.000000, 10.454242 , -2.033899, 1.911865, 3642733312.000000, 97.019997,  -75.949997,  272.089996, 0.000000,  0.000000 
 34294784.000000, 12.229716 , -7.936993, 3.591627, 3642753280.000000, 15.260000,  -70.910004,  275.660004, 0.000000,  0.000000 
 34312192.000000, 14.739788 , -16.017555, 5.771489, 3642776320.000000, -143.080002,  -72.309998,  233.729996, 0.000000,  0.000000 
 34332160.000000, 12.803994 , -20.810379, 11.595619, 3642793216.000000, -197.190002,  -94.360001,  141.330002, 0.000000,  0.000000 
 34352128.000000, 7.049256 , -21.915863, 11.741580, 3642813184.000000, -126.699997,  -83.580002,  -23.870001, 0.000000,  0.000000 
 34372096.000000, 6.453443 , -19.972891, 11.215159, 3642833152.000000, -37.450001,  -89.809998,  -196.699997, 0.000000,  0.000000 
 34393088.000000, 4.354938 , -22.413570, 12.729815, 3642853632.000000, 0.280000,  -116.830002,  -257.390015, 0.000000,  0.000000 
 34412032.000000, -1.617548 , -28.287951, 15.713666, 3642874112.000000, 6.090000,  -137.479996,  -351.890015, 0.000000,  0.000000 
 34432000.000000, -7.793423 , -30.199814, 15.366707, 3642893568.000000, -51.590000,  -114.169998,  -434.140015, 0.000000,  0.000000 
 34451968.000000, -7.932207 , -24.612574, 15.828522, 3642913536.000000, -23.799999,  -97.370003,  -453.670013, 0.000000,  0.000000 
 34471936.000000, -8.472985 , -19.262222, 13.926227, 3642933504.000000, 58.730000,  -114.730003,  -407.329987, 0.000000,  0.000000 
 34492928.000000, -12.756138 , -15.120246, 12.181859, 3642953472.000000, 92.610001,  -130.899994,  -404.179993, 0.000000,  0.000000 
 34511872.000000, -15.792630 , -8.394022, 9.789038, 3642974464.000000, 97.019997,  -107.029999,  -397.950012, 0.000000,  0.000000 
 34531840.000000, -10.234102 , -2.770889, 7.180861, 3642993408.000000, 92.470001,  -65.519997,  -335.929993, 0.000000,  0.000000 
 34551808.000000, -5.905487 , 1.172483, 4.692325, 3643013376.000000, 112.489998,  -58.660000,  -230.649994, 0.000000,  0.000000 
 34571776.000000, -4.144369 , 5.474778, 3.074777, 3643033344.000000, 149.729996,  -62.020000,  -188.509995, 0.000000,  0.000000 
 34592768.000000, -3.428915 , 8.047063, 1.222732, 3643053312.000000, 167.229996,  -43.889999,  -149.520004, 0.000000,  0.000000 
 34611712.000000, -4.694718 , 8.616554, -0.136391, 3643074304.000000, 143.639999,  3.430000,  -104.230003, 5905487360.000000,  1006.118103 
 34632192.000000, -6.410372 , 7.503892, -2.849852, 3643093248.000000, 87.010002,  45.430000,  -100.099998, 0.000000,  0.000000 
 34652160.000000, -8.142776 , 5.103891, -5.539384, 3643113216.000000, 29.750000,  71.330002,  -68.320000, 0.000000,  0.000000 
 34672128.000000, -10.344172 , 3.584448, -5.201996, 3643133184.000000, -32.830002,  101.360001,  -9.310000, 0.000000,  0.000000 
 34692608.000000, -10.918450 , 2.026721, -3.519842, 3643153152.000000, -86.660004,  126.209999,  40.599998, 0.000000,  0.000000 
 34712064.000000, -10.980663 , -1.107877, 0.591027, 3643174144.000000, -128.169998,  116.900002,  101.430000, 0.000000,  0.000000 
 34732032.000000, -13.866407 , -7.479963, 6.637690, 3643193088.000000, -164.009995,  114.239998,  157.850006, 0.000000,  0.000000 
 34752000.000000, -16.369299 , -20.446669, 11.729616, 3643213056.000000, -183.750000,  129.710007,  204.050003, 0.000000,  0.000000 
 34771968.000000, -10.250853 , -28.553553, 17.489140, 3643233024.000000, -141.680008,  130.619995,  263.760010, 0.000000,  0.000000 
 34792960.000000, -3.290131 , -24.141190, 18.709480, 3643252992.000000, -59.360001,  103.040001,  327.600006, 0.000000,  0.000000 
 34811904.000000, -3.390630 , -17.843279, 16.235302, 3643273984.000000, -2.940000,  102.550003,  372.260010, 0.000000,  0.000000 
 34831872.000000, -2.256432 , -16.067802, 14.845071, 3643292928.000000, -36.750000,  142.029999,  287.420013, 0.000000,  0.000000 
 34851840.000000, 2.739782 , -14.959927, 17.539389, 3643312896.000000, -146.789993,  163.380005,  219.869995, 0.000000,  0.000000 
 34871808.000000, 2.790031 , -12.978670, 18.154345, 3643333376.000000, -241.990005,  175.839996,  210.979996, 0.000000,  0.000000 
 34892800.000000, -0.796810 , -10.889735, 13.933406, 3643373824.000000, -110.949997,  156.660004,  104.300003, 0.000000,  0.000000 
 34911744.000000, 0.823131 , -8.618947, 9.523434, 0.000000, 0.000000,  0.000000,  0.000000, 0.000000,  0.000000 
 34931712.000000, 5.113462 , -5.570491, 8.109276, 3643393280.000000, 11.760000,  101.779999,  145.949997, 0.000000,  0.000000 
 34951680.000000, 8.542377 , -1.440479, 8.307880, 3643413248.000000, 95.129997,  48.509998,  195.649994, 0.000000,  0.000000 
 34971648.000000, 10.583455 , 1.366302, 8.504091, 3643433216.000000, 121.449997,  35.349998,  197.889999, 0.000000,  0.000000 
 34992640.000000, 14.081761 , 3.043670, 7.391429, 3643453184.000000, 134.259995,  39.270000,  180.039993, 0.000000,  0.000000 
 35011584.000000, 15.952950 , 3.739982, 6.778866, 3643474176.000000, 102.340004,  24.290001,  157.639999, 0.000000,  0.000000 
 35031552.000000, 13.306486 , -1.220340, 9.492328, 3643493120.000000, -10.010000,  -9.310000,  108.919998, 0.000000,  0.000000 
 35051520.000000, 11.794223 , -9.157332, 17.429321, 3643513088.000000, -159.949997,  -25.900000,  42.980000, 0.000000,  0.000000 
 35071488.000000, 8.035098 , -21.875185, 24.366114, 3643533056.000000, -245.839996,  -61.529999,  -5.040000, 0.000000,  0.000000 
 35092480.000000, -1.828116 , -33.119061, 21.408585, 3643553024.000000, -145.949997,  -76.440002,  -82.809998, 0.000000,  0.000000 
 35111424.000000, -5.659025 , -31.176085, 19.946569, 3643574016.000000, 52.290001,  -139.089996,  -267.329987, 0.000000,  0.000000 
 35131904.000000, -5.051248 , -29.871996, 21.463617, 3643592960.000000, 153.720001,  -183.050003,  -320.459991, 0.000000,  0.000000 
 35151872.000000, -9.973285 , -27.747171, 22.200609, 3643612928.000000, 143.850006,  -272.720001,  -304.360016, 0.000000,  0.000000 
 35171840.000000, -17.178074 , -21.064018, 15.627523, 3643632896.000000, 105.629997,  -258.230011,  -359.660004, 0.000000,  0.000000 
 35192320.000000, -17.819349 , -15.309279, 12.430713, 3643652864.000000, 101.570000,  -233.169998,  -372.959991, 0.000000,  0.000000 
 35211776.000000, -17.816957 , -8.343772, 10.870593, 3643673856.000000, 102.199997,  -241.009995,  -345.730011, 0.000000,  0.000000 
 35231744.000000, -15.213567 , -2.928815, 5.532206, 3643692800.000000, 84.349998,  -182.279999,  -320.880005, 0.000000,  0.000000 
 35251712.000000, -10.451849 , 0.368495, 0.598206, 3643712768.000000, 92.050003,  -128.309998,  -279.299988, 0.000000,  0.000000 
 35271680.000000, -6.886543 , 5.257031, -0.282353, 3643732736.000000, 120.959999,  -93.099998,  -220.430008, 0.000000,  0.000000 
 35294208.000000, -6.245267 , 8.482556, -0.454636, 3643752704.000000, 103.389999,  -67.129997,  -174.720001, 0.000000,  0.000000 
 35311616.000000, -8.444271 , 6.300302, -1.572084, 3643775744.000000, 45.779999,  -11.410000,  -150.990005, 0.000000,  0.000000 
 35331584.000000, -10.262815 , 4.319045, -5.075177, 3643792640.000000, -10.150000,  46.340000,  -141.750000, 0.000000,  0.000000 
 35351552.000000, -9.181261 , 4.857430, -5.544170, 3643812608.000000, -38.009998,  68.739998,  -84.840004, 0.000000,  0.000000 
 35371520.000000, -8.238488 , 4.019942, -2.993421, 3643833088.000000, -74.620003,  72.660004,  16.379999, 0.000000,  0.000000 
 35392512.000000, -8.078169 , 2.199004, -1.256232, 3643853056.000000, -113.889999,  83.580002,  59.920002, 0.000000,  0.000000 
 35411456.000000, -7.709675 , -0.203390, 1.490728, 3643873536.000000, -132.720001,  87.570000,  89.669998, 0.000000,  0.000000 
 35431424.000000, -9.202796 , -4.929214, 7.996813, 3643892992.000000, -102.550003,  91.980003,  152.320007, 0.000000,  0.000000 
 35451392.000000, -13.643874 , -15.404992, 12.437892, 3643912960.000000, -46.900002,  106.820000,  225.050003, 0.000000,  0.000000 
 35471360.000000, -11.885150 , -24.672394, 15.483955, 3643932928.000000, -12.950000,  124.180000,  273.700012, 0.000000,  0.000000 
 35492352.000000, -2.572284 , -22.528425, 18.821943, 3643952896.000000, -46.549999,  112.910004,  303.380005, 0.000000,  0.000000 
 35511296.000000, -4.046263 , -20.099710, 18.178272, 3643973888.000000, -98.209999,  91.559998,  359.380005, 0.000000,  0.000000 
 35531264.000000, -4.012764 , -20.714666, 17.412571, 3643992832.000000, -168.279999,  109.059998,  302.679993, 0.000000,  0.000000 
 35551232.000000, 2.646462 , -16.201803, 17.915062, 3644012800.000000, -156.869995,  117.180000,  261.309998, 0.000000,  0.000000 
 35571200.000000, 2.794817 , -13.347164, 15.414563, 3644032768.000000, -91.840004,  127.610001,  284.269989, 0.000000,  0.000000 
 35592192.000000, -0.449851 , -10.128819, 12.064612, 3644052736.000000, -61.459999,  125.720001,  213.779999, 0.000000,  0.000000 
 35611648.000000, 1.435694 , -8.453842, 6.838687, 3644073728.000000, -65.660004,  99.959999,  169.190002, 5906486784.000000,  1006.116394 
 35631616.000000, 6.238089 , -6.628119, 4.213760, 3644092672.000000, -38.639999,  55.510002,  205.380005, 0.000000,  0.000000 
 35651584.000000, 11.138590 , -3.579663, 4.991428, 3644112640.000000, -41.580002,  12.880000,  231.210007, 0.000000,  0.000000 
 35671552.000000, 13.871193 , -0.055035, 7.728817, 3644132608.000000, -100.099998,  -2.730000,  216.930008, 0.000000,  0.000000 
 35692032.000000, 14.892928 , -0.713061, 7.984849, 3644152576.000000, -156.169998,  -2.730000,  177.660004, 0.000000,  0.000000 
 35711488.000000, 15.699310 , -1.887937, 7.735995, 3644173568.000000, -111.160004,  -13.090000,  126.980003, 0.000000,  0.000000 
 35731456.000000, 13.447663 , -2.991028, 9.487542, 3644192512.000000, -36.049999,  -30.660000,  66.500000, 0.000000,  0.000000 
 35751424.000000, 9.140583 , -5.132604, 12.990634, 3644212480.000000, -2.940000,  -25.200001,  -29.049999, 0.000000,  0.000000 
 35771392.000000, 6.013163 , -10.743774, 14.668003, 3644232448.000000, -22.400000,  -13.230000,  -118.790001, 0.000000,  0.000000 
 35792384.000000, 4.744967 , -21.645475, 15.373885, 3644252416.000000, 5.530000,  -45.009998,  -189.350006, 0.000000,  0.000000 
 35811328.000000, 2.988636 , -29.706892, 21.722044, 3644273408.000000, 34.930000,  -99.050003,  -256.200012, 0.000000,  0.000000 
 35831296.000000, -1.749153 , -33.243484, 22.533211, 3644292352.000000, 4.200000,  -133.070007,  -301.070007, 0.000000,  0.000000 
 35851264.000000, -5.199604 , -30.355349, 21.437298, 3644312832.000000, 81.059998,  -166.880005,  -380.239990, 0.000000,  0.000000 
 35871232.000000, -6.747760 , -24.201006, 17.094324, 3644352768.000000, 183.750000,  -204.680008,  -365.470001, 0.000000,  0.000000 
 35892224.000000, -7.180861 , -19.515860, 14.737395, 0.000000, 0.000000,  0.000000,  0.000000, 0.000000,  0.000000 
 35911168.000000, -9.994821 , -14.189439, 13.141381, 3644373760.000000, 161.630005,  -202.160004,  -332.989990, 0.000000,  0.000000 
 35931136.000000, -11.899508 , -10.195816, 8.697910, 3644392704.000000, 124.879997,  -172.759995,  -316.820007, 0.000000,  0.000000 
 35951104.000000, -10.724631 , -6.001199, 2.706282, 3644412672.000000, 88.760002,  -141.680008,  -287.140015, 0.000000,  0.000000 
 35971072.000000, -7.865208 , -1.040878, -0.040678, 3644432640.000000, 62.860001,  -102.620003,  -248.779999, 0.000000,  0.000000 
 35992064.000000, -6.546762 , 2.366502, -0.765703, 3644452608.000000, 42.139999,  -75.040001,  -199.500000, 0.000000,  0.000000 
 36011008.000000, -9.066404 , 2.691926, -2.909672, 3644473600.000000, 4.340000,  -29.330000,  -180.250000, 0.000000,  0.000000 
 36030976.000000, -12.105289 , 1.529014, -4.173083, 3644492544.000000, -34.580002,  22.540001,  -178.850006, 0.000000,  0.000000 
 36050944.000000, -12.918849 , 2.067399, -5.900701, 3644512512.000000, -71.820000,  53.830002,  -150.639999, 0.000000,  0.000000 
 36070912.000000, -11.662617 , 4.086941, -7.317252, 3644532480.000000, -70.629997,  64.330002,  -77.209999, 0.000000,  0.000000 
 36091904.000000, -8.398808 , 4.374080, -6.049056, 3644552448.000000, -62.369999,  62.369999,  -39.200001, 0.000000,  0.000000 
 36111360.000000, -6.541977 , 3.479164, -2.545963, 3644573440.000000, -72.730003,  59.080002,  16.660000, 0.000000,  0.000000 
 36131328.000000, -7.429714 , 3.103491, 2.816352, 3644592384.000000, -112.699997,  68.040001,  68.389999, 0.000000,  0.000000 
 36151296.000000, -10.104890 , 0.344566, 5.087141, 3644612352.000000, -154.279999,  113.750000,  140.910004, 0.000000,  0.000000 
 36171264.000000, -7.549356 , -14.701502, 10.633704, 3644632320.000000, -186.690002,  159.669998,  249.199997, 0.000000,  0.000000 
 36191744.000000, -21.123838 , -28.620554, 21.458834, 3644652288.000000, -215.740005,  195.509995,  284.130005, 0.000000,  0.000000 
 36211200.000000, -9.662218 , -35.076385, 21.339191, 3644692224.000000, -142.520004,  93.449997,  396.269989, 0.000000,  0.000000 
 36231168.000000, -5.123034 , -26.591436, 25.012173, 0.000000, 0.000000,  0.000000,  0.000000, 0.000000,  0.000000 
 36251136.000000, -4.797609 , -24.701107, 26.139194, 3644712192.000000, -189.839996,  177.029999,  326.549988, 0.000000,  0.000000 
 36271104.000000, -2.734996 , -18.912870, 20.542381, 3644732160.000000, -190.610001,  181.300003,  202.089996, 0.000000,  0.000000 
 36294144.000000, -0.315853 , -12.258430, 15.991233, 3644752128.000000, -78.680000,  138.809998,  165.479996, 0.000000,  0.000000 
 36311040.000000, 1.411765 , -7.180861, 12.129218, 3644775168.000000, 41.160000,  78.750000,  135.800003, 0.000000,  0.000000 
 36331008.000000, 3.220739 , -3.677768, 7.941778, 3644792576.000000, 115.919998,  23.799999,  124.599998, 0.000000,  0.000000 
 36350976.000000, 5.675776 , -1.069592, 4.811966, 3644812544.000000, 162.470001,  -7.630000,  131.110001, 0.000000,  0.000000 
 36370944.000000, 7.869993 , 1.069592, 4.082155, 3644832512.000000, 161.279999,  -21.070000,  154.350006, 0.000000,  0.000000 
 36391936.000000, 10.231709 , 0.756132, 4.534399, 3644852480.000000, 98.349998,  -25.900000,  173.740005, 0.000000,  0.000000 
 36410880.000000, 14.105689 , -1.100698, 5.577669, 3644872960.000000, 44.590000,  -50.259998,  172.550003, 0.000000,  0.000000 
 36430848.000000, 13.883157 , -3.251846, 8.075776, 3644892416.000000, 11.060000,  -91.419998,  159.389999, 0.000000,  0.000000 
 36450816.000000, 10.786844 , -7.140182, 13.100704, 3644912384.000000, -46.549999,  -94.849998,  102.059998, 0.000000,  0.000000 
 36470784.000000, 8.630912 , -12.753745, 17.812172, 3644932352.000000, -87.290001,  -102.410004,  28.980000, 0.000000,  0.000000 
 36491776.000000, 6.235696 , -17.733210, 14.024333, 3644952320.000000, -53.060001,  -155.820007,  -48.650002, 0.000000,  0.000000 
 36510720.000000, 4.199404 , -18.685551, 12.626925, 3644973312.000000, 10.360000,  -212.449997,  -163.589996, 0.000000,  0.000000 
 36530688.000000, 2.718246 , -20.623739, 16.249659, 3644992256.000000, -30.100000,  -249.130005,  -277.339996, 0.000000,  0.000000 
 36550656.000000, -0.126820 , -27.357141, 19.389042, 3645012224.000000, -118.020004,  -261.799988,  -326.480011, 0.000000,  0.000000 
 36571136.000000, -2.670390 , -24.902105, 18.228521, 3645032192.000000, -121.029999,  -245.350006,  -394.170013, 0.000000,  0.000000 
 36591616.000000, -7.379465 , -18.195023, 13.765909, 3645052160.000000, -21.350000,  -204.960007,  -393.540009, 0.000000,  0.000000 
 36611072.000000, -13.057633 , -13.837693, 9.336794, 3645073152.000000, 96.809998,  -146.580002,  -388.640015, 5907486208.000000,  1006.116028 
 36631040.000000, -13.823336 , -6.970293, 8.528020, 3645092096.000000, 122.360001,  -106.540001,  -354.269989, 0.000000,  0.000000 
 36651008.000000, -8.015956 , -2.474179, 4.666004, 3645112064.000000, 65.519997,  -71.750000,  -305.410004, 0.000000,  0.000000 
 36670976.000000, -3.357130 , -0.617348, 2.371287, 3645132032.000000, 40.040001,  -24.780001,  -231.419998, 0.000000,  0.000000 
 36691968.000000, -1.220340 , 2.196611, 1.725225, 3645152000.000000, 68.529999,  -5.880000,  -200.899994, 0.000000,  0.000000 
 36710912.000000, -3.756732 , 4.802395, 2.208575, 3645172992.000000, 62.160000,  25.830000,  -179.130005, 0.000000,  0.000000 
 36730880.000000, -7.939385 , 3.940979, 2.239682, 3645191936.000000, 23.379999,  93.940002,  -154.139999, 0.000000,  0.000000 
 36750848.000000, -9.487542 , 1.619941, 0.346959, 3645211904.000000, 30.660000,  132.509995,  -124.739998, 0.000000,  0.000000 
 36770816.000000, -9.729217 , 3.225525, -0.870987, 3645231872.000000, 83.580002,  121.870003,  -53.900002, 0.000000,  0.000000 
 36791808.000000, -7.532606 , 5.651847, -1.787439, 3645251840.000000, 99.400002,  94.220001,  35.980000, 0.000000,  0.000000 
 36810752.000000, -5.556134 , 4.905287, -1.411765, 3645272832.000000, 43.189999,  69.090004,  85.680000, 0.000000,  0.000000 
 36830720.000000, -7.022934 , 1.466800, 0.425922, 3645292288.000000, -66.570000,  63.209999,  76.790001, 0.000000,  0.000000 
 36850688.000000, -9.698111 , -1.686940, 5.161318, 3645312256.000000, -158.899994,  78.889999,  85.959999, 0.000000,  0.000000 
 36870656.000000, -11.054840 , -9.224331, 8.602197, 3645332224.000000, -201.389999,  96.389999,  153.649994, 0.000000,  0.000000 
 36891648.000000, -14.337792 , -21.159733, 16.089338, 3645352192.000000, -187.320007,  85.680000,  240.520004, 0.000000,  0.000000 
 36910592.000000, -11.676974 , -31.408192, 19.427328, 3645372672.000000, -192.779999,  78.820000,  272.089996, 0.000000,  0.000000 
 36930560.000000, -3.809374 , -24.564716, 18.534805, 3645392128.000000, -143.289993,  60.480000,  311.220001, 0.000000,  0.000000 
 36950528.000000, -0.014357 , -19.355543, 18.384056, 3645412096.000000, -90.720001,  44.869999,  335.790009, 0.000000,  0.000000 
 36970496.000000, 2.249253 , -15.237494, 18.979870, 3645432064.000000, -124.040001,  87.150002,  272.440002, 0.000000,  0.000000 
 36991488.000000, 3.675375 , -14.993427, 16.527225, 3645452032.000000, -161.910004,  129.500000,  208.529999, 0.000000,  0.000000 
 37010432.000000, 5.058427 , -14.481362, 12.677175, 3645473024.000000, -92.750000,  134.960007,  188.649994, 0.000000,  0.000000 
 37030400.000000, 5.804988 , -10.037891, 10.961520, 3645491968.000000, 24.010000,  115.570000,  182.839996, 0.000000,  0.000000 
 37050368.000000, 6.465407 , -6.233303, 8.420342, 3645511936.000000, 105.559998,  96.739998,  172.899994, 0.000000,  0.000000 
 37070848.000000, 7.941778 , -3.393023, 4.022335, 3645531904.000000, 135.660004,  80.290001,  159.110001, 0.000000,  0.000000 
 37091328.000000, 10.329816 , 0.906880, 2.797210, 3645551872.000000, 126.279999,  57.820000,  153.930008, 0.000000,  0.000000 
 37110784.000000, 11.887544 , 4.132405, 4.400401, 3645572864.000000, 53.060001,  32.270000,  153.649994, 0.000000,  0.000000 
 37130752.000000, 10.983055 , 3.486342, 6.099305, 3645591808.000000, -57.959999,  3.920000,  131.039993, 0.000000,  0.000000 
 37150720.000000, 11.160125 , 3.192025, 6.424729, 3645611776.000000, -124.809998,  -31.710001,  94.430000, 0.000000,  0.000000 
 37170688.000000, 10.884951 , 3.617948, 7.391429, 3645631744.000000, -115.080002,  -60.200001,  72.239998, 0.000000,  0.000000 
 37191680.000000, 9.011370 , 0.205783, 11.050055, 3645651712.000000, -86.379997,  -76.090004,  14.980000, 0.000000,  0.000000 
 37210624.000000, 7.166504 , -7.173682, 15.464812, 3645672704.000000, -96.739998,  -77.559998,  -58.869999, 0.000000,  0.000000 
 37230592.000000, 5.682954 , -19.599611, 16.333406, 3645691648.000000, -101.500000,  -100.029999,  -134.119995, 0.000000,  0.000000 
 37250560.000000, 5.974878 , -29.264221, 23.088346, 3645711616.000000, -56.420002,  -126.840004,  -221.059998, 0.000000,  0.000000 
 37270528.000000, 3.582055 , -37.782669, 26.969503, 3645731584.000000, -77.139999,  -148.050003,  -257.179993, 0.000000,  0.000000 
 37293568.000000, -2.213361 , -33.506695, 23.286947, 3645751552.000000, -2.800000,  -166.320007,  -312.970001, 0.000000,  0.000000 
 37310464.000000, -6.795617 , -21.968504, 13.730016, 3645774592.000000, 138.320007,  -155.960007,  -365.820007, 0.000000,  0.000000 
 37330432.000000, -7.886744 , -14.840286, 10.272388, 3645792000.000000, 190.750000,  -155.539993,  -378.839996, 0.000000,  0.000000 
 37350400.000000, -6.790830 , -10.908878, 10.597812, 3645811968.000000, 129.990005,  -186.970001,  -354.690002, 0.000000,  0.000000 
 37370368.000000, -5.769095 , -8.511270, 9.107083, 3645831936.000000, 26.320000,  -162.889999,  -339.010010, 0.000000,  0.000000 
 37391360.000000, -5.276174 , -6.017949, 5.333601, 3645851904.000000, 25.620001,  -98.840004,  -323.190002, 0.000000,  0.000000 
 37410304.000000, -6.144768 , -3.153740, 1.354338, 3645872384.000000, 85.889999,  -63.910000,  -284.410004, 0.000000,  0.000000 
 37430272.000000, -7.606783 , 1.426122, 1.701297, 3645891840.000000, 108.290001,  -31.150000,  -255.710007, 0.000000,  0.000000 
 37450240.000000, -9.260223 , 3.323631, 0.966700, 3645911808.000000, 65.449997,  -6.440000,  -224.770004, 0.000000,  0.000000 
 37470208.000000, -12.602997 , 1.703690, -3.024528, 3645931776.000000, 31.710001,  18.340000,  -191.029999, 0.000000,  0.000000 
 37491200.000000, -14.924035 , 1.873580, -4.563113, 3645951744.000000, 16.100000,  33.459999,  -161.699997, 0.000000,  0.000000 
 37510144.000000, -11.837293 , 2.969493, -2.373680, 3645972736.000000, -43.959999,  20.790001,  -90.300003, 0.000000,  0.000000 
 37530112.000000, -9.501899 , 2.093720, -1.442872, 3645991680.000000, -110.320000,  -5.670000,  -8.890000, 0.000000,  0.000000 
 37550080.000000, -8.975478 , 0.591027, -0.524028, 3646011648.000000, -131.320007,  -7.630000,  20.370001, 0.000000,  0.000000 
 37570560.000000, -7.456036 , -0.196211, 2.215754, 3646031616.000000, -96.459999,  11.690000,  85.120003, 0.000000,  0.000000 
 37591552.000000, -6.319445 , -2.785245, 3.311667, 3646051584.000000, -30.799999,  23.590000,  187.880005, 0.000000,  0.000000 
 37610496.000000, -7.573284 , -8.587841, 7.623533, 3646072576.000000, -14.070000,  53.760002,  274.329987, 5908485632.000000,  1006.113647 
 37630464.000000, -8.054241 , -20.137995, 18.293129, 3646091520.000000, -100.449997,  106.820000,  332.850006, 0.000000,  0.000000 
 37650432.000000, -9.829715 , -36.725044, 22.686352, 3646111488.000000, -241.639999,  150.009995,  407.119995, 0.000000,  0.000000 
 37670400.000000, -5.855237 , -30.405596, 17.592033, 3646131456.000000, -297.360016,  178.500000,  406.700012, 0.000000,  0.000000 
 37691392.000000, 2.892922 , -22.753351, 18.520447, 3646151424.000000, -178.080002,  129.430008,  323.260010, 0.000000,  0.000000 
 37710336.000000, 7.735995 , -22.341785, 19.542183, 3646172416.000000, -189.419998,  118.440002,  326.690002, 0.000000,  0.000000 
 37730304.000000, 6.647261 , -17.977276, 15.553347, 3646191360.000000, -173.949997,  121.940002,  270.480011, 0.000000,  0.000000 
 37750272.000000, 4.780859 , -12.521641, 9.432507, 3646211328.000000, -14.630000,  117.809998,  224.630005, 0.000000,  0.000000 
 37770240.000000, 7.709675 , -7.578069, 7.628319, 3646231296.000000, 104.650002,  96.529999,  161.000000, 0.000000,  0.000000 
 37791232.000000, 11.406586 , -2.828316, 8.140383, 3646251776.000000, 92.330002,  46.480000,  163.029999, 0.000000,  0.000000 
 37810176.000000, 12.311072 , -1.584049, 7.645068, 3646272256.000000, 38.290001,  6.300000,  156.240005, 0.000000,  0.000000 
 37830144.000000, 11.169697 , -0.485743, 7.307681, 3646291712.000000, 36.610001,  -15.610000,  135.240005, 0.000000,  0.000000 
 37850112.000000, 11.851650 , 1.653440, 7.525427, 3646311680.000000, 51.240002,  -29.120001,  110.389999, 0.000000,  0.000000 
 37870080.000000, 13.514663 , 3.826123, 7.367501, 3646331648.000000, 66.709999,  -62.090000,  79.099998, 0.000000,  0.000000 
 37891072.000000, 12.210573 , 2.991028, 6.786045, 3646351616.000000, 43.889999,  -104.650002,  28.420000, 0.000000,  0.000000 
 37910016.000000, 10.511670 , -1.758725, 7.496714, 3646372608.000000, -4.830000,  -121.099998,  -39.200001, 0.000000,  0.000000 
 37929984.000000, 10.585848 , -10.554741, 8.652447, 3646391552.000000, -86.449997,  -124.180000,  -106.190002, 0.000000,  0.000000 
 37949952.000000, 12.954741 , -32.401215, 17.290537, 3646411520.000000, -194.600006,  -128.940002,  -196.770004, 0.000000,  0.000000 
 37969920.000000, 4.800002 , -49.239506, 29.627930, 3646431488.000000, -237.860001,  -106.120003,  -275.799988, 0.000000,  0.000000 
 37990912.000000, -8.370094 , -38.813976, 19.731216, 3646451456.000000, -192.850006,  -58.099998,  -345.869995, 0.000000,  0.000000 
 38009856.000000, -5.740381 , -26.019554, 16.000805, 3646472448.000000, 211.610001,  -1.750000,  -490.070007, 0.000000,  0.000000 
 38029824.000000, -7.008578 , -16.357336, 13.062418, 3646491392.000000, 336.489990,  -44.869999,  -427.630005, 0.000000,  0.000000 
 38050304.000000, -9.777073 , -13.677374, 12.050256, 3646511360.000000, 251.300003,  -122.220001,  -397.250000, 0.000000,  0.000000 
 38070272.000000, -15.077175 , -8.898908, 8.965906, 3646531328.000000, 176.330002,  -132.229996,  -420.279999, 0.000000,  0.000000 
 38090752.000000, -10.705488 , -1.387837, 3.117848, 3646551296.000000, 141.960007,  -121.730003,  -373.869995, 0.000000,  0.000000 
 38110208.000000, -8.171489 , 0.208176, 1.292124, 3646572288.000000, 134.050003,  -95.410004,  -254.169998, 0.000000,  0.000000 
 38130176.000000, -4.969893 , 4.010371, -0.466600, 3646611200.000000, 101.430000,  -61.320000,  -120.400002, 0.000000,  0.000000 
 38150144.000000, -3.862016 , 5.309673, -0.772882, 0.000000, 0.000000,  0.000000,  0.000000, 0.000000,  0.000000 
 38170112.000000, -8.114061 , 3.818945, -1.806581, 3646631168.000000, 34.930000,  -7.280000,  -88.199997, 0.000000,  0.000000 
 38191104.000000, -11.408978 , 1.899901, -4.455436, 3646651136.000000, -32.480000,  54.810001,  -84.419998, 0.000000,  0.000000 
 38210048.000000, -8.860621 , 2.531606, -4.675575, 3646672128.000000, -53.760002,  71.610001,  -30.590000, 0.000000,  0.000000 
 38230016.000000, -5.496314 , 2.866602, -3.512664, 3646691072.000000, -81.620003,  36.119999,  56.770000, 0.000000,  0.000000 
 38249984.000000, -5.417351 , 2.292324, -2.443072, 3646711040.000000, -109.059998,  17.710001,  91.769997, 0.000000,  0.000000 
 38269952.000000, -5.958128 , 0.693919, -2.371287, 3646731520.000000, -122.150002,  51.590000,  106.750000, 0.000000,  0.000000 
 38292992.000000, -5.752346 , -0.287139, -2.254039, 3646751488.000000, -85.889999,  70.629997,  164.009995, 0.000000,  0.000000 
 38309888.000000, -7.231110 , -2.234896, 1.703690, 3646774016.000000, -65.379997,  85.260002,  235.899994, 0.000000,  0.000000 
 38329856.000000, -9.669396 , -13.031311, 6.367301, 3646791424.000000, -106.959999,  112.000000,  269.500000, 0.000000,  0.000000 
 38349824.000000, -12.538391 , -31.173693, 19.046867, 3646811392.000000, -152.460007,  123.340004,  300.089996, 0.000000,  0.000000 
 38369792.000000, -10.418350 , -40.481773, 22.470997, 3646831360.000000, -239.610001,  155.470001,  371.980011, 0.000000,  0.000000 
 38390784.000000, -5.106283 , -27.232716, 20.157139, 3646851328.000000, -160.300003,  123.760002,  346.500000, 0.000000,  0.000000 
 38409728.000000, 0.827917 , -18.879372, 20.537596, 3646872320.000000, -87.849998,  86.029999,  254.240005, 0.000000,  0.000000 
 38429696.000000, 5.008178 , -13.361522, 19.482363, 3646891264.000000, -138.039993,  96.809998,  194.529999, 0.000000,  0.000000 
 38449664.000000, 3.321238 , -10.449455, 16.989040, 3646911232.000000, -110.389999,  113.120003,  156.100006, 0.000000,  0.000000 
 38469632.000000, -0.217747 , -6.589834, 14.806787, 3646951168.000000, 41.930000,  99.120003,  71.470001, 0.000000,  0.000000 
 38490624.000000, 1.978864 , -4.395615, 10.786844, 0.000000, 0.000000,  0.000000,  0.000000, 0.000000,  0.000000 
 38509568.000000, 7.171289 , -1.574477, 7.671390, 3646972160.000000, 115.639999,  25.690001,  132.789993, 0.000000,  0.000000 
 38530048.000000, 9.939785 , 0.710668, 4.455436, 3646991104.000000, 117.459999,  -34.020000,  185.710007, 0.000000,  0.000000 
 38550016.000000, 8.322237 , 1.071985, 5.532206, 3647011072.000000, 34.509998,  -42.420002,  181.020004, 0.000000,  0.000000 
 38569984.000000, 8.939585 , -0.547956, 5.599205, 3647031040.000000, -76.510002,  -33.880001,  147.910004, 0.000000,  0.000000 
 38590464.000000, 12.689137 , -1.201197, 3.589234, 3647051008.000000, -103.459999,  -64.610001,  134.399994, 0.000000,  0.000000 
 38609920.000000, 13.773087 , 0.535992, 3.967300, 3647072000.000000, -66.639999,  -107.099998,  104.720001, 5909485056.000000,  1006.111450 
 38629888.000000, 9.810574 , -0.969093, 7.668997, 3647090944.000000, -78.540001,  -99.470001,  15.820000, 0.000000,  0.000000 
 38649856.000000, 8.166703 , -8.025528, 11.882757, 3647110912.000000, -129.430008,  -63.279999,  -74.129997, 0.000000,  0.000000 
 38669824.000000, 8.678767 , -20.446669, 13.619946, 3647130880.000000, -133.070007,  -64.400002,  -136.220001, 0.000000,  0.000000 
 38690816.000000, 7.350751 , -33.454052, 21.463617, 3647150848.000000, -86.309998,  -87.010002,  -197.610001, 0.000000,  0.000000 
 38709760.000000, -0.890130 , -37.009789, 19.161724, 3647171840.000000, -55.299999,  -77.419998,  -259.980011, 0.000000,  0.000000 
 38729728.000000, -2.641676 , -28.560730, 16.220945, 3647190784.000000, 97.019997,  -74.129997,  -371.140015, 0.000000,  0.000000 
 38749696.000000, -3.689733 , -21.269800, 12.598210, 3647210752.000000, 161.419998,  -98.699997,  -368.339996, 0.000000,  0.000000 
 38769664.000000, -7.207181 , -16.728224, 8.470592, 3647231232.000000, 121.660004,  -120.820000,  -373.239990, 0.000000,  0.000000 
 38790656.000000, -10.805987 , -11.083554, 5.599205, 3647251200.000000, 112.139999,  -105.279999,  -398.299988, 0.000000,  0.000000 
 38809600.000000, -10.255639 , -5.714060, 3.024528, 3647271680.000000, 116.550003,  -79.239998,  -375.339996, 0.000000,  0.000000 
 38829568.000000, -6.486942 , -0.710668, 2.543570, 3647291136.000000, 133.350006,  -34.509998,  -277.619995, 0.000000,  0.000000 
 38849536.000000, -3.761517 , 3.000600, 0.806381, 3647311104.000000, 134.539993,  -7.980000,  -172.899994, 0.000000,  0.000000 
 38869504.000000, -2.684747 , 5.682954, -0.124427, 3647331072.000000, 141.399994,  9.730000,  -123.199997, 0.000000,  0.000000 
 38890496.000000, -4.981857 , 5.812167, -1.825724, 3647351040.000000, 132.509995,  29.680000,  -90.580002, 0.000000,  0.000000 
 38909440.000000, -6.809973 , 4.838287, -1.576870, 3647372032.000000, 82.040001,  70.769997,  -74.059998, 0.000000,  0.000000 
 38929408.000000, -5.288138 , 4.299902, -2.562713, 3647390976.000000, 9.310000,  100.870003,  -30.940001, 0.000000,  0.000000 
 38949376.000000, -5.886343 , 4.007978, -2.825923, 3647410944.000000, -60.410000,  114.520004,  54.529999, 0.000000,  0.000000 
 38969856.000000, -8.209774 , 1.497907, -1.713261, 3647430912.000000, -167.369995,  138.880005,  82.389999, 0.000000,  0.000000 
 38990336.000000, -8.863015 , -1.421337, 0.708275, 3647451392.000000, -281.329987,  160.089996,  74.129997, 0.000000,  0.000000 
 39009280.000000, -9.365508 , -4.955536, 4.108476, 3647471872.000000, -343.489990,  148.119995,  80.639999, 0.000000,  0.000000 
 39029760.000000, -13.574483 , -13.445271, 9.442079, 3647490816.000000, -285.600006,  125.930000,  132.580002, 0.000000,  0.000000 
 39049728.000000, -20.288744 , -27.979275, 11.588440, 3647510784.000000, -176.960007,  100.239998,  197.050003, 0.000000,  0.000000 
 39069696.000000, -10.392029 , -25.469204, 12.710674, 3647530752.000000, -84.000000,  57.959999,  216.089996, 0.000000,  0.000000 
 39090176.000000, -4.979464 , -22.188644, 14.859427, 3647550720.000000, 4.550000,  -12.390000,  276.570007, 0.000000,  0.000000 
 39109632.000000, -7.046863 , -20.877375, 14.687144, 3647571712.000000, -43.680000,  -5.600000,  264.950012, 0.000000,  0.000000 
 39129600.000000, -4.936393 , -16.510475, 14.294723, 3647590656.000000, -138.039993,  42.490002,  181.160004, 0.000000,  0.000000 
 39149568.000000, 1.184447 , -12.698709, 15.687346, 3647610624.000000, -145.320007,  57.049999,  150.570007, 0.000000,  0.000000 
 39169536.000000, 5.522634 , -12.136396, 15.361920, 3647630592.000000, -122.709999,  62.369999,  168.000000, 0.000000,  0.000000 
 39190528.000000, 5.280960 , -10.167104, 14.163116, 3647650560.000000, -51.660000,  64.470001,  152.039993, 0.000000,  0.000000 
 39209472.000000, 2.646462 , -7.106683, 11.930614, 3647671552.000000, 24.920000,  72.590004,  122.010002, 0.000000,  0.000000 
 39229440.000000, 2.926422 , -5.182854, 9.951750, 3647690496.000000, 67.269997,  59.080002,  93.730003, 0.000000,  0.000000 
 39249408.000000, 4.905287 , -2.301895, 8.898908, 3647710976.000000, 76.090004,  4.620000,  111.160004, 0.000000,  0.000000 
 39269376.000000, 7.104291 , -0.485743, 8.233703, 3647730944.000000, 49.000000,  -48.369999,  131.180008, 0.000000,  0.000000 
 39292416.000000, 8.494520 , 0.830309, 8.159525, 3647750912.000000, 40.459999,  -85.750000,  134.750000, 0.000000,  0.000000 
 39309312.000000, 8.618947 , 2.737389, 9.817751, 3647773440.000000, 45.009998,  -112.419998,  124.669998, 0.000000,  0.000000 
 39329280.000000, 9.552148 , 1.983650, 6.845865, 3647790848.000000, 77.279999,  -124.809998,  101.500000, 0.000000,  0.000000 
