time,seconds_elapsed,z,y,x
1633781917287919400,0.01891943359375,-0.6356196242392063,-0.29715514662563797,-0.06421908193230629
1633781917307798300,0.03879833984375,-0.101197105717659,-0.12019231356680392,-0.04570464333742857
1633781917327677200,0.05867724609375,0.06764554924964905,0.05550269151329994,-0.2598326933167875
1633781917347557400,0.078557373046875,0.11217150419652461,0.20963585312664507,0.001109130285680294
1633781917367436300,0.098436279296875,0.36032442724406716,0.15709142689704894,0.11335136163085699
1633781917387315200,0.118315185546875,0.4449883313119411,0.10107260255515575,-0.005080372004210949
1633781917407194400,0.1381943359375,0.47048926779329775,0.046513913893699646,-0.03913476342782378
1633781917427073300,0.1580732421875,0.34854455760121344,0.13608078757226466,-0.00530950458496809
1633781917446952400,0.177952392578125,0.5228501541495323,0.42846214392483234,0.29004633753374215
1633781917466832400,0.197832275390625,0.712391313752532,0.5898784482836723,0.4024718164913356
1633781917486711300,0.217711181640625,1.086916115784645,0.7828910833895206,0.49052463234513993
1633781917506590500,0.237590576171875,1.334212129741907,0.6459679997742176,0.46963791166096924
1633781917526469000,0.25746923828125,0.7929793466836214,0.36132512871921063,0.5217921695291996
1633781917546348300,0.277348388671875,-0.30839316447675225,-0.12460779192149639,0.5234681399174034
1633781917566227200,0.297227294921875,-1.0665338374912738,-0.7677771008878946,0.23574341373164207
1633781917586106400,0.3171064453125,-1.010266006824374,-1.060880926296115,0.062466393046081065
1633781917605986300,0.336986328125,-0.5712053119957446,-1.008293245446682,0.22689788050763307
1633781917625865200,0.356865234375,-0.013660276561975479,-0.8298556636601686,0.4820018648020923
1633781917645744400,0.376744384765625,0.40918928817808625,-0.7648591676145792,0.47513672827295955
1633781917665623600,0.39662353515625,0.5387777911216021,-0.6218547182589769,0.17917232580184936
1633781917685502200,0.416502197265625,0.578030774101615,-0.3585013034701347,-0.103766590879485
1633781917705381400,0.43638134765625,0.696074385201931,-0.07891805389225483,-0.5528486212458461
1633781917725261300,0.45626123046875,1.3877742085814475,-0.03829436708092689,-0.9358091701246798
1633781917745140200,0.47614013671875,2.282261626628041,0.18569675913453101,-0.5186019951857627
1633781917765019400,0.496019287109375,2.4888883610665795,0.483918658208847,0.19748495821431278
1633781917784898300,0.515898193359375,1.9180325931608675,0.12982523430883883,0.3800579958377406
1633781917804777500,0.535777587890625,0.6300701734185219,-0.3636965340256691,0.3354179495245218
1633781917824656100,0.55565625,-0.8309855444729327,-0.47767479538321495,0.7221320787832141
1633781917844535300,0.575535400390625,-1.0453168619394302,-0.2926408840715885,1.3908083155803381
1633781917864415500,0.59541552734375,-1.4585837748199701,-0.09378303006887435,1.7946993512198328
1633781917884294100,0.615294189453125,-1.815803221786022,-0.1652151121199131,1.709594717647135
1633781917904173300,0.63517333984375,-1.110765777927637,-0.38717853190004825,1.0486891148515045
1633781917924052200,0.65505224609375,-0.46693011400699613,-0.7266945643931627,0.33011355950608845
1633781917943931400,0.674931396484375,0.07068330951035022,-0.5981225450158119,0.23605061651729045
1633781917963810300,0.694810302734375,0.6142611943900584,-0.05185059874653816,0.31041699845455584
1633781917983689200,0.714689208984375,0.8166080595523119,0.35038112537860866,0.1716426609493792
1633781918003569400,0.7345693359375,0.677625705319643,0.5352314968168735,-0.02489449502080679
1633781918023448300,0.7544482421875,0.2526163321971893,0.661542001003027,-0.17687442412301896
1633781918043327200,0.7743271484375,0.1840495764493942,0.6599965251266956,-0.23127076182961462
1633781918063206100,0.7942060546875,0.15254969181418418,0.601100684043765,-0.06266995279416442
1633781918083085300,0.814085205078125,-0.12735855193436146,0.49647535744309423,0.04098901299238205
1633781918102964500,0.833964599609375,-0.35311902590990063,0.2811854240775108,0.04301584264487028
1633781918122844200,0.85384423828125,-0.4345616298437118,0.024818799436092377,0.10003975237607955
1633781918142726100,0.87372607421875,-0.24597031831145286,-0.0558136571586132,0.17820757242292165
1633781918162605300,0.893605224609375,0.00213233585357666,-0.10026654686927795,0.26017624605745077
1633781918182484200,0.913484130859375,-0.13162030103206634,-0.07757423806786537,0.4225651948407292
1633781918202363100,0.933363037109375,-0.2191115374803543,0.055638885113596916,0.47803427634537216
1633781918222242000,0.953241943359375,-0.28890578919649124,0.2647773101121187,0.4564268401712179
1633781918242121200,0.973121337890625,-0.4014268374830484,0.3823521346569061,0.4767740471512079
1633781918262001200,0.993001220703125,-0.7165484334319829,0.48362289013266563,0.5496390846148133
1633781918281880000,1.012880126953125,-0.7921113316774367,0.5310837294876575,0.49888884832561015
1633781918301759200,1.03275927734375,-0.43975802944302556,0.3777916948735714,0.39557606562823056
1633781918321638100,1.05263818359375,-0.0869008693397045,0.30067806005477904,0.469820136360079
1633781918341517300,1.072517333984375,0.10293664286136626,0.09833937819898128,0.4990694655895233
1633781918361396200,1.092396240234375,0.11494622960686683,-0.08686170637309551,0.4350584734499454
1633781918381275100,1.112275146484375,0.11074001008868217,-0.14753917017579077,0.4882381288431585
1633781918401155300,1.1321552734375,-0.050880292409658426,-0.08715513636171818,0.5362091096773743
1633781918421034200,1.1520341796875,-0.08243395305871963,0.025467618733644483,0.5561864604316652
1633781918440913200,1.1719130859375,-0.1589542981594801,0.12122691731154918,0.5779113855056465
1633781918460792300,1.191792236328125,-0.2728507264524698,0.22251754653155803,0.6339763870768249
1633781918480671200,1.211671142578125,-0.31330607095956803,0.24388357516527173,0.6697355365917086
1633781918500550100,1.231550048828125,-0.22572306457459926,0.15036357994675636,0.6181723764844238
1633781918520429000,1.251428955078125,-0.1084814175069332,0.013460370075702666,0.5426423575952649
1633781918540309200,1.271309326171875,-0.04452303233742714,-0.14935469516515731,0.3929597456499934
1633781918560188400,1.2911884765625,-0.01032967083454132,-0.3578898935735225,0.2867047720208764
1633781918580067000,1.311067138671875,0.09676409170627594,-0.4688181197106838,0.12663476770445703
1633781918599946200,1.3309462890625,0.2609972070515156,-0.4389139798343181,0.026567542799562215
1633781918619825200,1.3508251953125,0.31303777541220185,-0.3629588674008846,0.07962664055302739
1633781918639704300,1.370704345703125,0.1796943038493395,-0.28255203625559805,0.21775968447998165
1633781918659583200,1.390583251953125,0.10472527984380721,-0.23689210884273051,0.3138010148696601
1633781918679463200,1.410463134765625,0.16408523130714892,-0.2563297997623682,0.28794775781929494
1633781918699342300,1.43034228515625,0.24042379010021686,-0.24889117419421672,0.35358605889976025
1633781918719221000,1.450220947265625,0.14945698649585246,-0.17204057422578334,0.5123112244784832
1633781918739100200,1.47010009765625,0.2414198154002428,-0.16209727236032484,0.5152027081362903
1633781918758979300,1.489979248046875,0.26398352938592434,-0.12569675620198248,0.5437608402311802
1633781918778858200,1.509858154296875,0.24703765528202054,-0.028225977531075475,0.6942661667361855
1633781918798737400,1.5297373046875,0.10397124660611153,-0.09190028506219386,0.7374139651976526
1633781918818617300,1.549617431640625,0.007706336593627929,-0.17006313667297362,0.6290881766438484
1633781918838496300,1.569496337890625,0.10103811576366424,-0.2548123809367418,0.5685485138766467
1633781918858375400,1.58937548828125,0.31487375866770745,-0.2020236245572567,0.567154721430689
1633781918878254000,1.609254150390625,0.46413960650563235,-0.033251112216711044,0.595510462821275
1633781918898133200,1.62913330078125,0.39523382806181906,0.09634031333625316,0.6427839629106223
1633781918918012200,1.64901220703125,0.30533903760313985,0.3921113121271133,0.9050579849649221
1633781918937892000,1.66889208984375,0.2987719341725111,0.6916384485810995,1.4705924847826362
1633781918957771300,1.688771240234375,0.23917525134384632,0.6101596042901277,1.6082449055857955
1633781918977650200,1.708650146484375,0.12032616907954215,0.30232056656479833,1.4579466459602117
1633781918997529300,1.728529296875,0.22893092070519921,0.14605097744464873,1.36301181550771
1633781919017408300,1.748408203125,0.3648836979836225,0.0684054277062416,1.2936476257719098
1633781919037287200,1.768287109375,0.4526964214712381,0.02334463523030281,1.0561718718223274
1633781919057166300,1.788166259765625,0.6983610348343848,0.2831108391821384,0.6215788239270448
1633781919077046300,1.80804638671875,1.229033260911703,0.7729203089952469,0.19085282672345638
1633781919096925200,1.82792529296875,1.1309621782600878,1.0952116504430771,0.007095949610322713
1633781919116804000,1.84780419921875,0.6855892315447331,1.0399994663089513,-0.08384367372617126
1633781919136679200,1.86767919921875,0.16830606387257574,0.5777519571602344,-0.20565350549221037
1633781919156558000,1.88755810546875,-0.19670038370788095,-0.10388123023509979,-0.5635416455000639
1633781919176437200,1.907437255859375,-0.5068775089919567,-0.5374795680046082,-0.8021211229078471
1633781919196316000,1.92731591796875,-0.8715911111056804,-0.3223117997139692,-0.5252785503402352
1633781919216196000,1.947196044921875,-0.9972679935634136,0.1401490599244833,-0.13898834558203815
1633781919236075300,1.9670751953125,-1.1849345914661884,0.4021504755824804,0.007981500273197889
1633781919255954000,1.986953857421875,-1.266353814524412,0.6133715520739556,0.21871413566060363
1633781919275833000,2.0068330078125,-0.7160907527923583,0.8874719863265752,0.5337860472489148
1633781919295712000,2.0267119140625,-0.40132805328369137,0.7916916449606418,0.40623292259052396
1633781919315591200,2.046591064453125,-0.6881605433374642,0.4847071782380342,-0.1866452189657837
1633781919335470000,2.066469970703125,-0.8413701603651046,0.5075462020337581,-0.26785335655659437
1633781919355350000,2.08635009765625,-0.8834580745100975,0.6159902101397514,-0.1632500956572592
1633781919375229200,2.106229248046875,-0.6779518685340881,0.6796463974922895,-0.0902417772654444
1633781919395108000,2.126108154296875,-0.607723317053914,0.5285393057018518,-0.13938479755371808
1633781919414987000,2.145987060546875,-0.5970055236846208,0.10250877283811569,-0.4112843607611954
1633781919434866000,2.165865966796875,-0.40100539720058437,-0.280075417008996,-0.5894383033007383
1633781919454745000,2.1857451171875,-0.24239362886846064,-0.6769903300255536,-0.7949863025918602
1633781919474624300,2.205624267578125,-0.161162621858716,-0.9572159691601991,-1.062621121026948
1633781919494503000,2.2255029296875,0.03050853551030159,-1.005533133083582,-1.1960495674595235
1633781919514383000,2.245383056640625,0.26916882306933404,-0.6614847178578377,-1.1489341805413364
1633781919534262000,2.265261962890625,0.5243079517424106,-0.26678689636886116,-1.117347494405508
1633781919554141000,2.285140869140625,0.646108869549632,0.017931962531805037,-1.1554168205589055
1633781919574020000,2.30502001953125,0.6564677664786577,0.12703531132936477,-1.2876239815682171
1633781919593899000,2.32489892578125,0.7133429153889417,0.21172084270715713,-1.4836580103218555
1633781919613778200,2.344778076171875,0.8448924892723559,0.2508949152320623,-1.5393585624948143
1633781919633657000,2.364656982421875,0.7292021632999182,0.3119645932227373,-1.5096531600609422
1633781919653537000,2.384537109375,0.5752963807016611,0.37870880971848964,-1.3336410518556832
1633781919673416200,2.404416259765625,0.42951603689193724,0.36507834377288817,-1.2050298695117234
1633781919693295000,2.424295166015625,0.3600777590066194,0.22063129439353943,-1.2047805709257722
1633781919713174000,2.444174072265625,0.43835400786399836,0.0658873074054718,-1.1227730265855789
1633781919733053000,2.464052978515625,0.47492871154546734,-0.14607552736401558,-1.0587862921044229
1633781919752932000,2.48393212890625,0.6552700811266898,-0.32255729890763757,-0.8986769786909222
1633781919772811300,2.503811279296875,0.6883598653018475,-0.566452564510703,-0.7965101511582732
1633781919792691000,2.52369091796875,0.6242331378281116,-0.7734808654874563,-0.8030243553578853
1633781919812570000,2.543570068359375,0.47462826729416846,-0.9174795865774155,-0.8206284011095761
1633781919832449000,2.563448974609375,0.3706833241730928,-0.9699994628876447,-0.8850856757119298
1633781919852328000,2.583327880859375,0.3140063281834125,-0.9714666128307581,-0.8767296430379152
1633781919872207000,2.60320703125,0.13139701367020606,-1.1945032148003578,-0.9629672261632979
1633781919892086000,2.6230859375,-0.2540425656080246,-1.3931710991889237,-0.9571503565780818
1633781919911965200,2.642965087890625,-0.23636311653256414,-1.2538029605090617,-0.7192486323013901
1633781919931844900,2.662844970703125,-0.37601883998215196,-1.0213532180279492,-0.4752236028388142
1633781919951724000,2.68272412109375,-0.4585737890720367,-0.8592962776780128,-0.3834123112343251
1633781919971603200,2.702603271484375,-0.45057636057734485,-0.761196553453803,-0.36022140526100993
1633781919991482000,2.722482177734375,-0.46446109354496,-0.8610989431858063,-0.27847309637889267
1633781920011361000,2.742361083984375,-0.45692485282123085,-1.1734978361725807,-0.3163094905592501
1633781920031240000,2.762239990234375,-0.504176433339715,-1.534413215047121,-0.4439383838675916
1633781920051119000,2.782119140625,-0.4418167155385017,-1.6677520104348658,-0.6102133803039789
1633781920070998000,2.801998046875,-0.1903811175584793,-1.3294541215598583,-0.6734729695543646
1633781920090878000,2.8218779296875,0.12088321844041347,-0.3942173444956541,-0.248454244081676
1633781920110757000,2.841757080078125,-0.0016775778234004973,0.46631870411038395,0.02633826408833265
1633781920130637000,2.861636962890625,-0.19344167417287825,0.8903934267312288,-0.1703722026221454
1633781920150516000,2.881515869140625,-0.09325520680248736,1.0337731391400098,-0.7999991623178124
1633781920170395100,2.90139501953125,0.42435587764978405,1.0089683682292698,-1.1838619937986135
1633781920190274000,2.921274169921875,0.9076216249078511,1.160914248931408,-0.676376289780438
1633781920210153200,2.9411533203125,0.738493723258376,1.2626362553060053,0.21206074218600987
1633781920230033200,2.961033203125,-0.17762977253496645,0.9118933108776808,0.5345076395217329
1633781920249912000,2.980912109375,-1.174739360666275,0.3371387819677591,0.4894495504595339
1633781920269791200,3.000791259765625,-1.7124603362113235,0.17255261540114877,0.5129891968052834
1633781920289670000,3.020669921875,-1.3420125743597746,0.5276590157359838,0.8572774852015077
1633781920309549000,3.040549072265625,-0.17484511025249957,0.9702402859061956,1.2708613550767303
1633781920329428000,3.060427978515625,0.8596955061286687,1.144210951411724,1.347769968842715
1633781920349307100,3.08030712890625,1.3735866932749747,0.8917536091685294,1.2480978807352483
1633781920369186000,3.10018603515625,1.3345511524379252,0.3096551472365856,0.8748267320260406
1633781920389066000,3.12006591796875,1.0446154356718063,-0.28778058455884453,0.4953242877118289
1633781920408945200,3.139945068359375,0.7700316018164157,-0.6536404340982437,0.19297493344396352
1633781920428824000,3.159823974609375,0.3926438115686178,-0.7956272308439016,0.04424852624498307
1633781920448703000,3.179702880859375,0.14159808968901633,-0.6893874547839164,0.10627966967895626
1633781920468582100,3.19958203125,0.2736515214413404,-0.24114216750264167,0.3265897692941129
1633781920488461000,3.2194609375,0.5513906044572592,0.03607259937822819,0.33170718537308275
1633781920508340200,3.23934033203125,0.9107295277953147,0.21199965964853762,0.3534602405630052
1633781920528220200,3.25922021484375,1.1698159327894448,0.2753875514537096,0.2952825576867908
1633781920548099000,3.27909912109375,1.185244972589612,0.1911690530657768,0.21277590471804142
1633781920567978200,3.298978271484375,1.1154612422674894,0.07204115386009216,0.2321967906333506
1633781920587857000,3.31885693359375,0.9619166941970586,-0.11842822650372982,0.32061018342785536
1633781920607736000,3.338736083984375,0.721578244292736,-0.45368309442102905,0.3479565285801887
1633781920627615000,3.358614990234375,0.5976069967091083,-0.7947451873123645,0.34861835348978637
1633781920647494100,3.378494140625,0.47794309093058107,-1.069961473852396,0.4527852687984705
1633781920667373000,3.398373046875,0.22307284232676028,-1.2422720971912145,0.4683287287585437
1633781920687253000,3.4182529296875,0.060868017938733095,-1.213477379861474,0.5142093862500041
1633781920707132200,3.438132080078125,-0.09357084862291812,-0.958504839926958,0.6266024973079561
1633781920727011000,3.458010986328125,-0.3483236083269119,-0.7447931156635283,0.6258502176359295
1633781920746890000,3.477889892578125,-0.5507815326482057,-0.6615688890099525,0.5230043217979371
1633781920766769200,3.49776904296875,-0.48421150367558,-0.4258475775122642,0.5583640967316925
1633781920786648000,3.51764794921875,-0.4371949009567499,-0.5726379751473665,0.5510458826728165
1633781920806527200,3.53752734375,-0.3544248478114605,-1.0226964493304491,-0.008387889117002487
1633781920826406000,3.557406005859375,0.1073965448796749,-1.138089838182926,-0.2244216996524483
1633781920846286000,3.5772861328125,0.43407121597826476,-0.9796388133704662,-0.3152102240804583
1633781920866165200,3.597165283203125,0.4678542431145906,-0.4263946900010109,-0.011653612914681434
1633781920886044000,3.6170439453125,0.2895774048477411,0.24649346540272235,0.3840125421497971
1633781920905923000,3.636923095703125,0.009644026657938957,0.7508727278381586,0.49145504506304855
1633781920925802000,3.656802001953125,-0.23193536321818828,1.2267483648449182,0.6240700562208891
1633781920945681200,3.67668115234375,-0.2122095030069351,1.4258096324652432,0.747282740522176
1633781920965560000,3.69656005859375,0.07491641703546047,1.2178864284753799,0.6937021031126379
1633781920985440000,3.71643994140625,0.14329787934422492,0.7497381708502769,0.4607299441926181
1633781921005319200,3.736319091796875,-0.43588557192385197,0.23351415684223173,0.6001416297532618
1633781921025198000,3.756197998046875,-1.3983002787709236,-0.2761883464425802,0.5961655657291413
1633781921045077000,3.776076904296875,-1.8584622138172386,-0.2234212173730135,0.533817684496194
1633781921064956000,3.795955810546875,-1.6873855161875486,0.5974363163173199,0.8787520887762308
1633781921084835000,3.8158349609375,-1.0614239471316338,1.34675772306025,0.9216203396439552
1633781921104714200,3.83571435546875,-0.18573007688224313,1.4435539634704588,0.6240358616903424
1633781921124593000,3.855593017578125,0.7767261310189962,1.0439899972498417,0.09790259421691298
1633781921144472600,3.87547265625,1.802276216214895,0.5562181707441807,-0.3985252708226442
1633781921164351500,3.8953515625,2.4670424399614332,0.13314122698903083,-0.6584302987232804
1633781921184230700,3.915230712890625,2.3089766150742768,-0.03731061674058437,-0.7192065467253327
1633781921204109600,3.935109619140625,1.4297253446042537,0.028840894559025762,-0.5865603367116302
1633781921223988500,3.954988525390625,0.6961158862560987,0.07186579729318618,-0.5504352034285664
1633781921243867600,3.97486767578125,0.08930500787198543,-0.02275952881872654,-0.6150229725427925
1633781921263746600,3.99474658203125,-0.520249031740427,-0.04551204337477684,-0.5017961140744388
1633781921283625700,4.014625732421875,-0.6045376727551222,-0.2321475446641445,-0.4341920658789575
1633781921303505700,4.034505615234375,0.038705285969376564,-0.6574076776772737,-0.6604273177593946
1633781921323384600,4.054384521484375,0.5252689057290554,-0.9967401702970266,-0.9557416588239371
1633781921343263700,4.074263671875,0.7700169887691736,-1.1337900951623916,-0.9982166725903749
1633781921363142400,4.094142333984375,0.7651508440375328,-1.1322773525118828,-0.9497687218941747
1633781921383021600,4.114021484375,0.21806465877592562,-1.0773211889654397,-0.9512998769842088
1633781921402900500,4.133900390625,-0.17858838843405245,-0.9104209002375602,-0.8399304829508065
1633781921422779600,4.153779541015625,-0.30604864717721936,-0.7208674656748771,-0.7613156497888267
1633781921442658600,4.173658447265625,-0.270058465385437,-0.6870078661710024,-0.7937047383487225
1633781921462538500,4.19353857421875,-0.2526514035105705,-0.860321529072523,-0.9071312110424041
1633781921482417700,4.213417724609375,-0.26543781984746456,-0.9843827930271625,-0.7679520190633833
1633781921502296300,4.23329638671875,-0.5726771381139755,-1.0549842694729565,-0.47779652206674217
1633781921522175500,4.253175537109375,-1.0343488932013511,-1.0945493871420622,-0.22907281339392066
1633781921542054700,4.2730546875,-1.3542904566526413,-0.8895031998932361,0.14507555654123425
1633781921561933600,4.29293359375,-1.3137059328079224,-0.6613923633992671,0.3861366216316819
1633781921581812700,4.312812744140625,-1.1248860732167958,-0.08847732487618923,0.7664571043305098
1633781921601691400,4.33269140625,-1.072339308899641,0.5238263057053089,1.1878963638812303
1633781921621571600,4.352571533203125,-0.7277846977174282,0.9622136313170194,1.2487939001753925
1633781921641450800,4.37245068359375,-0.10020517207086085,1.0662170266270636,0.996815865881741
1633781921661329400,4.392329345703125,0.5336679007619619,0.9776163676321505,0.6267452667795121
1633781921681208600,4.41220849609375,1.0447475376188755,0.5820587144434451,0.3941550929144025
1633781921701087500,4.43208740234375,1.0767530336886644,0.2136433352023363,0.2791094945862889
1633781921720966700,4.451966552734375,0.6246282746255397,0.08357727787494659,0.3764128077358007
1633781921740845600,4.471845458984375,0.2150859352260828,0.2829080100864172,0.6341412222497165
1633781921760724500,4.491724365234375,0.04565466671586037,0.48746319894790646,0.6561579698771238
1633781921780604700,4.511604736328125,0.1721387739032507,0.8186533016443253,0.6526375406660139
1633781921800483600,4.531483642578125,0.4525613969147205,1.1209165850639342,0.6220337280876934
1633781921820362500,4.551362548828125,0.8672294087648391,1.2688947311788796,0.6033513855800032
1633781921840241700,4.57124169921875,1.162819790291786,1.1652385418713092,0.5712767697967589
1633781921860120600,4.59112060546875,1.1531640731960535,0.6797358293414115,0.3780016843624413
1633781921879999700,4.610999755859375,0.8079308320999145,0.07383329797387123,0.23086846463903785
1633781921899878400,4.63087841796875,0.5312602550983428,-0.4742682018101215,0.15241116012632847
1633781921919757600,4.650757568359375,0.49900575270354747,-0.9142343210458755,-0.02015606832206249
1633781921939636500,4.670636474609375,0.40818624861538405,-1.3594342492818832,-0.17320844896137713
1633781921959516400,4.690516357421875,0.17575637987852097,-1.5833312674731015,-0.4718303071387112
1633781921979395600,4.7103955078125,0.12503157029151915,-1.3057120114445686,-0.42592049661800263
1633781921999274500,4.7302744140625,-0.024254735812544823,-0.67839610517025,-0.18431290356069802
1633781922019153700,4.750153564453125,-0.09540741640031337,-0.14412556234002113,0.0927322058416903
1633781922039032600,4.770032470703125,-0.19751812983155248,-0.03161328188180923,0.1423135444819927
1633781922058911500,4.789911376953125,-0.12232581846415996,-0.17122458166778087,0.0874915287092328
1633781922078790700,4.809790771484375,-0.028505378994345663,-0.5725742622613906,-0.0214104522973299
1633781922098670600,4.829670654296875,-0.09960603713393211,-0.916887465903163,-0.01775119913741946
1633781922118549500,4.849549560546875,-0.3751666070669889,-1.1778384957253931,-0.04254194152280688
1633781922138428400,4.869428466796875,-0.445962144780159,-1.4907108514428138,-0.058245560480654233
1633781922158307600,4.8893076171875,-0.8510270465046167,-1.7929530920743941,-0.08779270361289382
1633781922178186800,4.909186767578125,-1.1321657088309527,-1.938612439852953,-0.16400646698251364
1633781922198065400,4.9290654296875,-1.2063204938441514,-1.5354571711421012,0.07671075310632586
1633781922217944600,4.948944580078125,-1.0706640691637992,-0.49851709240376946,0.4518599706470966
1633781922237823500,4.968823486328125,-0.8792518549919128,0.5228051459640264,0.45131431946307415
1633781922257702700,4.98870263671875,-0.4839151510775089,1.5104244366943835,0.09570888356491923
1633781922277582600,5.00858251953125,-0.029957915890216825,2.2335902424395084,-0.12230024563148617
1633781922297461500,5.02846142578125,0.4703250171422958,2.7696131818950174,-0.03859817233309149
1633781922317340700,5.048340576171875,0.8638713305085897,2.810313441073894,0.32422464759796854
1633781922337219600,5.068219482421875,0.524269957819581,2.015416862592101,0.43165085696354505
1633781922357098500,5.088098388671875,0.1322749655485153,0.9664344638824462,0.09236687966063618
1633781922376977400,5.107977294921875,0.13011223455667495,0.37891573046743865,-0.11275719512999056
1633781922396856600,5.127856689453125,0.19573650711178778,0.3480067974627018,-0.33743922621905803
1633781922416735700,5.14773583984375,0.31302257784307,0.7294324649244547,-0.35876908756084736
1633781922436615400,5.167615478515625,0.4758803131818771,1.2424375168859958,-0.25524624230936166
1633781922456494600,5.18749462890625,0.4469546629488468,1.3370382930785416,-0.3150317987736314
1633781922476373800,5.207373779296875,0.707704617241025,1.2035668112218378,-0.5893143846601248
1633781922496252400,5.22725244140625,1.0010451740145683,1.0507418095976113,-0.7388099496006966
1633781922516131600,5.247131591796875,0.9418120638012886,0.673940294805169,-0.7015798507504165
1633781922536010500,5.267010498046875,0.5800286699205637,0.21896014631092547,-0.7221852702751755
1633781922555889700,5.2868896484375,-0.04694879817962646,-0.15581483108997343,-0.5434149494029581
1633781922575768600,5.3067685546875,-0.3838999486207962,-0.4176058188676834,-0.39819896147772665
1633781922595647500,5.3266474609375,-0.29957915890216824,-0.48735389335453505,-0.3136570763543248
1633781922615527700,5.346527587890625,0.0671335080742836,-0.30807576909065243,-0.39940132300481196
1633781922635406600,5.366406494140625,0.48742052884995934,-0.07424480138421058,-0.45109698691796507
1633781922655285500,5.386285400390625,0.8166331939935684,0.07408639595210552,-0.5155057827360928
1633781922675164400,5.406164306640625,1.019984852284193,0.03891629837155342,-0.723141255825758
1633781922695043600,5.426043701171875,0.9093114776909351,-0.16136545095443725,-0.7943301767706871
1633781922714922800,5.4459228515625,0.5490612847268581,-0.4205114771813154,-0.7182792027473449
1633781922734801400,5.465801513671875,-0.0363595996260643,-0.5880395424187183,-0.5864205629147589
1633781922754680600,5.4856806640625,-0.5199298827886581,-0.7960130152910947,-0.5957210368320346
1633781922774560500,5.505560546875,-0.8163917864531278,-1.0825871466696262,-0.725297995468229
1633781922794439700,5.525439697265625,-1.009371103811264,-1.3783938012957573,-0.9260176978200674
1633781922814318600,5.545318603515625,-1.0097861143529414,-1.4980729046434162,-1.0370856246888638
1633781922834197500,5.565197509765625,-1.0683435172617435,-1.6923545367717743,-1.1024271347798407
1633781922854076700,5.58507666015625,-1.4868413165330885,-1.433103881126642,-0.8618586755119264
1633781922873955600,5.60495556640625,-1.4477636901199817,-0.45042964558303356,-0.032010464505851266
1633781922893834500,5.62483447265625,-1.3143360474050043,0.738665572693944,1.0120569818943739
1633781922913713400,5.64471337890625,-1.400248490229249,1.5752040751188991,1.8562714257746933
1633781922933592600,5.664592529296875,-1.483546951162815,1.7671312530755996,2.188224329537153
1633781922953472500,5.684472412109375,-1.2944699019402264,1.6039643056571482,1.717835453378409
1633781922973351400,5.704351318359375,-0.7994470813930035,1.3488029651522635,1.126630432666093
1633781922993230600,5.724230712890625,-0.19225158760547637,1.272711659118533,0.7269907708607614
1633781923013109500,5.744109619140625,0.28422435338199137,1.1177706882536411,0.41019992652535436
1633781923032988700,5.76398876953125,0.4053694376289844,0.9333779974550008,0.0870269799374044
1633781923052867600,5.78386767578125,0.4084253180682659,0.7979320006549357,-0.2698997676923871
1633781923072746500,5.80374658203125,0.582189647346735,0.9057523239046334,-0.39137846780791874
1633781923092625700,5.823625732421875,0.9771990190029144,1.1445312694072722,-0.4063805143676698
1633781923112505600,5.843505615234375,1.514056655716896,1.2426362543284892,-0.4802040215998888
1633781923132384500,5.863384521484375,2.0101304466217753,1.1510860978782176,-0.5218246835593134
1633781923152263700,5.883263671875,2.254950425854325,0.8465338267385959,-0.5523219670232385
1633781923172142600,5.903142578125,2.0601766262948513,0.1637508847862482,-0.6482018963061272
1633781923192021500,5.923021484375,1.5249474675655363,-0.6636930415570735,-0.7098214632645249
1633781923211900400,5.942900390625,0.792774764022231,-1.2895651787638664,-0.5627340919768438
1633781923231779600,5.962779541015625,0.3524900803565979,-1.5600088440746067,-0.3605865853115916
1633781923251658800,5.98265869140625,0.03979366572797298,-1.4579782101422547,-0.09984068614002317
1633781923271537700,6.00253759765625,-0.34077801525294776,-1.2254051335424183,0.15964549529403446
1633781923291416600,6.02241650390625,-0.5767670377761125,-0.8550748605906963,0.3564198210209608
1633781923311296500,6.042296630859375,-0.6567062514096498,-0.35462124716639515,0.6496098634079098
1633781923331175700,6.06217578125,-0.6244628549307585,-0.07174129413068295,0.9111818016074598
1633781923351054600,6.0820546875,-0.6469020657539367,-0.24410277087390422,0.9085733726747334
1633781923370933500,6.10193359375,-0.6375730963945389,-0.7314899819761514,0.6048670508399605
1633781923390812700,6.121812744140625,-0.4980617498517036,-1.1701181306064128,0.31637247279286385
1633781923410691600,6.141691650390625,-0.41566754428148267,-1.23334703245759,0.1133366024531424
1633781923430570500,6.161570556640625,-0.3425543772757053,-1.1869015076249838,-0.1602322822060436
1633781923450449400,6.181449462890625,0.00999590883553028,-1.3679916497468947,-0.5940759730387478
1633781923470329600,6.20132958984375,0.28197219054102896,-1.5593080023288726,-1.0919327749028802
1633781923490208500,6.22120849609375,0.17974749534130097,-1.8719471338123082,-1.2639540599063037
1633781923510087400,6.24108740234375,-0.3888976107776165,-1.8058926531463861,-1.0698930847913026
1633781923529966600,6.260966552734375,-1.0082885692715644,-1.3358499600768088,-0.7221054830372333
1633781923549845500,6.280845458984375,-1.3676549651384353,-0.30558804392814637,-0.467560813125968
1633781923569724700,6.300724609375,-1.5508710133731365,0.8641571617126464,-0.2812440223969519
1633781923589603600,6.320603515625,-1.2026742462962865,1.8199048118859529,-0.22459698315411805
1633781923609482500,6.340482421875,-0.5619470697849989,2.5233283908069133,-0.14959637670023365
1633781923629361700,6.360361572265625,-0.14787176313102243,2.9543069014668464,0.09158071598531678
1633781923649241300,6.380241455078125,0.19234978728294372,2.5016490584403277,0.1564490373402834
1633781923669120500,6.40012060546875,0.22249124304652212,1.4969722499251366,-0.2544377024054527
1633781923688999700,6.419999755859375,-0.004746902266144752,0.9967045144617557,-0.3390507530689239
1633781923708878600,6.439878662109375,-0.300196998539567,1.1909639347583054,0.08608520557526499
1633781923728757500,6.459757568359375,-0.35519700122773645,1.6387462807029485,0.4276713223407045
1633781923748636400,6.479636474609375,-0.06798807907700538,1.9103899694532156,0.4967857385665178
1633781923768515600,6.499515625,0.5209007736474275,1.8332827643752097,0.1773694045657292
1633781923788394500,6.51939453125,1.1889175236225127,1.4729074837267397,-0.30981910562664267
1633781923808273700,6.539273681640625,1.6535913831353186,1.08330727763772,-0.7360238260135055
1633781923828153600,6.559153564453125,1.6402818197071551,0.6809077957302332,-0.9182710292160511
1633781923848032500,6.579032470703125,1.2000164252638816,0.3167021431386471,-0.9243851281821727
1633781923867911700,6.59891162109375,0.5011263981193304,0.03874444893598556,-0.7300348147317767
1633781923887790300,6.618790283203125,0.040756957802176474,-0.03880173208117485,-0.48671033475399017
1633781923907669500,6.63866943359375,-0.026323358780145644,-0.040486324167251585,-0.329988617952168
1633781923927548700,6.658548583984375,0.22504911083579063,-0.0893278042256832,-0.3307192703142762
1633781923947427600,6.678427490234375,0.40790392454266544,-0.18388123414516447,-0.43824031835645433
1633781923967306500,6.698306396484375,0.4696107313930988,-0.21402444347441196,-0.5254112368091941
1633781923987185400,6.718185302734375,0.2350976266413927,-0.30598318072557446,-0.5876236550942063
1633781924007065600,6.738065673828125,0.21413725619912147,-0.6556231323480606,-0.5014259655877947
1633781924026944500,6.757944580078125,0.23800094686746595,-1.21932201423645,-0.417358566108346
1633781924046823400,6.777823486328125,-0.08459317691922187,-1.8712801943361759,-0.5833490465149284
1633781924066702600,6.79770263671875,-0.743296155104041,-2.202956619244814,-0.6975631624549626
1633781924086581500,6.81758154296875,-1.4187936162233352,-1.9766168840765952,-0.5425540582573041
1633781924106460700,6.837460693359375,-2.120897929239273,-1.8327520184993742,-0.43116804188266394
1633781924126339600,6.857339599609375,-2.4109388599455355,-1.8218822494387625,-0.6209964209292084
1633781924146219500,6.877219482421875,-2.359915359672904,-1.937243489587307,-0.9240071617152541
1633781924166098400,6.897098388671875,-2.1784002701371907,-1.5589613808482885,-0.9766237763982265
1633781924185978400,6.916978271484375,-2.0521523097932337,-0.42863223979473114,-0.4471702053956687
1633781924205857500,6.936857421875,-1.8626316084563732,1.1029331846058368,0.6805277103714644
1633781924225736400,6.956736328125,-1.274409110686183,2.2631781559735535,1.7603677502900361
1633781924245615400,6.976615478515625,-0.5944786355555057,2.58271639932096,2.3126602720230816
1633781924265494300,6.996494384765625,0.26846096706092354,2.4017127664387226,2.2040704257056114
1633781924285373400,7.01637353515625,0.9181319130063056,1.5730331608206032,1.2683959878765045
1633781924305252600,7.036252685546875,1.4138269337266682,0.7645131306558847,0.4459116201693192
1633781924325131500,7.056131591796875,1.0549427684187889,0.3973685020029545,0.020385493163764475
1633781924345010400,7.076010498046875,0.4194558306485414,0.6377285792171955,0.15982961968928575
1633781924364889300,7.095889404296875,0.24767361509799957,1.0680231992661953,0.5050485399991274
1633781924384769500,7.11576953125,0.31260289112627504,1.1422475423842668,0.4820497955970466
1633781924404648400,7.1356484375,0.9354612334698438,1.107248125195503,0.27568507309556006
1633781924424527400,7.15552734375,1.647702909618616,1.0640741693794726,0.044707595124095674
1633781924444406500,7.175406494140625,1.9762527269393204,1.0416700298696755,0.13605711443573235
1633781924464285400,7.195285400390625,1.8934873499691485,0.9244926802098751,0.3351531611084938
1633781924484164400,7.215164306640625,1.4897440522372722,0.507671289718151,0.317505130084604
1633781924504043300,7.235043212890625,1.0349287389159203,-0.05127659825086593,0.16844985625743866
1633781924523922400,7.25492236328125,0.8534592420876026,-0.6029308220803737,-0.023259897822607307
1633781924543801600,7.274801513671875,0.7026718837708235,-0.9881225640773773,-0.09231471108198165
1633781924563681300,7.294681396484375,0.5341945549845695,-1.2087152800261973,-0.10689034892320633
1633781924583560400,7.314560546875,0.6367535967051983,-1.199997136041522,-0.05991787760704755
1633781924603439400,7.334439453125,0.7474953603595494,-0.9498685290068387,0.10353666371428408
1633781924623318500,7.354318603515625,0.6454740787774325,-0.6013607962846755,0.4204857582181692
1633781924643197400,7.374197509765625,0.4379828364640474,-0.7162550034433602,0.5242036145851016
1633781924663076400,7.394076416015625,0.37041035245060916,-1.076311719661951,0.3764584004431963
1633781924682955500,7.41395556640625,0.2212456268996,-1.3820190060555935,0.41528351339995856
1633781924702834400,7.43383447265625,-0.08789104942083359,-1.5156144065529107,0.5479661829665303
1633781924722713300,7.45371337890625,-0.5547264708817005,-1.5584388182789086,0.5515229986652732
1633781924742593500,7.473593505859375,-0.8025865484625101,-1.5683762749254702,0.5018380535200238
1633781924762472400,7.493472412109375,-0.8757891473174094,-1.480191795516014,0.33737200620174407
1633781924782351600,7.5133515625,-0.8937596882939338,-1.3509826472789048,0.22958792330920694
1633781924802230300,7.533230224609375,-0.7695008559405804,-1.338192139288783,-0.1451286019027233
1633781924822109400,7.553109375,-0.6587655220270157,-1.2371113534271716,-0.4507940949812531
1633781924841988400,7.57298828125,-0.5874567740947008,-0.734540017196536,-0.3674450729042291
1633781924861867500,7.592867431640625,-0.46639176934659476,0.24510347234904764,0.03249886907730251
1633781924881746400,7.612746337890625,-0.42277123880684375,0.8820049530923366,0.2858315328503027
1633781924901625300,7.632625244140625,-0.29401451051235195,1.1133306599795818,-0.014189999524503945
1633781924921504500,7.65250439453125,0.05966624093353748,1.5582313130080698,0.02830605702996254
1633781924941384200,7.67238427734375,0.20674539238214493,1.8157377553343772,0.18880495428293942
1633781924961263400,7.692263427734375,0.26138591410815715,1.4437602996975183,0.04721928568407893
1633781924981142500,7.712142578125,0.23230711914002894,0.9383359121233225,-0.17627477772943675
1633781925001021400,7.732021484375,0.012721534407138824,0.8046575095176697,0.08715488063339144
1633781925020900600,7.751900634765625,-0.15348258875012397,0.9624708209484815,0.49879225608333944
1633781925040779300,7.771779296875,-0.016474164938926696,1.09960725505352,0.6784472508355974
1633781925060658400,7.791658447265625,0.4676555056720972,1.0684119063228368,0.5674923193546012
1633781925080537300,7.811537353515625,1.1058674844920635,0.7901105132490396,0.2474531407477334
1633781925100416500,7.83141650390625,1.5463643496036528,0.390722488117218,-0.06875628697052598
1633781925120295400,7.85129541015625,1.5564461831569671,0.09650573303103446,-0.16700579492896794
1633781925140174600,7.871174560546875,1.337446289357543,-0.1597200218349695,-0.15902557329740374
1633781925160053800,7.8910537109375,1.2662871790289878,-0.31048166118860243,-0.1546891880609095
1633781925179932700,7.9109326171875,1.2211667653203009,-0.2860141594082117,-0.12700740040913225
1633781925199811600,7.9308115234375,1.2645084789186716,-0.22169161710143087,-0.12298472076430916
1633781925219690800,7.950690673828125,1.1947703413039445,-0.40303602624535556,-0.21361014531878753
1633781925239569700,7.970569580078125,0.8646551743626594,-0.6340016676485538,-0.4347288031041622
1633781925259448800,7.99044873046875,0.5491238285690546,-0.7983230457991362,-0.555095413791947
1633781925279327700,8.01032763671875,0.3220195387691259,-0.8851958580881356,-0.6266973359845578
1633781925299206700,8.03020654296875,0.10060790765285492,-0.8134154009908438,-0.6853221050411462
1633781925319086800,8.0500869140625,-0.15711656133830545,-0.8088800956487655,-0.6984757472552359
1633781925338965800,8.0699658203125,-0.4266986413836479,-0.8959417085081338,-0.6641058601416647
1633781925358844700,8.0898447265625,-0.8224930259376764,-1.2194868494093418,-0.6144865275785326
1633781925378723600,8.1097236328125,-1.2275029826045036,-1.6008862133860586,-0.5156558221986517
1633781925398602800,8.129602783203126,-1.607567883107066,-1.9039251573532818,-0.31940058844238517
1633781925418481700,8.149481689453125,-1.9219056352019308,-1.7089152109503745,0.1563430927477777
1633781925438360600,8.169360595703125,-2.1706290516138074,-1.4368594342678784,0.5829409041054546
1633781925458239700,8.18923974609375,-2.0643203019708394,-1.0619371573507785,0.8880190988153218
1633781925478118700,8.20911865234375,-1.840893239378929,-0.5955611700952053,1.2350447762861847
1633781925497997800,8.228997802734375,-1.8287649946898221,-0.05978782148659229,1.6616346965983508
1633781925517877500,8.24887744140625,-1.5780974584728478,0.4265256229043007,1.986070941120386
1633781925537756700,8.268756591796874,-1.1877817975908518,0.9510451715707778,2.059803262937814
1633781925557635800,8.2886357421875,-0.641274873521924,1.400818983593583,2.0163586734868586
1633781925577514800,8.3085146484375,0.09075403763651847,1.4931465541571378,1.4998890141546726
1633781925597393700,8.3283935546875,0.7385457457065582,1.5156915634423493,1.138439820664376
1633781925617272600,8.3482724609375,1.2511264347761868,1.5861258666276932,0.953396703132987
1633781925637151700,8.36815185546875,1.639446537926793,1.683610089302063,0.8067185337007046
1633781925657030700,8.38803076171875,1.9844693511426448,1.81690738363564,0.7881710696190595
1633781925676909600,8.40790966796875,2.2703788811326024,1.667046492514014,0.6603488456957042
1633781925696788700,8.427788818359375,2.624524327480793,1.2510001780480147,0.2896091151602566
1633781925716668700,8.447668701171875,2.7593951547414064,0.7464525733083486,-0.014867318830755538
1633781925736547600,8.467547607421874,2.5826439186066388,0.1833148324340582,-0.26872151769325137
1633781925756426500,8.487426513671876,2.200029918143153,-0.41797289861440656,-0.570436373449862
1633781925776305700,8.5073056640625,1.467030700647831,-0.8780956706941128,-0.7450171336777508
1633781925796184800,8.527184814453125,0.9530056579887867,-1.0866057346612215,-0.7688369852043688
1633781925816063700,8.547063720703125,0.45032150903344154,-1.2660112846970557,-0.8787802919574081
1633781925835942700,8.566942626953125,0.13159049041569232,-1.3825228639245033,-0.861061095393449
1633781925855821600,8.586821533203125,-0.1390378838121891,-1.4508324300408362,-0.9042989102259278
1633781925875700700,8.60670068359375,-0.43467502709031103,-1.519056655961275,-0.8270882447734474
1633781925895579600,8.62657958984375,-1.1186796197921036,-1.5905898602992294,-0.6950516180254519
1633781925915458600,8.64645849609375,-2.2701403962016102,-1.5941384926915168,-0.5972988075427711
1633781925935338800,8.6663388671875,-3.0016718792319295,-1.3985077840417623,-0.4871298753403127
1633781925955217700,8.6862177734375,-3.293236658504605,-1.2907663712471722,-0.607878215354681
1633781925975096600,8.7060966796875,-2.8789509239703417,-0.989523663046956,-0.869426626548171
1633781925994975500,8.7259755859375,-1.9498866980612277,-1.2322007850319145,-1.2552278787456452
1633781926014854700,8.745854736328125,-0.7400058813869953,-1.3322487207144498,-1.7994651043169199
1633781926034733800,8.76573388671875,-0.10004033689796923,-0.8119073345154524,-1.506537073867023
1633781926054612700,8.78561279296875,0.3032861967265606,0.20062135654389857,-1.0558868443358689
1633781926074491600,8.80549169921875,0.5271814613521099,1.0667618010282516,-0.936506212478131
1633781926094370600,8.82537060546875,0.44771395688354965,1.8164292447298764,-0.8551784670956433
1633781926114250800,8.845250732421874,0.4563759867668152,2.351432778009772,-0.6537086770288646
1633781926134130200,8.865130126953124,0.44553076762557026,2.470789809796214,-0.5592809193156659
1633781926154009300,8.88500927734375,0.38370121117830275,2.273224333691597,-0.6461427718192339
1633781926173888300,8.90488818359375,0.4628355381697416,1.9555664972633122,-0.7877763712130487
1633781926193767400,8.924767333984375,0.7140928569734096,1.8802181185513733,-0.5695777107939124
1633781926213646300,8.944646240234375,1.3483739260852337,1.8403724303752182,-0.318014248650521
1633781926233525200,8.964525146484375,2.141801016536355,1.5191735603392122,-0.4167641073465347
1633781926253404400,8.984404296875,2.4889596727371215,1.107537463530898,-0.5072871127061546
1633781926273283300,9.004283447265625,2.443297991758585,0.6828659440606832,-0.48324032055586574
1633781926293162200,9.024162353515624,2.134883784493804,0.18118249658048152,-0.5099976868391036
1633781926313041200,9.044041259765624,1.644222666287422,-0.2976221796154976,-0.5618702051565051
1633781926332921300,9.06392138671875,1.2612573681682349,-0.597130026847124,-0.6123311031103134
1633781926352800300,9.08380029296875,0.8749865987628698,-0.6547761601299047,-0.42747751680165524
1633781926372679200,9.10367919921875,0.2927794157594442,-0.532321162328124,-0.13564882589578628
1633781926392558300,9.123558349609375,-0.39350890396535393,-0.45097734259366984,0.1753510139480233
1633781926412437200,9.143437255859375,-0.9924193844884633,-0.4492383899718523,0.30934988067969676
1633781926432316400,9.16331640625,-1.308402565702796,-0.4516425285041332,0.34536753500029443
1633781926452195300,9.1831953125,-1.4648586173057556,-0.2880933037698269,0.3122068775460124
1633781926472074200,9.20307421875,-1.428536427080631,-0.3205716780483723,0.22174086307063698
1633781926491953400,9.222953369140624,-1.2182803962290287,-0.44162382331490513,0.11182502884641289
1633781926511832300,9.242832275390626,-1.3120938214361666,-0.7590811687350273,0.19196341831386088
1633781926531712300,9.262712158203126,-1.5906255161345004,-0.8955687835425138,0.2982451520857401
1633781926551591400,9.28259130859375,-2.2055624178290367,-1.5444593927651642,0.25900780506627635
1633781926571470300,9.30247021484375,-2.2044161704033614,-1.7346628156691788,0.12194910323941148
1633781926591349200,9.322349365234375,-2.1248510507792235,-1.1560919433414936,0.7122955982930957
1633781926611228200,9.342228271484375,-2.123072935190797,-0.11383739158213138,1.604828229010105
1633781926631107300,9.362107421875,-1.8306448170870542,0.7596750429749488,2.1954911056697366
1633781926650986200,9.381986328125,-1.2755594497650862,1.2948796517848968,2.4513871901899575
1633781926670865400,9.401865478515624,-0.33038053987920285,1.5409177746355534,2.260164507240802
1633781926690744300,9.421744384765624,0.6383890889525413,1.2738684279382229,1.5992691335782407
1633781926710623200,9.441623291015626,1.5573147826850413,0.9565221416771411,1.0250795450747012
1633781926730502400,9.46150244140625,2.129005247849226,0.8143371920108795,0.7056070604398846
1633781926750382300,9.48138232421875,2.364030978298187,1.1357307078361512,0.8771418771006166
1633781926770261200,9.50126123046875,2.434463527917862,1.4480144500106573,0.9932331850893795
1633781926790140400,9.521140380859375,2.5680180118829012,1.3327297822296618,0.6867065451368689
1633781926810019300,9.541019287109375,2.81151521807909,0.8793594070196151,0.08552256672382354
1633781926829898200,9.560898193359375,2.816621601307392,0.16874153268039224,-0.5356183041773737
1633781926849777200,9.580777099609374,2.558109196808934,-0.49853462806046006,-0.9519840598560869
1633781926869656300,9.60065625,1.8433412170529364,-0.7481903568863868,-0.809344644420594
1633781926889535500,9.620535400390626,0.7000409507453441,-1.081151560908556,-0.5954554081657901
1633781926909414400,9.640414306640626,-0.25355507435202596,-1.58684015237689,-0.6401796256311237
1633781926929293300,9.660293212890625,-0.8745055372476577,-1.7651263429939745,-0.5028486918672919
1633781926949173200,9.68017333984375,-1.0437041660457849,-1.8716420133858918,-0.273853766015172
1633781926969052400,9.700052490234375,-0.9295710063874721,-1.8835037160933017,-0.21607859952524303
1633781926988931300,9.719931396484375,-0.8310907584130763,-2.037058785557747,-0.13763678484261035
1633781927008810200,9.739810302734375,-0.8645242414593696,-2.026881674936414,-0.10544190368056297
1633781927028689400,9.759689453125,-1.2349293332129716,-1.917615829053521,0.05047054256498813
1633781927048568300,9.779568359375,-1.260982642880082,-2.059828251248598,-0.20879647969305515
1633781927068447200,9.799447265625,-1.3722270953595637,-2.0888743129909035,-0.4866116966851055
1633781927088326100,9.819326171875,-1.755229802879691,-2.025916629296541,-0.6414337173454463
1633781927108205300,9.839205322265625,-2.1795488556504248,-1.339915309819579,-0.5642569541625678
1633781927128084500,9.85908447265625,-2.4263456879138947,-0.39580490594804285,-0.3024412703350186
1633781927147967000,9.878967041015626,-2.148979529863596,0.5973030453264713,-0.05828603862151503
1633781927167846100,9.89884619140625,-2.1266315044552084,1.5061013127982616,0.15380352780018
1633781927187725000,9.91872509765625,-2.228811191469431,1.8537895458310842,0.25530820162966844
1633781927207604200,9.938604248046875,-1.5542729307711123,1.7047282806545494,0.10648615203648805
1633781927227483400,9.9584833984375,-0.32383447923660275,1.5799012930244207,-0.11412146922051906
1633781927247362000,9.978362060546875,1.3720201746106147,1.630960449132323,-0.15705767075791954
1633781927267241200,9.9982412109375,3.0681670894026754,1.7164169648826122,-0.14103607189208267
1633781927287120100,10.0181201171875,4.10858916503787,1.7511702983558177,-0.24477182924188673
1633781927306999300,10.037999267578124,4.435332225197554,1.8005904550850391,-0.241400818438828
1633781927326878000,10.0578779296875,3.9424072537124153,1.712183857357502,-0.26485600137151777
1633781927346757000,10.077757080078126,3.363480407553911,1.5592974809348583,-0.24770137988775967
1633781927366637300,10.09763720703125,2.8405227013766763,1.1489221978425979,-0.23929843933209777
1633781927386516000,10.117515869140625,2.327510635152459,0.4775988075375557,-0.4252404784645885
1633781927406395100,10.13739501953125,1.874215663266182,0.07759995703101158,-0.3253771786339581
1633781927426274300,10.1572744140625,1.2407453260153531,-0.2637269242763519,-0.06482230852246285
1633781927446153200,10.1771533203125,0.5978472352057695,-0.7306558692395687,0.10797814415991305
1633781927466032400,10.197032470703125,-0.017906243568658827,-1.0793827976703643,0.16959435011744498
1633781927485911000,10.2169111328125,-0.7098240936130285,-1.072458551365137,0.2904537492908537
1633781927505790200,10.236790283203124,-1.3640432043820618,-0.7726894228488207,0.38130006832070645
1633781927525669000,10.256669189453126,-1.563096873217821,-0.6861497880369425,0.3059741206362843
1633781927545548300,10.27654833984375,-1.6443857478946446,-0.6547901886552572,0.040550475444644685
1633781927565428200,10.29642822265625,-1.8266320743143558,-0.9468956506758928,-0.16988792623654006
1633781927585307100,10.31630712890625,-1.7430360917389391,-1.1017156255096197,-0.13135266307182608
1633781927605186300,10.336186279296875,-1.9878619161903857,-1.4235744207590817,-0.04560527461618185
1633781927625065200,10.356065185546875,-2.2805694357573985,-1.068756774237752,0.34639980065748094
1633781927644944100,10.375944091796875,-2.5904139680862426,-0.5542980163365602,0.9221918559215962
1633781927664823300,10.3958232421875,-2.354206334376335,0.16801029579639434,1.3259618955299257
1633781927684702200,10.4157021484375,-1.6753922960549592,1.0203794045597314,1.7682288390539584
1633781927704581400,10.435581298828126,-1.0417278975367545,1.512829744270444,1.89345666256994
1633781927724460000,10.4554599609375,-0.31217911275625226,1.5466402439355849,1.5311739408649503
1633781927744339200,10.475339111328125,0.43334114813804625,1.457768951305747,1.154735268035531
1633781927764219400,10.495219482421875,1.0429127234071494,1.318812900558114,0.9067363665059208
1633781927784098000,10.51509814453125,1.7347025631576776,1.4947843844920397,0.9303416984990238
1633781927803977200,10.534977294921875,2.262918628254533,1.7831091589301824,1.0951710261717438
1633781927823856000,10.554856201171875,2.611804546639323,1.743103311756253,0.9895409064427018
1633781927843735300,10.5747353515625,2.9736516534060238,1.362552673563361,0.45568464350178833
1633781927863614200,10.5946142578125,3.21165260027349,0.8909756105333566,-0.021519173368811605
1633781927883493000,10.6144931640625,2.9755303067594765,0.30526831045448777,-0.4283534228533506
1633781927903372300,10.634372314453126,2.550819624322653,-0.34096272417008877,-0.6327957989901304
1633781927923251200,10.654251220703125,2.00268071513772,-0.7641331914275884,-0.5844637297585606
1633781927943130400,10.67413037109375,1.1919377482265234,-1.0686217496812342,-0.42532793755233284
1633781927963010000,10.694010009765625,0.48158700039088725,-1.6177964316546916,-0.49952816914245485
1633781927982889200,10.71388916015625,-0.15768354757130146,-1.8361451680690049,-0.5816650389507413
1633781928002768400,10.733768310546875,-0.6886492036372422,-1.7545400670498608,-0.542424038669467
1633781928022647000,10.75364697265625,-1.1900614329606294,-1.7744471290469168,-0.5732004313357174
1633781928042526200,10.773526123046874,-2.1725456988900897,-1.6526006185323,-0.5001800571799278
1633781928062405000,10.793405029296874,-3.2763626805931327,-1.842760202294588,-0.34959245921894905
1633781928082284300,10.8132841796875,-3.6357419359415766,-1.8897446563094853,-0.4772574467539787
1633781928102163200,10.8331630859375,-3.6825767523527144,-2.1269377939254044,-0.6275770414285361
1633781928122042000,10.8530419921875,-3.3941718984156846,-1.9354495919078587,-1.0264229225076735
1633781928141916700,10.872916748046874,-2.8618823002696034,-1.2449462848365307,-0.5822367013588547
1633781928161796600,10.892796630859374,-2.4465420882463453,0.1544178237736225,0.0692844024978578
1633781928181675800,10.91267578125,-1.8320137673527002,1.362427585878968,0.5605867412172257
1633781928201554700,10.9325546875,-0.8324480182409286,1.7102414911180734,0.6503669653855264
1633781928221433600,10.95243359375,0.19470014980137346,1.4580892693012952,0.22309695385470985
1633781928241312800,10.972312744140625,0.9674602997988462,1.2179016260445117,-0.08356851004660129
1633781928261191700,10.992191650390625,1.5373995373815297,1.2109721190422773,-0.058945963834971186
1633781928281070600,11.012070556640625,2.275169622540474,1.4448112700551747,0.11748583108708262
1633781928300949500,11.031949462890625,2.7664596863001583,1.6401304285377263,0.18366247682794928
1633781928320828700,11.05182861328125,2.7903835827231407,1.6115046380341052,0.08621770938113331
1633781928340707800,11.071707763671874,2.7047990566790103,1.2834008109152317,-0.13805983256027102
1633781928360587500,11.09158740234375,2.5353777250409126,0.7715595420360565,-0.4408884217124432
1633781928380466700,11.111466796875,2.148698959356546,0.30834581820368767,-0.6764297735333442
1633781928400345900,11.131345947265626,1.5336089129269121,0.05987842237949371,-0.6979051808256655
1633781928420224800,11.151224853515625,0.5637684399932622,0.20856033284962175,-0.40011853136345743
1633781928440103700,11.171103759765625,-0.16477672070264815,0.3374444869160652,-0.23849121460244058
1633781928459982600,11.190982666015625,-0.45924774281084535,0.3161047617673874,-0.049234278768301006
1633781928479861800,11.21086181640625,-0.932200770369172,0.2980605710327625,0.15649010000303387
1633781928499740700,11.23074072265625,-1.3087433419644832,0.11227496457099914,0.3798359140522778
1633781928519619600,11.25061962890625,-1.206073241084814,-0.3064315090149641,0.4246249038495123
1633781928539498500,11.27049853515625,-0.9362152667075395,-0.7208709728062153,0.11226367599200457
1633781928559378700,11.290378662109376,-1.0864584351450204,-0.9043535630226135,0.017798545410484073
1633781928579257600,11.310257568359376,-1.4210843575090168,-0.8781213896572589,0.2149617243245244
1633781928599136500,11.330136474609375,-1.709964427742362,-0.8717395796656608,0.5697343626603484
1633781928619015700,11.350015625,-1.6915911511838435,-1.0408253957390785,0.5111636253459378
1633781928638894800,11.369894775390625,-1.4264005840957164,-0.7843851213395595,0.632000995350629
1633781928658773800,11.389773681640625,-1.0268693511009215,-0.38310909050405023,0.807864488865435
1633781928678652700,11.409652587890625,-0.3907248262047767,0.45425475682914257,1.2617805152595043
1633781928698531600,11.429531494140624,0.11701777518391608,1.3009136712521314,1.8315809288933873
1633781928718410800,11.44941064453125,0.4743289920866489,1.5585247429966926,1.937544664490968
1633781928738289700,11.46928955078125,0.8713076179891824,1.470661750626564,1.6805726213023064
1633781928758169600,11.489169677734376,0.9834177473872899,1.3993074099868534,1.4113646352663636
1633781928778048800,11.509048828125,1.1877397120147943,1.5538479833573102,1.5023748396210372
1633781928797927700,11.528927734375,1.5949690982967615,1.5747726979643106,1.4210294124513865
1633781928817806800,11.548806884765625,2.0641893690675497,1.373459267503023,1.0773897972222417
1633781928837685500,11.568685546875,2.3241087177544832,0.896767637938261,0.5633396201219409
1633781928857564700,11.588564697265625,2.395729015854001,0.35779344746172426,-0.010526435515657066
1633781928877443800,11.60844384765625,2.3692431599885224,-0.008038929548859595,-0.34377741626463826
1633781928897322800,11.62832275390625,2.1172528507351873,-0.36877836733460423,-0.6111404320210219
1633781928917201700,11.64820166015625,1.8014643153101204,-0.5860644429534674,-0.6858512434817851
1633781928937080600,11.66808056640625,1.3722317715346812,-0.7823077305436134,-0.7691692858986556
1633781928956960800,11.687960693359376,0.9974351668238639,-0.9733873517602681,-0.9036763213481753
1633781928976839700,11.707839599609375,0.4510112448632717,-1.3323346454322338,-1.0489522227670998
1633781928996718600,11.727718505859375,-0.11975450667142867,-1.8641998806864022,-1.3023315752260387
1633781929016597800,11.74759765625,-0.6683423286676407,-2.1174837368816135,-1.3512652636125684
1633781929036476700,11.7674765625,-1.1203618737906218,-2.0333651917368174,-1.1953737140245735
1633781929056355800,11.78735595703125,-1.755245000448823,-1.793342968174815,-0.8530912855580448
1633781929076234500,11.807234375,-2.8927742821395395,-1.674747568410635,-0.4154137887161225
1633781929096113700,11.82711376953125,-3.3692759420901535,-1.473525907886028,-0.4371617293395102
1633781929115992800,11.846992919921876,-3.40399011259675,-1.754133239814639,-0.6370131974894553
1633781929135872500,11.86687255859375,-2.9489725547015664,-1.5331068086236714,-0.8801236693903803
1633781929155751700,11.886751708984375,-2.5064620116800067,-1.2868436448454856,-0.9845786078602075
1633781929175632000,11.9066318359375,-1.8217594998419284,-0.3514969776660204,-0.6989889574743807
1633781929195510500,11.926510498046875,-1.2264140183240175,1.0236094725221394,-0.09240516584441065
1633781929215389700,11.9463896484375,-0.5721662659823894,1.786136982318759,-0.039331308913230896
1633781929235268600,11.9662685546875,0.15286942528784275,1.9470652108997106,-0.3118659551538527
1633781929255147800,11.986147705078125,0.9217372440218925,1.9583546666771172,-0.35246406913250683
1633781929275026700,12.006026611328124,1.6114613834142684,1.8807552941679953,-0.3040558659248054
1633781929294905600,12.025905517578124,2.0528221718788147,1.7054484116226434,-0.19711963203325866
1633781929314784800,12.04578466796875,2.2773802843272684,1.4788047250717877,-0.21258929610475896
1633781929334663700,12.06566357421875,2.602606510183215,1.2243231835246084,-0.346748467964679
1633781929354542800,12.08554296875,2.6724539533913134,0.888994081327319,-0.5437102790877223
1633781929374422800,12.1054228515625,2.3111013521432877,0.5253045615643263,-0.6717962685137987
1633781929394301700,12.1253017578125,1.9882693279474972,0.11244272235333919,-0.8445473290964961
1633781929414180900,12.145180908203125,1.4645470671385525,-0.22976737152934074,-1.0479922186285258
1633781929434059500,12.1650595703125,0.5941296759873629,-0.24115911863744258,-1.0163926730111241
1633781929453938700,12.184938720703125,-0.12920213397443295,-0.037426936596632,-0.7369770350851118
1633781929473817600,12.204817626953124,-0.5754769979655743,0.010821253743767738,-0.593553045143187
1633781929493696800,12.22469677734375,-0.9878922624528408,-0.07134440376758575,-0.6540757567755877
1633781929513575700,12.24457568359375,-1.3163164075672626,0.05529986241757869,-0.43758696901425714
1633781929533454600,12.26445458984375,-1.4819921229362487,0.1698024399101734,-0.23227073265239595
1633781929553333800,12.284333740234375,-1.2426783399045467,0.20759353364408015,-0.2999270955570042
1633781929573213700,12.304213623046875,-0.8435363984882831,0.07904314157664775,-0.21392098309993743
1633781929593092600,12.324092529296875,0.1215612638324499,-0.6275555602490902,-0.12578954905197023
1633781929612971800,12.3439716796875,-0.8636568109750747,-1.7041951966911553,-0.21466675996594128
1633781929632850700,12.3638505859375,-3.905258549535274,-1.5397218428492545,0.6481042080853134
1633781929652729900,12.383729736328124,-5.208716644573212,-0.27092238873839375,2.29594806054458
1633781929672608500,12.4036083984375,-4.385160373318195,0.547590043130517,2.9479952341020104
1633781929692487700,12.42348779296875,-2.2997271406918762,1.3895558313012122,2.8811513566240667
1633781929712366600,12.44336669921875,-0.5096972425878048,1.4815034626364707,2.2462533246576784
1633781929732245800,12.463245849609375,0.5634837778329849,1.6706471473544835,1.6393632435575127
1633781929752124700,12.483124755859375,1.1804746894478797,1.8131921625047922,1.3920401954628527
1633781929772004600,12.503004638671875,1.582015508699417,1.5320231050401925,0.8354037993066012
1633781929791883800,12.5228837890625,1.937052935451269,1.1623317145138978,0.28730412615351375
1633781929811762700,12.5427626953125,2.0235826333910225,0.8452233286619186,0.17863083933629095
1633781929831641600,12.5626416015625,1.8964754258692262,0.33375206213891506,0.1632291259344667
1633781929851520800,12.582520751953124,1.7890397180229425,-0.2464998951435089,0.0012345832962542772
1633781929871399700,12.602399658203124,1.3442208980590105,-0.5734592284023762,-0.1260451312482357
1633781929891278800,12.62227880859375,1.0447206496119499,-0.3890753054320812,-0.1799186871897429
1633781929911157500,12.642157470703125,1.2224357623428106,-0.0008487257838249206,-0.27697303054686634
1633781929931036700,12.66203662109375,1.7281646858215332,0.5924865849554538,-0.4176627366866916
1633781929950915600,12.68191552734375,2.206236371567845,0.8058353211253881,-0.6852480168916285
1633781929970794800,12.701794677734375,2.4999171200811863,0.48140755217075343,-1.2535869796708226
1633781929990674700,12.7216748046875,2.290889169719815,-0.18277064255475997,-1.7079126097790895
1633781930010553600,12.7415537109375,1.5880997970491646,-0.8053595203071832,-2.024816705230623
1633781930030432800,12.761432861328124,0.4878495679169893,-1.1437807433009146,-1.7886299681782722
1633781930050311700,12.781311767578124,-0.8446265318125485,-1.2308213133722543,-1.4648850669212639
1633781930070190600,12.801190673828126,-1.469924668523669,-1.0677502275437116,-1.193795943313837
1633781930090069800,12.82106982421875,-1.9065128357589243,-1.334092887276411,-1.3895628455638884
1633781930109948700,12.84094873046875,-1.9169436288803814,-1.4781167428076267,-1.9426272284522652
1633781930129827800,12.860827880859375,-1.893835140493512,-1.508071736088395,-2.1223776464030144
1633781930149706200,12.880706298828125,-1.7968407471626997,-1.692636276322603,-2.6990821403369307
1633781930169585400,12.90058544921875,-1.3688368683993815,-2.052713450807333,-3.2230040153712034
1633781930189465600,12.920465576171875,-1.3121587033659219,-1.6936328861445187,-3.0236043095767497
1633781930209344500,12.940344482421875,-1.6799276013970375,-0.19085107315778732,-1.8412493593402206
1633781930229223400,12.960223388671874,-2.9808231524705886,1.0196312165409327,-0.8872773405373096
1633781930249102600,12.9801025390625,-3.496612282192707,2.1134289085328577,0.3216502670653164
1633781930268981500,12.9999814453125,-2.8988597395330666,3.4796728378295896,1.3988801244854927
1633781930288860700,13.019860595703125,-1.0475766235649586,4.2410500085473055,1.7764511623457073
1633781930308739300,13.0397392578125,1.2386188353806733,3.874406315153837,0.9927904097579419
1633781930328618500,13.059618408203125,2.896411761859059,3.0441414861708878,-0.1380281222477555
1633781930348497400,13.079497314453125,3.735698101687431,2.2800679159760473,-0.6581219634264707
1633781930368376600,13.09937646484375,3.349026350265741,1.7315893995732068,-0.5445419076062739
1633781930388255200,13.119255126953124,2.4281162047177554,1.121454345202446,-0.5702732918426394
1633781930408135400,13.139135498046874,1.2016022331506013,0.6717670424193144,-0.6035857057925313
1633781930428014600,13.1590146484375,-0.1385889710009098,0.36519232554137704,-0.5377762128636241
1633781930447893500,13.1788935546875,-1.1093155791193245,0.3615945933103561,-0.23190832908079026
1633781930467772400,13.1987724609375,-1.2203361597150564,0.4078980793237686,0.20238734330311417
1633781930487651600,13.218651611328125,-0.9065484427183866,0.3890560162097215,0.5351714371927082
1633781930507530500,13.238530517578125,-0.5492074151992797,0.19536884284317493,0.5425616935744881
1633781930527409700,13.25840966796875,0.11143734470307827,-0.8252671668261289,0.2577475210731849
1633781930547288300,13.278288330078125,0.5804167924553155,-2.297144138461351,-0.5534541128583252
1633781930567167500,13.29816748046875,0.6875391965687274,-3.286194338777661,-0.8556742877885699
1633781930587046400,13.31804638671875,0.2786088515877724,-3.6497242840647695,-0.6751527393348514
1633781930606925600,13.337925537109374,-0.790270087724924,-3.6139661574631927,-0.33272856431007386
1633781930626805500,13.357805419921876,-2.1737106510162354,-3.2561300399035216,-0.041925563190132374
1633781930646684400,13.377684326171876,-3.115987409719825,-2.7656612293988463,0.29251017036400734
1633781930666563600,13.3975634765625,-3.8869098228961225,-2.3458652070105073,0.2853267616659403
1633781930686442500,13.4174423828125,-4.0328830589294435,-1.8114999716341496,0.3162086605332792
1633781930706321400,13.4373212890625,-4.012702440688014,-0.1857896981149912,1.580918945634365
1633781930726200600,13.45720068359375,-3.700086105558276,1.374884331870079,3.0426152995169162
1633781930746079500,13.47707958984375,-3.523934004360437,1.8777210410386322,3.8827515341728924
1633781930765958700,13.496958740234374,-3.0608705026537177,2.317290269911289,4.180649608120322
1633781930785837300,13.51683740234375,-2.1536352467149493,2.6061171486526726,4.63444609978795
1633781930805716500,13.536716552734376,-0.9779372701495885,2.0777087758541106,4.447909090436995
1633781930825595400,13.556595458984376,0.029612463453412053,1.3003309029281138,3.8837060584187504
1633781930845475300,13.576475341796876,0.9467033429741859,0.7720511249452829,3.3952363127768037
1633781930865354500,13.5963544921875,1.2922732686787843,0.6190332310974598,3.0498604483395813
1633781930885233400,13.6162333984375,1.03599256875515,0.9800894797474146,3.1269407654106613
1633781930905112600,13.636112548828125,0.5816016183257102,1.2090823597729206,3.23283859616518
1633781930924991500,13.655991455078125,0.5190180286407471,1.3856290132462978,3.1391449979454276
1633781930944870400,13.675870361328125,0.7762754646420479,1.5310405237436293,2.682771641527116
1633781930964749600,13.69574951171875,1.226976328381896,1.5348264720231293,1.8781547562807797
1633781930984628500,13.71562841796875,1.9587772760033606,1.6566840884536504,1.00005806267336
1633781931004507600,13.735507568359376,2.121160964089632,1.635039242878556,0.36729601982235904
1633781931024386300,13.75538623046875,2.284140279981494,1.6998937001049517,0.18619038787037134
1633781931044266500,13.7752666015625,2.027145878830552,1.6273866822987795,0.29903628419712186
1633781931064145700,13.795145751953125,1.51048698053658,0.895074278023839,0.07547456237487495
1633781931084024300,13.8150244140625,1.4756108974665403,0.5881149457424879,-0.011015241945907472
1633781931103903500,13.834903564453125,1.5562392624080181,0.6559066254645586,0.21020247403346
1633781931123782400,13.854782470703125,1.5538661035358905,0.70989598980546,0.44251215045675635
1633781931143661300,13.874661376953124,1.2734323746085165,0.008117255482077599,0.4826339521605521
1633781931163540200,13.894540283203124,1.06704470962286,-0.7549830857664346,0.30979923188239333
1633781931183419100,13.914419189453126,1.0619506013542412,-1.2259253580242395,0.43435193261578675
1633781931203298300,13.93429833984375,0.9470750988960266,-1.455416835221648,0.5383635112322867
1633781931223177200,13.95417724609375,0.646459582683444,-1.5016291358202696,0.4487747910480946
1633781931243056400,13.974056396484375,0.2590267837613821,-1.5837690743684767,0.11798829158334992
1633781931262936000,13.99393603515625,-0.016462474501132963,-1.6966718154489993,-0.4509761735498905
1633781931282815200,14.013815185546875,-0.10712298863530158,-1.774991318926215,-1.0335052089188248
1633781931302694400,14.0336943359375,-0.6276894157618284,-1.913307902726531,-1.6452964329987763
1633781931322573300,14.0535732421875,-1.5657704763412474,-1.5068115068942307,-1.8238550108164548
1633781931342452200,14.0734521484375,-1.8938047453552482,-0.28027941514849664,-1.5673536538794637
1633781931362331100,14.0933310546875,-1.3455992006748914,0.9063736706733703,-1.136440171279758
1633781931382210300,14.113210205078126,-0.6268810219883918,1.5074562345385552,-1.0529073901336639
1633781931402089200,14.133089111328125,-0.09905600203573703,1.6337591399401425,-1.194513736194372
1633781931421968100,14.152968017578125,-0.2095171951830387,1.4814362426191567,-1.322942986100167
1633781931441847300,14.172847412109375,-0.5640624545037746,1.3778992957770824,-1.1423211921423673
1633781931461726200,14.192726318359375,-0.5936936226576567,1.4078735782802103,-1.0168083411399274
1633781931481605400,14.21260546875,-0.1497515855282545,1.4402800563663243,-0.9847889626752585
1633781931501485000,14.232485107421875,0.6075140582174062,1.4521481888145207,-1.0158369388245045
1633781931521364200,14.2523642578125,1.5264824220478534,1.3548352310538292,-1.0647381131809204
1633781931541243400,14.272243408203124,2.142888227251172,1.0151929418325423,-1.2594988340631126
1633781931561122300,14.292122314453126,2.345181900921464,0.6104968734204769,-1.4757491368934512
1633781931581001200,14.312001220703126,2.3131658834576605,0.18300152870118616,-1.6248236999429762
1633781931600880000,14.331880126953125,2.184028631412983,0.05367138443291187,-1.7001967747047542
1633781931620759300,14.35175927734375,1.8202970260739326,0.2509878542125225,-1.5029089464977383
1633781931640638200,14.37163818359375,0.8235182773321866,0.2552963650614023,-1.1538724406611174
1633781931660517000,14.39151708984375,-0.40250995654463767,-0.04668693237304687,-0.7839290481351315
1633781931680396300,14.411396240234374,-0.984924644818902,-0.3369493968755007,-0.588114653481543
1633781931700275200,14.431275146484374,-0.9042857584834099,-0.5838397526413202,-0.3626677754998207
1633781931720154400,14.451154296875,-0.48746202990412707,-0.6261895325928926,-0.20207345504835247
1633781931740034300,14.471034423828126,-0.15656243458688257,-0.8941951571017503,-0.10797449089810252
1633781931759913200,14.490913330078126,-0.13302198452353475,-1.3991560188174248,-0.2992754997804761
1633781931779792400,14.51079248046875,-0.4867512512862682,-1.6316776574909686,-0.28904110601395366
1633781931799671300,14.53067138671875,-0.9572089548975229,-1.5517355212479829,-0.16891279759407044
1633781931819550200,14.55055029296875,-1.1315905392915009,-1.0705389814794064,0.04013838751241564
1633781931839429000,14.57042919921875,-0.8160527637571096,-0.40412382148206233,0.27578942851917815
1633781931859308300,14.590308349609375,-0.46090310880243773,-0.07036825221180916,0.9157618228740989
1633781931879187200,14.610187255859374,0.0518576130092144,-0.07145254031717777,1.1087367563180626
1633781931899066000,14.630066162109374,0.3370306454181671,-0.09001169483661652,1.3897263655625283
1633781931918945300,14.6499453125,0.17480360919833182,-0.021827216404676435,1.7525692053683102
1633781931938824200,14.66982421875,-0.7073083113998174,0.3816425250828266,2.18684953405261
1633781931958704000,14.6897041015625,-1.8202841665923595,0.8409551498234271,2.562002112594247
1633781931978583300,14.709583251953125,-2.0630092193722724,1.3146382452219725,2.8227584966272112
1633781931998462200,14.729462158203125,-0.865144419184327,1.5639040979474783,2.7349583403602242
1633781932018341400,14.74934130859375,0.6534060408204794,1.3070493975281714,2.030771960373223
1633781932038220300,14.76922021484375,1.669735877728462,0.9228104262113571,1.5250705094233155
1633781932058099200,14.78909912109375,2.0418185473054646,0.7136895368695259,1.2401496982097624
1633781932077978000,14.80897802734375,2.1239503025472164,0.6731389152944087,0.9603509792502969
1633781932097857300,14.828857177734376,2.137369756090641,0.5782119758874178,0.5682231543798
1633781932117736400,14.848736328125,2.1284294937878845,0.49528001017868517,0.1003899449200835
1633781932137615600,14.86861572265625,2.030015881308913,0.476650713032484,-0.2530537737663835
1633781932157494800,14.888494873046875,1.967868344953656,0.4672352344334125,-0.49159401514232154
1633781932177373700,14.908373779296875,1.8927263024687766,0.4201946663171053,-0.5514413117311895
1633781932197253600,14.928253662109375,1.7091133638709783,0.32840836302340026,-0.6092630207765847
1633781932217132500,14.948132568359375,1.4463579149752854,0.24628479108810422,-0.6251762638971209
1633781932237011700,14.96801171875,0.9492173716217279,-0.015842881298065183,-0.6386457671273499
1633781932256891000,14.987890869140625,0.528837411865592,-0.448819287776947,-0.5455136387152597
1633781932276769500,15.00776953125,0.018190321207046507,-1.1470745241492986,-0.49760220604855565
1633781932296648700,15.027648681640626,-0.5703109935045242,-1.6833932316809892,-0.393084029616788
1633781932316527600,15.047527587890626,-0.990521441912651,-1.7752064229816198,-0.18088212539441884
1633781932336406800,15.06740673828125,-1.4596312380462884,-1.867145286488533,-0.17565723035298286
1633781932356285700,15.08728564453125,-1.691202444127202,-2.2686451892077923,-0.49728353202082215
1633781932376164600,15.10716455078125,-1.586482424980402,-2.210584629905224,-0.7351401019815356
1633781932396043800,15.127043701171875,-1.733454024401307,-2.2120576250672337,-1.0423177531886845
1633781932415922700,15.146922607421875,-1.6403426099836826,-1.3571195425987244,-0.9184804341830313
1633781932435801900,15.1668017578125,-1.771779955664277,-0.39379181255996226,-0.7931132752615958
1633781932455681800,15.186681884765624,-1.5094681588828562,0.6873188318163156,-0.584951147949323
1633781932475560700,15.206560791015624,-0.9739502463400364,1.609399190187454,-0.31813509855121375
1633781932495440000,15.22643994140625,-0.4851975921034813,1.8943243853151797,-0.28535101932436224
1633781932515318500,15.246318603515626,-0.20916297491788863,1.4767168128818273,-0.6506493625234812
1633781932535197700,15.26619775390625,0.0742266812056303,0.9819108499556779,-0.8374181348036974
1633781932555076600,15.28607666015625,0.26520751822292804,0.8760936832219361,-0.6698186117652803
1633781932574955800,15.305955810546875,0.4495417568325996,1.1410936961740255,-0.28699708776464683
1633781932594834700,15.325834716796875,0.9325836322069168,1.3692512944191693,-0.06867985160029492
1633781932614713600,15.345713623046874,1.7252502596795558,1.4252631044983863,-0.11828370346650481
1633781932634592800,15.3655927734375,2.261653722885251,1.24026601806581,-0.2366747397650033
1633781932654471700,15.3854716796875,2.2747803309619425,0.9032020548999309,-0.2860739267714321
1633781932674351600,15.4053515625,1.813772592741251,0.3767354638189077,-0.2873332791827619
1633781932694230800,15.425230712890626,1.147392504057288,0.0034340661019086837,-0.19936543819867072
1633781932714109700,15.445109619140625,0.43316579157114027,-0.1852963616400957,0.06193893510587513
1633781932733988900,15.46498876953125,-0.06641980684697628,-0.09847381823360919,0.2898031581613235
1633781932753867500,15.484867431640625,-0.2371545591711998,0.12265841141939163,0.6226661807723343
1633781932773746700,15.50474658203125,-0.3719090665757656,0.19681553452014922,0.7493645152322947
1633781932793625600,15.52462548828125,-0.6853191824316978,-0.030786767929792402,0.7506713600471615
1633781932813504800,15.5445048828125,-0.8031418442577123,-0.13096154486238956,0.6865928556293249
1633781932833383700,15.5643837890625,-0.7063701537668705,-0.28357261147499085,0.5841575864188373
1633781932853262600,15.5842626953125,-0.36747079186737536,-0.5934703352957964,0.380940514293313
1633781932873141800,15.604141845703126,-0.27155367237925526,-1.000797921255231,0.2966258620545268
1633781932893020700,15.624020751953125,-0.6134691672295332,-1.3726660712987184,0.3681687110036611
1633781932912899800,15.64389990234375,-1.3958698367536067,-1.7762024482816456,0.41323900196030733
1633781932932779800,15.66377978515625,-2.3746084864139556,-1.7012246564477682,0.822413530960679
1633781932952658700,15.68365869140625,-3.1275860775768756,-1.184560497456789,1.4194548566110432
1633781932972537900,15.703537841796875,-3.0570722794145344,-0.4136719865500927,2.0407687459915875
1633781932992416500,15.72341650390625,-2.279464104864001,0.40721301966905593,2.3777409392207858
1633781933012295700,15.743295654296874,-1.0580956794917582,1.1188006158232688,2.489561145761609
1633781933032174600,15.763174560546876,0.2496376086473465,1.6074048014998434,2.496672146810591
1633781933052053800,15.7830537109375,1.1783020215839146,1.4599445417791603,2.126873496517539
1633781933071932700,15.8029326171875,1.6241723964273929,1.278183953049779,1.6271408908441662
1633781933091811600,15.8228115234375,1.9898107121706008,1.3921201288312672,1.3768939181268214
1633781933111690800,15.842690673828125,2.3143092082738876,1.6022142471194267,1.2289300927981734
1633781933131569700,15.862569580078125,2.6983716539800167,1.6818039166629313,0.8304130052819848
1633781933151447800,15.88244775390625,3.152266345325112,1.535743002346158,0.2061748990178108
1633781933171327000,15.902326904296874,3.6525106999129053,1.2816080822795628,-0.4088729887705296
1633781933191206700,15.92220654296875,4.0618700839608906,1.0637748941719531,-0.8710473596177994
1633781933211085800,15.9420859375,4.428759861069917,0.8236503792792558,-1.1716733972243965
1633781933230965000,15.961965087890626,4.383219176122546,0.6022592064291239,-1.0405301391195505
1633781933250843600,15.98184375,3.214703220015764,0.2864788543105125,-0.7916701637811958
1633781933270722800,16.001722900390625,1.1753764895260332,-0.8461883743017912,-1.044840914990753
1633781933290601700,16.021601806640625,-0.5216618211477995,-1.6498486894756554,-1.2317477805674075
1633781933310481000,16.04148095703125,-2.2166274172008036,-2.1254490166723725,-0.9448819727659225
1633781933330359800,16.06135986328125,-3.59235579867959,-2.6184271796494722,-0.7590174558490514
1633781933350238700,16.08123876953125,-4.293273532259464,-2.8725761282414197,-0.845522238543257
1633781933370118000,16.101117919921876,-4.665941308248043,-2.826476640367508,-1.0056183271490038
1633781933389996800,16.120996826171876,-4.2717637112408875,-2.054837603354454,-0.9904925080791115
1633781933409876000,16.1408759765625,-3.776577809086442,-1.299023327460885,-0.7345568222008645
1633781933429754600,16.160754638671875,-3.2186499118149277,-1.0013426956564186,-0.8918249208390712
1633781933449634800,16.180634765625,-2.7690783443659543,-0.7271569212079048,-1.0025118125010282
1633781933469514000,16.200513916015623,-2.5616572446793318,-0.33284956034123897,-1.0990323777750133
1633781933489392600,16.220392578125,-2.235459543442726,0.4318360042721033,-1.0468849880389868
1633781933509271800,16.240271728515626,-1.6847008071482181,1.3300450731903313,-0.7577076153595
1633781933529150700,16.260150634765626,-1.233132512924075,1.9237451255887745,-0.45661366798020897
1633781933549030000,16.28002978515625,-0.7827788551867008,2.310826042333245,-0.30966223456449804
1633781933568908800,16.29990869140625,-0.36133155845999715,2.291312363567948,-0.3462413952253759
1633781933588787700,16.31978759765625,0.408438177549839,2.244606141972542,-0.4843178866595029
1633781933608667000,16.3396669921875,1.4824363595724106,2.218777288711071,-0.5682596869979053
1633781933628545800,16.3595458984375,2.271808621674776,2.0668430984467268,-0.6921451559942216
1633781933648425000,16.379425048828125,2.739779184645414,1.7268261306941508,-0.9140222857303917
1633781933668303600,16.3993037109375,2.915878678873181,1.3090128065556288,-1.0638432832330464
1633781933688182800,16.419182861328125,2.9231577299654483,0.9037573506951332,-1.1539311120457947
1633781933708063000,16.43906298828125,2.789562329468131,0.6849556098163128,-1.0791623598527162
1633781933727941600,16.458941650390624,1.7308312746822834,0.17995792322158813,-1.084480705331266
1633781933747820800,16.47882080078125,0.22549159390628337,-0.14026479525864124,-0.9103618635267019
1633781933767699700,16.49869970703125,-0.6136755034565925,-0.06667758100032806,-0.3189847011178732
1633781933787579000,16.518578857421875,-1.064789624172449,0.12042203066945076,0.1729483367204666
1633781933807458000,16.5384580078125,-1.3586509899497032,0.3220850052207708,0.6516545209780336
1633781933827336700,16.558336669921875,-1.8472423161447047,0.19356033211648463,0.8974699409887195
1633781933847215900,16.5782158203125,-2.0442174251407383,0.005848726028203964,1.0531006476834415
1633781933867094800,16.5980947265625,-2.030948778244853,-0.1974479872047901,1.1611916045680641
1633781933886974000,16.617973876953126,-1.6976070504724978,-0.5037497323602438,0.9619652095139026
1633781933906852600,16.6378525390625,-1.1427402943372726,-0.6746364603757858,0.9208947287831455
1633781933926731800,16.657731689453126,-0.7890303167968988,-0.807700530475378,1.0378863466124981
1633781933946611000,16.67761083984375,-0.8424842590868472,-1.0300246002614497,1.3399717161819338
1633781933966489900,16.69748974609375,-1.3982768978953362,-0.9494885897785424,1.7802350647985934
1633781933986368800,16.71736865234375,-1.9552035091698168,-0.7138783374398946,1.9811006053619085
1633781934006248700,16.737248779296873,-2.2374597773492333,-0.2342132450222969,2.0621273219712077
1633781934026128000,16.7571279296875,-1.9243325700879095,0.8281786703586578,2.317763294250518
1633781934046007000,16.777007080078125,-0.981718542253971,1.6162474486470222,2.2889609781362115
1633781934065885700,16.7968857421875,0.5557575674951076,1.9115917464584111,1.8225924435347318
1633781934085764900,16.816764892578124,1.7384195378541945,1.6118980212658642,1.218141864541173
1633781934105643800,16.836643798828124,2.347473811250925,1.2591484131902455,0.6220262754335999
1633781934125523000,16.85652294921875,2.507527010563016,1.0056114590168,0.15357158220782874
1633781934145401600,16.876401611328124,2.366050501427054,0.7488339154869318,-0.3121326432660222
1633781934165280800,16.89628076171875,2.0614894624590874,0.5150982248485088,-0.9070368107572198
1633781934185160000,16.916159912109375,1.836795740932226,0.4775801028370857,-1.2932586264543235
1633781934205038800,16.936038818359375,1.3709972613036632,0.40534371866583824,-1.4728044617436826
1633781934224918000,16.95591796875,0.7546218512386084,-0.07139759525954723,-1.7636470642216502
1633781934244796700,16.975796630859374,0.301508081138134,-0.5187473950058221,-1.9385713771902024
1633781934264676900,16.9956767578125,-0.04444704449176788,-0.7470926247775554,-1.8804232857346534
1633781934284556000,17.01555615234375,-0.18965981754660605,-0.927443346709013,-1.8267410876467822
1633781934304434700,17.0354345703125,-0.11154080507755279,-0.9424871865838765,-1.8328733067914842
1633781934324313900,17.05531396484375,-0.07893558954894542,-1.098262854707241,-1.6934793030180035
1633781934344192800,17.07519287109375,-0.2843792516827583,-1.2159200968384742,-1.422669580873847
1633781934364072000,17.095072021484373,-0.6729916157782078,-1.2514192802429198,-0.9548818271242081
1633781934383950600,17.11495068359375,-0.9833592951983213,-1.1918249355018138,-0.5456405164979398
1633781934403829800,17.134829833984377,-1.2174509596675633,-1.1047200680226086,-0.19690679300017655
1633781934423709000,17.154708984375,-1.1481956371337174,-1.2069207978248595,-0.30807328487262126
1633781934443587800,17.174587890625,-0.9128022424161434,-0.8462363050967454,-0.2988425151906907
1633781934463467000,17.194467041015624,-0.8095967194855213,-0.5913116959571838,-0.10289017337113618
1633781934483345700,17.214345703125,-0.9220447025358677,-0.17611702988445757,0.2042852128136903
1633781934503224800,17.234224853515624,-1.7151514749914407,-0.04027531176507473,0.4643198949759826
1633781934523103700,17.254103759765623,-2.233189844945073,0.016615034714341163,0.4407309661284089
1633781934542983000,17.27398291015625,-2.105411021772027,0.4969909057497978,0.44997086896486577
1633781934562862800,17.29386279296875,-1.2334580916166304,0.857069249278307,0.3731546827226877
1633781934582741800,17.31374169921875,-0.3916968861073255,1.129863277107477,0.2705531170345843
1633781934602621000,17.333620849609375,-0.09916998380422591,1.4089473449915646,0.41235608164593573
1633781934622499600,17.35349951171875,0.3206827372074127,1.4864438416481016,0.40662119125574825
1633781934642378800,17.373378662109374,0.9917039296954869,1.5273814167141913,0.2299156939588487
1633781934662258000,17.3932578125,1.8503186548501251,1.6990338684052229,0.09461948089301586
1633781934682136800,17.41313671875,2.427687750172615,1.7199229271769523,-0.21293080301880835
1633781934702016000,17.43301611328125,2.572167532777786,1.6524533190160988,-0.36367943676039577
1633781934721894700,17.452894775390625,2.5628625288158653,1.533844475248456,-0.32475641638711095
1633781934741773800,17.47277392578125,2.033297971719503,1.0036614939928055,-0.5311391129367053
1633781934761652700,17.49265283203125,1.0831874506503343,0.4664923071116209,-0.5596094206176698
1633781934781532000,17.512531982421876,0.29195056371986866,-0.02572013218998909,-0.6189259713307023
1633781934801410800,17.532410888671876,-0.11258359212875366,-0.23136253176629543,-0.34121932927966114
1633781934821289700,17.552289794921876,-0.14391454993784428,-0.29653263081312176,0.08807603233261034
1633781934841170000,17.572169921875,-0.0707370855242014,-0.5073369431972503,0.36734975930359215
1633781934861048600,17.592048583984376,-0.4058621895819902,-0.6448363653957844,0.37408655674532054
1633781934880927700,17.611927734375,-1.3622300174802542,-0.7282967388927936,0.543357045203261
1633781934900807000,17.631806884765624,-2.02860426094532,-0.8240577910363673,0.4207321341946721
1633781934920685800,17.651685791015623,-1.9583961677312849,-0.9568921440333127,0.13996267050690947
1633781934940565000,17.67156494140625,-2.035571761870384,-1.0142635520279406,0.21901304554194212
1633781934960443600,17.691443603515626,-1.8361317240655421,-0.4842348845511675,0.46192171126045284
1633781934980322800,17.71132275390625,-1.3133973052501677,-0.47691959310173987,0.538513002705574
1633781935000201700,17.73120166015625,-1.0108458525389432,-0.3960603420138359,0.49981604617312547
1633781935020081000,17.751080810546874,-1.0766519114017485,0.06639058075249195,0.8333150103338062
1633781935039959800,17.770959716796874,-1.0452496419221162,0.5550128866076469,1.4925480037420986
1633781935059838700,17.790838623046874,-1.0810276422679423,0.8445949676305056,1.8787885241396725
1633781935079718000,17.8107177734375,-0.846418091404438,1.1539157683461905,2.062685686506331
1633781935099596800,17.8305966796875,0.1307645609855652,1.2672791126757859,1.9586254464425146
1633781935119476000,17.85047607421875,1.1705793183773756,1.101112398919463,1.3422548586830496
1633781935139357200,17.870357177734373,1.8193080150365828,1.0596961004257202,1.102462936745584
1633781935159235800,17.89023583984375,2.041273188382387,1.157014318883419,1.2679650491133332
1633781935179115000,17.910114990234376,1.7301731030344962,1.1213485467404127,1.3619456475809215
1633781935198994200,17.929994140625,1.2404548186361788,0.8607493990957736,1.1851439233679324
1633781935218873000,17.949873046875,0.8609750245451927,0.6728793875753879,0.9268214884836227
1633781935238752000,17.969751953125,0.888492561545968,0.6421054791271686,0.7137393673606216
1633781935258631000,17.989630859375,1.197220072543621,0.4917027362138033,0.35159002624433483
1633781935278510000,18.009510009765624,1.4212299034595488,0.12460662287771701,-0.01942994600459933
1633781935298389000,18.029388916015623,1.3777017273783683,-0.16291209587454794,-0.17882175879850984
1633781935318268200,18.04926806640625,1.1332535040676592,-0.492781179100275,-0.28502631741464135
1633781935338147000,18.06914697265625,0.869807150298357,-0.8014274415552616,-0.4549918389320373
1633781935358026000,18.08902587890625,0.7887439010709524,-0.9311679201900959,-0.5351136425908655
1633781935377905200,18.1089052734375,0.7806482728987931,-1.0580155999928713,-0.5089340761955827
1633781935397784000,18.1287841796875,0.6973691011875868,-1.2511574144363402,-0.44573513109125196
1633781935417663000,18.1486630859375,0.4353963271021843,-1.280472356247902,-0.23491905520409345
1633781935437543200,18.168543212890626,0.05784019455015659,-1.5402274542838335,-0.025639545801025815
1633781935457422000,18.188422119140625,-0.4854395841658115,-1.518597806277871,0.010573124201595783
1633781935477301200,18.20830126953125,-1.0421604437351226,-1.4242273317098617,0.11382957360185682
1633781935497180000,18.228179931640625,-0.9214964210033416,-1.2017699909329413,-0.020609365047514438
1633781935517059000,18.24805908203125,-1.0721055001437663,-1.277402447283268,-0.05366749370908364
1633781935536938000,18.26793798828125,-0.7372767486840486,-1.387663149422407,-0.4206641104597598
1633781935556817200,18.287817138671876,-0.8222703230977058,-1.2717366766065359,-0.6283846314843744
1633781935576696000,18.307696044921876,-1.0673270336955785,-0.713920423015952,-0.5111887232545763
1633781935596575000,18.327574951171876,-1.0436930601298808,-0.25760464200377464,-0.5602009567700326
1633781935616454100,18.3474541015625,-0.8649053497314453,0.3604951076358556,-0.5292546143643557
1633781935636333000,18.3673330078125,-0.4398603207737207,0.899065393486619,-0.37697606764174996
1633781935656212000,18.3872119140625,0.049240123987197876,1.1810691482096909,-0.29027780820205806
1633781935676091000,18.4070908203125,0.031332711374759674,1.0893097329229116,-0.24128194129951297
1633781935695971000,18.42697119140625,0.008628712135553359,0.9814087456524372,-0.09357216379716991
1633781935715850200,18.446850341796875,0.21333178503513334,0.753565035662055,-0.12333119611442088
1633781935735729000,18.46672900390625,0.8018997352421283,0.6227098737835883,-0.23352971973754463
1633781935755608000,18.486608154296874,1.673997626826167,0.5545873546719551,-0.23942674188688395
1633781935775487000,18.506487060546874,2.3747709834992885,0.46795594992339606,-0.3392396267045289
1633781935795366100,18.5263662109375,2.582412447938323,0.5955331130445003,0.18536621200591324
1633781935815245000,18.5462451171875,2.1332903778225183,0.5481839173704386,0.379110960778594
1633781935835124000,18.5661240234375,1.3434674493432044,0.6645417673408984,0.49679757513478395
1633781935855003100,18.586003173828125,0.7282225046128035,0.7899597066015005,0.5858673129461706
1633781935874882000,18.605882080078125,0.26950433863401413,0.9480763848930597,0.6569247164659202
1633781935894761000,18.625760986328125,-0.26979543053507804,0.8739631009340286,0.4149310467004776
1633781935914640000,18.645639892578124,-0.5511152946472168,0.7423410463362932,0.11062047536224126
1633781935934520000,18.66552001953125,-0.7701701335042714,0.537183215406537,0.07175766074359416
1633781935954399200,18.685399169921876,-0.9821797300249338,0.3255880449056625,0.15167802354618906
1633781935974278000,18.70527783203125,-1.2130085933059453,0.2517021399617195,0.34618338142782445
1633781935994157000,18.725156982421876,-1.8997037402659653,-0.4042190985500812,-0.018672259505093096
1633781936014036000,18.745035888671875,-2.0769559116601943,-0.80443305311203,-0.2401243687622249
1633781936033915100,18.7649150390625,-1.588932740741968,-0.8284136481583118,-0.4879010058432817
1633781936053794000,18.7847939453125,-1.094950369158387,-0.825360105806589,-0.7043069376267492
1633781936073673000,18.8046728515625,-0.7867740623027086,-0.9210463391482829,-0.5734367243096232
1633781936093552000,18.82455224609375,-0.6788672298133372,-0.7586018607854843,-0.1690381775394082
1633781936113431000,18.84443115234375,-0.9532283608287573,-0.33617841250300406,0.42533334437981246
1633781936133310000,18.86431005859375,-1.3736018908441066,-0.15572247663140296,1.082309498772025
1633781936153191700,18.884191650390626,-1.334833476510644,0.2219523138642311,1.5152796216405928
1633781936173070600,18.904070556640626,-0.9289888225853442,0.5880407114624977,1.6415440947279334
1633781936192949500,18.923949462890626,-0.2597930919587612,0.7112205164074897,1.8585067836113274
1633781936212829700,18.94382958984375,0.1472387259244919,0.6408470034986734,1.8473288253843783
1633781936232708400,18.963708251953125,0.29660277343988417,0.515386978662014,1.6570974915601313
1633781936252587500,18.98358740234375,0.3764858729720115,0.4328086486965418,1.360392426789552
1633781936272466700,19.003466796875,0.3487023785114288,0.4526853155553341,0.8440189213082194
1633781936292345600,19.023345703125,0.7767951046019792,0.7090209605365991,0.644989802391827
1633781936312224500,19.043224609375,1.454609610491991,1.062645013359189,0.5844100998751819
1633781936332103400,19.063103515625,2.006041131481528,1.2625684507668018,0.4840320554554462
1633781936351982600,19.082982666015624,2.333501399999857,1.1829998240113258,0.3489094453908503
1633781936371861500,19.102861572265624,1.9509172101527452,0.7105354567527771,-0.07082461767718196
1633781936391740700,19.12274072265625,1.4637830970287322,0.34345395646393295,-0.040517596088349817
1633781936411619600,19.14261962890625,1.2077315296858548,0.046316930016875264,0.10747150981202722
1633781936431498500,19.16249853515625,0.96286537322402,-0.3129045044213533,0.22259324211627243
1633781936451378700,19.182378662109375,0.7971738757640123,-0.5893751749366521,0.09057298198118806
1633781936471257300,19.20225732421875,0.5372071808040142,-1.196925473511219,-0.4017478861309588
1633781936491136500,19.222136474609375,0.11663666691184044,-1.631816773700714,-0.7582968864895403
1633781936511015700,19.242015625,-0.4982230778932571,-1.8965502446711062,-0.9042850278310477
1633781936530894600,19.26189453125,-1.11387484985888,-1.8250433438181877,-0.7875549835473299
1633781936550773500,19.2817734375,-1.3586597577780484,-1.2914911783903837,-0.433897320716083
1633781936570652400,19.30165234375,-1.3839824150830506,-1.0198960049569605,-0.4176664630137384
1633781936590531600,19.321531494140626,-0.9856517900496721,-0.4955383688539266,-0.12241510418280958
1633781936610410500,19.341410400390625,-1.188521802303195,-0.3406295466929674,-0.3374802888818085
1633781936630289700,19.36128955078125,-1.1609615952044725,-0.4556634545832872,-0.8546034436866641
1633781936650168600,19.38116845703125,-0.8061620688617229,-0.37936581232249733,-1.3026637297898531
1633781936670047500,19.401047607421877,-0.7204349194765091,-0.07210135961472988,-1.0096211330495775
1633781936689927700,19.420927734375,-1.0095353544622658,0.14770458987057208,-0.7879599110864103
1633781936709806300,19.440806396484376,-0.8051309722483158,0.47078152873814105,-0.6747251615725457
1633781936729685500,19.460685546875,-0.523378561937809,0.7531909416526555,-0.7272199034415185
1633781936749564700,19.480564697265624,-0.3133762135863304,0.9837176071166992,-0.8352760812737047
1633781936769443600,19.500443603515624,0.13326280754208564,1.2517273232787847,-0.7527122182250022
1633781936789322500,19.520322509765624,0.5547644648045301,1.52883862978518,-0.6995993444576859
1633781936809201400,19.540201416015623,0.8119558498322963,1.7257184617131947,-0.5818392264738679
1633781936829080600,19.56008056640625,0.9407640160530805,1.9192694414794444,-0.38132352226153016
1633781936848959500,19.57995947265625,0.9831085353076457,2.00174840272367,-0.18558248510509728
1633781936868838700,19.599838623046875,0.9291437208861112,1.9704770661473272,-0.0706703038983047
1633781936888717600,19.619717529296874,0.7817857524961233,1.735395806118846,-0.04342807670757174
1633781936908596500,19.639596435546874,0.6629547904103994,1.417540401291847,-0.14372341127991675
1633781936928476700,19.6594765625,0.6074053371459245,0.9177028739392757,-0.32687574662864205
1633781936948355600,19.67935546875,0.5838496895134448,0.6403033981412649,-0.5191131595782935
1633781936968234500,19.699234375,0.5812357076227664,0.517138206243515,-0.7275543960928916
1633781936988113700,19.71911376953125,0.5660849002420902,0.5344470684409142,-0.6373930636525154
1633781937007992600,19.73899267578125,0.2835696888655424,0.5569745420694351,-0.3532064119324088
1633781937027871500,19.75887158203125,0.010440729993581772,0.43219548523426055,-0.1689307716421783
1633781937047750400,19.77875048828125,-0.2439993104994297,-0.04003799587786198,-0.22293898681402205
1633781937067629600,19.798629638671876,-0.5055225872516632,-0.5881424182713031,-0.26659838805943725
1633781937087508700,19.8185087890625,-0.8940741610705852,-0.9412135133862495,-0.3235778741270304
1633781937107387600,19.8383876953125,-1.2715659962147474,-1.2950421488702297,-0.4295819417349994
1633781937127266600,19.8582666015625,-1.5613637658149002,-1.4304904837578534,-0.46878655552864074
1633781937147143700,19.878143798828123,-1.9128186579048632,-1.4145990871429444,-0.3868061914563179
1633781937167022600,19.898022705078127,-1.631518667536974,-0.8378922551214695,0.11314239505529403
1633781937186901500,19.917901611328126,-1.6129530832767485,-0.5060720378279686,0.5810429615296423
1633781937206780700,19.93778076171875,-1.6282488520860672,-0.23680618412494658,1.0955424898326396
1633781937226659800,19.957659912109374,-1.6829957567960023,-0.32715923974514005,1.0560720647096633
1633781937246538800,19.977538818359374,-1.6030483598560095,-0.3737877199292183,0.8456092592395842
1633781937266417700,19.997417724609374,-1.306938338369131,-0.2641027718514204,1.1554631439186631
1633781937286296600,20.017296630859374,-0.7769307136803865,0.11942951250076293,1.725134962736815
1633781937306175700,20.03717578125,-0.30022388654649257,0.33068566030561924,1.8630527564778923
1633781937326054700,20.0570546875,0.3127028443694114,0.4344359576374292,1.7193369439825414
1633781937345933600,20.07693359375,0.8986901304334401,0.46078445085883135,1.3853338296920061
1633781937365813800,20.096813720703125,1.2071423316210508,0.4796949030339718,0.9508047869436442
1633781937385692700,20.116692626953125,1.4959481675744055,0.5508323860526084,0.6704758335649966
1633781937405571600,20.136571533203124,1.5065490565657615,0.6118266607195139,0.5725134719848632
1633781937425450800,20.15645068359375,1.456459622272849,0.8530506612867117,0.7600998442582786
1633781937445329700,20.17632958984375,1.2935019336909055,0.9781348385483026,0.8826743767865002
1633781937465208800,20.196208740234376,1.2505045034855604,0.9484101468920707,0.7917559423685073
1633781937485087700,20.216087646484375,1.2843377995043992,0.7139701073765754,0.4432048088960349
1633781937504966700,20.235966552734375,1.3044026824116706,0.4341676620900631,0.14290595741719006
1633781937524845600,20.255845458984375,1.1426023471713065,0.10110708934664725,-0.044810617107152936
1633781937544724700,20.275724853515626,1.117970594739914,-0.21728490657508373,-0.12915011152625083
1633781937564603600,20.295603759765626,1.1652490632653236,-0.4671890572041273,-0.2616268832571804
1633781937584483600,20.315483642578126,0.9963549703717232,-0.6618044513314962,-0.3815266436181962
1633781937604362800,20.33536279296875,0.5157826999813317,-0.8794470853030681,-0.33174320653453465
1633781937624241700,20.35524169921875,0.03304886764287948,-0.9255757992714643,-0.24494068300276994
1633781937644120600,20.37512060546875,-0.35966800916194913,-0.6905313641220331,0.27954744761213657
1633781937663999700,20.394999755859374,0.8737152636528015,-0.5437473962277174,-0.03354907224997878
1633781937683878700,20.414878662109373,-0.30503800882995125,-0.8797522057294845,-0.054310851380228994
1633781937703757800,20.4347578125,-0.7837392246514558,-1.0941174254655837,-0.14483108026087282
1633781937723636700,20.45463671875,-1.069582703667879,-1.0894143623411654,-0.21099033647552132
