 Acc_timestamp,Accx,Accy,Accz,Gyro_timestamp,Gyrox,Gyroy,Gyroz,Baro_timestamp,Pressure_Reading
 641900352.000000, 1.426122 , 3.390630, 9.018548, 0.000000, 0.000000,  0.000000,  0.000000, 0.000000,  0.000000 
 19520.000000, 1.098306 , 3.058028, 9.332008, 641919360.000000, -0.070000,  -0.070000,  -0.070000, 0.000000,  0.000000 
 39680.000000, 1.184447 , 3.495914, 9.332008, 641938816.000000, -0.070000,  -0.070000,  -0.070000, 0.000000,  0.000000 
 59648.000000, 1.387837 , 3.381058, 9.248260, 641958976.000000, -1.260000,  8.120000,  1.190000, 0.000000,  0.000000 
 79680.000000, 1.495514 , 3.302095, 9.188439, 641979008.000000, -0.630000,  0.350000,  -7.210000, 0.000000,  0.000000 
 99968.000000, 1.485943 , 3.168097, 9.119047, 641998976.000000, -3.430000,  -0.280000,  -4.480000, 0.000000,  0.000000 
 119616.000000, 1.521835 , 2.835495, 9.104690, 642019264.000000, -6.440000,  -0.140000,  -1.960000, 0.000000,  0.000000 
 139648.000000, 1.607977 , 3.141776, 9.214760, 642038976.000000, -4.130000,  -1.120000,  -1.400000, 0.000000,  0.000000 
 159616.000000, 1.619941 , 3.359523, 9.114261, 642059008.000000, 3.500000,  -1.330000,  -1.400000, 0.000000,  0.000000 
 179584.000000, 1.433301 , 3.201597, 9.080762, 642078912.000000, 5.950000,  -0.840000,  -0.420000, 0.000000,  0.000000 
 199936.000000, 1.378266 , 3.089134, 9.116654, 642098944.000000, 2.030000,  -0.560000,  0.560000, 0.000000,  0.000000 
 219584.000000, 1.296910 , 3.093920, 9.207582, 642119232.000000, -0.420000,  -0.280000,  -0.140000, 0.000000,  0.000000 
 239552.000000, 1.234696 , 3.005385, 9.186047, 642138880.000000, -0.630000,  0.490000,  -0.630000, 0.000000,  0.000000 
 259584.000000, 1.225125 , 2.895315, 9.119047, 642158912.000000, -2.240000,  1.470000,  -0.630000, 0.000000,  0.000000 
 279552.000000, 1.270589 , 2.950350, 8.796017, 642178880.000000, -4.270000,  1.540000,  0.070000, 0.000000,  0.000000 
 299840.000000, 1.433301 , 3.069991, 8.449057, 642198848.000000, -3.500000,  1.680000,  1.120000, 0.000000,  0.000000 
 319552.000000, 1.682154 , 3.194418, 8.099705, 642219200.000000, -3.640000,  1.680000,  2.520000, 0.000000,  0.000000 
 339520.000000, 2.041078 , 2.971886, 7.944171, 642238848.000000, -9.450000,  2.450000,  4.200000, 0.000000,  0.000000 
 359488.000000, 2.050649 , 2.727818, 7.980063, 642258816.000000, -18.480000,  4.760000,  6.370000, 0.000000,  0.000000 
 379520.000000, 1.921437 , 2.562713, 7.936993, 642278848.000000, -22.680000,  6.580000,  7.560000, 0.000000,  0.000000 
 399808.000000, 1.739582 , 2.268396, 8.252845, 642298816.000000, -27.580000,  11.410000,  7.770000, 0.000000,  0.000000 
 419456.000000, 1.134198 , 1.875973, 8.678767, 642319104.000000, -29.330000,  15.610000,  8.820000, 0.000000,  0.000000 
 439424.000000, 0.832702 , 1.885544, 8.827123, 642338816.000000, -28.980000,  20.790001,  9.940000, 0.000000,  0.000000 
 459456.000000, 0.442672 , 2.124826, 8.908479, 642358784.000000, -25.900000,  24.500000,  11.410000, 0.000000,  0.000000 
 479424.000000, 0.344566 , 2.567499, 8.544770, 642378752.000000, -22.120001,  24.639999,  11.690000, 0.000000,  0.000000 
 499712.000000, -1.062413 , 2.536392, 8.360522, 642398784.000000, -23.170000,  22.960001,  12.740000, 0.000000,  0.000000 
 519424.000000, -0.827917 , 2.632105, 8.705089, 642419072.000000, -31.080000,  29.889999,  9.800000, 0.000000,  0.000000 
 539392.000000, 0.428315 , 3.330809, 7.570890, 642438720.000000, -44.730000,  27.790001,  8.470000, 0.000000,  0.000000 
 559360.000000, -0.217747 , 3.565305, 6.257231, 642458752.000000, -56.070000,  21.770000,  13.020000, 0.000000,  0.000000 
 579392.000000, 1.220340 , 3.103491, 7.283752, 642478720.000000, -88.970001,  27.090000,  22.680000, 0.000000,  0.000000 
 599680.000000, 3.687340 , 0.483350, 8.087741, 642498688.000000, -130.970001,  27.580000,  30.870001, 0.000000,  0.000000 
 619328.000000, 3.103491 , 1.160519, 7.633104, 642518976.000000, -151.690002,  24.920000,  35.420002, 0.000000,  0.000000 
 639360.000000, 1.110270 , 1.878366, 7.312466, 642538688.000000, -139.300003,  54.250000,  59.220001, 0.000000,  0.000000 
 659328.000000, 0.021535 , -0.954736, 7.776673, 642558656.000000, -161.770004,  77.070000,  66.360001, 0.000000,  0.000000 
 679296.000000, -0.739382 , -2.787638, 8.712267, 642578688.000000, -218.399994,  78.330002,  70.419998, 0.000000,  0.000000 
 699648.000000, -0.363709 , -2.344966, 8.882158, 642598656.000000, -246.050003,  76.370003,  72.099998, 0.000000,  0.000000 
 719296.000000, -0.500100 , -2.902494, 8.221739, 642618944.000000, -241.710007,  73.849998,  85.260002, 0.000000,  0.000000 
 739264.000000, -0.665205 , -4.237689, 7.578069, 642638592.000000, -255.009995,  67.199997,  85.889999, 0.000000,  0.000000 
 759296.000000, -0.313460 , -5.312066, 7.231110, 642658624.000000, -276.779999,  58.240002,  91.349998, 0.000000,  0.000000 
 779264.000000, -0.760918 , -6.056234, 7.341179, 642678592.000000, -281.190002,  47.459999,  99.959999, 0.000000,  0.000000 
 799552.000000, -2.086541 , -5.934200, 7.097112, 642698560.000000, -262.989990,  43.540001,  106.959999, 0.000000,  0.000000 
 819264.000000, -3.845266 , -5.405386, 6.372087, 642718912.000000, -226.029999,  46.759998,  110.949997, 0.000000,  0.000000 
 839232.000000, -5.146961 , -5.036892, 5.747560, 642738560.000000, -186.059998,  44.310001,  123.830002, 0.000000,  0.000000 
 859200.000000, -5.962914 , -4.977071, 5.599205, 642758528.000000, -158.830002,  34.020000,  140.070007, 0.000000,  0.000000 
 879232.000000, -6.183054 , -5.075177, 4.931608, 642778560.000000, -136.500000,  15.960000,  157.850006, 0.000000,  0.000000 
 899520.000000, -6.491727 , -4.718646, 4.319045, 642798528.000000, -100.870003,  -0.140000,  182.279999, 0.000000,  0.000000 
 919168.000000, -7.324430 , -4.139583, 3.426522, 642818816.000000, -60.410000,  6.930000,  206.639999, 0.000000,  0.000000 
 939200.000000, -8.841480 , -3.596412, 2.213361, 642858496.000000, -31.710001,  40.110001,  242.550003, 702847104.000000,  1011.276489 
 959168.000000, -11.763116 , -4.132405, 0.892523, 0.000000, 0.000000,  0.000000,  0.000000, 0.000000,  0.000000 
 979136.000000, -15.199209 , -5.525027, 1.213161, 642878464.000000, -58.799999,  66.639999,  255.009995, 0.000000,  0.000000 
 999488.000000, -13.473984 , -5.943772, 2.699104, 642898496.000000, -89.949997,  84.349998,  252.979996, 0.000000,  0.000000 
 1019136.000000, -11.157731 , -4.532006, 2.694318, 642918784.000000, -74.199997,  41.930000,  234.220001, 0.000000,  0.000000 
 1039104.000000, -11.949757 , -2.612962, 1.998007, 642938432.000000, -6.300000,  17.430000,  231.210007, 0.000000,  0.000000 
 1059136.000000, -13.823336 , -1.615155, 1.710868, 642958464.000000, 53.480000,  52.990002,  211.190002, 0.000000,  0.000000 
 1079104.000000, -16.840685 , -2.120041, 1.720440, 642978432.000000, 53.689999,  84.980003,  193.130005, 0.000000,  0.000000 
 1099392.000000, -20.300707 , -3.397808, 1.871187, 642998400.000000, 26.880001,  115.639999,  178.639999, 0.000000,  0.000000 
 1119104.000000, -22.152750 , -4.299902, 1.469193, 643018752.000000, 12.530000,  131.389999,  161.139999, 0.000000,  0.000000 
 1139136.000000, -22.911278 , -4.027121, 1.789831, 643038400.000000, 25.830000,  121.870003,  153.789993, 0.000000,  0.000000 
 1159040.000000, -19.468006 , -3.005385, 2.002793, 643058432.000000, 42.420002,  120.540001,  148.820007, 0.000000,  0.000000 
 1179072.000000, -15.823736 , -2.129612, 2.732604, 643078400.000000, 41.160000,  95.340004,  147.630005, 0.000000,  0.000000 
 1199360.000000, -13.055241 , -2.148755, 3.093920, 643098368.000000, 20.299999,  77.980003,  141.960007, 0.000000,  0.000000 
 1219008.000000, -10.753345 , -2.443072, 3.366701, 643118656.000000, -9.520000,  69.930000,  131.110001, 0.000000,  0.000000 
 1239040.000000, -9.025726 , -3.041277, 3.818945, 643138368.000000, -31.219999,  59.990002,  119.209999, 0.000000,  0.000000 
 1259008.000000, -7.747960 , -3.510271, 4.144369, 643158336.000000, -37.099998,  48.439999,  105.139999, 0.000000,  0.000000 
 1278976.000000, -7.109076 , -3.443272, 3.926622, 643178304.000000, -32.619999,  38.709999,  88.550003, 0.000000,  0.000000 
 1299328.000000, -7.633104 , -2.258825, 3.397808, 643198336.000000, -23.660000,  31.710001,  69.019997, 0.000000,  0.000000 
 1318976.000000, -8.709875 , -1.222732, 2.608176, 643218624.000000, -19.950001,  31.290001,  47.110001, 0.000000,  0.000000 
 1338944.000000, -9.257831 , -0.787239, 2.318645, 643238272.000000, -30.100000,  29.400000,  25.270000, 0.000000,  0.000000 
 1358976.000000, -8.712267 , -0.835095, 2.273181, 643258304.000000, -59.570000,  14.630000,  0.630000, 0.000000,  0.000000 
 1378944.000000, -8.008778 , -1.462015, 2.581856, 643278272.000000, -93.449997,  -1.750000,  -15.120000, 0.000000,  0.000000 
 1399232.000000, -7.422535 , -1.751546, 2.821138, 643298240.000000, -113.470001,  -9.310000,  -29.190001, 0.000000,  0.000000 
 1418944.000000, -6.661618 , -1.648655, 2.589034, 643318592.000000, -113.190002,  -14.070000,  -42.770000, 0.000000,  0.000000 
 1438912.000000, -5.773881 , -0.641276, 2.323431, 643338240.000000, -97.510002,  -21.910000,  -53.270000, 0.000000,  0.000000 
 1458880.000000, -4.577469 , 0.332602, 2.155933, 643358208.000000, -71.050003,  -30.030001,  -56.980000, 0.000000,  0.000000 
 1478912.000000, -3.933800 , 1.184447, 1.677369, 643378240.000000, -38.080002,  -37.590000,  -48.160000, 0.000000,  0.000000 
 1499200.000000, -3.967300 , 2.019542, 1.036092, 643398208.000000, -31.080000,  -35.630001,  -41.930000, 0.000000,  0.000000 
 1518848.000000, -3.972085 , 1.141376, 0.385244, 643418496.000000, -48.299999,  -26.950001,  -30.100000, 0.000000,  0.000000 
 1538880.000000, -4.864608 , -0.923629, 0.303888, 643438208.000000, -74.550003,  -21.070000,  -13.930000, 0.000000,  0.000000 
 1558848.000000, -7.049256 , -1.811367, 1.289732, 643458176.000000, -103.389999,  -5.530000,  -11.760000, 0.000000,  0.000000 
 1578816.000000, -9.202796 , -1.768296, 2.392823, 643478144.000000, -114.379997,  18.410000,  -15.890000, 0.000000,  0.000000 
 1599168.000000, -10.858629 , -1.514657, 2.902494, 643498176.000000, -89.110001,  29.540001,  -8.960000, 0.000000,  0.000000 
 1618816.000000, -11.985649 , -1.138984, 3.036492, 643518464.000000, -49.770000,  23.799999,  4.200000, 0.000000,  0.000000 
 1638784.000000, -12.679568 , -0.823131, 3.476771, 643538112.000000, -20.370001,  20.650000,  13.440001, 0.000000,  0.000000 
 1658816.000000, -12.504892 , -0.619741, 4.015156, 643558144.000000, -7.770000,  18.410000,  20.370001, 0.000000,  0.000000 
 1678784.000000, -12.258430 , -0.703490, 4.048656, 643578112.000000, 6.930000,  15.890000,  29.680000, 0.000000,  0.000000 
 1699072.000000, -12.507284 , -1.179662, 4.003192, 643598080.000000, 21.139999,  18.760000,  33.040001, 0.000000,  0.000000 
 1718784.000000, -13.210773 , -2.148755, 3.969693, 643618432.000000, 24.990000,  24.430000,  30.730000, 0.000000,  0.000000 
 1738752.000000, -14.505291 , -3.787838, 3.761517, 643638080.000000, 19.250000,  24.570000,  24.010000, 0.000000,  0.000000 
 1758720.000000, -16.280766 , -5.278566, 3.572484, 643658048.000000, 21.280001,  29.190001,  17.219999, 0.000000,  0.000000 
 1778752.000000, -16.756937 , -5.048856, 3.249453, 643678080.000000, 39.200001,  34.720001,  7.140000, 0.000000,  0.000000 
 1799040.000000, -14.323436 , -2.746960, 2.739782, 643698048.000000, 71.120003,  20.230000,  -6.440000, 0.000000,  0.000000 
 1818688.000000, -10.939985 , -0.650848, 2.806781, 643718336.000000, 106.610001,  -15.540000,  -22.750000, 0.000000,  0.000000 
 1838720.000000, -8.599805 , -0.016750, 2.830709, 643738048.000000, 118.510002,  -46.759998,  -45.849998, 0.000000,  0.000000 
 1858688.000000, -7.910671 , -0.583849, 3.110669, 643758016.000000, 105.629997,  -59.430000,  -76.720001, 0.000000,  0.000000 
 1878656.000000, -9.078369 , -1.296910, 2.792424, 643777984.000000, 84.279999,  -54.950001,  -105.699997, 0.000000,  0.000000 
 1899008.000000, -10.683953 , -1.902294, 1.828116, 643798016.000000, 64.820000,  -41.299999,  -120.959999, 0.000000,  0.000000 
 1918656.000000, -11.265409 , -2.612962, 1.244268, 643818304.000000, 51.450001,  -37.939999,  -127.750000, 0.000000,  0.000000 
 1938624.000000, -10.743774 , -2.871387, 1.048056, 643857984.000000, 38.080002,  -71.750000,  -133.630005, 703846592.000000,  1011.268250 
 1958592.000000, -9.791430 , -2.486143, 0.882952, 0.000000, 0.000000,  0.000000,  0.000000, 0.000000,  0.000000 
 1978624.000000, -9.236296 , -1.761117, 0.792024, 643877952.000000, 49.490002,  -83.300003,  -129.009995, 0.000000,  0.000000 
 1998912.000000, -8.932407 , -1.119841, 0.452243, 643897920.000000, 56.209999,  -86.449997,  -126.349998, 0.000000,  0.000000 
 2018560.000000, -8.307880 , -1.052842, 0.306281, 643918272.000000, 47.459999,  -85.190002,  -124.110001, 0.000000,  0.000000 
 2038592.000000, -7.408179 , -1.442872, 0.349352, 643937920.000000, 31.290001,  -86.800003,  -121.029999, 0.000000,  0.000000 
 2058560.000000, -6.714260 , -1.600798, 0.547956, 643957888.000000, 19.670000,  -87.639999,  -119.000000, 0.000000,  0.000000 
 2078528.000000, -6.314659 , -1.686940, 0.495314, 643977856.000000, 16.240000,  -84.489998,  -116.129997, 0.000000,  0.000000 
 2098880.000000, -6.223732 , -1.801795, 0.437887, 643997888.000000, 19.950001,  -78.889999,  -114.169998, 0.000000,  0.000000 
 2118528.000000, -6.640083 , -1.902294, 0.576670, 644018176.000000, 28.490000,  -70.559998,  -109.410004, 0.000000,  0.000000 
 2138560.000000, -7.350751 , -1.952543, 0.902094, 644037824.000000, 39.480000,  -58.380001,  -98.840004, 0.000000,  0.000000 
 2158528.000000, -8.446664 , -1.861616, 0.684347, 644057856.000000, 52.990002,  -45.150002,  -84.279999, 0.000000,  0.000000 
 2178496.000000, -9.442079 , -1.667797, 0.107677, 644077824.000000, 66.779999,  -34.439999,  -68.669998, 0.000000,  0.000000 
 2198784.000000, -9.533006 , -1.263410, -0.148355, 644097792.000000, 75.529999,  -23.940001,  -46.130001, 0.000000,  0.000000 
 2218496.000000, -9.566505 , -1.105484, 0.313460, 644118144.000000, 74.480003,  -20.370001,  -22.049999, 0.000000,  0.000000 
 2238464.000000, -10.380065 , -0.430708, 0.768096, 644137792.000000, 62.720001,  -6.510000,  -5.530000, 0.000000,  0.000000 
 2258432.000000, -11.373087 , 0.112463, 1.292124, 644157760.000000, 50.540001,  25.340000,  11.060000, 0.000000,  0.000000 
 2278464.000000, -11.799009 , 0.179462, 2.055435, 644177792.000000, 45.080002,  41.720001,  18.549999, 0.000000,  0.000000 
 2298752.000000, -12.480963 , 0.399601, 1.710868, 644197760.000000, 28.910000,  60.340000,  27.580000, 0.000000,  0.000000 
 2318400.000000, -12.926028 , 0.284746, 1.380659, 644218048.000000, 13.300000,  76.440002,  36.259998, 0.000000,  0.000000 
 2338432.000000, -14.239687 , -0.598206, 1.411765, 644237760.000000, 5.880000,  99.959999,  50.049999, 0.000000,  0.000000 
 2358400.000000, -16.185053 , -1.155733, 2.112862, 644257728.000000, 0.070000,  121.099998,  63.279999, 0.000000,  0.000000 
 2378368.000000, -17.230717 , -0.961915, 2.218147, 644277696.000000, -4.900000,  140.770004,  78.540001, 0.000000,  0.000000 
 2398720.000000, -15.158531 , -0.559920, 2.361716, 644297728.000000, 0.210000,  143.990005,  100.870003, 0.000000,  0.000000 
 2418368.000000, -12.040684 , -0.296710, 3.069991, 644318016.000000, 9.940000,  119.349998,  120.540001, 0.000000,  0.000000 
 2438336.000000, -10.169496 , -0.275175, 3.716053, 644337664.000000, 14.350000,  94.989998,  132.089996, 0.000000,  0.000000 
 2458368.000000, -9.932607 , -0.588634, 3.751946, 644357696.000000, 9.170000,  91.910004,  129.990005, 0.000000,  0.000000 
 2478336.000000, -10.736595 , -0.906880, 3.237489, 644377664.000000, 8.890000,  99.540001,  119.770004, 0.000000,  0.000000 
 2498624.000000, -11.538191 , -1.196411, 2.837888, 644397632.000000, 17.920000,  104.860001,  108.360001, 0.000000,  0.000000 
 2518336.000000, -11.516656 , -0.976272, 3.101098, 644417984.000000, 29.260000,  98.419998,  98.349998, 0.000000,  0.000000 
 2538304.000000, -10.559525 , -0.155533, 2.311467, 644437632.000000, 36.259998,  80.709999,  91.629997, 0.000000,  0.000000 
 2558272.000000, -9.442079 , 0.397209, 1.835295, 644457600.000000, 40.670002,  58.730000,  87.080002, 0.000000,  0.000000 
 2578304.000000, -8.331808 , 0.605384, 1.976472, 644477632.000000, 35.560001,  43.049999,  83.930000, 0.000000,  0.000000 
 2598720.000000, -7.190433 , 0.346959, 2.187040, 644497600.000000, 21.210001,  32.340000,  81.830002, 0.000000,  0.000000 
 2618240.000000, -6.340980 , -0.002393, 2.244468, 644518016.000000, 3.150000,  25.410000,  77.209999, 0.000000,  0.000000 
 2638272.000000, -6.039484 , -0.086142, 2.117648, 644537600.000000, -13.370000,  26.320000,  71.750000, 0.000000,  0.000000 
 2658240.000000, -6.228518 , -0.155533, 1.966900, 644557568.000000, -28.070000,  36.049999,  71.400002, 0.000000,  0.000000 
 2678208.000000, -7.070791 , -0.277567, 1.818545, 644577536.000000, -44.799999,  47.740002,  72.730003, 0.000000,  0.000000 
 2698560.000000, -7.898707 , -0.803988, 1.741975, 644597568.000000, -63.490002,  57.330002,  74.690002, 0.000000,  0.000000 
 2718208.000000, -8.702696 , -1.110270, 1.938186, 644617856.000000, -78.050003,  60.480000,  79.029999, 0.000000,  0.000000 
 2738176.000000, -9.650253 , -1.028914, 2.249253, 644637504.000000, -90.580002,  57.959999,  81.760002, 0.000000,  0.000000 
 2758208.000000, -10.667203 , -0.722632, 2.337788, 644657536.000000, -89.669998,  57.540001,  82.739998, 0.000000,  0.000000 
 2778176.000000, -11.320443 , -1.098306, 2.553142, 644677504.000000, -97.790001,  56.910000,  83.090004, 0.000000,  0.000000 
 2798464.000000, -10.985448 , -1.983650, 3.192025, 644697472.000000, -115.150002,  47.950001,  74.830002, 0.000000,  0.000000 
 2818304.000000, -10.509278 , -2.857030, 4.182654, 644717824.000000, -124.529999,  31.500000,  63.420002, 0.000000,  0.000000 
 2838144.000000, -10.817951 , -1.923829, 4.910072, 644737664.000000, -113.820000,  21.139999,  43.750000, 0.000000,  0.000000 
 2858112.000000, -11.411370 , -0.945165, 4.429115, 644757440.000000, -87.220001,  17.639999,  17.360001, 0.000000,  0.000000 
 2878144.000000, -12.138789 , -1.074377, 4.283153, 644777472.000000, -61.320000,  15.960000,  -7.770000, 0.000000,  0.000000 
 2898432.000000, -13.411771 , -2.481357, 4.488935, 644797440.000000, -53.830002,  15.050000,  -33.459999, 0.000000,  0.000000 
 2918080.000000, -15.524633 , -3.570091, 4.766503, 644817728.000000, -43.400002,  19.950001,  -54.529999, 0.000000,  0.000000 
 2938112.000000, -17.197216 , -3.438486, 4.386044, 644857408.000000, 12.180000,  10.360000,  -83.230003, 704846016.000000,  1011.255981 
 2958080.000000, -15.383456 , -2.225325, 3.605984, 0.000000, 0.000000,  0.000000,  0.000000, 0.000000,  0.000000 
 2978048.000000, -11.294124 , -0.825524, 3.457629, 644877376.000000, 45.779999,  -31.710001,  -88.410004, 0.000000,  0.000000 
 2998336.000000, -8.796017 , -0.251246, 3.134598, 644897408.000000, 74.199997,  -78.190002,  -96.180000, 0.000000,  0.000000 
 3018112.000000, -8.669197 , -0.581456, 2.892922, 644917696.000000, 84.629997,  -89.250000,  -116.550003, 0.000000,  0.000000 
 3038848.000000, -10.459028 , -1.483550, 2.861816, 644937472.000000, 81.830002,  -74.760002,  -141.119995, 0.000000,  0.000000 
 3058112.000000, -12.473784 , -2.014757, 2.648855, 644958144.000000, 82.040001,  -56.000000,  -157.850006, 0.000000,  0.000000 
 3078080.000000, -13.488340 , -1.557728, 2.323431, 644977408.000000, 97.370003,  -57.820000,  -165.759995, 0.000000,  0.000000 
 3098432.000000, -13.081561 , -0.713061, 1.265803, 644997376.000000, 122.709999,  -77.769997,  -162.190002, 0.000000,  0.000000 
 3118080.000000, -11.691331 , -0.485743, 0.476172, 645017728.000000, 131.529999,  -105.699997,  -155.330002, 0.000000,  0.000000 
 3138176.000000, -10.939985 , -0.701097, 0.533599, 645037376.000000, 116.129997,  -132.440002,  -147.350006, 0.000000,  0.000000 
 3158080.000000, -10.600205 , -0.926022, 0.830309, 645057472.000000, 92.260002,  -130.410004,  -142.169998, 0.000000,  0.000000 
 3178112.000000, -10.033106 , -0.930808, 0.897308, 645077376.000000, 72.800003,  -125.440002,  -133.559998, 0.000000,  0.000000 
 3198336.000000, -9.439686 , -0.976272, 0.789631, 645097408.000000, 67.970001,  -124.739998,  -124.599998, 0.000000,  0.000000 
 3217984.000000, -8.640482 , -0.997807, 0.574277, 645117696.000000, 67.129997,  -124.320000,  -114.099998, 0.000000,  0.000000 
 3238080.000000, -7.953743 , -1.217947, 0.356531, 645137280.000000, 60.900002,  -122.639999,  -101.150002, 0.000000,  0.000000 
 3257984.000000, -7.491928 , -1.392623, 0.323031, 645157376.000000, 51.799999,  -119.279999,  -90.370003, 0.000000,  0.000000 
 3278016.000000, -7.573284 , -1.440479, 0.282353, 645177280.000000, 45.009998,  -111.930000,  -79.239998, 0.000000,  0.000000 
 3298304.000000, -8.080563 , -1.447658, 0.095713, 645197312.000000, 37.170002,  -99.190002,  -67.970001, 0.000000,  0.000000 
 3317952.000000, -8.587841 , -1.514657, -0.064606, 645217600.000000, 28.630001,  -83.720001,  -55.230000, 0.000000,  0.000000 
 3337984.000000, -8.616554 , -1.579263, 0.038285, 645237248.000000, 22.750000,  -71.680000,  -42.560001, 0.000000,  0.000000 
 3357952.000000, -8.331808 , -1.210768, -0.043071, 645257344.000000, 19.740000,  -63.700001,  -31.010000, 0.000000,  0.000000 
 3377920.000000, -8.219346 , -0.945165, -0.366102, 645277248.000000, 17.080000,  -56.700001,  -21.350000, 0.000000,  0.000000 
 3398272.000000, -8.137990 , -0.098106, -0.466600, 645297280.000000, 14.910000,  -44.310001,  -15.610000, 0.000000,  0.000000 
 3417920.000000, -8.322237 , 0.564706, 0.440279, 645317568.000000, 9.240000,  -24.430000,  -7.000000, 0.000000,  0.000000 
 3437952.000000, -9.707682 , 0.378066, 1.639083, 645337216.000000, -7.000000,  4.410000,  1.960000, 0.000000,  0.000000 
 3457856.000000, -10.990234 , -0.217747, 1.945365, 645357248.000000, -29.330000,  41.230000,  5.390000, 0.000000,  0.000000 
 3478912.000000, -12.287145 , -0.691526, 1.387837, 645377152.000000, -39.970001,  65.099998,  16.170000, 0.000000,  0.000000 
 3499136.000000, -14.242079 , -0.969093, 1.696511, 645398208.000000, -47.950001,  84.559998,  28.070000, 0.000000,  0.000000 
 3518784.000000, -16.670795 , -0.677169, 2.378466, 645418432.000000, -61.250000,  113.610001,  41.020000, 0.000000,  0.000000 
 3538816.000000, -17.005791 , -0.512064, 2.828316, 645438144.000000, -67.550003,  134.330002,  58.520000, 0.000000,  0.000000 
 3558784.000000, -14.500504 , -0.076570, 2.775674, 645458176.000000, -61.810001,  127.820000,  87.150002, 0.000000,  0.000000 
 3579264.000000, -12.100503 , -0.373280, 3.024528, 645478080.000000, -56.139999,  102.340004,  110.949997, 0.000000,  0.000000 
 3599424.000000, -10.904092 , -1.088734, 3.823731, 645498560.000000, -62.580002,  90.790001,  123.970001, 0.000000,  0.000000 
 3619136.000000, -11.236694 , -1.239482, 4.864608, 645518784.000000, -71.470001,  97.090004,  130.970001, 0.000000,  0.000000 
 3639232.000000, -12.287145 , -1.110270, 4.895715, 645538432.000000, -61.670002,  109.059998,  129.710007, 0.000000,  0.000000 
 3659136.000000, -12.358929 , -0.629312, 4.261617, 645558528.000000, -31.430000,  109.830002,  126.279999, 0.000000,  0.000000 
 3679552.000000, -11.176874 , -0.205783, 3.424129, 645578432.000000, -8.680000,  87.150002,  117.809998, 0.000000,  0.000000 
 3699712.000000, -10.107283 , 0.148355, 3.031706, 645598848.000000, -6.440000,  59.779999,  107.870003, 0.000000,  0.000000 
 3719424.000000, -9.231510 , 0.093320, 2.770889, 645619072.000000, -20.510000,  43.959999,  94.639999, 0.000000,  0.000000 
 3739520.000000, -8.386844 , -0.122034, 2.883351, 645638784.000000, -38.990002,  34.090000,  83.300003, 0.000000,  0.000000 
 3759424.000000, -7.759924 , -0.031107, 2.215754, 645658816.000000, -48.580002,  25.410000,  75.739998, 0.000000,  0.000000 
 3779200.000000, -7.302894 , -0.172283, 1.883151, 645678720.000000, -51.450001,  19.180000,  74.480003, 0.000000,  0.000000 
 3800768.000000, -7.037291 , -0.533599, 1.761117, 645698496.000000, -60.130001,  16.309999,  77.139999, 0.000000,  0.000000 
 3820416.000000, -6.865008 , -0.969093, 1.751546, 645720064.000000, -77.489998,  13.720000,  80.360001, 0.000000,  0.000000 
 3840512.000000, -7.022934 , -1.409373, 1.442872, 645739776.000000, -92.470001,  15.330000,  89.459999, 0.000000,  0.000000 
 3860416.000000, -7.661818 , -1.878366, 1.210768, 645759808.000000, -104.720001,  20.930000,  99.400002, 0.000000,  0.000000 
 3880512.000000, -8.441878 , -2.273181, 1.490728, 645779712.000000, -110.040001,  28.910000,  107.730003, 0.000000,  0.000000 
 3900672.000000, -9.702895 , -2.268396, 2.428715, 645799808.000000, -108.150002,  33.810001,  116.620003, 0.000000,  0.000000 
 3920384.000000, -11.239087 , -1.770689, 2.653640, 645820032.000000, -100.309998,  39.130001,  122.639999, 0.000000,  0.000000 
 3940416.000000, -12.500106 , -1.902294, 2.603391, 645839744.000000, -93.449997,  43.400002,  124.739998, 0.000000,  0.000000 
 3960384.000000, -12.543176 , -2.591427, 2.773281, 645859712.000000, -94.360001,  41.020000,  123.340004, 705848384.000000,  1011.243408 
 3980416.000000, -11.688939 , -2.706282, 3.361916, 645879680.000000, -101.010002,  29.540001,  113.889999, 0.000000,  0.000000 
 4000640.000000, -10.872985 , -2.318645, 3.457629, 645899776.000000, -98.559998,  18.549999,  97.790001, 0.000000,  0.000000 
 4020288.000000, -10.868200 , -1.797010, 3.919443, 645919936.000000, -81.620003,  18.549999,  74.480003, 0.000000,  0.000000 
 4040256.000000, -11.423335 , -1.756332, 4.240082, 645939648.000000, -62.160000,  27.230000,  45.990002, 0.000000,  0.000000 
 4060224.000000, -12.552748 , -2.452643, 4.364508, 645959552.000000, -41.090000,  35.840000,  20.230000, 0.000000,  0.000000 
 4080256.000000, -13.591233 , -3.548556, 4.256832, 645979584.000000, -22.190001,  44.660000,  -3.850000, 0.000000,  0.000000 
 4100544.000000, -13.945370 , -3.940979, 4.067799, 645999552.000000, -7.210000,  42.349998,  -27.090000, 0.000000,  0.000000 
 4120192.000000, -12.966705 , -2.768496, 3.955336, 646019840.000000, 16.100000,  33.529999,  -45.639999, 0.000000,  0.000000 
 4140224.000000, -10.224532 , -1.476372, 3.735196, 646039552.000000, 47.250000,  12.600000,  -59.779999, 0.000000,  0.000000 
 4160192.000000, -8.224132 , -1.737189, 3.830909, 646059584.000000, 70.279999,  -17.850000,  -72.870003, 0.000000,  0.000000 
 4180160.000000, -8.238488 , -2.864209, 4.194618, 646079488.000000, 74.410004,  -28.139999,  -96.320000, 0.000000,  0.000000 
 4200512.000000, -10.107283 , -2.679961, 3.890730, 646099520.000000, 84.699997,  -17.010000,  -120.889999, 0.000000,  0.000000 
 4220160.000000, -12.033505 , -1.390230, 2.206182, 646119808.000000, 122.709999,  -3.920000,  -137.970001, 0.000000,  0.000000 
 4240128.000000, -12.715459 , -0.806381, 1.540978, 646139456.000000, 160.369995,  -13.300000,  -146.720001, 0.000000,  0.000000 
 4260160.000000, -11.911470 , -0.885344, 1.835295, 646159488.000000, 154.279999,  -41.860001,  -154.279999, 0.000000,  0.000000 
 4280128.000000, -11.243874 , -0.210568, 2.727818, 646179456.000000, 128.449997,  -70.769997,  -160.509995, 0.000000,  0.000000 
 4300416.000000, -11.097912 , 0.256032, 1.890330, 646199424.000000, 113.889999,  -84.349998,  -165.550003, 0.000000,  0.000000 
 4320128.000000, -10.291530 , 0.184247, 1.363909, 646219776.000000, 105.349998,  -90.370003,  -168.839996, 0.000000,  0.000000 
 4340096.000000, -9.008978 , -0.540778, 1.361516, 646239424.000000, 81.129997,  -102.760002,  -166.669998, 0.000000,  0.000000 
 4360064.000000, -8.118847 , -1.320838, 1.658226, 646259392.000000, 52.430000,  -110.599998,  -163.100006, 0.000000,  0.000000 
 4380096.000000, -7.664211 , -1.739582, 1.691726, 646279424.000000, 37.240002,  -108.010002,  -157.500000, 0.000000,  0.000000 
 4400384.000000, -7.680960 , -1.600798, 1.426122, 646299392.000000, 42.279999,  -100.239998,  -148.399994, 0.000000,  0.000000 
 4420032.000000, -7.518249 , -1.562513, 1.086342, 646319680.000000, 54.670002,  -92.959999,  -135.520004, 0.000000,  0.000000 
 4440064.000000, -7.532606 , -1.600798, 1.234696, 646339392.000000, 58.590000,  -87.570000,  -118.160004, 0.000000,  0.000000 
 4460032.000000, -8.097312 , -1.667797, 0.842274, 646359360.000000, 56.209999,  -82.250000,  -101.639999, 0.000000,  0.000000 
 4480000.000000, -9.131011 , -1.749153, 0.509671, 646379328.000000, 55.650002,  -70.139999,  -82.320000, 0.000000,  0.000000 
 4500288.000000, -10.102496 , -1.981257, 0.198604, 646399360.000000, 54.389999,  -56.630001,  -59.779999, 0.000000,  0.000000 
 4520000.000000, -10.698310 , -2.177469, 0.344566, 646419648.000000, 51.170002,  -45.920002,  -34.230000, 0.000000,  0.000000 
 4539968.000000, -11.617154 , -2.127219, 0.634098, 646439296.000000, 48.509998,  -38.150002,  -10.430000, 0.000000,  0.000000 
 4560000.000000, -13.265808 , -1.713261, 0.701097, 646459328.000000, 45.990002,  -25.760000,  9.380000, 0.000000,  0.000000 
 4579968.000000, -13.684553 , -1.170090, 0.863809, 646479296.000000, 43.750000,  -4.480000,  20.719999, 0.000000,  0.000000 
 4600256.000000, -12.138789 , -0.028714, -0.045464, 646499264.000000, 51.939999,  -4.760000,  31.150000, 0.000000,  0.000000 
 4619968.000000, -10.983055 , 1.383051, -0.153141, 646519552.000000, 65.239998,  -18.760000,  35.279999, 0.000000,  0.000000 
 4639936.000000, -11.913863 , 1.392623, 0.543171, 646539264.000000, 58.939999,  -5.880000,  31.219999, 0.000000,  0.000000 
 4659904.000000, -14.598611 , 0.681954, 1.356731, 646559232.000000, 30.030001,  37.520000,  19.950001, 0.000000,  0.000000 
 4679936.000000, -15.718451 , 0.667598, 1.564906, 646579264.000000, 15.260000,  81.690002,  15.330000, 0.000000,  0.000000 
 4700224.000000, -12.835101 , 0.751346, 1.409373, 646599232.000000, 0.980000,  93.379997,  20.930000, 0.000000,  0.000000 
 4719872.000000, -9.705289 , 0.227318, 1.964507, 646619520.000000, 2.380000,  83.160004,  40.110001, 0.000000,  0.000000 
 4739904.000000, -8.946764 , 0.267996, 2.495714, 646639232.000000, -17.990000,  57.610001,  56.630001, 0.000000,  0.000000 
 4759872.000000, -8.707481 , 0.124427, 2.598605, 646659200.000000, -46.830002,  61.950001,  66.639999, 0.000000,  0.000000 
 4779840.000000, -9.504292 , -0.117248, 2.469393, 646679168.000000, -56.279999,  81.340004,  76.440002, 0.000000,  0.000000 
 4800128.000000, -10.394422 , -0.181855, 2.146362, 646699200.000000, -45.500000,  96.879997,  84.489998, 0.000000,  0.000000 
 4819840.000000, -10.681561 , 0.184247, 2.294717, 646719488.000000, -24.990000,  100.870003,  89.949997, 0.000000,  0.000000 
 4839808.000000, -10.234102 , 0.811167, 2.677568, 646739136.000000, -11.200000,  94.500000,  95.760002, 0.000000,  0.000000 
 4859776.000000, -9.561719 , 1.210768, 2.857030, 646759168.000000, -10.990000,  83.930000,  98.489998, 0.000000,  0.000000 
 4879808.000000, -8.843873 , 1.210768, 2.935993, 646779136.000000, -22.260000,  77.559998,  94.989998, 0.000000,  0.000000 
 4900096.000000, -8.212167 , 0.971486, 2.938386, 646799104.000000, -43.750000,  73.010002,  86.800003, 0.000000,  0.000000 
 4919744.000000, -7.690532 , 0.406780, 2.610569, 646819456.000000, -64.330002,  67.550003,  81.199997, 0.000000,  0.000000 
 4939776.000000, -7.343572 , -0.593420, 2.450250, 646859072.000000, -85.959999,  56.630001,  81.970001, 706847680.000000,  1011.227783 
 4959744.000000, -7.202396 , -1.150948, 2.426322, 0.000000, 0.000000,  0.000000,  0.000000, 0.000000,  0.000000 
 4979712.000000, -7.393822 , -1.222732, 2.435893, 646879040.000000, -83.720001,  54.459999,  85.959999, 0.000000,  0.000000 
 5000064.000000, -8.027920 , -1.184447, 2.373680, 646899072.000000, -77.419998,  56.279999,  93.309998, 0.000000,  0.000000 
 5019712.000000, -9.042477 , -1.244268, 2.500499, 646919360.000000, -75.809998,  61.110001,  98.699997, 0.000000,  0.000000 
 5039680.000000, -10.394422 , -1.380659, 2.835495, 646939008.000000, -79.660004,  64.540001,  102.970001, 0.000000,  0.000000 
 5060480.000000, -11.921042 , -1.457229, 3.043670, 646959040.000000, -82.809998,  66.849998,  106.540001, 0.000000,  0.000000 
 5079744.000000, -12.715459 , -1.540978, 3.225525, 646979840.000000, -84.139999,  66.150002,  106.330002, 0.000000,  0.000000 
 5100928.000000, -12.095718 , -1.660619, 3.438486, 646999104.000000, -82.739998,  54.740002,  104.230003, 0.000000,  0.000000 
 5120512.000000, -10.913664 , -1.619941, 3.732803, 647020224.000000, -78.750000,  35.349998,  96.879997, 0.000000,  0.000000 
 5140608.000000, -10.466206 , -1.395016, 3.751946, 647039872.000000, -73.709999,  24.010000,  80.989998, 0.000000,  0.000000 
 5160576.000000, -10.497313 , -1.227518, 3.964907, 647059904.000000, -63.000000,  22.750000,  57.820000, 0.000000,  0.000000 
 5180480.000000, -11.255837 , -1.385444, 4.122833, 647079936.000000, -45.220001,  24.639999,  33.459999, 0.000000,  0.000000 
 5201280.000000, -12.957134 , -2.172683, 4.115655, 647099840.000000, -23.100000,  28.420000,  11.550000, 0.000000,  0.000000 
 5220928.000000, -15.108281 , -2.837888, 4.103691, 647120576.000000, 0.350000,  35.420002,  -7.770000, 0.000000,  0.000000 
 5240896.000000, -16.132410 , -2.447858, 3.634698, 647140224.000000, 22.260000,  38.290001,  -25.690001, 0.000000,  0.000000 
 5260928.000000, -14.079369 , -1.196411, 3.404987, 647160192.000000, 46.060001,  24.430000,  -37.380001, 0.000000,  0.000000 
 5280896.000000, -10.504492 , 0.203390, 3.302095, 647180224.000000, 69.160004,  -11.200000,  -43.959999, 0.000000,  0.000000 
 5301568.000000, -8.054241 , 0.284746, 3.349952, 647200192.000000, 74.900002,  -47.810001,  -55.160000, 0.000000,  0.000000 
 5321152.000000, -7.506285 , -0.492921, 3.572484, 647220928.000000, 62.230000,  -58.170002,  -76.860001, 0.000000,  0.000000 
 5341120.000000, -8.755339 , -1.406980, 3.613162, 647240448.000000, 50.189999,  -48.369999,  -101.080002, 0.000000,  0.000000 
 5361216.000000, -10.420743 , -1.708475, 3.074777, 647260480.000000, 57.119999,  -33.740002,  -117.040001, 0.000000,  0.000000 
 5381120.000000, -11.373087 , -1.646262, 2.364109, 647280576.000000, 82.250000,  -32.130001,  -124.669998, 0.000000,  0.000000 
 5401216.000000, -11.461621 , -1.251446, 1.835295, 647300480.000000, 108.779999,  -51.380001,  -126.629997, 0.000000,  0.000000 
 5422144.000000, -11.069198 , -0.736989, 1.990828, 647320512.000000, 123.970001,  -75.669998,  -124.040001, 0.000000,  0.000000 
 5442176.000000, -10.619347 , 0.342174, 2.000400, 647341504.000000, 126.070000,  -95.620003,  -121.029999, 0.000000,  0.000000 
 5462272.000000, -10.114462 , 1.115055, 1.533799, 647361536.000000, 121.099998,  -109.270004,  -116.830002, 0.000000,  0.000000 
 5482112.000000, -9.159724 , 0.947558, 1.062413, 647381568.000000, 102.970001,  -118.860001,  -113.610001, 0.000000,  0.000000 
 5502528.000000, -8.456236 , -0.004786, 1.191626, 647401472.000000, 66.080002,  -128.660004,  -111.930000, 0.000000,  0.000000 
 5522112.000000, -8.159525 , -0.713061, 1.261017, 647421824.000000, 27.719999,  -126.699997,  -112.070000, 0.000000,  0.000000 
 5542144.000000, -7.951349 , -1.122234, 1.205983, 647441472.000000, 6.930000,  -120.680000,  -107.660004, 0.000000,  0.000000 
 5562176.000000, -7.637890 , -1.261017, 0.969093, 647461440.000000, 7.140000,  -115.779999,  -100.239998, 0.000000,  0.000000 
 5582080.000000, -7.635497 , -1.347159, 0.863809, 647481536.000000, 12.250000,  -111.090004,  -90.019997, 0.000000,  0.000000 
 5602432.000000, -8.126025 , -1.311267, 1.079163, 647501376.000000, 11.970000,  -101.220001,  -79.169998, 0.000000,  0.000000 
 5622080.000000, -9.016156 , -1.172483, 0.820738, 647521792.000000, 12.110000,  -86.029999,  -67.340004, 0.000000,  0.000000 
 5642112.000000, -9.676575 , -1.263410, 0.574277, 647541440.000000, 11.690000,  -71.889999,  -53.689999, 0.000000,  0.000000 
 5662080.000000, -9.920642 , -1.500300, 0.691526, 647561408.000000, 3.990000,  -60.970001,  -38.639999, 0.000000,  0.000000 
 5682048.000000, -9.954143 , -1.385444, 1.165305, 647581440.000000, -6.440000,  -50.820000,  -26.320000, 0.000000,  0.000000 
 5702400.000000, -10.143176 , -0.839881, 0.830309, 647601408.000000, -9.870000,  -37.799999,  -16.240000, 0.000000,  0.000000 
 5722048.000000, -10.399208 , -0.535992, 0.861416, 647621696.000000, -8.120000,  -23.240000,  -8.680000, 0.000000,  0.000000 
 5742016.000000, -10.549955 , -0.634098, 1.229911, 647641344.000000, -14.350000,  -4.970000,  -3.990000, 0.000000,  0.000000 
 5762112.000000, -11.306087 , -0.787239, 1.811367, 647661312.000000, -21.840000,  11.340000,  2.730000, 0.000000,  0.000000 
 5782016.000000, -12.629318 , -0.899701, 1.433301, 647681408.000000, -22.260000,  31.290001,  8.190000, 0.000000,  0.000000 
 5802368.000000, -14.452648 , -1.124627, 0.906880, 647701312.000000, -15.610000,  55.790001,  15.680000, 0.000000,  0.000000 
 5822016.000000, -15.838093 , -1.143769, 1.397408, 647721664.000000, -14.210000,  74.620003,  23.730000, 0.000000,  0.000000 
 5841984.000000, -15.397814 , -0.672383, 1.811367, 647741312.000000, -14.700000,  87.150002,  35.279999, 0.000000,  0.000000 
 5862016.000000, -13.277774 , -0.002393, 2.033899, 647761280.000000, -9.030000,  80.220001,  52.360001, 0.000000,  0.000000 
 5881920.000000, -11.069198 , -0.083749, 2.122434, 647781376.000000, -8.820000,  65.590004,  65.800003, 0.000000,  0.000000 
 5902272.000000, -9.473185 , -0.306281, 2.933600, 647801280.000000, -21.770000,  56.420002,  73.010002, 0.000000,  0.000000 
 5921920.000000, -9.102298 , -0.076570, 3.297310, 647821632.000000, -35.770000,  55.790001,  74.970001, 0.000000,  0.000000 
 5941888.000000, -9.925428 , 0.040678, 3.043670, 647861248.000000, -38.080002,  73.080002,  70.349998, 707849856.000000,  1011.211731 
 5961984.000000, -10.884951 , -0.181855, 2.708675, 0.000000, 0.000000,  0.000000,  0.000000, 0.000000,  0.000000 
 5981888.000000, -10.856236 , -0.133998, 2.687140, 647881280.000000, -37.520000,  70.840004,  66.779999, 0.000000,  0.000000 
 6002240.000000, -9.872787 , 0.208176, 2.763710, 647901184.000000, -38.080002,  55.299999,  66.709999, 0.000000,  0.000000 
 6021888.000000, -8.549555 , 0.370888, 2.648855, 647921536.000000, -40.670002,  36.119999,  68.040001, 0.000000,  0.000000 
 6041856.000000, -7.314859 , -0.138784, 2.586641, 647941184.000000, -50.820000,  23.170000,  68.320000, 0.000000,  0.000000 
 6061888.000000, -6.482157 , -0.574277, 2.837888, 647961152.000000, -67.970001,  17.360001,  66.570000, 0.000000,  0.000000 
 6081792.000000, -6.094519 , -0.662812, 2.615355, 647981184.000000, -80.500000,  16.660000,  65.730003, 0.000000,  0.000000 
 6102080.000000, -6.084948 , -0.787239, 2.218147, 648001088.000000, -75.809998,  19.740000,  69.440002, 0.000000,  0.000000 
 6121728.000000, -6.419943 , -1.165305, 1.978864, 648021376.000000, -65.379997,  24.920000,  74.900002, 0.000000,  0.000000 
 6141760.000000, -6.936793 , -1.371087, 1.990828, 648041088.000000, -60.130001,  29.680000,  82.110001, 0.000000,  0.000000 
 6161728.000000, -7.759924 , -1.533799, 2.096112, 648061056.000000, -59.010002,  33.389999,  89.389999, 0.000000,  0.000000 
 6181696.000000, -8.776874 , -1.428515, 2.165504, 648081024.000000, -53.270000,  37.939999,  96.879997, 0.000000,  0.000000 
 6202048.000000, -9.951750 , -1.533799, 2.055435, 648101056.000000, -49.980000,  41.230000,  103.320000, 0.000000,  0.000000 
 6221696.000000, -11.636297 , -1.622334, 2.354537, 648121344.000000, -48.650002,  48.930000,  110.320000, 0.000000,  0.000000 
 6241664.000000, -13.083955 , -1.615155, 2.828316, 648140992.000000, -51.869999,  59.150002,  113.120003, 0.000000,  0.000000 
 6261632.000000, -12.882957 , -1.361516, 3.153740, 648161024.000000, -55.510002,  58.869999,  114.099998, 0.000000,  0.000000 
 6281664.000000, -11.523834 , -1.643869, 3.538985, 648180992.000000, -61.740002,  42.490002,  109.620003, 0.000000,  0.000000 
 6301952.000000, -10.217353 , -1.897508, 3.706482, 648200960.000000, -65.519997,  25.340000,  97.790001, 0.000000,  0.000000 
 6321600.000000, -10.085747 , -2.268396, 4.187439, 648221312.000000, -59.150002,  18.969999,  76.090004, 0.000000,  0.000000 
 6341632.000000, -11.559726 , -2.490928, 4.302295, 648240960.000000, -41.860001,  26.180000,  49.070000, 0.000000,  0.000000 
 6361600.000000, -13.806586 , -2.675175, 3.799802, 648260928.000000, -12.040000,  40.459999,  22.260000, 0.000000,  0.000000 
 6381568.000000, -15.311671 , -2.744568, 3.649055, 648280896.000000, 24.570000,  49.630001,  1.120000, 0.000000,  0.000000 
 6401920.000000, -15.637095 , -2.438286, 3.567699, 648300928.000000, 51.450001,  39.410000,  -16.379999, 0.000000,  0.000000 
 6421568.000000, -13.677374 , -1.610370, 3.550949, 648321216.000000, 68.599998,  21.210001,  -31.639999, 0.000000,  0.000000 
 6441536.000000, -10.420743 , -1.222732, 3.589234, 648340864.000000, 81.900002,  -8.470000,  -43.119999, 0.000000,  0.000000 
 6461568.000000, -8.360522 , -1.301696, 3.672983, 648360896.000000, 91.349998,  -38.150002,  -57.119999, 0.000000,  0.000000 
 6481536.000000, -8.336594 , -1.579263, 3.701697, 648380864.000000, 95.129997,  -44.590000,  -80.639999, 0.000000,  0.000000 
 6501888.000000, -9.999605 , -0.995414, 3.005385, 648400832.000000, 104.300003,  -32.900002,  -103.180000, 0.000000,  0.000000 
 6521536.000000, -11.162518 , -0.449851, 2.136791, 648421184.000000, 119.419998,  -23.590000,  -118.440002, 0.000000,  0.000000 
 6541504.000000, -10.566705 , -0.756132, 2.024328, 648440832.000000, 114.660004,  -38.779999,  -125.230003, 0.000000,  0.000000 
 6561472.000000, -9.734003 , -1.131805, 2.340181, 648460800.000000, 89.110001,  -70.139999,  -128.800003, 0.000000,  0.000000 
 6581504.000000, -9.561719 , -1.131805, 2.409572, 648480832.000000, 66.150002,  -89.529999,  -132.580002, 0.000000,  0.000000 
 6601792.000000, -9.724431 , -0.844666, 1.902294, 648500800.000000, 59.709999,  -93.800003,  -135.309998, 0.000000,  0.000000 
 6621440.000000, -9.332008 , -0.433101, 1.466800, 648521088.000000, 59.709999,  -98.980003,  -135.309998, 0.000000,  0.000000 
 6641472.000000, -8.829515 , -0.514457, 1.232304, 648540800.000000, 52.849998,  -108.360001,  -129.430008, 0.000000,  0.000000 
 6661440.000000, -8.484949 , -0.971486, 1.392623, 648560768.000000, 35.630001,  -114.590004,  -122.150002, 0.000000,  0.000000 
 6681408.000000, -8.269595 , -1.292124, 1.421337, 648580736.000000, 17.780001,  -114.800003,  -114.239998, 0.000000,  0.000000 
 6701760.000000, -8.183454 , -1.507478, 1.103091, 648600768.000000, 7.840000,  -113.400002,  -105.279999, 0.000000,  0.000000 
 6721408.000000, -8.209774 , -1.677369, 0.789631, 648621056.000000, 6.860000,  -111.300003,  -94.570000, 0.000000,  0.000000 
 6741376.000000, -8.501699 , -1.818545, 0.634098, 648640704.000000, 8.190000,  -106.540001,  -83.160004, 0.000000,  0.000000 
 6761408.000000, -8.877372 , -1.773082, 0.813560, 648660736.000000, 10.080000,  -97.930000,  -70.559998, 0.000000,  0.000000 
 6781376.000000, -9.080762 , -1.457229, 0.397209, 648680704.000000, 13.510000,  -88.059998,  -58.590000, 0.000000,  0.000000 
 6801664.000000, -9.499505 , -1.378266, 0.143569, 648700672.000000, 16.799999,  -84.279999,  -47.180000, 0.000000,  0.000000 
 6821504.000000, -9.891929 , -1.375873, 0.236889, 648721024.000000, 14.700000,  -71.120003,  -38.709999, 0.000000,  0.000000 
 6841344.000000, -9.588040 , -1.174876, 0.409173, 648740864.000000, 6.510000,  -57.119999,  -29.889999, 0.000000,  0.000000 
 6861312.000000, -8.891729 , -0.631705, 0.741775, 648760640.000000, 3.710000,  -48.090000,  -24.780001, 0.000000,  0.000000 
 6881344.000000, -8.372486 , -0.203390, 0.813560, 648780672.000000, 3.920000,  -39.619999,  -21.770000, 0.000000,  0.000000 
 6901632.000000, -8.094919 , -0.287139, 0.866202, 648800640.000000, -3.570000,  -27.020000,  -19.600000, 0.000000,  0.000000 
 6921280.000000, -8.664411 , -0.720240, 1.174876, 648820928.000000, -21.070000,  -9.870000,  -16.940001, 0.000000,  0.000000 
 6941312.000000, -10.052249 , -0.906880, 1.691726, 648860608.000000, -52.080002,  41.930000,  -1.680000, 708849216.000000,  1011.189636 
 6961280.000000, -11.743973 , -1.564906, 1.631905, 0.000000, 0.000000,  0.000000,  0.000000, 0.000000,  0.000000 
 6981248.000000, -13.576876 , -2.124826, 1.593620, 648880576.000000, -52.849998,  62.650002,  14.280000, 0.000000,  0.000000 
 7001600.000000, -15.352350 , -2.490928, 2.237289, 648900608.000000, -53.689999,  78.680000,  31.780001, 0.000000,  0.000000 
 7021248.000000, -16.957933 , -2.072184, 2.950350, 648920896.000000, -48.720001,  91.279999,  53.830002, 0.000000,  0.000000 
 7041216.000000, -16.218552 , -1.021735, 2.998207, 648940544.000000, -35.139999,  101.150002,  80.779999, 0.000000,  0.000000 
 7061248.000000, -13.890336 , -0.643669, 3.596412, 648960576.000000, -19.320000,  91.910004,  110.110001, 0.000000,  0.000000 
 7081216.000000, -11.748759 , -0.655633, 4.649254, 648980544.000000, -14.700000,  84.209999,  129.570007, 0.000000,  0.000000 
 7101568.000000, -10.174281 , -0.538385, 4.960321, 649000512.000000, -14.490000,  77.699997,  136.289993, 0.000000,  0.000000 
 7122368.000000, -9.439686 , -0.641276, 4.929214, 649020864.000000, -13.790000,  74.830002,  140.910004, 0.000000,  0.000000 
 7141696.000000, -9.676575 , -0.911665, 4.752146, 649041728.000000, -1.890000,  69.370003,  126.910004, 0.000000,  0.000000 
 7161664.000000, -10.365707 , -0.631705, 4.201797, 649060992.000000, 2.800000,  69.790001,  120.470001, 0.000000,  0.000000 
 7181696.000000, -10.578669 , 0.011964, 3.522235, 649080960.000000, 16.379999,  68.949997,  106.330002, 0.000000,  0.000000 
 7201920.000000, -9.609575 , 0.117248, 3.156133, 649100992.000000, 24.500000,  57.330002,  88.900002, 0.000000,  0.000000 
 7222080.000000, -8.489735 , -0.358923, 2.986243, 649121216.000000, 10.640000,  35.349998,  73.570000, 0.000000,  0.000000 
 7241984.000000, -7.554141 , -0.787239, 3.098706, 649141376.000000, -13.790000,  16.100000,  61.670002, 0.000000,  0.000000 
 7262016.000000, -7.054041 , 0.050249, 3.213561, 649161344.000000, -29.820000,  7.560000,  50.049999, 0.000000,  0.000000 
 7282048.000000, -6.814759 , 0.174676, 2.373680, 649181312.000000, -29.190001,  5.040000,  42.209999, 0.000000,  0.000000 
 7302272.000000, -6.063413 , 0.124427, 1.921437, 649201344.000000, -24.360001,  1.820000,  40.459999, 0.000000,  0.000000 
 7322176.000000, -5.740381 , -0.253639, 1.880759, 649221568.000000, -39.689999,  -3.640000,  41.160000, 0.000000,  0.000000 
 7342080.000000, -5.565705 , -0.935594, 1.895115, 649241472.000000, -64.889999,  -5.810000,  45.080002, 0.000000,  0.000000 
 7362112.000000, -6.041877 , -1.473979, 2.019542, 649261440.000000, -84.419998,  -1.960000,  50.259998, 0.000000,  0.000000 
 7382080.000000, -7.046863 , -1.880759, 1.921437, 649281408.000000, -87.989998,  6.580000,  58.310001, 0.000000,  0.000000 
 7402368.000000, -7.733603 , -1.978864, 1.651048, 649301440.000000, -78.889999,  16.240000,  66.849998, 0.000000,  0.000000 
 7421824.000000, -8.496914 , -2.002793, 1.751546, 649321664.000000, -66.220001,  17.920000,  75.879997, 0.000000,  0.000000 
 7443136.000000, -11.444871 , -1.363909, 2.383251, 649341184.000000, -54.389999,  24.360001,  82.739998, 0.000000,  0.000000 
 7463104.000000, -12.679568 , -0.607777, 2.517249, 649362432.000000, -50.330002,  41.509998,  80.849998, 0.000000,  0.000000 
 7483200.000000, -11.303694 , 0.040678, 2.646462, 649382400.000000, -49.700001,  46.130001,  78.330002, 0.000000,  0.000000 
 7503360.000000, -9.468399 , 0.212961, 3.359523, 649402496.000000, -54.389999,  23.590000,  71.889999, 0.000000,  0.000000 
 7523136.000000, -9.174082 , 0.074178, 3.749553, 649422720.000000, -70.419998,  23.590000,  60.760002, 0.000000,  0.000000 
 7543040.000000, -9.317651 , -0.313460, 3.811767, 649442496.000000, -83.160004,  6.930000,  39.830002, 0.000000,  0.000000 
 7563072.000000, -9.951750 , -0.457029, 3.895515, 649462400.000000, -75.250000,  23.170000,  17.500000, 0.000000,  0.000000 
 7583104.000000, -11.088341 , -0.873380, 3.352344, 649482368.000000, -56.349998,  30.450001,  2.310000, 0.000000,  0.000000 
 7603456.000000, -13.196418 , -1.653440, 3.048456, 649502464.000000, -38.779999,  36.959999,  -7.980000, 0.000000,  0.000000 
 7623104.000000, -15.168103 , -2.280360, 3.376273, 649522752.000000, -28.980000,  46.480000,  -15.400000, 0.000000,  0.000000 
 7643008.000000, -15.450456 , -2.148755, 3.639483, 649542400.000000, -14.350000,  51.029999,  -15.750000, 0.000000,  0.000000 
 7663040.000000, -14.778071 , -1.215554, 4.153940, 649562368.000000, 8.120000,  38.779999,  -9.030000, 0.000000,  0.000000 
 7683072.000000, -13.057633 , -0.062213, 4.797609, 649582336.000000, 30.100000,  28.490000,  -5.950000, 0.000000,  0.000000 
 7703296.000000, -10.569098 , 0.227318, 4.675575, 649602368.000000, 45.500000,  17.219999,  -8.260000, 0.000000,  0.000000 
 7723072.000000, -8.492127 , 0.165105, 4.668397, 649622592.000000, 58.799999,  2.310000,  -17.219999, 0.000000,  0.000000 
 7742912.000000, -7.479963 , -0.189033, 4.027121, 649642368.000000, 66.919998,  -8.400000,  -36.189999, 0.000000,  0.000000 
 7762944.000000, -7.848458 , -0.928415, 3.682554, 649662272.000000, 70.419998,  -10.430000,  -54.320000, 0.000000,  0.000000 
 7782976.000000, -8.896514 , -1.725225, 3.400201, 649682304.000000, 72.449997,  -6.370000,  -63.980000, 0.000000,  0.000000 
 7803264.000000, -9.355937 , -2.270789, 3.010171, 649702336.000000, 76.650002,  -6.580000,  -67.129997, 0.000000,  0.000000 
 7822976.000000, -8.894121 , -2.199004, 2.773281, 649722560.000000, 86.800003,  -21.210001,  -66.220001, 0.000000,  0.000000 
 7842944.000000, -8.566305 , -1.753939, 2.610569, 649742336.000000, 100.379997,  -41.090000,  -64.050003, 0.000000,  0.000000 
 7862848.000000, -8.662018 , -0.732204, 2.371287, 649762240.000000, 113.540001,  -52.220001,  -64.610001, 0.000000,  0.000000 
 7882944.000000, -8.336594 , 0.050249, 1.825724, 649782208.000000, 119.070000,  -59.500000,  -67.970001, 0.000000,  0.000000 
 7903168.000000, -7.752745 , 0.275175, 1.627119, 649802304.000000, 113.190002,  -72.519997,  -70.769997, 0.000000,  0.000000 
 7922944.000000, -7.374680 , 0.002393, 1.682154, 649822464.000000, 92.330002,  -84.489998,  -74.830002, 0.000000,  0.000000 
 7942848.000000, -7.475177 , -0.598206, 1.665405, 649862144.000000, 44.170002,  -87.639999,  -82.599998, 709850752.000000,  1011.169434 
 7962816.000000, -7.896315 , -1.141376, 1.363909, 0.000000, 0.000000,  0.000000,  0.000000, 0.000000,  0.000000 
 7982848.000000, -8.377272 , -1.672583, 1.105484, 649882176.000000, 33.880001,  -83.370003,  -81.480003, 0.000000,  0.000000 
 8003136.000000, -8.851050 , -2.112862, 0.918844, 649902208.000000, 26.320000,  -80.220001,  -76.370003, 0.000000,  0.000000 
 8022848.000000, -9.631111 , -2.086541, 1.124627, 649922432.000000, 20.370001,  -74.690002,  -69.440002, 0.000000,  0.000000 
 8042816.000000, -10.475778 , -1.610370, 0.866202, 649942144.000000, 20.160000,  -65.519997,  -60.410000, 0.000000,  0.000000 
 8062784.000000, -10.710274 , -1.210768, 0.492921, 649962112.000000, 21.980000,  -60.270000,  -50.889999, 0.000000,  0.000000 
 8082816.000000, -10.626525 , -1.186840, 0.736989, 649982080.000000, 13.930000,  -60.970001,  -42.910000, 0.000000,  0.000000 
 8103040.000000, -9.944571 , -0.906880, 1.004985, 650002176.000000, -4.340000,  -58.310001,  -39.970001, 0.000000,  0.000000 
 8122688.000000, -9.868000 , -0.655633, 0.449851, 650022400.000000, -16.730000,  -55.160000,  -39.130001, 0.000000,  0.000000 
 8142720.000000, -10.573883 , -0.622134, 0.622134, 650041984.000000, -22.260000,  -43.540001,  -43.189999, 0.000000,  0.000000 
 8162688.000000, -10.925629 , -1.143769, 1.208375, 650062016.000000, -38.220001,  -22.610001,  -46.619999, 0.000000,  0.000000 
 8182656.000000, -11.026128 , -1.277767, 2.134398, 650081984.000000, -50.400002,  -8.890000,  -48.790001, 0.000000,  0.000000 
 8202944.000000, -11.787045 , -1.050449, 2.842674, 650101952.000000, -44.240002,  2.450000,  -48.020000, 0.000000,  0.000000 
 8222656.000000, -12.602997 , -0.945165, 1.959722, 650122304.000000, -23.730000,  17.990000,  -47.110001, 0.000000,  0.000000 
 8242624.000000, -14.093725 , -1.115055, 1.974079, 650141952.000000, -8.540000,  28.210001,  -45.080002, 0.000000,  0.000000 
 8262592.000000, -16.094126 , -1.162912, 2.488536, 650161920.000000, -2.660000,  45.920002,  -42.840000, 0.000000,  0.000000 
 8282624.000000, -16.450655 , -0.411566, 3.101098, 650181952.000000, 9.520000,  62.720001,  -30.799999, 0.000000,  0.000000 
 8302912.000000, -14.108082 , 0.519243, 3.529413, 650201920.000000, 30.100000,  58.310001,  -6.930000, 0.000000,  0.000000 
 8322560.000000, -11.045268 , 0.646062, 3.735196, 650222208.000000, 37.869999,  36.119999,  16.590000, 0.000000,  0.000000 
 8342592.000000, -8.537591 , 0.303888, 3.579663, 650241920.000000, 25.690001,  20.090000,  34.230000, 0.000000,  0.000000 
 8362560.000000, -7.276574 , -0.330210, 3.653840, 650261888.000000, 6.860000,  14.490000,  44.380001, 0.000000,  0.000000 
 8382528.000000, -7.872386 , -0.576670, 4.034299, 650281856.000000, -6.650000,  22.750000,  45.150002, 0.000000,  0.000000 
 8402816.000000, -9.552148 , -0.270389, 3.261417, 650301888.000000, -4.200000,  43.540001,  47.040001, 0.000000,  0.000000 
 8422528.000000, -10.004392 , 0.055035, 2.627320, 650322176.000000, 12.740000,  54.810001,  55.090000, 0.000000,  0.000000 
 8442496.000000, -8.982656 , 0.045464, 2.608176, 650341824.000000, 14.350000,  39.480000,  62.650002, 0.000000,  0.000000 
 8462528.000000, -7.688138 , 0.143569, 2.766103, 650361856.000000, -1.400000,  14.350000,  69.580002, 0.000000,  0.000000 
 8482496.000000, -6.836295 , 0.363709, 2.656033, 650381824.000000, -15.890000,  -1.190000,  73.010002, 0.000000,  0.000000 
 8502784.000000, -6.345766 , 0.466600, 2.469393, 650401792.000000, -26.530001,  -4.690000,  70.279999, 0.000000,  0.000000 
 8522496.000000, -6.008378 , 0.200997, 2.127219, 650422080.000000, -39.900002,  -5.180000,  64.959999, 0.000000,  0.000000 
 8542464.000000, -6.041877 , -0.454636, 1.780260, 650441792.000000, -53.480000,  -5.320000,  60.340000, 0.000000,  0.000000 
 8562432.000000, -6.195018 , -0.942772, 1.682154, 650461760.000000, -63.349998,  -2.450000,  57.610001, 0.000000,  0.000000 
 8582464.000000, -6.532406 , -1.024128, 1.706082, 650481792.000000, -66.849998,  1.400000,  56.980000, 0.000000,  0.000000 
 8602752.000000, -6.881758 , -0.693919, 1.466800, 650501760.000000, -60.549999,  3.500000,  58.310001, 0.000000,  0.000000 
 8622400.000000, -7.283752 , -0.727418, 1.107877, 650522048.000000, -53.200001,  3.220000,  60.270000, 0.000000,  0.000000 
 8642368.000000, -7.941778 , -1.000200, 1.351945, 650541760.000000, -58.660000,  5.740000,  61.320000, 0.000000,  0.000000 
 8662400.000000, -9.178867 , -0.612563, 1.768296, 650561728.000000, -68.529999,  14.700000,  64.470001, 0.000000,  0.000000 
 8682368.000000, -11.215159 , -0.390030, 2.182254, 650581696.000000, -74.199997,  31.150000,  70.559998, 0.000000,  0.000000 
 8702656.000000, -13.332808 , -0.461815, 2.981457, 650601728.000000, -77.559998,  54.250000,  76.510002, 0.000000,  0.000000 
 8722368.000000, -13.478769 , -1.127020, 4.388437, 650622016.000000, -90.090004,  66.080002,  81.900002, 0.000000,  0.000000 
 8742336.000000, -12.040684 , -1.201197, 5.259424, 650641664.000000, -97.580002,  56.630001,  88.059998, 0.000000,  0.000000 
 8762304.000000, -10.880164 , -0.820738, 5.079963, 650661632.000000, -80.849998,  43.330002,  92.190002, 0.000000,  0.000000 
 8782336.000000, -10.657632 , -0.323031, 4.424329, 650681664.000000, -45.220001,  41.020000,  92.540001, 0.000000,  0.000000 
 8802624.000000, -11.274981 , -0.543171, 3.912265, 650701632.000000, -18.059999,  46.830002,  88.970001, 0.000000,  0.000000 
 8822272.000000, -12.253645 , -1.318445, 3.582055, 650721920.000000, -11.060000,  53.970001,  85.540001, 0.000000,  0.000000 
 8842304.000000, -13.871193 , -2.421536, 3.538985, 650741632.000000, -14.910000,  55.930000,  83.370003, 0.000000,  0.000000 
 8862272.000000, -15.833307 , -2.854637, 3.905087, 650761600.000000, -13.020000,  59.709999,  81.830002, 0.000000,  0.000000 
 8882240.000000, -15.665810 , -2.529213, 4.718646, 650781568.000000, -0.770000,  65.800003,  82.949997, 0.000000,  0.000000 
 8902592.000000, -12.856635 , -1.617548, 5.087141, 650801600.000000, 16.870001,  45.430000,  80.010002, 0.000000,  0.000000 
 8922240.000000, -9.509077 , -0.495314, 4.532006, 650821888.000000, 34.720001,  10.570000,  66.709999, 0.000000,  0.000000 
 8942208.000000, -6.807580 , -0.136391, 3.917051, 650861568.000000, 44.099998,  -30.799999,  7.070000, 710850176.000000,  1011.150940 
 8962240.000000, -6.159126 , -0.859023, 4.266403, 0.000000, 0.000000,  0.000000,  0.000000, 0.000000,  0.000000 
 8982208.000000, -7.460821 , -1.804188, 4.278367, 650881536.000000, 45.430000,  -19.040001,  -30.380001, 0.000000,  0.000000 
 9002496.000000, -8.539984 , -2.488536, 3.337988, 650901504.000000, 61.670002,  0.280000,  -55.930000, 0.000000,  0.000000 
 9022208.000000, -8.111670 , -2.500499, 2.744568, 650921856.000000, 87.220001,  -3.640000,  -70.000000, 0.000000,  0.000000 
 9042176.000000, -7.503892 , -2.110470, 2.421536, 650941504.000000, 107.800003,  -29.120001,  -80.010002, 0.000000,  0.000000 
 9062144.000000, -7.499106 , -1.060020, 1.842474, 650961472.000000, 125.090004,  -45.290001,  -88.760002, 0.000000,  0.000000 
 9082176.000000, -7.566105 , -0.263210, 1.555335, 650981504.000000, 138.740005,  -54.459999,  -96.879997, 0.000000,  0.000000 
 9102464.000000, -7.379465 , -0.004786, 1.466800, 651001472.000000, 136.149994,  -64.190002,  -101.360001, 0.000000,  0.000000 
 9122112.000000, -7.283752 , -0.193819, 1.574477, 651021760.000000, 116.620003,  -72.449997,  -102.760002, 0.000000,  0.000000 
 9143360.000000, -7.515855 , -0.557528, 1.715654, 651041472.000000, 89.949997,  -76.230003,  -103.320000, 0.000000,  0.000000 
 9162560.000000, -7.980063 , -0.892523, 1.517050, 651062656.000000, 68.040001,  -74.550003,  -102.550003, 0.000000,  0.000000 
 9182528.000000, -8.580662 , -1.308874, 1.227518, 651081856.000000, 53.619999,  -70.699997,  -96.949997, 0.000000,  0.000000 
 9202880.000000, -9.255438 , -1.694118, 1.007378, 651101888.000000, 42.980000,  -66.849998,  -88.059998, 0.000000,  0.000000 
 9222528.000000, -10.045070 , -1.964507, 0.870987, 651122240.000000, 36.259998,  -63.560001,  -76.650002, 0.000000,  0.000000 
 9242688.000000, -10.782058 , -2.065006, 1.083949, 651141888.000000, 33.950001,  -60.830002,  -63.770000, 0.000000,  0.000000 
 9262656.000000, -10.882557 , -1.406980, 0.421137, 651162048.000000, 35.700001,  -57.750000,  -50.750000, 0.000000,  0.000000 
 9282624.000000, -11.143374 , -1.158126, 0.174676, 651181952.000000, 36.049999,  -66.150002,  -40.740002, 0.000000,  0.000000 
 9302976.000000, -11.064411 , -0.973879, 0.457029, 651201984.000000, 27.580000,  -57.260002,  -36.119999, 0.000000,  0.000000 
 9322560.000000, -10.454242 , -0.583849, 0.906880, 651222272.000000, 9.590000,  -53.270000,  -33.880001, 0.000000,  0.000000 
 9342400.000000, -9.781858 , 0.102891, 1.897508, 651241920.000000, -1.820000,  -50.680000,  -38.779999, 0.000000,  0.000000 
 9363648.000000, -8.757731 , 0.141177, 3.101098, 651261696.000000, -9.660000,  -39.619999,  -44.730000, 0.000000,  0.000000 
 9383680.000000, -6.989435 , -0.387637, 3.806981, 651283008.000000, -18.129999,  -30.520000,  -51.939999, 0.000000,  0.000000 
 9404032.000000, -6.474977 , -0.744168, 4.811966, 651302976.000000, -18.900000,  -35.000000,  -57.330002, 0.000000,  0.000000 
 9423616.000000, -7.932207 , -1.277767, 4.522435, 651323328.000000, -14.070000,  -14.910000,  -65.590004, 0.000000,  0.000000 
 9443712.000000, -9.774680 , -1.471586, 3.608376, 651342976.000000, -2.520000,  13.580000,  -65.730003, 0.000000,  0.000000 
 9463616.000000, -10.236496 , -1.610370, 3.017349, 651363008.000000, 7.140000,  23.450001,  -64.820000, 0.000000,  0.000000 
 9483584.000000, -10.545169 , -1.928615, 2.866602, 651382976.000000, 12.950000,  12.950000,  -55.020000, 0.000000,  0.000000 
 9504000.000000, -11.755937 , -1.964507, 2.964707, 651402944.000000, 14.140000,  9.800000,  -43.400002, 0.000000,  0.000000 
 9523904.000000, -13.165311 , -1.545763, 2.677568, 651423296.000000, 19.740000,  20.650000,  -32.549999, 0.000000,  0.000000 
 9543680.000000, -14.481362 , -1.024128, 2.687140, 651443200.000000, 27.860001,  29.260000,  -21.210001, 0.000000,  0.000000 
 9563520.000000, -15.227923 , -0.691526, 2.833102, 651462976.000000, 27.860001,  36.400002,  -10.710000, 0.000000,  0.000000 
 9583552.000000, -16.072590 , -0.354138, 2.529213, 651482880.000000, 21.980000,  40.250000,  1.890000, 0.000000,  0.000000 
 9603904.000000, -15.809379 , -0.009571, 2.622534, 651502848.000000, 20.650000,  46.900002,  10.640000, 0.000000,  0.000000 
 9623552.000000, -13.045669 , 0.119641, 2.986243, 651523264.000000, 16.309999,  45.009998,  23.170000, 0.000000,  0.000000 
 9643584.000000, -10.523634 , -0.078963, 2.591427, 651542848.000000, 6.650000,  21.420000,  34.509998, 0.000000,  0.000000 
 9663488.000000, -9.308081 , -0.588634, 2.088934, 651562944.000000, 2.590000,  11.550000,  36.259998, 0.000000,  0.000000 
 9683520.000000, -9.396614 , -1.272982, 1.923829, 651582848.000000, -4.830000,  3.780000,  34.509998, 0.000000,  0.000000 
 9703872.000000, -9.939785 , -1.490728, 1.813759, 651602816.000000, -12.810000,  9.800000,  29.400000, 0.000000,  0.000000 
 9723520.000000, -10.085747 , -1.392623, 1.710868, 651623168.000000, -9.100000,  17.570000,  25.760000, 0.000000,  0.000000 
 9743488.000000, -9.982857 , -0.892523, 1.634298, 651642816.000000, 11.620000,  14.490000,  24.219999, 0.000000,  0.000000 
 9763456.000000, -9.544970 , -0.220140, 1.497907, 651662848.000000, 31.710001,  1.960000,  23.940001, 0.000000,  0.000000 
 9783488.000000, -8.872586 , 0.562313, 1.536192, 651682816.000000, 36.959999,  -8.680000,  23.590000, 0.000000,  0.000000 
 9803776.000000, -7.786245 , 1.184447, 1.605584, 651702784.000000, 29.049999,  -15.400000,  22.680000, 0.000000,  0.000000 
 9823424.000000, -6.568298 , 1.421337, 1.545763, 651723136.000000, 15.610000,  -21.559999,  22.400000, 0.000000,  0.000000 
 9843520.000000, -5.505885 , 1.002593, 1.545763, 651742720.000000, -7.700000,  -24.639999,  20.440001, 0.000000,  0.000000 
 9863424.000000, -5.089533 , 0.485743, 1.641476, 651762816.000000, -37.590000,  -21.770000,  19.670000, 0.000000,  0.000000 
 9883392.000000, -5.142176 , -0.081356, 1.265803, 651782720.000000, -63.000000,  -14.070000,  22.049999, 0.000000,  0.000000 
 9903744.000000, -5.541777 , -0.803988, 0.983450, 651802688.000000, -76.370003,  -4.480000,  29.330000, 0.000000,  0.000000 
 9923392.000000, -5.678168 , -1.363909, 0.899701, 651823040.000000, -84.070000,  0.840000,  36.470001, 0.000000,  0.000000 
 9943424.000000, -5.816952 , -1.660619, 1.081556, 651842688.000000, -87.919998,  1.120000,  43.400002, 0.000000,  0.000000 
 9963392.000000, -6.168696 , -1.507478, 1.067199, 651862784.000000, -85.050003,  1.540000,  50.610001, 711851392.000000,  1011.129333 
 9983296.000000, -7.015756 , -1.363909, 1.217947, 651882688.000000, -75.320000,  9.730000,  57.820000, 0.000000,  0.000000 
 10003712.000000, -8.338986 , -1.191626, 1.459622, 651902656.000000, -68.180000,  25.059999,  63.840000, 0.000000,  0.000000 
 10023360.000000, -9.707682 , -1.021735, 1.548156, 651923008.000000, -66.919998,  42.279999,  71.330002, 0.000000,  0.000000 
 10043392.000000, -10.648061 , -1.086342, 1.806581, 651942656.000000, -69.090004,  56.770000,  79.800003, 0.000000,  0.000000 
 10063296.000000, -10.913664 , -1.138984, 2.199004, 651962688.000000, -74.550003,  61.670002,  88.269997, 0.000000,  0.000000 
 10083328.000000, -11.016556 , -1.277767, 2.411965, 651982592.000000, -82.879997,  60.549999,  93.309998, 0.000000,  0.000000 
 10103616.000000, -11.239087 , -1.387837, 2.584249, 652002624.000000, -92.750000,  62.299999,  94.080002, 0.000000,  0.000000 
 10123264.000000, -10.695917 , -1.490728, 2.866602, 652022976.000000, -96.669998,  64.190002,  90.230003, 0.000000,  0.000000 
 10143360.000000, -9.714860 , -1.399801, 3.129812, 652042624.000000, -91.209999,  58.170002,  85.330002, 0.000000,  0.000000 
 10163200.000000, -9.066404 , -1.529014, 3.211168, 652062656.000000, -79.660004,  49.980000,  78.959999, 0.000000,  0.000000 
 10183168.000000, -9.061620 , -1.691726, 3.192025, 652082496.000000, -71.120003,  48.160000,  68.180000, 0.000000,  0.000000 
 10203456.000000, -9.552148 , -2.060220, 3.314059, 652102464.000000, -66.150002,  50.820000,  57.189999, 0.000000,  0.000000 
 10223168.000000, -10.150353 , -2.476572, 3.615555, 652122816.000000, -60.689999,  54.670002,  48.509998, 0.000000,  0.000000 
 10243136.000000, -10.877771 , -2.926422, 4.046263, 652142464.000000, -52.639999,  55.439999,  43.259998, 0.000000,  0.000000 
 10263104.000000, -11.346765 , -3.424129, 4.632504, 652162432.000000, -41.020000,  55.860001,  39.900002, 0.000000,  0.000000 
 10283136.000000, -11.720046 , -3.591627, 5.036892, 652182464.000000, -26.740000,  54.950001,  37.380001, 0.000000,  0.000000 
 10303424.000000, -12.138789 , -3.452843, 5.132604, 652202432.000000, -7.560000,  50.610001,  32.830002, 0.000000,  0.000000 
 10323072.000000, -12.715459 , -3.723232, 5.316852, 652222720.000000, 15.750000,  47.250000,  25.620001, 0.000000,  0.000000 
 10343104.000000, -13.493127 , -4.510471, 5.781059, 652242432.000000, 37.799999,  40.810001,  15.120000, 0.000000,  0.000000 
 10363072.000000, -13.378270 , -4.326223, 5.414958, 652262400.000000, 61.529999,  36.400002,  3.850000, 0.000000,  0.000000 
 10383040.000000, -11.770294 , -2.732604, 4.512863, 652282368.000000, 96.180000,  17.570000,  -7.000000, 0.000000,  0.000000 
 10403392.000000, -9.865608 , -1.155733, 3.684947, 652302400.000000, 137.690002,  -13.160000,  -19.879999, 0.000000,  0.000000 
 10423040.000000, -8.886944 , -0.646062, 3.438486, 652322688.000000, 157.570007,  -40.320000,  -37.450001, 0.000000,  0.000000 
 10443008.000000, -9.688539 , -0.988236, 3.125026, 652342400.000000, 143.149994,  -53.410000,  -63.139999, 0.000000,  0.000000 
 10463040.000000, -11.401800 , -1.593620, 2.694318, 652362368.000000, 116.970001,  -51.590000,  -84.840004, 0.000000,  0.000000 
 10483008.000000, -12.854243 , -2.122434, 2.471786, 652382336.000000, 97.440002,  -50.750000,  -96.320000, 0.000000,  0.000000 
 10503296.000000, -13.227524 , -2.146362, 1.995614, 652402304.000000, 90.440002,  -61.250000,  -97.160004, 0.000000,  0.000000 
 10523008.000000, -12.169895 , -1.765903, 1.557728, 652422656.000000, 89.110001,  -81.900002,  -91.699997, 0.000000,  0.000000 
 10542976.000000, -10.810772 , -1.452443, 1.375873, 652442304.000000, 86.169998,  -107.730003,  -83.650002, 0.000000,  0.000000 
 10562944.000000, -10.193424 , -1.129412, 1.440479, 652482304.000000, 69.370003,  -121.239998,  -78.260002, 0.000000,  0.000000 
 10582976.000000, -10.293922 , -0.782453, 1.416551, 0.000000, 0.000000,  0.000000,  0.000000, 0.000000,  0.000000 
 10603264.000000, -10.480563 , -0.686740, 1.122234, 652502272.000000, 65.590004,  -116.340004,  -78.050003, 0.000000,  0.000000 
 10622912.000000, -10.621738 , -0.993021, 0.859023, 652522560.000000, 59.570000,  -115.639999,  -75.040001, 0.000000,  0.000000 
 10642944.000000, -10.691131 , -1.691726, 0.579063, 652542272.000000, 46.480000,  -118.020004,  -71.889999, 0.000000,  0.000000 
 10662912.000000, -10.695917 , -2.062613, 0.368495, 652562240.000000, 33.180000,  -118.440002,  -69.440002, 0.000000,  0.000000 
 10682880.000000, -10.683953 , -1.911865, -0.043071, 652582208.000000, 29.469999,  -118.300003,  -66.430000, 0.000000,  0.000000 
 10703232.000000, -10.815558 , -1.387837, -0.155533, 652602240.000000, 35.349998,  -116.970001,  -63.770000, 0.000000,  0.000000 
 10722880.000000, -10.640882 , -0.772882, -0.466600, 652622528.000000, 34.369999,  -112.000000,  -62.090000, 0.000000,  0.000000 
 10742848.000000, -9.925428 , 0.576670, -0.677169, 652642176.000000, 28.139999,  -108.500000,  -62.580002, 0.000000,  0.000000 
 10762880.000000, -8.640482 , 1.481157, -0.306281, 652662208.000000, 24.500000,  -105.559998,  -58.939999, 0.000000,  0.000000 
 10782848.000000, -8.178668 , 1.438086, 0.102891, 652682176.000000, 10.920000,  -100.169998,  -51.240002, 0.000000,  0.000000 
 10803136.000000, -8.659625 , 0.449851, -0.019143, 652702144.000000, -28.490000,  -80.989998,  -54.459999, 0.000000,  0.000000 
 10822976.000000, -9.568897 , 0.122034, -0.193819, 652722496.000000, -57.049999,  -51.520000,  -53.130001, 0.000000,  0.000000 
 10842816.000000, -9.856036 , -0.057428, 0.411566, 652742336.000000, -72.169998,  -25.340000,  -50.259998, 0.000000,  0.000000 
 10862784.000000, -10.243673 , -0.457029, 2.026721, 652762112.000000, -74.690002,  -6.440000,  -38.080002, 0.000000,  0.000000 
 10882816.000000, -11.282159 , -0.399601, 1.502693, 652782144.000000, -66.500000,  15.960000,  -26.740000, 0.000000,  0.000000 
 10903104.000000, -12.342178 , -0.265603, 0.942772, 652802112.000000, -49.560001,  38.150002,  -12.950000, 0.000000,  0.000000 
 10922752.000000, -13.361522 , -0.591027, 1.457229, 652822400.000000, -41.299999,  62.020000,  0.700000, 0.000000,  0.000000 
 10942784.000000, -14.333008 , -1.261017, 2.182254, 652842112.000000, -44.450001,  74.830002,  16.450001, 0.000000,  0.000000 
 10962752.000000, -14.852250 , -1.507478, 2.514857, 652862080.000000, -43.470001,  89.180000,  36.820000, 712850688.000000,  1011.108398 
 10982720.000000, -13.653446 , -1.170090, 2.490928, 652882048.000000, -26.320000,  96.669998,  60.970001, 0.000000,  0.000000 
 11003072.000000, -11.669796 , -0.813560, 3.625126, 652902080.000000, -3.990000,  88.970001,  80.709999, 0.000000,  0.000000 
 11022720.000000, -10.834702 , 0.277567, 4.086941, 652922368.000000, 7.350000,  79.379997,  92.680000, 0.000000,  0.000000 
 11042688.000000, -10.569098 , 1.129412, 3.716053, 652942016.000000, 12.040000,  79.870003,  91.349998, 0.000000,  0.000000 
 11062656.000000, -10.380065 , 1.143769, 3.546163, 652962048.000000, 14.350000,  76.650002,  84.349998, 0.000000,  0.000000 
 11082688.000000, -10.394422 , 0.830309, 3.089134, 652982016.000000, -1.330000,  71.120003,  77.559998, 0.000000,  0.000000 
 11102976.000000, -10.023535 , 0.148355, 2.739782, 653001984.000000, -33.180000,  64.330002,  69.370003, 0.000000,  0.000000 
 11122624.000000, -9.226725 , -0.713061, 2.706282, 653022336.000000, -74.410004,  49.630001,  63.980000, 0.000000,  0.000000 
 11142656.000000, -8.365308 , -0.961915, 2.605784, 653041984.000000, -104.510002,  30.940001,  61.599998, 0.000000,  0.000000 
 11162624.000000, -7.506285 , -0.978664, 2.371287, 653062016.000000, -114.660004,  15.050000,  63.000000, 0.000000,  0.000000 
 11182592.000000, -6.802795 , -1.287339, 2.388037, 653081920.000000, -117.809998,  1.330000,  65.730003, 0.000000,  0.000000 
 11202944.000000, -6.252446 , -1.672583, 2.596212, 653101952.000000, -130.479996,  -8.330000,  63.070000, 0.000000,  0.000000 
 11222592.000000, -6.058627 , -1.914258, 2.727818, 653122240.000000, -138.320007,  -13.300000,  64.680000, 0.000000,  0.000000 
 11242560.000000, -6.245267 , -2.134398, 2.577070, 653141888.000000, -130.759995,  -13.160000,  68.180000, 0.000000,  0.000000 
 11262592.000000, -6.857830 , -2.354537, 2.435893, 653161920.000000, -115.080002,  -7.840000,  72.940002, 0.000000,  0.000000 
 11282560.000000, -7.745567 , -2.579463, 2.450250, 653181888.000000, -97.160004,  -7.840000,  80.709999, 0.000000,  0.000000 
 11302848.000000, -8.834301 , -2.572284, 2.567499, 653201856.000000, -80.709999,  8.050000,  89.250000, 0.000000,  0.000000 
 11322560.000000, -10.274779 , -2.634498, 2.574677, 653222208.000000, -61.810001,  17.639999,  101.570000, 0.000000,  0.000000 
 11342528.000000, -11.724831 , -2.531606, 2.569891, 653241856.000000, -44.380001,  27.160000,  112.209999, 0.000000,  0.000000 
 11362496.000000, -12.839886 , -2.325824, 2.407180, 653261824.000000, -39.270000,  34.930000,  120.050003, 0.000000,  0.000000 
 11382528.000000, -12.583855 , -2.517249, 2.342573, 653281856.000000, -45.009998,  34.509998,  124.599998, 0.000000,  0.000000 
 11402816.000000, -11.040483 , -2.873780, 2.002793, 653301824.000000, -51.590000,  25.620001,  122.709999, 0.000000,  0.000000 
 11422464.000000, -9.741181 , -2.809174, 2.811567, 653322112.000000, -67.059998,  12.880000,  109.199997, 0.000000,  0.000000 
 11442496.000000, -8.879765 , -2.275574, 3.711268, 653341824.000000, -96.389999,  7.070000,  75.389999, 0.000000,  0.000000 
 11462464.000000, -9.097511 , -2.093720, 3.830909, 653361792.000000, -103.459999,  8.330000,  43.470001, 0.000000,  0.000000 
 11482432.000000, -10.660025 , -2.830709, 4.053442, 653381760.000000, -85.190002,  16.520000,  13.090000, 0.000000,  0.000000 
 11502784.000000, -12.693924 , -4.414758, 4.063013, 653401792.000000, -62.439999,  30.660000,  -7.630000, 0.000000,  0.000000 
 11522432.000000, -15.187245 , -5.654240, 4.247260, 653422080.000000, -40.670002,  39.060001,  -22.190001, 0.000000,  0.000000 
 11542528.000000, -16.957933 , -5.716454, 4.388437, 653441728.000000, -21.070000,  46.340000,  -33.320000, 0.000000,  0.000000 
 11562496.000000, -16.831116 , -5.508278, 4.299902, 653461824.000000, -8.540000,  49.420002,  -37.029999, 0.000000,  0.000000 
 11582464.000000, -16.438692 , -5.036892, 4.677969, 653481792.000000, 35.139999,  37.310001,  -39.130001, 0.000000,  0.000000 
 11602752.000000, -15.945770 , -4.402793, 5.840880, 653501760.000000, 87.989998,  12.040000,  -41.020000, 0.000000,  0.000000 
 11622464.000000, -15.471991 , -3.797409, 7.271788, 653522112.000000, 119.910004,  -5.670000,  -54.670002, 0.000000,  0.000000 
 11642368.000000, -8.707481 , -0.440279, 15.534204, 653541760.000000, 132.930008,  -16.170000,  -78.050003, 0.000000,  0.000000 
 11662336.000000, -9.111869 , -1.189233, 3.974478, 653561664.000000, 137.899994,  -15.680000,  -103.459999, 0.000000,  0.000000 
 11682368.000000, -10.059426 , -1.500300, 2.335395, 653581696.000000, 139.369995,  -11.130000,  -119.559998, 0.000000,  0.000000 
 11702656.000000, -10.071390 , -1.471586, 2.261217, 653601664.000000, 127.260002,  -16.799999,  -129.990005, 0.000000,  0.000000 
 11721792.000000, -10.013963 , -1.533799, 2.273181, 653621952.000000, 103.320000,  -33.880001,  -134.820007, 0.000000,  0.000000 
 11742400.000000, -9.903893 , -1.682154, 1.942972, 653641152.000000, 85.610001,  -48.230000,  -136.289993, 0.000000,  0.000000 
 11762368.000000, -9.762716 , -1.773082, 1.050449, 653661696.000000, 85.959999,  -53.760002,  -134.470001, 0.000000,  0.000000 
 11782336.000000, -9.635897 , -1.658226, 0.409173, 653681664.000000, 102.340004,  -58.730000,  -130.830002, 0.000000,  0.000000 
 11802688.000000, -9.415757 , -1.406980, 0.748954, 653701696.000000, 110.739998,  -66.989998,  -126.349998, 0.000000,  0.000000 
 11822336.000000, -9.336794 , -1.088734, 2.002793, 653721984.000000, 99.750000,  -76.580002,  -120.610001, 0.000000,  0.000000 
 11842304.000000, -9.341579 , -0.787239, 3.627519, 653741632.000000, 85.959999,  -79.379997,  -115.010002, 0.000000,  0.000000 
 11862336.000000, -9.243474 , -0.634098, 5.000999, 653761664.000000, 79.449997,  -76.440002,  -106.889999, 0.000000,  0.000000 
 11882304.000000, -9.083155 , -0.638884, 5.826523, 653781632.000000, 80.500000,  -72.029999,  -95.269997, 0.000000,  0.000000 
 11902592.000000, -8.977871 , -0.794417, 5.974878, 653801600.000000, 85.540001,  -66.989998,  -77.489998, 0.000000,  0.000000 
 11922240.000000, -9.104690 , -3.395415, 1.002593, 653821952.000000, 85.050003,  -60.410000,  -57.400002, 0.000000,  0.000000 
 11942208.000000, -10.006784 , -2.014757, 0.153141, 653841536.000000, 77.349998,  -49.420002,  -37.380001, 0.000000,  0.000000 
 11962176.000000, -11.286944 , -1.617548, 0.110070, 653861504.000000, 68.180000,  -39.130001,  -15.610000, 713850176.000000,  1011.089355 
 11982208.000000, -11.289338 , -1.229911, -0.229711, 653881536.000000, 58.869999,  -33.599998,  2.170000, 0.000000,  0.000000 
 12002496.000000, -10.542776 , -0.926022, -0.086142, 653901504.000000, 39.060001,  -37.590000,  13.510000, 0.000000,  0.000000 
 12022144.000000, -9.621540 , -0.760918, 0.349352, 653921792.000000, 13.930000,  -36.189999,  16.799999, 0.000000,  0.000000 
 12042176.000000, -9.056834 , -0.071785, 0.569492, 653941504.000000, -6.230000,  -28.630001,  13.440001, 0.000000,  0.000000 
 12062208.000000, -9.049655 , -0.016750, 0.619741, 653961472.000000, -18.200001,  -15.190001,  3.080000, 0.000000,  0.000000 
 12082176.000000, -9.150154 , 0.122034, 1.426122, 653981504.000000, -30.100000,  0.770000,  -8.610000, 0.000000,  0.000000 
 12102464.000000, -9.418150 , 0.198604, 2.703890, 654001536.000000, -48.930000,  25.059999,  -14.140000, 0.000000,  0.000000 
 12122176.000000, -9.899107 , -0.093320, 3.101098, 654021824.000000, -69.790001,  58.240002,  -16.660000, 0.000000,  0.000000 
 12142144.000000, -16.596617 , -5.103891, -5.979663, 654041472.000000, -74.059998,  89.040001,  -10.290000, 0.000000,  0.000000 
 12162112.000000, -16.259230 , -2.746960, 0.150748, 654061440.000000, -57.330002,  95.059998,  6.510000, 0.000000,  0.000000 
 12182080.000000, -13.974084 , -1.715654, 2.983850, 654081408.000000, -34.720001,  78.120003,  33.670002, 0.000000,  0.000000 
 12202368.000000, -11.894722 , -0.949951, 3.316452, 654101376.000000, -20.230000,  65.099998,  58.380001, 0.000000,  0.000000 
 12222080.000000, -10.277173 , -0.583849, 3.737589, 654121728.000000, -7.840000,  61.740002,  73.570000, 0.000000,  0.000000 
 12242112.000000, -10.176675 , -0.519243, 4.139583, 654141440.000000, 2.030000,  60.760002,  81.550003, 0.000000,  0.000000 
 12262080.000000, -10.092925 , -0.483350, 5.003392, 654161408.000000, 1.330000,  62.790001,  82.459999, 0.000000,  0.000000 
 12282112.000000, -10.054641 , -0.583849, 5.352744, 654181440.000000, 0.910000,  72.449997,  75.739998, 0.000000,  0.000000 
 12302400.000000, -10.112068 , -0.792024, 4.424329, 654201408.000000, 13.580000,  80.150002,  71.120003, 0.000000,  0.000000 
 12322048.000000, -9.911072 , -0.978664, 2.746960, 654221696.000000, 29.820000,  69.650002,  67.830002, 0.000000,  0.000000 
 12342080.000000, -9.604790 , -1.043271, 1.237089, 654241408.000000, 23.660000,  44.029999,  65.870003, 0.000000,  0.000000 
 12362048.000000, -9.334401 , -1.014557, 0.179462, 654261376.000000, -4.130000,  19.110001,  64.470001, 0.000000,  0.000000 
 12382016.000000, -9.044869 , -0.973879, -0.413958, 654281344.000000, -43.750000,  4.550000,  57.680000, 0.000000,  0.000000 
 12402304.000000, -8.717053 , -0.942772, -0.483350, 654301376.000000, -74.830002,  -0.560000,  52.150002, 0.000000,  0.000000 
 12421952.000000, -5.266603 , -0.289532, 4.907679, 654321664.000000, -78.120003,  0.420000,  46.970001, 0.000000,  0.000000 
 12441920.000000, -5.520242 , -0.978664, 3.311667, 654341248.000000, -52.360001,  6.300000,  47.250000, 0.000000,  0.000000 
 12461952.000000, -6.041877 , -0.756132, 2.392823, 654361280.000000, -22.820000,  14.770000,  51.939999, 0.000000,  0.000000 
 12481920.000000, -6.824330 , -0.500100, 1.782653, 654381248.000000, -13.230000,  24.780001,  55.930000, 0.000000,  0.000000 
 12502208.000000, -7.678568 , -0.768096, 1.452443, 654401216.000000, -20.650000,  31.430000,  63.980000, 0.000000,  0.000000 
 12521920.000000, -8.513663 , -1.586441, 1.593620, 654421504.000000, -42.000000,  33.389999,  74.690002, 0.000000,  0.000000 
 12541888.000000, -9.884750 , -2.514857, 2.012364, 654441216.000000, -62.580002,  36.750000,  88.199997, 0.000000,  0.000000 
 12561856.000000, -11.806188 , -2.928815, 2.344966, 654461184.000000, -74.129997,  47.110001,  100.029999, 0.000000,  0.000000 
 12581888.000000, -13.428520 , -3.256632, 2.426322, 654481216.000000, -75.599998,  58.590000,  108.290001, 0.000000,  0.000000 
 12602240.000000, -13.191631 , -3.311667, 2.708675, 654501184.000000, -72.590004,  56.770000,  110.809998, 0.000000,  0.000000 
 12621824.000000, -11.638690 , -3.074777, 2.880959, 654521600.000000, -69.580002,  38.009998,  108.430000, 0.000000,  0.000000 
 12641792.000000, -10.482956 , -2.225325, 3.158526, 654541120.000000, -63.980000,  18.129999,  90.580002, 0.000000,  0.000000 
 12661824.000000, -10.102496 , -0.818345, 3.596412, 654561152.000000, -60.340000,  11.690000,  53.760002, 0.000000,  0.000000 
 12681792.000000, -10.956735 , -0.323031, 3.574877, 654581120.000000, -43.400002,  17.570000,  21.490000, 0.000000,  0.000000 
 12702080.000000, -12.335001 , -0.976272, 3.483950, 654601088.000000, -23.030001,  28.139999,  -5.740000, 0.000000,  0.000000 
 12721792.000000, -14.938391 , -2.581856, 3.670590, 654621440.000000, -27.510000,  30.870001,  -31.430000, 0.000000,  0.000000 
 12741760.000000, -17.594425 , -3.251846, 3.878766, 654641088.000000, -37.450001,  43.750000,  -49.910000, 0.000000,  0.000000 
 12761728.000000, -16.888542 , -2.486143, 3.469593, 654661056.000000, -27.090000,  46.830002,  -61.180000, 0.000000,  0.000000 
 12781760.000000, -13.481163 , -1.308874, 3.637090, 654681088.000000, 1.820000,  20.160000,  -59.849998, 0.000000,  0.000000 
 12802048.000000, -9.963714 , -0.461815, 3.577270, 654701056.000000, 21.559999,  -11.830000,  -61.529999, 0.000000,  0.000000 
 12821696.000000, -7.355537 , -0.665205, 3.704089, 654721408.000000, 18.900000,  -34.509998,  -72.449997, 0.000000,  0.000000 
 12841728.000000, -6.747760 , -1.459622, 4.060620, 654741056.000000, 9.730000,  -39.970001,  -94.290001, 0.000000,  0.000000 
 12861696.000000, -8.161918 , -2.251646, 4.386044, 654761024.000000, 11.830000,  -23.520000,  -113.330002, 0.000000,  0.000000 
 12881664.000000, -9.676575 , -2.416751, 3.732803, 654780992.000000, 33.180000,  -1.400000,  -120.680000, 0.000000,  0.000000 
 12902016.000000, -9.846465 , -2.268396, 3.065206, 654801024.000000, 65.099998,  -0.840000,  -121.239998, 0.000000,  0.000000 
 12921664.000000, -8.762517 , -1.966900, 2.830709, 654821312.000000, 92.750000,  -21.700001,  -115.639999, 0.000000,  0.000000 
 12941632.000000, -7.862815 , -1.713261, 2.598605, 654840960.000000, 114.029999,  -42.279999,  -106.190002, 0.000000,  0.000000 
 12961664.000000, -7.499106 , -1.258625, 2.476572, 654860992.000000, 130.690002,  -50.400002,  -99.120003, 714849600.000000,  1011.065918 
 12981632.000000, -7.487142 , -0.543171, 2.234896, 654880960.000000, 142.380005,  -50.470001,  -92.050003, 0.000000,  0.000000 
 13001920.000000, -7.819745 , -0.174676, 1.643869, 654900928.000000, 143.289993,  -50.889999,  -83.300003, 0.000000,  0.000000 
 13021632.000000, -7.532606 , -0.550349, 1.289732, 654921280.000000, 126.419998,  -56.910000,  -75.529999, 0.000000,  0.000000 
 13041600.000000, -7.066005 , -1.138984, 1.110270, 654940928.000000, 98.349998,  -67.900002,  -65.029999, 0.000000,  0.000000 
 13061568.000000, -6.917650 , -1.524228, 1.172483, 654960896.000000, 77.910004,  -76.019997,  -52.570000, 0.000000,  0.000000 
 13081600.000000, -7.357929 , -1.758725, 0.906880, 654980928.000000, 66.290001,  -76.790001,  -38.080002, 0.000000,  0.000000 
 13101888.000000, -8.056634 , -1.794617, 0.447458, 655000896.000000, 56.910000,  -72.800003,  -24.920000, 0.000000,  0.000000 
 13121536.000000, -8.834301 , -2.105684, 0.110070, 655021184.000000, 46.410000,  -67.340004,  -10.360000, 0.000000,  0.000000 
 13141568.000000, -9.602397 , -2.380858, -0.057428, 655040896.000000, 33.320000,  -61.110001,  4.830000, 0.000000,  0.000000 
 13161536.000000, -10.399208 , -2.679961, 0.167498, 655060928.000000, 20.650000,  -52.639999,  18.410000, 0.000000,  0.000000 
 13181504.000000, -10.805987 , -2.861816, 0.373280, 655080832.000000, 14.840000,  -43.610001,  29.540001, 0.000000,  0.000000 
 13201856.000000, -10.906486 , -2.033899, 0.519243, 655100864.000000, 15.120000,  -37.450001,  33.110001, 0.000000,  0.000000 
 13221504.000000, -10.817951 , -0.468993, 0.275175, 655121152.000000, 23.590000,  -31.850000,  33.599998, 0.000000,  0.000000 
 13241472.000000, -10.095319 , 0.366102, 0.296710, 655140800.000000, 26.040001,  -23.799999,  31.850000, 0.000000,  0.000000 
 13261504.000000, -9.169296 , 0.449851, 1.244268, 655160832.000000, 7.700000,  -20.440001,  21.280001, 0.000000,  0.000000 
 13281472.000000, -9.358330 , 0.562313, 1.289732, 655180800.000000, -17.010000,  -13.370000,  6.930000, 0.000000,  0.000000 
 13301760.000000, -10.779665 , 0.421137, 1.316052, 655200768.000000, -30.170000,  6.090000,  -5.810000, 0.000000,  0.000000 
 13321472.000000, -12.602997 , -1.031307, 2.079363, 655221120.000000, -46.130001,  32.130001,  -15.820000, 0.000000,  0.000000 
 13341440.000000, -14.658432 , -2.237289, 2.313859, 655240768.000000, -65.449997,  53.410000,  -19.460001, 0.000000,  0.000000 
 13361408.000000, -15.960127 , -1.993221, 1.732404, 655260736.000000, -64.750000,  67.830002,  -18.340000, 0.000000,  0.000000 
 13381440.000000, -15.438492 , -1.868794, 1.701297, 655280768.000000, -52.709999,  69.019997,  -5.390000, 0.000000,  0.000000 
 13401728.000000, -13.485948 , -2.067399, 2.289931, 655300736.000000, -47.599998,  57.189999,  12.390000, 0.000000,  0.000000 
 13421376.000000, -11.698510 , -1.691726, 3.378666, 655321024.000000, -51.310001,  43.889999,  32.270000, 0.000000,  0.000000 
 13441408.000000, -10.033106 , -1.342373, 4.223332, 655340736.000000, -52.990002,  37.869999,  45.849998, 0.000000,  0.000000 
 13461376.000000, -8.480164 , -1.435694, 5.328816, 655360704.000000, -59.920002,  32.689999,  49.000000, 0.000000,  0.000000 
 13481344.000000, -7.645068 , -1.179662, 5.867201, 655380672.000000, -67.620003,  21.070000,  50.189999, 0.000000,  0.000000 
 13501632.000000, -7.398607 , 0.303888, 5.046463, 655400704.000000, -66.849998,  18.480000,  43.189999, 0.000000,  0.000000 
 13521344.000000, -7.695317 , 1.117448, 4.601398, 655420992.000000, -32.619999,  28.630001,  49.070000, 0.000000,  0.000000 
 13541312.000000, -9.190832 , 1.995614, 3.354738, 655440640.000000, 18.830000,  42.630001,  63.279999, 0.000000,  0.000000 
 13561344.000000, -10.040283 , 1.366302, 2.938386, 655460672.000000, 34.090000,  51.869999,  67.760002, 0.000000,  0.000000 
 13581312.000000, -9.305687 , -0.535992, 3.304488, 655480640.000000, 2.590000,  44.099998,  67.199997, 0.000000,  0.000000 
 13601600.000000, -7.661818 , -1.110270, 3.515057, 655500608.000000, -22.889999,  23.520000,  62.790001, 0.000000,  0.000000 
 13621312.000000, -6.606583 , -0.311067, 3.215954, 655520896.000000, -13.860000,  4.200000,  62.510002, 0.000000,  0.000000 
 13641280.000000, -6.214160 , 0.148355, 2.400001, 655540608.000000, 8.750000,  -4.900000,  59.500000, 0.000000,  0.000000 
 13661248.000000, -5.922236 , 0.043071, 2.464607, 655560576.000000, 12.460000,  -8.050000,  55.090000, 0.000000,  0.000000 
 13681216.000000, -5.795416 , -0.186640, 2.541178, 655580608.000000, -2.590000,  -10.220000,  52.080002, 0.000000,  0.000000 
 13701568.000000, -5.860023 , -0.131605, 2.409572, 655600576.000000, -16.660000,  -10.570000,  50.049999, 0.000000,  0.000000 
 13721216.000000, -6.367301 , -0.043071, 1.871187, 655620864.000000, -27.510000,  -6.650000,  52.709999, 0.000000,  0.000000 
 13741184.000000, -7.281359 , -0.736989, 1.677369, 655640576.000000, -44.730000,  -0.980000,  54.389999, 0.000000,  0.000000 
 13761216.000000, -8.262416 , -2.079363, 2.139183, 655660544.000000, -77.980003,  6.300000,  53.689999, 0.000000,  0.000000 
 13781184.000000, -9.734003 , -2.591427, 3.134598, 655680512.000000, -97.300003,  12.740000,  57.470001, 0.000000,  0.000000 
 13801472.000000, -11.205588 , -1.696511, 3.457629, 655700544.000000, -85.260002,  21.910000,  65.169998, 0.000000,  0.000000 
 13821184.000000, -11.877973 , -0.899701, 2.763710, 655720832.000000, -77.419998,  27.230000,  78.540001, 0.000000,  0.000000 
 13841152.000000, -11.643474 , -0.550349, 2.368894, 655740480.000000, -76.510002,  27.020000,  89.040001, 0.000000,  0.000000 
 13861184.000000, -10.865808 , -1.246661, 2.809174, 655760512.000000, -75.250000,  23.590000,  89.949997, 0.000000,  0.000000 
 13881152.000000, -10.784451 , -1.816152, 3.357130, 655780480.000000, -72.660004,  26.740000,  84.840004, 0.000000,  0.000000 
 13901440.000000, -11.308479 , -1.832902, 3.562913, 655800448.000000, -52.360001,  36.470001,  73.500000, 0.000000,  0.000000 
 13921088.000000, -12.387643 , -1.935793, 3.503092, 655820736.000000, -23.240000,  44.170002,  58.939999, 0.000000,  0.000000 
 13941120.000000, -13.837693 , -2.065006, 3.369094, 655840448.000000, -7.980000,  47.389999,  38.009998, 0.000000,  0.000000 
 13961088.000000, -15.940985 , -1.713261, 3.393023, 655860416.000000, 4.550000,  45.709999,  14.980000, 715849024.000000,  1011.045593 
 13981056.000000, -17.340786 , -1.170090, 3.897908, 655880448.000000, 24.850000,  49.349998,  -6.370000, 0.000000,  0.000000 
 14001408.000000, -15.751952 , -0.677169, 4.529613, 655900416.000000, 43.470001,  44.380001,  -25.900000, 0.000000,  0.000000 
 14021056.000000, -11.523834 , -0.122034, 4.867002, 655920704.000000, 54.740002,  18.549999,  -43.400002, 0.000000,  0.000000 
 14041088.000000, -8.398808 , 0.222532, 4.448257, 655940416.000000, 48.160000,  -17.360001,  -58.590000, 0.000000,  0.000000 
 14061056.000000, -6.915257 , 0.009571, 4.247260, 655960384.000000, 30.450001,  -31.920000,  -80.010002, 0.000000,  0.000000 
 14081024.000000, -7.116255 , -0.449851, 4.378866, 655980352.000000, 12.110000,  -28.490000,  -96.459999, 0.000000,  0.000000 
 14101312.000000, -8.240881 , -0.459422, 4.625326, 656000384.000000, 11.620000,  -17.010000,  -105.070000, 0.000000,  0.000000 
 14121024.000000, -8.977871 , -0.490529, 3.373880, 656020672.000000, 37.660000,  -9.310000,  -105.489998, 0.000000,  0.000000 
 14141056.000000, -8.872586 , -0.914058, 2.952743, 656040320.000000, 68.809998,  -17.290001,  -101.430000, 0.000000,  0.000000 
 14161024.000000, -8.370094 , -1.682154, 3.002992, 656060352.000000, 71.120003,  -35.490002,  -102.199997, 0.000000,  0.000000 
 14180992.000000, -7.915457 , -2.017149, 3.053242, 656080320.000000, 62.230000,  -48.720001,  -102.269997, 0.000000,  0.000000 
 14201280.000000, -7.606783 , -1.768296, 2.828316, 656100288.000000, 67.059998,  -56.209999,  -98.699997, 0.000000,  0.000000 
 14220992.000000, -7.288538 , -1.313660, 2.512464, 656120576.000000, 77.840004,  -62.369999,  -93.099998, 0.000000,  0.000000 
 14240960.000000, -7.061220 , -0.897308, 2.297110, 656140288.000000, 83.160004,  -68.879997,  -85.959999, 0.000000,  0.000000 
 14260928.000000, -6.943972 , -0.739382, 2.124826, 656160256.000000, 80.080002,  -74.199997,  -78.120003, 0.000000,  0.000000 
 14280896.000000, -7.097112 , -0.591027, 1.919044, 656180288.000000, 74.620003,  -76.090004,  -67.900002, 0.000000,  0.000000 
 14301248.000000, -7.434500 , -0.722632, 1.452443, 656200256.000000, 70.209999,  -74.620003,  -56.700001, 0.000000,  0.000000 
 14320896.000000, -8.025528 , -0.997807, 1.234696, 656220544.000000, 63.490002,  -69.930000,  -42.279999, 0.000000,  0.000000 
 14340864.000000, -8.853443 , -1.294517, 0.911665, 656240256.000000, 52.709999,  -62.790001,  -26.880001, 0.000000,  0.000000 
 14360896.000000, -9.777073 , -1.658226, 0.799203, 656260224.000000, 42.349998,  -53.200001,  -12.460000, 0.000000,  0.000000 
 14380864.000000, -10.590633 , -1.596013, 0.825524, 656280192.000000, 33.180000,  -42.209999,  -0.420000, 0.000000,  0.000000 
 14401152.000000, -10.628918 , -1.450050, 0.653241, 656300160.000000, 26.809999,  -35.560001,  9.940000, 0.000000,  0.000000 
 14420864.000000, -9.769895 , -1.098306, 0.736989, 656320512.000000, 21.910000,  -35.630001,  14.770000, 0.000000,  0.000000 
 14440832.000000, -8.623734 , -0.564706, 1.177269, 656340160.000000, 16.309999,  -38.220001,  13.020000, 0.000000,  0.000000 
 14460800.000000, -8.097312 , 0.117248, 1.505085, 656360128.000000, 10.010000,  -34.160000,  6.720000, 0.000000,  0.000000 
 14480832.000000, -8.176274 , 0.387637, 1.399801, 656380160.000000, 1.330000,  -22.469999,  -3.150000, 0.000000,  0.000000 
 14501120.000000, -9.035298 , 0.162712, 1.423729, 656400128.000000, -8.820000,  -6.930000,  -10.360000, 0.000000,  0.000000 
 14520768.000000, -10.415956 , -0.555135, 1.715654, 656420416.000000, -24.150000,  12.460000,  -12.880000, 0.000000,  0.000000 
 14540800.000000, -12.165110 , -0.937986, 1.529014, 656440128.000000, -41.930000,  30.100000,  -13.440001, 0.000000,  0.000000 
 14560768.000000, -14.471791 , -1.304088, 1.304088, 656460096.000000, -45.430000,  44.660000,  -10.430000, 0.000000,  0.000000 
 14580736.000000, -16.141981 , -1.746760, 1.679761, 656480064.000000, -41.299999,  60.060001,  -3.640000, 0.000000,  0.000000 
 14601088.000000, -15.795023 , -1.438086, 2.120041, 656500096.000000, -42.490002,  67.129997,  4.900000, 0.000000,  0.000000 
 14620736.000000, -14.098512 , -0.557528, 2.254039, 656520384.000000, -39.759998,  51.450001,  11.340000, 0.000000,  0.000000 
 14640704.000000, -12.076575 , -0.294317, 3.187240, 656540032.000000, -35.980000,  42.490002,  18.340000, 0.000000,  0.000000 
 14660736.000000, -10.281959 , -0.265603, 4.345366, 656560064.000000, -40.950001,  38.709999,  19.670000, 0.000000,  0.000000 
 14680704.000000, -8.939585 , -0.186640, 4.749753, 656580032.000000, -38.639999,  39.689999,  19.040001, 0.000000,  0.000000 
 14700992.000000, -8.556733 , -0.320638, 4.637290, 656600000.000000, -25.270000,  43.119999,  16.940001, 0.000000,  0.000000 
 14720704.000000, -9.358330 , -0.964308, 4.010371, 656620352.000000, -7.070000,  52.779999,  14.490000, 0.000000,  0.000000 
 14740672.000000, -9.896714 , -1.627119, 2.976671, 656640000.000000, 13.160000,  64.540001,  12.600000, 0.000000,  0.000000 
 14760640.000000, -9.513863 , -1.883151, 3.795017, 656659968.000000, 25.200001,  66.290001,  15.820000, 0.000000,  0.000000 
 14780672.000000, -9.406186 , -0.306281, 3.378666, 656680000.000000, 30.240000,  56.349998,  18.059999, 0.000000,  0.000000 
 14800960.000000, -8.829515 , 1.095913, 2.002793, 656699968.000000, 37.380001,  45.500000,  20.650000, 0.000000,  0.000000 
 14820800.000000, -7.350751 , 1.301696, 1.816152, 656720256.000000, 29.960001,  28.700001,  24.290001, 0.000000,  0.000000 
 14840640.000000, -5.855237 , 1.045663, 1.911865, 656740096.000000, 1.330000,  4.270000,  27.650000, 0.000000,  0.000000 
 14860608.000000, -4.852644 , 0.076570, 2.304288, 656759936.000000, -32.900002,  -5.740000,  27.160000, 0.000000,  0.000000 
 14880576.000000, -4.713861 , -0.892523, 2.675175, 656779904.000000, -64.959999,  -5.880000,  26.880001, 0.000000,  0.000000 
 14900928.000000, -5.321638 , -1.421337, 2.569891, 656799936.000000, -79.449997,  1.540000,  22.680000, 0.000000,  0.000000 
 14920576.000000, -6.032306 , -1.667797, 2.419144, 656820224.000000, -69.790001,  11.830000,  24.570000, 0.000000,  0.000000 
 14940544.000000, -6.903293 , -1.603191, 3.077170, 656859904.000000, -49.770000,  23.870001,  38.430000, 716848512.000000,  1011.023254 
 14960576.000000, -7.953743 , -1.272982, 2.797210, 0.000000, 0.000000,  0.000000,  0.000000, 0.000000,  0.000000 
 14980544.000000, -8.803195 , -1.268196, 2.313859, 656879872.000000, -53.060001,  24.850000,  48.090000, 0.000000,  0.000000 
 15000832.000000, -9.382257 , -1.739582, 2.007578, 656899840.000000, -64.889999,  23.660000,  57.189999, 0.000000,  0.000000 
 15020544.000000, -10.078569 , -2.215754, 2.524428, 656920128.000000, -76.790001,  22.680000,  66.709999, 0.000000,  0.000000 
 15040512.000000, -11.066804 , -2.447858, 3.282953, 656939840.000000, -83.860001,  27.440001,  73.150002, 0.000000,  0.000000 
 15060480.000000, -11.519048 , -2.088934, 3.213561, 656959808.000000, -79.169998,  34.369999,  76.650002, 0.000000,  0.000000 
 15080448.000000, -10.894521 , -1.409373, 2.957529, 656979840.000000, -60.410000,  31.430000,  75.599998, 0.000000,  0.000000 
 15100800.000000, -10.246067 , -1.167697, 3.148954, 656999808.000000, -45.920002,  20.020000,  67.340004, 0.000000,  0.000000 
 15120448.000000, -10.662418 , -0.777667, 3.603590, 657020096.000000, -39.759998,  19.879999,  56.139999, 0.000000,  0.000000 
 15140480.000000, -11.093125 , 0.078963, 3.077170, 657039808.000000, -33.670002,  28.350000,  40.040001, 0.000000,  0.000000 
 15160448.000000, -10.523634 , 0.198604, 2.447858, 657059776.000000, -27.370001,  27.790001,  26.250000, 0.000000,  0.000000 
 15180416.000000, -9.901501 , -0.598206, 2.658426, 657079744.000000, -30.590000,  18.200001,  16.940001, 0.000000,  0.000000 
 15200704.000000, -11.219944 , -1.818545, 2.790031, 657099712.000000, -44.799999,  16.799999,  8.680000, 0.000000,  0.000000 
 15220416.000000, -14.232510 , -3.290131, 3.007778, 657120064.000000, -51.240002,  33.810001,  2.450000, 0.000000,  0.000000 
 15240384.000000, -16.512869 , -4.139583, 3.156133, 657139712.000000, -37.310001,  58.029999,  3.150000, 0.000000,  0.000000 
 15260352.000000, -17.383856 , -3.964907, 3.352344, 657159744.000000, -8.540000,  53.340000,  9.100000, 0.000000,  0.000000 
 15280384.000000, -15.495919 , -2.790031, 3.531806, 657179712.000000, 25.900000,  38.220001,  16.520000, 0.000000,  0.000000 
 15300672.000000, -11.882757 , -1.016950, 3.414558, 657199680.000000, 55.299999,  10.080000,  17.639999, 0.000000,  0.000000 
 15320320.000000, -9.001799 , -0.265603, 3.507878, 657219968.000000, 76.510002,  -25.620001,  7.490000, 0.000000,  0.000000 
 15340352.000000, -8.042276 , -0.217747, 3.625126, 657239680.000000, 82.389999,  -34.299999,  -15.120000, 0.000000,  0.000000 
 15360320.000000, -9.195618 , -0.626920, 3.259024, 657259648.000000, 89.949997,  -33.110001,  -29.680000, 0.000000,  0.000000 
 15380288.000000, -10.652846 , -0.885344, 2.670390, 657279616.000000, 94.360001,  -18.620001,  -57.540001, 0.000000,  0.000000 
 15400640.000000, -10.547562 , -1.399801, 1.847259, 657299648.000000, 101.639999,  -9.940000,  -74.340004, 0.000000,  0.000000 
 15420288.000000, -10.121639 , -1.509871, 1.574477, 657319936.000000, 109.900002,  -21.280001,  -76.160004, 0.000000,  0.000000 
 15440256.000000, -8.839087 , -1.830509, 1.234696, 657339584.000000, 121.309998,  -44.939999,  -78.120003, 0.000000,  0.000000 
 15460288.000000, -7.843673 , -2.093720, 1.579263, 657359616.000000, 140.839996,  -59.430000,  -75.110001, 0.000000,  0.000000 
 15480256.000000, -7.566105 , -1.818545, 1.856830, 657379584.000000, 157.360001,  -64.959999,  -69.230003, 0.000000,  0.000000 
 15500544.000000, -7.537392 , -1.138984, 2.136791, 657399552.000000, 162.470001,  -65.519997,  -69.860001, 0.000000,  0.000000 
 15520256.000000, -7.640282 , 0.040678, 1.907080, 657419904.000000, 168.979996,  -66.849998,  -62.790001, 0.000000,  0.000000 
 15540224.000000, -7.417750 , 0.868595, 1.033699, 657439552.000000, 178.639999,  -72.239998,  -51.660000, 0.000000,  0.000000 
 15560192.000000, -6.862615 , 0.449851, 1.234696, 657459520.000000, 160.720001,  -81.269997,  -40.320000, 0.000000,  0.000000 
 15580224.000000, -6.544370 , -1.019342, 1.519442, 657479552.000000, 108.779999,  -90.580002,  -32.270000, 0.000000,  0.000000 
 15600512.000000, -6.716653 , -1.875973, 1.493121, 657499520.000000, 58.799999,  -90.650002,  -28.980000, 0.000000,  0.000000 
 15620160.000000, -7.257431 , -1.904687, 1.194018, 657519808.000000, 42.279999,  -80.989998,  -20.230000, 0.000000,  0.000000 
 15640192.000000, -7.862815 , -1.272982, 0.643669, 657539520.000000, 49.700001,  -70.139999,  -8.680000, 0.000000,  0.000000 
 15660160.000000, -8.585447 , -0.655633, 0.397209, 657559488.000000, 49.420002,  -59.849998,  2.590000, 0.000000,  0.000000 
 15680128.000000, -9.420543 , -0.519243, 0.172283, 657579456.000000, 34.860001,  -51.170002,  14.560000, 0.000000,  0.000000 
 15700480.000000, -10.181459 , -0.921237, 0.133998, 657599488.000000, 12.180000,  -44.939999,  21.350000, 0.000000,  0.000000 
 15720128.000000, -10.712667 , -1.438086, 0.299103, 657619776.000000, -16.520000,  -38.290001,  22.120001, 0.000000,  0.000000 
 15740096.000000, -10.612168 , -1.591227, 0.581456, 657639424.000000, -40.599998,  -35.279999,  19.950001, 0.000000,  0.000000 
 15760128.000000, -10.619347 , -1.079163, 0.863809, 657659456.000000, -49.349998,  -32.060001,  16.309999, 0.000000,  0.000000 
 15780096.000000, -10.671989 , -0.366102, 0.868595, 657679424.000000, -45.430000,  -24.219999,  6.930000, 0.000000,  0.000000 
 15800384.000000, -10.612168 , 0.062213, 1.136591, 657699392.000000, -39.549999,  -10.850000,  -3.640000, 0.000000,  0.000000 
 15820096.000000, -10.753345 , -0.035892, 1.426122, 657719744.000000, -42.700001,  1.890000,  -16.940001, 0.000000,  0.000000 
 15840064.000000, -12.112469 , 0.119641, 1.825724, 657739392.000000, -50.959999,  20.160000,  -30.660000, 0.000000,  0.000000 
 15860032.000000, -15.036497 , -0.186640, 2.266003, 657759360.000000, -55.580002,  43.959999,  -41.580002, 0.000000,  0.000000 
 15880064.000000, -16.934006 , -1.134198, 2.536392, 657779392.000000, -62.230000,  72.870003,  -44.869999, 0.000000,  0.000000 
 15900352.000000, -15.273388 , -1.615155, 3.043670, 657799360.000000, -66.220001,  80.010002,  -35.490002, 0.000000,  0.000000 
 15920000.000000, -12.830315 , -1.045663, 2.916851, 657819648.000000, -53.900002,  61.040001,  -10.430000, 0.000000,  0.000000 
 15940032.000000, -11.164910 , -0.545564, 3.096312, 657839360.000000, -35.070000,  50.750000,  14.070000, 0.000000,  0.000000 
 15960000.000000, -9.714860 , -0.282353, 3.634698, 657859328.000000, -27.510000,  50.959999,  26.530001, 717847936.000000,  1011.002747 
 15979968.000000, -8.487342 , -0.241675, 4.378866, 657879296.000000, -25.620001,  47.529999,  34.090000, 0.000000,  0.000000 
 16000320.000000, -8.264810 , -0.232104, 4.778467, 657899328.000000, -19.040001,  45.920002,  34.650002, 0.000000,  0.000000 
 16019968.000000, -9.150154 , -0.050249, 4.725825, 657919616.000000, -4.900000,  49.560001,  29.540001, 0.000000,  0.000000 
 16039936.000000, -9.762716 , 0.133998, 3.704089, 657939264.000000, 13.020000,  54.389999,  22.889999, 0.000000,  0.000000 
 16059968.000000, -9.068797 , 0.332602, 3.062813, 657959296.000000, 28.280001,  46.130001,  21.770000, 0.000000,  0.000000 
 16079936.000000, -7.743174 , 0.660419, 2.854637, 657979264.000000, 28.490000,  25.549999,  23.100000, 0.000000,  0.000000 
 16100224.000000, -6.635297 , 1.007378, 2.316252, 657999232.000000, 19.530001,  8.820000,  25.969999, 0.000000,  0.000000 
 16119936.000000, -5.606383 , 1.055235, 1.942972, 658019584.000000, 9.380000,  -1.820000,  27.090000, 0.000000,  0.000000 
 16139968.000000, -5.201996 , 0.512064, 1.990828, 658039232.000000, -9.590000,  -5.950000,  27.090000, 0.000000,  0.000000 
 16159872.000000, -5.283352 , -0.167498, 2.115255, 658059264.000000, -32.130001,  -3.430000,  25.900000, 0.000000,  0.000000 
 16179904.000000, -5.788238 , -0.246461, 2.177469, 658079232.000000, -43.680000,  1.820000,  25.830000, 0.000000,  0.000000 
 16200192.000000, -6.443871 , -0.299103, 1.837688, 658099200.000000, -42.349998,  7.420000,  29.820000, 0.000000,  0.000000 
 16219840.000000, -6.903293 , -0.567099, 1.756332, 658119488.000000, -39.549999,  8.610000,  34.860001, 0.000000,  0.000000 
 16239872.000000, -7.475177 , -0.937986, 1.916651, 658139200.000000, -48.580002,  8.610000,  40.180000, 0.000000,  0.000000 
 16259840.000000, -8.322237 , -0.796810, 2.160719, 658159168.000000, -58.660000,  13.090000,  44.799999, 0.000000,  0.000000 
 16279808.000000, -9.499505 , -0.423530, 1.993221, 658179136.000000, -59.080002,  22.120001,  51.240002, 0.000000,  0.000000 
 16300096.000000, -10.980663 , -0.612563, 2.316252, 658199168.000000, -61.320000,  33.529999,  57.680000, 0.000000,  0.000000 
 16319808.000000, -12.332609 , -1.194018, 2.892922, 658219456.000000, -75.110001,  44.660000,  62.090000, 0.000000,  0.000000 
 16339776.000000, -12.490535 , -1.423729, 3.493521, 658239104.000000, -87.989998,  50.400002,  65.590004, 0.000000,  0.000000 
 16359808.000000, -11.318050 , -0.880559, 3.424129, 658259136.000000, -84.349998,  42.139999,  67.340004, 0.000000,  0.000000 
 16379776.000000, -10.377672 , -0.368495, 3.311667, 658279104.000000, -68.529999,  28.000000,  65.029999, 0.000000,  0.000000 
 16400064.000000, -10.640882 , -0.698704, 3.302095, 658299072.000000, -55.369999,  23.240000,  52.920002, 0.000000,  0.000000 
 16419712.000000, -11.770294 , -1.220340, 3.471986, 658319424.000000, -48.299999,  31.430000,  37.590000, 0.000000,  0.000000 
 16439744.000000, -13.359130 , -1.639083, 3.483950, 658339072.000000, -39.830002,  38.360001,  22.330000, 0.000000,  0.000000 
 16459712.000000, -16.158731 , -1.950150, 3.701697, 658359040.000000, -23.100000,  40.110001,  12.180000, 0.000000,  0.000000 
 16479680.000000, -17.943777 , -1.538585, 3.352344, 658379072.000000, -5.390000,  52.290001,  3.500000, 0.000000,  0.000000 
 16500032.000000, -16.474585 , -0.540778, 3.132205, 658399040.000000, 13.860000,  44.099998,  2.100000, 0.000000,  0.000000 
 16519680.000000, -12.134004 , -0.540778, 3.541377, 658419328.000000, 23.660000,  13.580000,  0.910000, 0.000000,  0.000000 
 16539648.000000, -8.511270 , -0.071785, 3.543770, 658439040.000000, 23.520000,  -24.010000,  -3.080000, 0.000000,  0.000000 
 16559680.000000, -6.637690 , -0.705883, 3.641876, 658459008.000000, 23.520000,  -39.410000,  -21.000000, 0.000000,  0.000000 
 16579648.000000, -7.298109 , -1.347159, 4.213760, 658478976.000000, 25.900000,  -32.549999,  -46.340000, 0.000000,  0.000000 
 16600000.000000, -9.542577 , -1.677369, 4.027121, 658498944.000000, 37.450001,  -6.510000,  -67.340004, 0.000000,  0.000000 
 16619648.000000, -10.140782 , -1.883151, 3.292524, 658519296.000000, 60.900002,  7.700000,  -77.559998, 0.000000,  0.000000 
 16639616.000000, -8.970692 , -1.899901, 2.519642, 658538944.000000, 81.480003,  -13.790000,  -75.320000, 0.000000,  0.000000 
 16659584.000000, -7.917850 , -1.617548, 2.313859, 658558912.000000, 87.220001,  -47.740002,  -66.010002, 0.000000,  0.000000 
 16679616.000000, -7.312466 , -1.423729, 2.115255, 658578944.000000, 76.370003,  -64.750000,  -61.110001, 0.000000,  0.000000 
 16699904.000000, -6.951149 , -1.261017, 1.899901, 658598912.000000, 63.630001,  -73.430000,  -58.099998, 0.000000,  0.000000 
 16719552.000000, -6.766902 , -1.347159, 1.773082, 658619264.000000, 44.939999,  -78.260002,  -55.720001, 0.000000,  0.000000 
 16739584.000000, -6.900900 , -1.406980, 1.804188, 658638912.000000, 25.760000,  -80.150002,  -54.740002, 0.000000,  0.000000 
 16759552.000000, -7.020542 , -1.239482, 1.655833, 658658880.000000, 14.350000,  -78.610001,  -55.160000, 0.000000,  0.000000 
 16779520.000000, -6.762117 , -1.359123, 1.505085, 658678848.000000, 8.960000,  -80.430000,  -52.849998, 0.000000,  0.000000 
 16799872.000000, -6.618547 , -1.679761, 1.529014, 658698880.000000, -3.500000,  -84.489998,  -50.750000, 0.000000,  0.000000 
 16819520.000000, -6.929615 , -2.057827, 1.593620, 658719168.000000, -19.460001,  -84.769997,  -49.070000, 0.000000,  0.000000 
 16839488.000000, -7.747960 , -2.270789, 1.588834, 658738816.000000, -28.350000,  -77.629997,  -48.090000, 0.000000,  0.000000 
 16859520.000000, -8.736196 , -2.218147, 1.272982, 658758848.000000, -24.920000,  -66.919998,  -45.990002, 0.000000,  0.000000 
 16879488.000000, -9.571291 , -2.258825, 1.024128, 658778816.000000, -17.500000,  -57.820000,  -42.279999, 0.000000,  0.000000 
 16899776.000000, -10.212566 , -2.447858, 0.995414, 658798784.000000, -16.170000,  -50.259998,  -36.959999, 0.000000,  0.000000 
 16919488.000000, -10.583455 , -2.244468, 1.414158, 658819136.000000, -15.540000,  -40.740002,  -30.730000, 0.000000,  0.000000 
 16939456.000000, -10.980663 , -1.545763, 1.557728, 658838784.000000, -8.540000,  -29.400000,  -26.180000, 0.000000,  0.000000 
 16959424.000000, -11.045268 , -1.062413, 1.423729, 658878784.000000, 13.090000,  -10.710000,  -21.280001, 718847424.000000,  1010.981323 
 16979456.000000, -10.643275 , -0.792024, 1.375873, 0.000000, 0.000000,  0.000000,  0.000000, 0.000000,  0.000000 
 16999744.000000, -10.583455 , -0.973879, 2.084148, 658898752.000000, 10.780000,  -3.010000,  -22.260000, 0.000000,  0.000000 
 17019392.000000, -11.650653 , -0.899701, 2.079363, 658919040.000000, 3.500000,  10.150000,  -26.040001, 0.000000,  0.000000 
 17039424.000000, -13.471591 , -0.844666, 1.722832, 658938752.000000, 7.840000,  31.290001,  -26.180000, 0.000000,  0.000000 
 17059392.000000, -14.682359 , -1.349552, 1.368695, 658958720.000000, 14.910000,  52.360001,  -20.230000, 0.000000,  0.000000 
 17079360.000000, -14.770894 , -1.686940, 1.651048, 658978688.000000, 12.530000,  58.099998,  -9.590000, 0.000000,  0.000000 
 17099712.000000, -14.512468 , -1.263410, 2.392823, 658998720.000000, 6.650000,  56.630001,  3.780000, 0.000000,  0.000000 
 17119360.000000, -13.574483 , -0.564706, 2.531606, 659019008.000000, 1.540000,  60.900002,  24.570000, 0.000000,  0.000000 
 17139392.000000, -11.344372 , -0.122034, 2.653640, 659038656.000000, -5.530000,  59.849998,  41.299999, 0.000000,  0.000000 
 17159360.000000, -9.090333 , -0.227318, 2.962314, 659058688.000000, -18.480000,  46.410000,  54.670002, 0.000000,  0.000000 
 17179328.000000, -7.573284 , -0.483350, 3.342773, 659078656.000000, -32.549999,  35.560001,  59.430000, 0.000000,  0.000000 
 17199616.000000, -7.606783 , -0.861416, 3.570091, 659098624.000000, -38.360001,  36.259998,  55.720001, 0.000000,  0.000000 
 17219328.000000, -8.932407 , -0.973879, 3.428915, 659118976.000000, -23.450001,  48.650002,  48.160000, 0.000000,  0.000000 
 17239296.000000, -9.631111 , -0.488136, 2.938386, 659138624.000000, -10.920000,  55.860001,  44.590000, 0.000000,  0.000000 
 17259264.000000, -8.709875 , -0.153141, 2.333002, 659158592.000000, 13.790000,  56.490002,  40.810001, 0.000000,  0.000000 
 17279296.000000, -8.063812 , -0.052642, 2.222932, 659178624.000000, 22.330000,  34.020000,  39.830002, 0.000000,  0.000000 
 17299584.000000, -6.463014 , 0.148355, 2.270789, 659198592.000000, 11.340000,  8.330000,  39.270000, 0.000000,  0.000000 
 17319232.000000, -6.144768 , 0.028714, 2.400001, 659218880.000000, -10.290000,  -4.550000,  35.420002, 0.000000,  0.000000 
 17339264.000000, -5.998806 , -0.327817, 2.467000, 659238592.000000, -32.689999,  -6.160000,  29.469999, 0.000000,  0.000000 
 17359232.000000, -6.104091 , -0.650848, 2.292324, 659258560.000000, -49.349998,  -2.660000,  23.799999, 0.000000,  0.000000 
 17379200.000000, -6.405586 , -0.753739, 2.222932, 659278528.000000, -53.200001,  1.890000,  22.400000, 0.000000,  0.000000 
 17399552.000000, -6.955935 , -0.854238, 2.182254, 659298560.000000, -52.570000,  5.740000,  23.590000, 0.000000,  0.000000 
 17419200.000000, -7.788638 , -1.184447, 2.062613, 659318848.000000, -53.410000,  10.220000,  28.420000, 0.000000,  0.000000 
 17439168.000000, -8.329416 , -1.471586, 2.081756, 659338496.000000, -57.540001,  14.000000,  34.299999, 0.000000,  0.000000 
 17459200.000000, -8.640482 , -1.636691, 2.155933, 659358528.000000, -60.060001,  14.910000,  43.330002, 0.000000,  0.000000 
 17479168.000000, -9.305687 , -1.612763, 2.411965, 659378496.000000, -57.610001,  16.520000,  53.760002, 0.000000,  0.000000 
 17499456.000000, -10.341780 , -1.158126, 2.744568, 659398464.000000, -53.410000,  24.920000,  60.549999, 0.000000,  0.000000 
 17519168.000000, -11.452050 , -0.772882, 2.921637, 659418816.000000, -51.380001,  36.400002,  64.470001, 0.000000,  0.000000 
 17539136.000000, -11.734402 , -0.827917, 2.801995, 659438464.000000, -53.060001,  41.650002,  66.919998, 0.000000,  0.000000 
 17559104.000000, -11.198411 , -1.107877, 2.962314, 659458432.000000, -59.500000,  33.599998,  64.610001, 0.000000,  0.000000 
 17579136.000000, -10.459028 , -1.136591, 3.249453, 659478464.000000, -64.750000,  21.910000,  58.939999, 0.000000,  0.000000 
 17599488.000000, -9.820145 , -0.770489, 2.957529, 659498432.000000, -59.639999,  15.050000,  50.259998, 0.000000,  0.000000 
 17619072.000000, -9.341579 , -0.533599, 2.488536, 659518848.000000, -45.849998,  9.380000,  40.040001, 0.000000,  0.000000 
 17639104.000000, -9.985250 , -0.971486, 2.548356, 659538432.000000, -38.500000,  7.210000,  30.450001, 0.000000,  0.000000 
 17659072.000000, -11.152946 , -1.658226, 2.739782, 659558400.000000, -47.810001,  16.170000,  21.210001, 0.000000,  0.000000 
 17679040.000000, -12.282358 , -2.139183, 2.545963, 659578368.000000, -56.209999,  23.660000,  16.030001, 0.000000,  0.000000 
 17699328.000000, -14.012369 , -2.495714, 2.656033, 659598400.000000, -49.349998,  23.870001,  16.240000, 0.000000,  0.000000 
 17719040.000000, -15.328422 , -2.857030, 2.713461, 659618688.000000, -42.980000,  32.689999,  18.549999, 0.000000,  0.000000 
 17739008.000000, -15.732809 , -2.636890, 3.014957, 659638336.000000, -32.619999,  33.529999,  23.030001, 0.000000,  0.000000 
 17759040.000000, -13.799409 , -1.856830, 3.665804, 659658368.000000, -13.790000,  27.230000,  25.549999, 0.000000,  0.000000 
 17779008.000000, -10.712667 , -1.280160, 4.000800, 659678336.000000, 5.460000,  9.660000,  25.690001, 0.000000,  0.000000 
 17799296.000000, -8.410772 , -1.150948, 3.711268, 659718592.000000, 43.540001,  -16.309999,  -6.720000, 0.000000,  0.000000 
 17819008.000000, -7.525427 , -1.538585, 3.517449, 0.000000, 0.000000,  0.000000,  0.000000, 0.000000,  0.000000 
 17838976.000000, -8.011170 , -1.696511, 3.093920, 659738304.000000, 59.709999,  -8.680000,  -30.940001, 0.000000,  0.000000 
 17858944.000000, -8.961121 , -1.672583, 2.545963, 659758272.000000, 80.360001,  0.910000,  -51.099998, 0.000000,  0.000000 
 17878976.000000, -9.102298 , -1.182054, 2.132005, 659778304.000000, 102.550003,  0.070000,  -63.560001, 0.000000,  0.000000 
 17899264.000000, -8.664411 , -0.696311, 1.914258, 659798272.000000, 107.449997,  -14.910000,  -68.809998, 0.000000,  0.000000 
 17918912.000000, -7.824530 , -0.478565, 1.799403, 659818560.000000, 88.620003,  -32.970001,  -71.540001, 0.000000,  0.000000 
 17938944.000000, -6.943972 , -0.610170, 1.624727, 659838272.000000, 56.490002,  -47.880001,  -73.639999, 0.000000,  0.000000 
 17958912.000000, -6.458229 , -0.626920, 1.663012, 659858240.000000, 27.580000,  -57.189999,  -74.900002, 719846848.000000,  1010.956604 
 17978880.000000, -6.503692 , -0.851845, 1.847259, 659878208.000000, 5.250000,  -58.939999,  -77.070000, 0.000000,  0.000000 
 17999168.000000, -7.159326 , -1.213161, 1.921437, 659898240.000000, -10.080000,  -53.270000,  -78.820000, 0.000000,  0.000000 
 18018880.000000, -7.920243 , -1.627119, 1.986043, 659918528.000000, -18.270000,  -47.250000,  -80.220001, 0.000000,  0.000000 
 18038848.000000, -8.276773 , -1.969293, 1.816152, 659938176.000000, -21.000000,  -45.779999,  -74.199997, 0.000000,  0.000000 
 18058816.000000, -8.434700 , -2.321038, 1.658226, 659958208.000000, -18.900000,  -49.139999,  -63.840000, 0.000000,  0.000000 
 18078848.000000, -8.671589 , -2.605784, 1.368695, 659978176.000000, -11.620000,  -52.500000,  -52.009998, 0.000000,  0.000000 
 18099136.000000, -9.281759 , -2.622534, 1.172483, 659998144.000000, 4.480000,  -51.590000,  -41.369999, 0.000000,  0.000000 
 18118784.000000, -9.729217 , -2.160719, 1.103091, 660018432.000000, 26.600000,  -48.020000,  -32.340000, 0.000000,  0.000000 
 18138816.000000, -9.930215 , -1.584049, 1.009771, 660038144.000000, 44.799999,  -45.080002,  -24.150000, 0.000000,  0.000000 
 18158784.000000, -9.597611 , -0.983450, 0.387637, 660058176.000000, 52.779999,  -44.099998,  -19.180000, 0.000000,  0.000000 
 18178752.000000, -9.779467 , -0.820738, 0.428315, 660078080.000000, 47.180000,  -49.209999,  -19.530001, 0.000000,  0.000000 
 18199104.000000, -10.035499 , -0.933201, 0.777667, 660098112.000000, 26.670000,  -36.540001,  -24.639999, 0.000000,  0.000000 
 18218752.000000, -9.798609 , -0.885344, 1.062413, 660118400.000000, 5.320000,  -25.690001,  -29.049999, 0.000000,  0.000000 
 18238720.000000, -9.260223 , -0.796810, 1.332802, 660138048.000000, -2.590000,  -19.809999,  -33.670002, 0.000000,  0.000000 
 18258752.000000, -9.241080 , -0.799203, 1.497907, 660158080.000000, -6.300000,  -12.390000,  -35.560001, 0.000000,  0.000000 
 18278720.000000, -9.528220 , -1.268196, 1.579263, 660178048.000000, -15.470000,  0.560000,  -37.730000, 0.000000,  0.000000 
 18299008.000000, -9.901501 , -1.679761, 1.962115, 660198016.000000, -21.070000,  11.340000,  -37.380001, 0.000000,  0.000000 
 18318720.000000, -10.942378 , -2.031506, 2.110470, 660218368.000000, -19.110001,  22.190001,  -30.799999, 0.000000,  0.000000 
 18338688.000000, -13.445271 , -2.038685, 2.050649, 660238016.000000, -12.950000,  36.540001,  -22.469999, 0.000000,  0.000000 
 18358656.000000, -15.876379 , -1.916651, 2.096112, 660257984.000000, -4.550000,  61.459999,  -12.880000, 0.000000,  0.000000 
 18378688.000000, -15.783059 , -1.792224, 2.170290, 660278016.000000, 4.970000,  72.379997,  4.200000, 0.000000,  0.000000 
 18398976.000000, -14.871392 , -1.457229, 2.584249, 660297984.000000, 21.490000,  56.980000,  27.860001, 0.000000,  0.000000 
 18418624.000000, -14.060226 , -1.272982, 3.010171, 660318272.000000, 25.410000,  49.840000,  47.529999, 0.000000,  0.000000 
 18438656.000000, -12.093326 , -1.093520, 3.503092, 660337984.000000, 18.480000,  52.920002,  61.670002, 0.000000,  0.000000 
 18458624.000000, -9.568897 , -0.782453, 3.682554, 660357952.000000, 19.040001,  43.259998,  73.080002, 0.000000,  0.000000 
 18478592.000000, -7.733603 , -0.459422, 3.701697, 660377920.000000, 26.040001,  26.809999,  76.510002, 0.000000,  0.000000 
 18498944.000000, -7.640282 , -0.526421, 3.625126, 660397952.000000, 26.670000,  21.280001,  69.230003, 0.000000,  0.000000 
 18518592.000000, -8.932407 , -0.847059, 3.256632, 660418240.000000, 20.020000,  31.920000,  57.119999, 0.000000,  0.000000 
 18538560.000000, -9.786645 , -1.050449, 2.656033, 660437888.000000, 16.100000,  40.670002,  48.020000, 0.000000,  0.000000 
 18558592.000000, -9.573684 , -0.811167, 2.297110, 660457920.000000, 15.610000,  29.400000,  41.720001, 0.000000,  0.000000 
 18578560.000000, -8.879765 , -0.736989, 2.318645, 660477888.000000, 8.470000,  10.500000,  39.130001, 0.000000,  0.000000 
 18598848.000000, -8.063812 , -0.739382, 2.457429, 660497856.000000, -4.270000,  -1.400000,  36.400002, 0.000000,  0.000000 
 18618560.000000, -7.188039 , -0.552742, 2.689533, 660518208.000000, -14.000000,  -7.770000,  31.710001, 0.000000,  0.000000 
 18638528.000000, -6.439085 , 0.026321, 2.421536, 660537856.000000, -16.870001,  -14.560000,  26.040001, 0.000000,  0.000000 
 18658496.000000, -6.025128 , 0.055035, 1.840081, 660557824.000000, -20.020000,  -20.370001,  19.460001, 0.000000,  0.000000 
 18678528.000000, -5.654240 , -0.380459, 1.557728, 660577856.000000, -31.570000,  -23.799999,  13.370000, 0.000000,  0.000000 
 18698816.000000, -5.510671 , -1.127020, 1.552942, 660597824.000000, -52.150002,  -24.920000,  9.240000, 0.000000,  0.000000 
 18718464.000000, -5.704489 , -1.574477, 1.727618, 660618112.000000, -66.570000,  -23.940001,  8.050000, 0.000000,  0.000000 
 18738496.000000, -6.439085 , -1.584049, 1.619941, 660637824.000000, -66.849998,  -18.200001,  8.540000, 0.000000,  0.000000 
 18758464.000000, -7.334002 , -1.313660, 1.813759, 660657792.000000, -54.459999,  -10.920000,  9.590000, 0.000000,  0.000000 
 18778432.000000, -8.353344 , -0.923629, 2.041078, 660677760.000000, -42.770000,  -3.780000,  14.280000, 0.000000,  0.000000 
 18798720.000000, -9.329616 , -0.787239, 1.954936, 660697792.000000, -39.270000,  1.960000,  20.020000, 0.000000,  0.000000 
 18818560.000000, -10.377672 , -1.050449, 2.122434, 660718080.000000, -40.810001,  4.340000,  25.549999, 0.000000,  0.000000 
 18838400.000000, -11.030912 , -1.265803, 2.421536, 660737920.000000, -46.130001,  8.960000,  29.610001, 0.000000,  0.000000 
 18858432.000000, -11.064411 , -1.069592, 2.880959, 660757760.000000, -48.860001,  9.590000,  31.290001, 0.000000,  0.000000 
 18878400.000000, -10.506885 , -0.550349, 3.055635, 660777728.000000, -42.349998,  7.210000,  31.150000, 0.000000,  0.000000 
 18898688.000000, -10.186246 , -0.210568, 2.988636, 660797696.000000, -30.450001,  7.210000,  31.360001, 0.000000,  0.000000 
 18918400.000000, -10.061819 , -0.471386, 2.967100, 660818048.000000, -24.150000,  15.260000,  28.420000, 0.000000,  0.000000 
 18938368.000000, -9.978070 , -0.882952, 2.840281, 660837696.000000, -27.160000,  22.260000,  27.090000, 0.000000,  0.000000 
 18958336.000000, -10.332209 , -1.210768, 2.321038, 660857664.000000, -30.309999,  27.440001,  27.299999, 720846272.000000,  1010.932190 
 18978368.000000, -12.449856 , -1.775474, 2.136791, 660877696.000000, -28.840000,  32.970001,  30.380001, 0.000000,  0.000000 
