time,seconds_elapsed,z,y,x
1633779988470399700,0.026399658203125,16.658294677734375,-34.167884826660156,-1.8609657287597656
1633779988490279700,0.04627978515625,17.3135986328125,-33.80303192138672,-1.8659133911132812
1633779988510158800,0.066158935546875,17.667999267578125,-33.75857925415039,-1.8830604553222656
1633779988530037800,0.086037841796875,17.86737060546875,-33.68974304199219,-2.0300559997558594
1633779988549917700,0.105917724609375,17.9720458984375,-33.50701141357422,-2.0642662048339844
1633779988569800000,0.125800048828125,18.02313232421875,-33.43143081665039,-2.415119171142578
1633779988589679000,0.14567919921875,18.713623046875,-33.054649353027344,-2.759449005126953
1633779988609557800,0.165557861328125,18.800872802734375,-32.80842208862305,-2.7103042602539062
1633779988629438000,0.18543798828125,18.712646484375,-32.52804946899414,-3.104358673095703
1633779988649317000,0.205317138671875,18.48260498046875,-32.44274139404297,-3.540416717529297
1633779988669195800,0.22519580078125,19.00360107421875,-32.48061752319336,-3.6029014587402344
1633779988689076000,0.245075927734375,18.59564208984375,-32.622840881347656,-3.96112060546875
1633779988708955000,0.264954833984375,18.337432861328125,-32.85240173339844,-4.137218475341797
1633779988728833800,0.284833740234375,18.419158935546875,-32.855308532714844,-4.5989227294921875
1633779988748713000,0.304712890625,17.790679931640625,-32.83607864379883,-4.923851013183594
1633779988768593000,0.324593017578125,17.55535888671875,-32.80454635620117,-4.991416931152344
1633779988788472000,0.34447216796875,16.9920654296875,-33.086605072021484,-5.326374053955078
1633779988808350700,0.364350830078125,16.16680908203125,-33.45219421386719,-5.1686553955078125
1633779988828231000,0.38423095703125,15.864227294921875,-33.49874496459961,-5.472942352294922
1633779988848110000,0.404110107421875,15.9112548828125,-33.64022445678711,-5.7545166015625
1633779988867988700,0.42398876953125,16.118743896484375,-33.544708251953125,-5.781543731689453
1633779988887869000,0.443868896484375,16.18853759765625,-33.595664978027344,-5.083305358886719
1633779988907748000,0.463748046875,16.057220458984375,-33.57252502441406,-4.701881408691406
1633779988927626800,0.483626708984375,15.3128662109375,-33.60895538330078,-4.262237548828125
1633779988947506000,0.503505859375,15.7939453125,-33.95929718017578,-3.1044998168945312
1633779988967386000,0.52338623046875,16.138214111328125,-33.710689544677734,-2.0449981689453125
1633779988987264800,0.5432646484375,16.8155517578125,-33.285400390625,-1.0145187377929688
1633779989007144000,0.56314404296875,17.133270263671875,-33.257911682128906,-0.3336334228515625
1633779989027024100,0.583024169921875,17.094696044921875,-33.524559020996094,0.36341094970703125
1633779989046902800,0.60290283203125,17.2894287109375,-33.21722412109375,0.6302680969238281
1633779989066782000,0.622781982421875,17.221649169921875,-33.0461540222168,0.9467849731445312
1633779989086660900,0.642660888671875,17.443634033203125,-33.20124435424805,1.0813636779785156
1633779989106540800,0.662540771484375,17.352294921875,-32.92388916015625,1.2757911682128906
1633779989126420000,0.682419921875,17.806854248046875,-33.067752838134766,1.1059417724609375
1633779989146299000,0.702298828125,17.505096435546875,-32.97632598876953,1.2941360473632812
1633779989166178800,0.7221787109375,17.095947265625,-33.34101486206055,1.3479194641113281
1633779989186057700,0.7420576171875,17.010345458984375,-33.35260772705078,1.7986907958984375
1633779989205937000,0.76193701171875,16.5758056640625,-33.64186096191406,2.423168182373047
1633779989225816000,0.781816162109375,16.10467529296875,-33.72178649902344,3.3152694702148438
1633779989245695700,0.80169580078125,15.562530517578125,-33.835899353027344,3.67767333984375
1633779989265575000,0.821574951171875,15.514892578125,-33.951663970947266,3.7638092041015625
1633779989285453800,0.841453857421875,15.303741455078125,-34.00152587890625,3.7824668884277344
1633779989305333800,0.861333740234375,15.185089111328125,-33.96001052856445,3.628856658935547
1633779989325213000,0.881212890625,15.440948486328125,-33.803165435791016,3.6814117431640625
1633779989345091800,0.901091796875,15.140472412109375,-33.8277587890625,3.829792022705078
1633779989364971800,0.9209716796875,15.27532958984375,-33.950748443603516,4.003383636474609
1633779989384851000,0.940850830078125,14.738739013671875,-33.877159118652344,3.7725448608398438
1633779989404729900,0.960729736328125,14.886383056640625,-33.90833282470703,4.24896240234375
1633779989424609000,0.980609130859375,14.93768310546875,-34.0822639465332,3.4210853576660156
1633779989444489000,1.000489013671875,15.15081787109375,-33.73015594482422,2.9505043029785156
1633779989464367900,1.020367919921875,16.0489501953125,-33.51169967651367,2.7398033142089844
1633779989484247000,1.0402470703125,16.549407958984375,-33.019737243652344,2.429698944091797
1633779989504127000,1.060126953125,17.216064453125,-32.69620132446289,1.9011039733886719
1633779989524006000,1.080005859375,17.991058349609375,-32.671478271484375,1.2130584716796875
1633779989543885000,1.099885009765625,18.017822265625,-32.309654235839844,0.19137954711914062
1633779989563760400,1.119760498046875,18.661773681640625,-32.06998062133789,-1.2048683166503906
1633779989583640000,1.13964013671875,18.41656494140625,-31.733116149902344,-2.1238059997558594
1633779989603519200,1.159519287109375,18.828857421875,-31.336387634277344,-3.243457794189453
1633779989623398100,1.179398193359375,18.6661376953125,-31.158008575439453,-4.622089385986328
1633779989643278000,1.199278076171875,18.73956298828125,-30.900524139404297,-5.796443939208984
1633779989663157200,1.2191572265625,18.55596923828125,-30.508380889892578,-6.77362060546875
1633779989683036200,1.2390361328125,18.7967529296875,-30.24996566772461,-7.582714080810547
1633779989702916000,1.258916015625,18.778045654296875,-29.9964599609375,-8.381217956542969
1633779989722795300,1.278795166015625,18.902496337890625,-29.527809143066406,-9.364566802978516
1633779989742674200,1.298674072265625,18.606475830078125,-29.258670806884766,-10.261077880859375
1633779989762553000,1.318552978515625,18.307037353515625,-28.838451385498047,-11.535709381103516
1633779989782433300,1.338433349609375,17.866607666015625,-28.86920166015625,-12.103389739990234
1633779989802312200,1.358312255859375,17.98846435546875,-28.845680236816406,-13.23721694946289
1633779989822191400,1.37819140625,18.031005859375,-28.573612213134766,-14.112621307373047
1633779989842071000,1.398071044921875,18.19561767578125,-28.22555160522461,-14.71590805053711
1633779989861950200,1.4179501953125,18.01385498046875,-27.933727264404297,-15.180652618408203
1633779989881829400,1.437829345703125,17.951568603515625,-27.508419036865234,-15.667255401611328
1633779989901708000,1.4577080078125,17.9034423828125,-27.391132354736328,-15.982044219970703
1633779989921588200,1.477588134765625,17.49298095703125,-27.165565490722656,-16.639217376708984
1633779989941467100,1.497467041015625,17.51654052734375,-26.860397338867188,-17.04079818725586
1633779989961346000,1.517345947265625,17.9412841796875,-26.272422790527344,-17.498432159423828
1633779989981226200,1.537226318359375,17.95416259765625,-25.88652801513672,-17.97091293334961
1633779990001105200,1.557105224609375,17.11688232421875,-25.659801483154297,-18.803653717041016
1633779990020984000,1.576984130859375,16.12274169921875,-25.534137725830078,-20.295978546142578
1633779990040863200,1.59686328125,15.107177734375,-25.224102020263672,-21.779712677001953
1633779990060743200,1.6167431640625,14.241485595703125,-25.11123275756836,-22.86368179321289
1633779990080622000,1.6366220703125,12.747100830078125,-24.645668029785156,-24.291805267333984
1633779990100501000,1.6565009765625,12.24407958984375,-24.24392318725586,-25.08510971069336
1633779990120381200,1.676381103515625,11.285797119140625,-23.844863891601562,-26.206317901611328
1633779990140260000,1.696260009765625,10.9254150390625,-23.2025146484375,-27.60171127319336
1633779990160139000,1.716138916015625,9.793121337890625,-22.019248962402344,-29.118907928466797
1633779990180019200,1.736019287109375,8.91607666015625,-21.173477172851562,-30.408283233642578
1633779990199898400,1.7558984375,8.5101318359375,-20.00696563720703,-31.27908706665039
1633779990219777000,1.775777099609375,8.214599609375,-18.86587905883789,-32.09482192993164
1633779990239656200,1.79565625,8.21429443359375,-17.695079803466797,-33.11576461791992
1633779990259536400,1.815536376953125,8.458984375,-16.535629272460938,-33.9581413269043
1633779990279415000,1.8354150390625,7.8701171875,-15.365959167480469,-35.17410659790039
1633779990299294200,1.855294189453125,8.095733642578125,-14.149765014648438,-35.781002044677734
1633779990319174100,1.875174072265625,7.184356689453125,-12.830684661865234,-36.73855209350586
1633779990339053000,1.895052978515625,6.458160400390625,-11.222232818603516,-37.5910758972168
1633779990358932200,1.91493212890625,5.789337158203125,-9.784759521484375,-38.3405647277832
1633779990378811100,1.93481103515625,4.6353759765625,-8.148273468017578,-39.27363204956055
1633779990398691000,1.954691162109375,4.2445068359375,-6.385311126708984,-39.8082160949707
1633779990418570200,1.9745703125,3.209625244140625,-5.078485488891602,-40.20199203491211
1633779990438449200,1.99444921875,2.878997802734375,-3.593564987182617,-40.58779525756836
1633779990458329000,2.0143291015625,2.142913818359375,-2.0105934143066406,-41.03816604614258
1633779990478208000,2.0342080078125,1.906494140625,-0.8364753723144531,-41.028865814208984
1633779990498087200,2.054087158203125,1.58331298828125,0.19010162353515625,-41.311222076416016
1633779990517966300,2.07396630859375,1.1343994140625,1.7064094543457031,-41.3890495300293
1633779990537846000,2.093845947265625,0.1337890625,2.7412281036376953,-41.604618072509766
1633779990557725400,2.113725341796875,0.1468505859375,3.673685073852539,-41.64027786254883
1633779990577604600,2.1336044921875,0.00775146484375,5.009397506713867,-41.662418365478516
1633779990597484500,2.153484619140625,0.341583251953125,5.983007431030273,-41.56998825073242
1633779990617363500,2.173363525390625,0.421905517578125,6.945718765258789,-41.73208999633789
1633779990637242600,2.19324267578125,0.243682861328125,7.240497589111328,-41.60307693481445
1633779990657122600,2.21312255859375,0.075103759765625,8.308387756347656,-41.69443130493164
1633779990677001500,2.23300146484375,-0.211883544921875,8.834834098815918,-41.774417877197266
1633779990696880600,2.252880615234375,-1.01904296875,9.570279121398926,-41.66195297241211
1633779990716759600,2.272759521484375,-1.784912109375,9.379443168640137,-42.051883697509766
1633779990736639500,2.292639404296875,-2.061981201171875,9.387906074523926,-42.214168548583984
1633779990756518700,2.3125185546875,-2.094696044921875,9.322203636169434,-42.067806243896484
1633779990776397600,2.3323974609375,-2.00360107421875,9.06637191772461,-42.37039566040039
1633779990796277500,2.352277587890625,-2.922576904296875,9.021623611450195,-42.48996353149414
1633779990816156700,2.37215673828125,-3.503814697265625,8.639155387878418,-42.59676742553711
1633779990836035600,2.39203564453125,-3.954925537109375,8.212961196899414,-42.7957649230957
1633779990855914500,2.41191455078125,-3.69586181640625,7.522821426391602,-42.89479446411133
1633779990875794700,2.431794677734375,-3.7647705078125,6.903402328491211,-43.007450103759766
1633779990895673600,2.451673583984375,-3.527374267578125,6.506877899169922,-43.29935073852539
1633779990915552500,2.471552490234375,-3.576568603515625,5.649974822998047,-43.40091323852539
1633779990935432400,2.491432373046875,-3.629638671875,4.81739616394043,-43.30673599243164
1633779990955311600,2.5113115234375,-4.03582763671875,4.322780609130859,-43.464603424072266
1633779990975190500,2.5311904296875,-4.894775390625,3.707704544067383,-43.63785171508789
1633779990995070500,2.551070556640625,-5.654327392578125,3.5221900939941406,-44.028743743896484
1633779991014949600,2.57094970703125,-6.26385498046875,3.105134963989258,-43.698001861572266
1633779991034828500,2.59082861328125,-6.300750732421875,2.9957332611083984,-43.841609954833984
1633779991054707500,2.61070751953125,-6.29779052734375,2.619413375854492,-43.84543991088867
1633779991074587600,2.630587646484375,-5.473907470703125,2.797391891479492,-43.99930191040039
1633779991094466600,2.650466552734375,-5.416839599609375,2.4802398681640625,-44.23398208618164
1633779991114345500,2.670345458984375,-5.022308349609375,2.6215286254882812,-44.613956451416016
1633779991134225700,2.6902255859375,-4.68377685546875,2.436307907104492,-44.791255950927734
1633779991154104600,2.7101044921875,-4.134429931640625,2.3285598754882812,-44.5969123840332
1633779991173983500,2.7299833984375,-4.44384765625,2.2709999084472656,-44.7256965637207
1633779991193862400,2.7498623046875,-3.86859130859375,2.2578125,-44.98158645629883
1633779991213742600,2.76974267578125,-3.70318603515625,2.366147994995117,-45.10543441772461
1633779991233621500,2.78962158203125,-3.513458251953125,2.3532257080078125,-45.05348587036133
1633779991253500400,2.80950048828125,-3.234344482421875,2.2712059020996094,-45.142642974853516
1633779991273380600,2.829380615234375,-3.6763916015625,2.5095787048339844,-45.31332778930664
1633779991293259500,2.849259521484375,-3.987457275390625,1.9823856353759766,-45.05000686645508
1633779991313138400,2.869138427734375,-4.10504150390625,1.7059345245361328,-45.38680648803711
1633779991333017600,2.889017578125,-3.935546875,1.3177509307861328,-45.3210563659668
1633779991352897500,2.9088974609375,-3.797882080078125,1.2275428771972656,-45.30782699584961
1633779991372776400,2.9287763671875,-4.242279052734375,1.4631328582763672,-45.317684173583984
1633779991392655600,2.948655517578125,-5.0308837890625,1.344308853149414,-45.351375579833984
1633779991412535600,2.96853564453125,-5.811859130859375,1.0637645721435547,-45.345455169677734
1633779991432414500,2.98841455078125,-6.089385986328125,0.8016986846923828,-44.945621490478516
1633779991452293600,3.008293701171875,-6.100341796875,0.5900096893310547,-45.05545425415039
1633779991472173600,3.028173583984375,-6.34405517578125,0.5474720001220703,-45.06415939331055
1633779991492052500,3.048052490234375,-6.659820556640625,1.2632980346679688,-45.23672866821289
1633779991511931600,3.067931640625,-6.794769287109375,1.85809326171875,-45.0156135559082
1633779991531810600,3.087810546875,-7.29168701171875,2.2710437774658203,-44.99941635131836
1633779991551690500,3.1076904296875,-7.215972900390625,3.0901432037353516,-44.971988677978516
1633779991571570200,3.127570068359375,-7.459991455078125,4.013822555541992,-45.09061813354492
1633779991591449000,3.147448974609375,-7.657012939453125,4.9425048828125,-44.98811721801758
1633779991611329000,3.1673291015625,-8.262054443359375,5.356428146362305,-44.98947525024414
1633779991631208200,3.187208251953125,-8.510040283203125,5.645771026611328,-45.10029220581055
1633779991651087000,3.207087158203125,-9.56243896484375,6.156515121459961,-44.83491897583008
1633779991670966300,3.22696630859375,-10.854766845703125,6.601985931396484,-44.85207748413086
1633779991690846000,3.246845947265625,-11.6719970703125,7.013774871826172,-44.7531852722168
1633779991710725000,3.26672509765625,-12.572113037109375,7.532958984375,-44.371578216552734
1633779991730604300,3.286604248046875,-12.81805419921875,7.976463317871094,-44.31767654418945
1633779991750484000,3.30648388671875,-12.64117431640625,8.245147705078125,-44.53078079223633
1633779991770363100,3.326363037109375,-13.222930908203125,9.03602409362793,-44.625301361083984
1633779991790242300,3.3462421875,-13.47247314453125,9.64775562286377,-44.25252914428711
1633779991810121000,3.366120849609375,-13.45947265625,10.123125076293945,-44.05768966674805
1633779991830001200,3.386001220703125,-13.367828369140625,10.333028793334961,-44.10725021362305
1633779991849880000,3.405880126953125,-12.40240478515625,9.831551551818848,-44.350154876708984
1633779991869759000,3.425759033203125,-10.987945556640625,9.057175636291504,-44.7313117980957
1633779991889639200,3.44563916015625,-9.99530029296875,8.264995574951172,-45.30232620239258
1633779991909518000,3.46551806640625,-9.51898193359375,7.588750839233398,-45.66666030883789
1633779991929397000,3.48539697265625,-9.5855712890625,7.116466522216797,-45.486881256103516
1633779991949277200,3.505277099609375,-9.20880126953125,6.505331039428711,-45.707881927490234
1633779991969156000,3.525156005859375,-8.865570068359375,5.472370147705078,-45.85085678100586
1633779991989035000,3.545034912109375,-8.472991943359375,3.807889938354492,-45.84091567993164
1633779992008914000,3.564913818359375,-7.997589111328125,2.3474655151367188,-45.790096282958984
1633779992028794000,3.584794189453125,-7.652099609375,1.0817222595214844,-46.078365325927734
1633779992048673300,3.60467333984375,-7.530731201171875,-0.28360939025878906,-45.81376266479492
1633779992068552000,3.624552001953125,-7.273193359375,-1.081573486328125,-45.914920806884766
1633779992088432000,3.64443212890625,-7.059661865234375,-2.1029186248779297,-46.02311325073242
1633779992108311300,3.664311279296875,-6.499298095703125,-2.6563549041748047,-45.71376419067383
1633779992128190000,3.68418994140625,-6.549346923828125,-3.3412933349609375,-45.977718353271484
1633779992148069000,3.704069091796875,-6.20037841796875,-4.235546112060547,-46.10502243041992
1633779992167949300,3.72394921875,-5.724273681640625,-4.901006698608398,-45.858699798583984
1633779992187828000,3.743827880859375,-5.539520263671875,-5.307453155517578,-45.9691047668457
1633779992207707100,3.76370703125,-4.498626708984375,-6.086725234985352,-46.29359817504883
1633779992227587000,3.783587158203125,-3.641693115234375,-6.644289016723633,-46.388553619384766
1633779992247466000,3.803466064453125,-3.446929931640625,-7.420051574707031,-46.21323776245117
1633779992267345200,3.82334521484375,-2.900482177734375,-8.013370513916016,-46.201961517333984
1633779992287224000,3.84322412109375,-2.415069580078125,-8.736988067626953,-46.41115188598633
1633779992307104000,3.86310400390625,-2.399932861328125,-9.654911041259766,-46.104671478271484
1633779992326983000,3.88298291015625,-3.71710205078125,-10.173530578613281,-46.02299118041992
1633779992346862000,3.902862060546875,-4.2427978515625,-10.784927368164062,-45.80892562866211
1633779992366742000,3.922741943359375,-5.2908935546875,-11.597171783447266,-45.83613204956055
1633779992386621000,3.942620849609375,-5.829864501953125,-12.057083129882812,-45.44723129272461
1633779992406500000,3.9625,-6.20697021484375,-12.477649688720703,-45.16801071166992
1633779992426380000,3.982380126953125,-7.10650634765625,-12.345661163330078,-45.41416549682617
1633779992446259000,4.002259033203125,-8.050689697265625,-11.632488250732422,-45.440738677978516
1633779992466138000,4.02213818359375,-9.350372314453125,-10.385120391845703,-45.93207931518555
1633779992486017000,4.04201708984375,-9.8931884765625,-9.225391387939453,-45.863529205322266
1633779992505897000,4.06189697265625,-10.61614990234375,-8.318489074707031,-45.955501556396484
1633779992525776100,4.081776123046875,-10.370849609375,-7.663661956787109,-46.113956451416016
1633779992545655000,4.101655029296875,-9.9593505859375,-7.394079208374023,-46.32212448120117
1633779992565534500,4.121534423828125,-9.9930419921875,-7.047567367553711,-46.40098190307617
1633779992585413000,4.1414130859375,-10.501434326171875,-6.5649566650390625,-46.635562896728516
1633779992605292300,4.161292236328125,-10.777862548828125,-5.972728729248047,-46.84328079223633
1633779992625172500,4.18117236328125,-10.93634033203125,-5.527395248413086,-46.63601303100586
1633779992645051100,4.201051025390625,-11.100067138671875,-4.842983245849609,-46.67538070678711
1633779992664930300,4.220930419921875,-10.8966064453125,-4.586000442504883,-46.52091598510742
1633779992684809500,4.2408095703125,-10.699188232421875,-4.020685195922852,-46.535396575927734
1633779992704689200,4.260689208984375,-10.330657958984375,-3.8327999114990234,-46.62332534790039
1633779992724568300,4.280568359375,-10.170440673828125,-3.5865554809570312,-47.02985763549805
1633779992744447200,4.300447265625,-10.11041259765625,-3.4647140502929688,-47.32870101928711
1633779992764327200,4.3203271484375,-9.931182861328125,-3.3203125,-47.27437973022461
1633779992784206300,4.340206298828125,-9.7442626953125,-3.792287826538086,-47.404666900634766
1633779992804085200,4.360085205078125,-9.99359130859375,-4.147998809814453,-47.48456954956055
1633779992823964400,4.37996435546875,-10.2564697265625,-4.288982391357422,-47.49782943725586
1633779992843844400,4.39984423828125,-10.22314453125,-4.561981201171875,-47.295528411865234
1633779992863723300,4.41972314453125,-10.335052490234375,-4.684576034545898,-47.30210494995117
1633779992883602400,4.4396025390625,-10.7158203125,-4.780145645141602,-47.38223648071289
1633779992903482400,4.459482421875,-10.4697265625,-4.83479118347168,-47.470340728759766
1633779992923361300,4.479361328125,-10.74932861328125,-5.308574676513672,-47.64961624145508
1633779992943240400,4.499240478515625,-10.752044677734375,-5.0757904052734375,-47.66157150268555
1633779992963119400,4.519119384765625,-10.881011962890625,-4.900665283203125,-47.75326919555664
1633779992982999300,4.538999267578125,-11.0770263671875,-4.837114334106445,-47.71062088012695
1633779993002878500,4.55887841796875,-11.3316650390625,-4.731504440307617,-47.88740158081055
1633779993022757400,4.57875732421875,-11.161712646484375,-4.768817901611328,-48.06222152709961
1633779993042637300,4.59863720703125,-10.703765869140625,-5.053693771362305,-48.019161224365234
1633779993062516500,4.6185166015625,-10.397857666015625,-4.895414352416992,-47.75437545776367
1633779993082395400,4.6383955078125,-10.49908447265625,-4.722265243530273,-48.0457649230957
1633779993102275300,4.658275390625,-10.56964111328125,-4.436534881591797,-48.223628997802734
1633779993122154200,4.678154296875,-10.111297607421875,-4.654743194580078,-48.46892166137695
1633779993142033400,4.698033447265625,-9.4317626953125,-4.732973098754883,-48.49295425415039
1633779993161912300,4.717912353515625,-8.80517578125,-5.469842910766602,-48.567142486572266
1633779993181792300,4.737792236328125,-8.358367919921875,-5.992105484008789,-48.843318939208984
1633779993201671400,4.75767138671875,-7.347991943359375,-6.454381942749023,-49.14005661010742
1633779993221550300,4.77755029296875,-6.780914306640625,-7.268167495727539,-49.194210052490234
1633779993241430300,4.79743017578125,-7.022186279296875,-7.550403594970703,-49.32235336303711
1633779993261309400,4.817309326171875,-6.510528564453125,-7.767162322998047,-49.0777473449707
1633779993281188400,4.837188232421875,-7.277679443359375,-8.411964416503906,-48.83297348022461
1633779993301067300,4.8570673828125,-7.34283447265625,-8.628082275390625,-48.95351028442383
1633779993320947500,4.876947509765625,-7.742034912109375,-8.425765991210938,-49.38466262817383
1633779993340826400,4.896826416015625,-7.7239990234375,-8.464458465576172,-49.30752944946289
1633779993360705300,4.916705322265625,-8.153350830078125,-8.475494384765625,-49.30142593383789
1633779993380585500,4.93658544921875,-8.31103515625,-8.46160888671875,-49.2914924621582
1633779993400464400,4.95646435546875,-7.4476318359375,-8.305294036865234,-49.6804313659668
1633779993420343300,4.97634326171875,-6.72857666015625,-8.008769989013672,-49.74954605102539
1633779993440222200,4.99622216796875,-6.652252197265625,-8.327518463134766,-49.53847122192383
1633779993460102400,5.016102294921875,-6.2442626953125,-8.365005493164062,-49.92256546020508
1633779993479981300,5.035981201171875,-6.104339599609375,-8.596118927001953,-49.857418060302734
1633779993499860200,5.055860107421875,-6.376678466796875,-8.842033386230469,-49.72470474243164
1633779993519740400,5.075740478515625,-6.640228271484375,-9.325923919677734,-49.79648971557617
1633779993539619300,5.095619384765625,-6.842742919921875,-9.622756958007812,-49.462467193603516
1633779993559498200,5.115498291015625,-7.60992431640625,-9.427581787109375,-49.33491897583008
1633779993579377200,5.135377197265625,-8.235198974609375,-9.573970794677734,-49.3311653137207
1633779993599257000,5.155257080078125,-8.83917236328125,-9.228507995605469,-49.45198440551758
1633779993619136000,5.175135986328125,-9.1439208984375,-8.72451400756836,-49.644168853759766
1633779993639015200,5.19501513671875,-9.430755615234375,-8.522994995117188,-49.7557487487793
1633779993658895000,5.21489501953125,-9.41607666015625,-7.963508605957031,-49.64992904663086
1633779993678774000,5.23477392578125,-9.297760009765625,-7.820640563964844,-49.93015670776367
1633779993698653000,5.25465283203125,-9.426177978515625,-7.117103576660156,-49.929561614990234
1633779993718533000,5.274533203125,-9.019317626953125,-5.973354339599609,-50.42670822143555
1633779993738412000,5.294412109375,-9.80682373046875,-4.675359725952148,-50.44993209838867
1633779993758291000,5.314291015625,-10.776824951171875,-3.3323097229003906,-50.544559478759766
1633779993778170000,5.334170166015625,-11.70111083984375,-2.000202178955078,-50.33607864379883
1633779993798050000,5.354050048828125,-11.836212158203125,-1.2648143768310547,-50.684688568115234
1633779993817929000,5.373928955078125,-12.00994873046875,-0.9474048614501953,-50.57688522338867
1633779993837808000,5.39380810546875,-11.98358154296875,-0.4884681701660156,-50.610538482666016
1633779993857688000,5.41368798828125,-11.39031982421875,-0.051990509033203125,-50.59971237182617
1633779993877567000,5.43356689453125,-11.2799072265625,0.40561485290527344,-50.54440689086914
1633779993897446100,5.453446044921875,-11.7076416015625,1.1366920471191406,-50.77595901489258
1633779993917325000,5.473324951171875,-11.84820556640625,1.6704120635986328,-50.53483200073242
1633779993937205000,5.493205078125,-12.81549072265625,2.476093292236328,-50.0737419128418
1633779993957084200,5.513084228515625,-13.5838623046875,3.333036422729492,-50.2504768371582
1633779993976963000,5.532963134765625,-14.266510009765625,3.6904029846191406,-50.0543327331543
1633779993996843000,5.552843017578125,-14.41302490234375,4.49688720703125,-50.05582046508789
1633779994016722000,5.572721923828125,-14.50799560546875,4.939004898071289,-50.05971145629883
1633779994036601000,5.59260107421875,-14.674957275390625,5.760229110717773,-50.061771392822266
1633779994056480300,5.612480224609375,-14.3236083984375,6.352354049682617,-50.02134323120117
1633779994076360000,5.63235986328125,-13.836151123046875,7.168819427490234,-50.015567779541016
1633779994096239000,5.652239013671875,-14.3133544921875,7.658906936645508,-49.86930465698242
1633779994116118300,5.6721181640625,-14.04339599609375,8.02802848815918,-49.933414459228516
1633779994135998000,5.691998046875,-13.328125,8.616789817810059,-49.89677047729492
1633779994155877000,5.711877197265625,-13.40087890625,8.90566635131836,-49.6873893737793
1633779994175756000,5.731756103515625,-13.05523681640625,9.603988647460938,-49.688785552978516
1633779994195635200,5.75163525390625,-13.09356689453125,9.892434120178223,-49.67440414428711
1633779994215515100,5.77151513671875,-12.512969970703125,10.150609970092773,-49.68449783325195
1633779994235394000,5.79139404296875,-12.323516845703125,10.285039901733398,-49.99393844604492
1633779994255273200,5.811273193359375,-12.19378662109375,10.493181228637695,-50.06167221069336
1633779994275153200,5.831153076171875,-11.92340087890625,11.023724555969238,-49.76182174682617
1633779994295032000,5.851031982421875,-11.740081787109375,11.727627754211426,-49.71284866333008
1633779994314911200,5.8709111328125,-11.33648681640625,12.288771629333496,-49.82011795043945
1633779994334791200,5.890791259765625,-10.686676025390625,12.502555847167969,-50.13209915161133
1633779994354670000,5.910670166015625,-9.950103759765625,12.594305038452148,-50.08883285522461
1633779994374549200,5.93054931640625,-9.64453125,12.432689666748047,-50.336177825927734
1633779994394428000,5.950427978515625,-8.916656494140625,12.435273170471191,-50.641117095947266
1633779994414308000,5.97030810546875,-7.845123291015625,11.414510726928711,-50.86294174194336
1633779994434187300,5.990187255859375,-7.130828857421875,10.553915977478027,-51.12607955932617
1633779994454066000,6.01006591796875,-6.6143798828125,9.570164680480957,-51.580562591552734
1633779994473946000,6.029946044921875,-6.0316162109375,8.552894592285156,-51.938411712646484
1633779994493825300,6.0498251953125,-6.2120361328125,7.694744110107422,-52.179203033447266
1633779994513704000,6.069703857421875,-6.304412841796875,6.922084808349609,-52.16264724731445
1633779994533583000,6.0895830078125,-6.255035400390625,6.591791152954102,-52.3452262878418
1633779994553463000,6.109463134765625,-6.7503662109375,5.734710693359375,-52.3458366394043
1633779994573343000,6.129343017578125,-6.916839599609375,4.843893051147461,-52.60255813598633
1633779994593222100,6.14922216796875,-6.80743408203125,4.531349182128906,-52.67946243286133
1633779994613102000,6.16910205078125,-7.41497802734375,3.947774887084961,-52.62308120727539
1633779994632981000,6.18898095703125,-7.9393310546875,3.4305343627929688,-52.52280807495117
1633779994652860200,6.208860107421875,-7.610565185546875,2.9611968994140625,-52.8944206237793
1633779994672739000,6.228739013671875,-7.658599853515625,2.22149658203125,-52.7447624206543
1633779994692619000,6.248618896484375,-6.6734619140625,1.3461437225341797,-52.83878707885742
1633779994712498200,6.268498291015625,-6.369049072265625,0.29113197326660156,-53.46306228637695
1633779994732377000,6.288377197265625,-5.701385498046875,-0.7016258239746094,-53.28288650512695
1633779994752257000,6.308257080078125,-5.43267822265625,-1.6465206146240234,-53.217960357666016
1633779994772136000,6.328135986328125,-5.927947998046875,-2.9844894409179688,-53.064205169677734
1633779994792015000,6.34801513671875,-6.06134033203125,-4.34971809387207,-53.00825881958008
1633779994811894300,6.367894287109375,-5.980865478515625,-5.3854522705078125,-53.038700103759766
1633779994831774000,6.38777392578125,-5.874298095703125,-6.250787734985352,-52.73786544799805
1633779994851653000,6.407653076171875,-5.77496337890625,-7.027538299560547,-52.7675666809082
1633779994871532000,6.427531982421875,-5.798187255859375,-7.239173889160156,-52.953250885009766
1633779994891412000,6.447411865234375,-6.21881103515625,-7.750823974609375,-52.848270416259766
1633779994911291100,6.467291015625,-6.135223388671875,-7.521213531494141,-52.690799713134766
1633779994931170000,6.487170166015625,-6.320098876953125,-7.868175506591797,-53.04387283325195
1633779994951049200,6.50704931640625,-5.8251953125,-7.846279144287109,-52.663211822509766
1633779994970929200,6.52692919921875,-5.017547607421875,-8.08682632446289,-52.7851448059082
1633779994990808000,6.54680810546875,-4.48602294921875,-8.030338287353516,-52.922122955322266
1633779995010687200,6.566687255859375,-4.66619873046875,-7.505592346191406,-52.9542350769043
1633779995030567200,6.586567138671875,-5.6470947265625,-7.092792510986328,-53.32357406616211
1633779995050446000,6.606446044921875,-6.44635009765625,-7.5054168701171875,-53.17490768432617
1633779995070325200,6.6263251953125,-7.08111572265625,-7.500286102294922,-52.87955856323242
1633779995090205200,6.646205078125,-7.259246826171875,-8.034770965576172,-53.18221664428711
1633779995110084000,6.666083984375,-7.03253173828125,-8.50848388671875,-52.661197662353516
1633779995129963300,6.68596337890625,-6.974853515625,-8.698318481445312,-52.87528610229492
1633779995149842000,6.705842041015625,-6.746673583984375,-8.315559387207031,-52.88212966918945
1633779995169722000,6.72572216796875,-6.5185546875,-7.4631195068359375,-52.97933578491211
1633779995189601300,6.745601318359375,-6.357696533203125,-6.521944046020508,-53.23893356323242
1633779995209480000,6.76547998046875,-6.447723388671875,-5.47150993347168,-53.32417678833008
1633779995229360000,6.785360107421875,-5.9686279296875,-4.848329544067383,-53.325496673583984
1633779995249239000,6.805239013671875,-6.05999755859375,-4.134374618530273,-53.70096969604492
1633779995269118000,6.825117919921875,-5.298004150390625,-3.6042346954345703,-53.694149017333984
1633779995288997000,6.8449970703125,-5.02825927734375,-3.819215774536133,-53.84633255004883
1633779995308877000,6.864876953125,-5.69580078125,-3.4087791442871094,-53.8334846496582
1633779995328756000,6.884755859375,-5.801513671875,-3.4861068725585938,-53.679500579833984
1633779995348635100,6.90463525390625,-5.971099853515625,-3.366098403930664,-53.47025680541992
1633779995368515000,6.92451513671875,-5.9354248046875,-3.2600631713867188,-53.08607864379883
1633779995388394200,6.944394287109375,-6.1666259765625,-3.2566986083984375,-53.37446212768555
1633779995408273000,6.96427294921875,-6.54254150390625,-3.144258499145508,-53.27744674682617
1633779995428152000,6.984152099609375,-6.47601318359375,-3.391571044921875,-53.379154205322266
1633779995448032300,7.0040322265625,-6.72064208984375,-3.1398372650146484,-53.413822174072266
1633779995467911000,7.023910888671875,-6.19580078125,-2.8376235961914062,-53.43935012817383
1633779995487790000,7.0437900390625,-5.71697998046875,-3.266023635864258,-53.367610931396484
1633779995507670300,7.063670166015625,-5.297332763671875,-3.9041614532470703,-53.395023345947266
1633779995527549000,7.083548828125,-5.244140625,-4.556379318237305,-53.713443756103516
1633779995547428000,7.103427978515625,-5.337005615234375,-5.853858947753906,-53.36238479614258
1633779995567307000,7.12330712890625,-6.39630126953125,-6.773139953613281,-53.2794303894043
1633779995587186700,7.143186767578125,-6.986175537109375,-7.5566864013671875,-53.072566986083984
1633779995607065900,7.16306591796875,-7.959503173828125,-8.4794921875,-52.53876876831055
1633779995626945000,7.182945068359375,-8.1458740234375,-9.042354583740234,-52.64125442504883
1633779995646825000,7.202824951171875,-7.619049072265625,-10.01016616821289,-52.55667495727539
1633779995666704000,7.222703857421875,-6.705810546875,-10.468761444091797,-52.45814895629883
1633779995686582800,7.242582763671875,-6.3826904296875,-10.763416290283203,-52.57167434692383
1633779995706462000,7.2624619140625,-6.085968017578125,-10.917755126953125,-52.32814407348633
1633779995726342000,7.282341796875,-6.03057861328125,-10.457752227783203,-52.220035552978516
1633779995746220800,7.302220703125,-6.259857177734375,-9.98345947265625,-52.34988784790039
1633779995766100000,7.322099853515625,-6.301788330078125,-9.471744537353516,-52.46091079711914
1633779995785980000,7.34197998046875,-6.512298583984375,-8.814346313476562,-52.6708869934082
1633779995805858800,7.36185888671875,-6.343780517578125,-8.059494018554688,-52.60133743286133
1633779995825738000,7.381738037109375,-6.259552001953125,-7.4987945556640625,-52.630191802978516
1633779995845618000,7.401617919921875,-6.151397705078125,-7.150388717651367,-52.73916244506836
1633779995865496800,7.421496826171875,-5.53924560546875,-6.445764541625977,-52.6336784362793
1633779995885376000,7.4413759765625,-5.390533447265625,-5.937532424926758,-52.92634201049805
1633779995905255000,7.4612548828125,-4.55810546875,-5.790073394775391,-53.22587966918945
1633779995925134800,7.481134765625,-4.6978759765625,-5.411733627319336,-53.088375091552734
1633779995945014000,7.501013916015625,-4.11749267578125,-5.316436767578125,-53.04654312133789
1633779995964893000,7.520892822265625,-3.93084716796875,-5.111543655395508,-52.78752517700195
1633779995984771800,7.540771728515625,-3.812957763671875,-4.780874252319336,-53.07316970825195
1633779996004652000,7.560652099609375,-4.16998291015625,-4.4357757568359375,-53.05772018432617
1633779996024531000,7.580531005859375,-3.989990234375,-3.787923812866211,-53.1748161315918
1633779996044410000,7.60041015625,-4.391021728515625,-3.6622676849365234,-53.345638275146484
1633779996064289800,7.620289794921875,-4.445953369140625,-3.116727828979492,-52.97980880737305
1633779996084169000,7.6401689453125,-4.16015625,-2.4271926879882812,-53.04415512084961
1633779996104048000,7.660048095703125,-3.951873779296875,-2.0444278717041016,-52.918270111083984
1633779996123927800,7.679927734375,-3.51287841796875,-1.3636531829833984,-52.970523834228516
1633779996143807000,7.699806884765625,-3.56134033203125,-1.0653228759765625,-53.11293411254883
1633779996163686000,7.719685791015625,-3.59332275390625,-0.8562812805175781,-53.04399490356445
1633779996183564800,7.739564697265625,-3.771514892578125,-0.8595085144042969,-53.127559661865234
1633779996203445000,7.759445068359375,-3.910308837890625,-0.8275051116943359,-52.82709884643555
1633779996223324000,7.779323974609375,-4.695709228515625,-0.8158359527587891,-52.82404708862305
1633779996243202800,7.799202880859375,-5.180572509765625,-0.4102153778076172,-52.831111907958984
1633779996263083000,7.8190830078125,-5.648101806640625,-0.06254196166992188,-52.59340286254883
1633779996282962000,7.8389619140625,-6.534393310546875,0.3108501434326172,-52.48881912231445
1633779996302840800,7.8588408203125,-7.221527099609375,0.7608089447021484,-52.25015640258789
1633779996322719700,7.8787197265625,-7.701416015625,1.5850868225097656,-52.16975784301758
1633779996342600000,7.898599853515625,-8.09637451171875,2.548738479614258,-52.251895904541016
1633779996362478800,7.918478759765625,-7.704833984375,3.7310848236083984,-52.22316360473633
1633779996382357800,7.938357666015625,-8.016143798828125,4.77403450012207,-52.18754959106445
1633779996402238000,7.958238037109375,-8.34820556640625,5.265995025634766,-52.01877975463867
1633779996422117000,7.9781171875,-8.584869384765625,5.153757095336914,-52.08903121948242
1633779996441995800,7.997995849609375,-8.5048828125,4.926607131958008,-51.772708892822266
1633779996461875000,8.017875,-8.701934814453125,4.388410568237305,-51.83852767944336
1633779996481755100,8.037755126953124,-8.953826904296875,4.20652961730957,-51.562679290771484
1633779996501633800,8.0576337890625,-8.784454345703125,4.815956115722656,-51.74772262573242
1633779996521513000,8.077512939453126,-8.472808837890625,5.831657409667969,-51.571781158447266
1633779996541393000,8.097392822265626,-9.002593994140625,7.243339538574219,-51.02714920043945
1633779996561271800,8.117271728515625,-9.68988037109375,9.154924392700195,-50.58884811401367
1633779996581153800,8.13715380859375,-10.564483642578125,10.818599700927734,-50.010868072509766
1633779996601033000,8.157032958984376,-10.306427001953125,12.122329711914062,-49.7868766784668
1633779996620913200,8.1769130859375,-10.24200439453125,12.411030769348145,-49.5192756652832
1633779996640791800,8.196791748046875,-9.910064697265625,12.834415435791016,-49.594478607177734
1633779996660671000,8.2166708984375,-9.515838623046875,13.201295852661133,-49.940982818603516
1633779996680551000,8.236551025390625,-8.887908935546875,13.608281135559082,-49.90633773803711
1633779996700429800,8.256429931640625,-8.811676025390625,14.516131401062012,-49.308841705322266
1633779996720309000,8.27630908203125,-9.005828857421875,15.308612823486328,-49.250179290771484
1633779996740189000,8.29618896484375,-9.687225341796875,16.56325340270996,-48.5507926940918
1633779996760067800,8.31606787109375,-10.18408203125,17.754621505737305,-47.98373031616211
1633779996779946800,8.33594677734375,-10.533935546875,19.027746200561523,-47.41718673706055
1633779996799826000,8.355825927734376,-10.749053955078125,20.048078536987305,-46.859989166259766
1633779996819705900,8.375705810546876,-10.962982177734375,21.18877410888672,-46.807193756103516
1633779996839584800,8.395584716796876,-10.43438720703125,22.004253387451172,-46.30911636352539
1633779996859464000,8.4154638671875,-10.21868896484375,22.348308563232422,-45.97383499145508
1633779996879343900,8.43534375,-10.54193115234375,22.069602966308594,-46.20632553100586
1633779996899222800,8.455222900390625,-10.50531005859375,22.231365203857422,-46.02164840698242
1633779996919102000,8.47510205078125,-10.047576904296875,22.225461959838867,-45.826480865478516
1633779996938980900,8.49498095703125,-10.267852783203125,21.816530227661133,-45.980228424072266
1633779996958860800,8.51486083984375,-10.824066162109375,22.005760192871094,-45.82809829711914
1633779996978740000,8.534739990234375,-11.377838134765625,21.733680725097656,-45.59873580932617
1633779996998619000,8.554618896484374,-12.52606201171875,21.895654678344727,-45.29470443725586
1633779997018498800,8.574498779296874,-12.59942626953125,22.04647445678711,-44.80538558959961
1633779997038378000,8.5943779296875,-12.55804443359375,21.64291000366211,-44.8051643371582
1633779997058257000,8.6142568359375,-12.15264892578125,20.925195693969727,-45.07942581176758
1633779997078136000,8.634135986328126,-12.049346923828125,20.425090789794922,-45.05632400512695
1633779997098016000,8.65401611328125,-11.680816650390625,19.560474395751953,-44.979434967041016
1633779997117895000,8.67389501953125,-11.5909423828125,19.64069366455078,-45.31381607055664
1633779997137774000,8.693774169921875,-11.55914306640625,19.248394012451172,-45.552120208740234
1633779997157653800,8.71365380859375,-11.51318359375,18.67357635498047,-45.23603439331055
1633779997177533000,8.733532958984375,-11.384307861328125,18.257755279541016,-45.278438568115234
1633779997197412000,8.753412109375,-11.32330322265625,17.972360610961914,-45.369014739990234
1633779997217290800,8.773290771484374,-11.587860107421875,17.639484405517578,-45.10599136352539
1633779997237171000,8.7931708984375,-11.8583984375,17.35620880126953,-45.106990814208984
1633779997257049900,8.8130498046875,-12.29791259765625,17.1546630859375,-45.10792922973633
1633779997276929000,8.832928955078126,-12.394805908203125,16.822582244873047,-45.256900787353516
1633779997296809000,8.85280908203125,-12.03118896484375,16.281064987182617,-45.23759078979492
1633779997316688000,8.87268798828125,-11.843841552734375,15.945804595947266,-45.30644607543945
1633779997336567000,8.892567138671875,-11.466400146484375,15.787930488586426,-45.43009567260742
1633779997356446000,8.912446044921875,-11.01007080078125,15.237990379333496,-45.40011215209961
1633779997376326000,8.932325927734375,-11.165374755859375,14.858461380004883,-45.65816879272461
1633779997396205000,8.952205078125,-11.461029052734375,14.22199535369873,-45.547733306884766
1633779997416083700,8.972083740234375,-11.601593017578125,13.935296058654785,-45.870548248291016
1633779997435964000,8.9919638671875,-11.64019775390625,13.03460693359375,-45.98659896850586
1633779997455843000,9.011843017578125,-11.340789794921875,12.686148643493652,-46.3547248840332
1633779997475721700,9.0317216796875,-11.458740234375,11.942740440368652,-46.45061111450195
1633779997495601000,9.051600830078126,-11.28955078125,11.237853050231934,-46.397403717041016
1633779997515481000,9.071481201171874,-11.42681884765625,10.790556907653809,-46.1799430847168
1633779997535359700,9.09135986328125,-11.25634765625,10.505769729614258,-46.47287368774414
1633779997555239000,9.111239013671875,-11.251373291015625,10.479621887207031,-46.35408401489258
1633779997575116000,9.131115966796875,-11.603485107421875,10.473666191101074,-46.4046745300293
1633779997594994700,9.15099462890625,-11.886383056640625,10.613293647766113,-46.385074615478516
1633779997614873900,9.170873779296874,-11.85723876953125,11.130661010742188,-46.000484466552734
1633779997634752800,9.190752685546874,-11.656402587890625,11.313447952270508,-45.726078033447266
1633779997654632700,9.2106328125,-11.769287109375,11.781367301940918,-45.877079010009766
1633779997674512000,9.230511962890626,-11.481719970703125,12.566215515136719,-45.249263763427734
1633779997694390800,9.250390869140626,-11.501190185546875,12.982925415039062,-45.1940803527832
1633779997714270700,9.270270751953126,-11.684326171875,12.982620239257812,-45.129093170166016
1633779997734150000,9.29014990234375,-11.525146484375,13.504387855529785,-44.99399948120117
1633779997754028800,9.31002880859375,-11.828460693359375,13.38774299621582,-44.78591537475586
1633779997773908000,9.329907958984375,-12.0391845703125,13.900520324707031,-44.57136154174805
1633779997793787600,9.34978759765625,-11.666595458984375,14.09573745727539,-44.18442916870117
1633779997813666800,9.369666748046875,-12.676849365234375,14.937671661376953,-44.18610763549805
1633779997833546000,9.3895458984375,-12.66583251953125,15.630868911743164,-43.40485763549805
1633779997853425700,9.40942578125,-12.557098388671875,16.35944938659668,-42.77590560913086
1633779997873304800,9.429304931640624,-13.036529541015625,17.1616268157959,-42.21999740600586
1633779997893184000,9.44918408203125,-12.47808837890625,18.036052703857422,-41.96065139770508
1633779997913063000,9.46906298828125,-12.289306640625,18.777942657470703,-41.473575592041016
1633779997932942800,9.48894287109375,-12.924407958984375,19.473173141479492,-41.16401290893555
1633779997952821800,9.50882177734375,-12.5841064453125,19.673095703125,-40.8435173034668
1633779997972701000,9.528700927734375,-13.216156005859375,20.09841537475586,-40.3355827331543
1633779997992580900,9.548580810546875,-13.20086669921875,20.533123016357422,-39.54841995239258
1633779998012459800,9.568459716796875,-13.926727294921875,20.738008499145508,-39.4680061340332
1633779998032339000,9.5883388671875,-14.833465576171875,21.097984313964844,-38.742610931396484
1633779998052217600,9.608217529296875,-15.561553955078125,21.448200225830078,-38.14065170288086
1633779998072097800,9.628097900390625,-16.28961181640625,21.8441162109375,-37.502437591552734
1633779998091977000,9.64797705078125,-16.587982177734375,21.694597244262695,-37.14667892456055
1633779998111855900,9.66785595703125,-17.1722412109375,22.162599563598633,-36.6511116027832
1633779998131735800,9.68773583984375,-17.438568115234375,22.298030853271484,-36.216670989990234
1633779998151615000,9.707614990234376,-17.91961669921875,22.763769149780273,-36.048397064208984
1633779998171494000,9.727493896484376,-17.557708740234375,22.985612869262695,-35.54691696166992
1633779998191372800,9.747372802734375,-17.154510498046875,23.811954498291016,-34.92373275756836
1633779998211253000,9.7672529296875,-16.395263671875,24.33319664001465,-34.86957931518555
1633779998231132000,9.7871318359375,-15.7069091796875,24.679759979248047,-34.45689010620117
1633779998251010800,9.8070107421875,-15.47918701171875,25.223098754882812,-34.690677642822266
1633779998270891000,9.82689111328125,-14.137664794921875,25.271854400634766,-34.63859176635742
1633779998290770000,9.84677001953125,-13.6646728515625,25.596532821655273,-34.9522819519043
1633779998310648800,9.86664892578125,-13.554534912109375,25.435293197631836,-34.78120803833008
1633779998330527700,9.88652783203125,-13.485748291015625,25.126646041870117,-34.753658294677734
1633779998350408000,9.906407958984374,-13.9368896484375,24.900541305541992,-34.9555778503418
1633779998370286800,9.926286865234376,-14.126708984375,24.29020118713379,-34.939762115478516
1633779998390165800,9.946165771484376,-14.012603759765625,23.38851547241211,-35.023311614990234
1633779998410046000,9.9660458984375,-14.43475341796875,23.2219295501709,-34.8856315612793
1633779998429924600,9.985924560546875,-14.54833984375,22.67508316040039,-35.4178581237793
1633779998449803800,10.0058037109375,-14.31024169921875,22.281349182128906,-35.54081344604492
1633779998469683000,10.025682861328125,-14.15185546875,21.68067741394043,-35.932437896728516
1633779998489562600,10.045562744140625,-14.388275146484375,21.21534538269043,-36.132083892822266
1633779998509441800,10.06544189453125,-14.335540771484375,20.811874389648438,-36.00931167602539
1633779998529320700,10.08532080078125,-14.5233154296875,20.886381149291992,-36.29682540893555
1633779998549201000,10.105200927734375,-14.282928466796875,20.817882537841797,-35.944034576416016
1633779998569079600,10.12507958984375,-14.28802490234375,20.95518684387207,-36.156978607177734
1633779998588958700,10.144958740234374,-14.2078857421875,21.1258602142334,-36.06879806518555
1633779998608837600,10.164837646484376,-13.798492431640625,20.77926254272461,-35.984928131103516
1633779998628717600,10.184717529296876,-14.51580810546875,20.90013885498047,-36.133670806884766
1633779998648596700,10.2045966796875,-14.6697998046875,20.703853607177734,-36.58818435668945
1633779998668475600,10.2244755859375,-14.491973876953125,20.33081817626953,-36.358882904052734
1633779998688355600,10.24435546875,-14.08087158203125,19.80144500732422,-37.01576614379883
1633779998708234500,10.264234375,-13.780364990234375,19.668079376220703,-37.31026077270508
1633779998728113700,10.28411376953125,-13.95965576171875,19.36542320251465,-37.532894134521484
1633779998747992800,10.303992919921875,-14.054107666015625,19.248023986816406,-38.0330696105957
1633779998767872500,10.32387255859375,-13.86944580078125,18.74822235107422,-38.31991195678711
1633779998787751700,10.343751708984374,-13.594390869140625,18.516265869140625,-38.387393951416016
1633779998807630800,10.363630859375,-13.274566650390625,18.264598846435547,-38.68862533569336
1633779998827509800,10.383509765625,-13.158721923828125,17.90321159362793,-39.18680953979492
1633779998847389700,10.4033896484375,-12.979949951171875,17.446998596191406,-39.56021499633789
1633779998867268600,10.4232685546875,-12.74267578125,17.434406280517578,-39.910648345947266
1633779998887147800,10.443147705078125,-11.97601318359375,17.646757125854492,-40.04154586791992
1633779998907027700,10.46302783203125,-11.47198486328125,18.168846130371094,-40.17398452758789
1633779998926906600,10.48290673828125,-11.28729248046875,18.526439666748047,-40.23745346069336
1633779998946785800,10.502785888671875,-11.21234130859375,18.62970542907715,-40.13772201538086
1633779998966665700,10.522665771484375,-11.392303466796875,18.809900283813477,-39.771907806396484
1633779998986544600,10.542544677734375,-11.152862548828125,18.977153778076172,-40.0119514465332
1633779999006423800,10.562423828125,-11.18463134765625,18.583946228027344,-39.97877883911133
1633779999026302500,10.582302490234374,-11.165496826171875,18.84722137451172,-39.75674057006836
1633779999046182700,10.6021826171875,-10.747222900390625,18.645048141479492,-39.76876449584961
1633779999066061800,10.622061767578124,-10.47625732421875,18.828094482421875,-39.74924087524414
1633779999085940500,10.6419404296875,-11.0302734375,19.392864227294922,-38.8772087097168
1633779999105819600,10.661819580078125,-11.58331298828125,20.01485824584961,-38.35604476928711
1633779999125699800,10.681699951171876,-11.744720458984375,20.52979278564453,-37.53096389770508
1633779999145578500,10.70157861328125,-11.894927978515625,21.131500244140625,-37.13357162475586
1633779999165457700,10.721457763671875,-12.0640869140625,21.97470474243164,-36.737857818603516
1633779999185337900,10.741337890625,-12.130279541015625,22.569740295410156,-36.130924224853516
1633779999205216800,10.761216796875,-12.1729736328125,23.2811336517334,-35.46908950805664
1633779999225095700,10.781095703125,-12.241485595703125,23.946516036987305,-35.12678146362305
1633779999244974600,10.800974609375,-12.229644775390625,24.459835052490234,-34.58903884887695
1633779999264854800,10.820854736328124,-12.6505126953125,24.910675048828125,-34.0051383972168
1633779999284733700,10.840733642578124,-12.984619140625,25.14405059814453,-33.514652252197266
1633779999304612600,10.860612548828126,-13.204559326171875,25.85959243774414,-32.8971061706543
1633779999324491800,10.88049169921875,-13.75347900390625,25.980987548828125,-32.358951568603516
1633779999344371500,10.900371337890626,-13.57830810546875,26.489301681518555,-31.707515716552734
1633779999364250600,10.920250732421875,-14.22564697265625,26.9826717376709,-31.253177642822266
1633779999384129800,10.9401298828125,-14.518096923828125,26.87137222290039,-30.964214324951172
1633779999404009500,10.960009521484375,-15.282379150390625,26.914770126342773,-30.774860382080078
1633779999423888600,10.979888671875,-15.59478759765625,26.748882293701172,-30.46603775024414
1633779999443767600,10.999767578125,-15.44659423828125,26.865949630737305,-29.951534271240234
1633779999463646700,11.019646728515625,-15.009918212890625,27.016374588012695,-30.16293716430664
1633779999483526700,11.039526611328125,-14.346282958984375,27.22199821472168,-30.395137786865234
1633779999503405600,11.059405517578124,-13.568817138671875,27.89760971069336,-30.392765045166016
1633779999523284700,11.07928466796875,-12.847869873046875,28.182098388671875,-30.410274505615234
1633779999543164700,11.09916455078125,-12.52294921875,28.265125274658203,-30.422557830810547
1633779999563043600,11.119043701171876,-12.58599853515625,27.93804168701172,-30.376903533935547
1633779999582922500,11.138922607421875,-11.94873046875,27.089466094970703,-31.119205474853516
1633779999602801700,11.1588017578125,-11.929443359375,26.396190643310547,-32.15705490112305
1633779999622681600,11.178681640625,-11.7353515625,25.31682586669922,-32.90169906616211
1633779999642560500,11.198560546875,-12.333251953125,24.61098289489746,-33.6619758605957
1633779999662439700,11.218439697265625,-12.366912841796875,23.924537658691406,-34.25351333618164
1633779999682318300,11.238318359375,-12.1571044921875,23.389812469482422,-34.6760368347168
1633779999702198500,11.258198486328125,-12.865081787109375,22.917652130126953,-34.9487190246582
1633779999722077700,11.27807763671875,-12.97998046875,22.498748779296875,-35.028865814208984
1633779999741956400,11.297956298828124,-13.060211181640625,21.926517486572266,-35.35256576538086
1633779999761836500,11.31783642578125,-12.80511474609375,21.711029052734375,-35.5416145324707
1633779999781715700,11.3377158203125,-12.955322265625,21.332195281982422,-36.099361419677734
1633779999801594400,11.357594482421876,-12.798370361328125,21.25654411315918,-36.235469818115234
1633779999821473500,11.3774736328125,-12.879150390625,20.994733810424805,-36.6352424621582
1633779999841353700,11.397353759765625,-12.3973388671875,20.621198654174805,-36.616764068603516
1633779999861232600,11.417232666015625,-12.280548095703125,20.27935218811035,-37.273311614990234
1633779999881111600,11.437111572265625,-12.078887939453125,19.747512817382812,-37.70866012573242
1633779999900990500,11.456990478515625,-11.979095458984375,18.977519989013672,-38.19984817504883
1633779999920870700,11.47687060546875,-12.29644775390625,18.709774017333984,-38.02814865112305
1633779999940749600,11.49674951171875,-12.898406982421875,18.280887603759766,-37.97743606567383
1633779999960628500,11.51662841796875,-12.809539794921875,18.161331176757812,-38.32185745239258
1633779999980508700,11.5365087890625,-13.561492919921875,17.905376434326172,-38.239688873291016
1633780000000387300,11.55638720703125,-13.1688232421875,17.640178680419922,-38.50307083129883
1633780000020266500,11.5762666015625,-13.328155517578125,17.630050659179688,-38.7353630065918
1633780000040145700,11.596145751953125,-13.371612548828125,17.297130584716797,-38.70734786987305
1633780000060025300,11.616025390625,-12.8529052734375,17.186386108398438,-38.89583206176758
1633780000079904500,11.635904541015625,-12.4644775390625,17.177104949951172,-38.69675827026367
1633780000099783700,11.65578369140625,-12.958343505859375,17.803020477294922,-38.36812973022461
1633780000119662600,11.67566259765625,-13.591552734375,18.34430694580078,-38.08149337768555
1633780000139542500,11.69554248046875,-13.921142578125,18.549304962158203,-37.684452056884766
1633780000159421400,11.71542138671875,-14.2598876953125,18.210857391357422,-37.18600082397461
1633780000179300600,11.735300537109374,-14.74407958984375,18.189224243164062,-37.10896682739258
1633780000199180500,11.7551806640625,-14.251190185546875,18.21949005126953,-37.091556549072266
1633780000219059500,11.7750595703125,-13.8961181640625,18.448144912719727,-36.96635055541992
1633780000238938600,11.794938720703126,-13.502044677734375,18.769779205322266,-36.47165298461914
1633780000258817500,11.814817626953126,-13.14599609375,19.3907413482666,-36.34443283081055
1633780000278697500,11.834697509765626,-13.493743896484375,19.908672332763672,-35.84043502807617
1633780000298576600,11.85457666015625,-13.2296142578125,20.320220947265625,-35.59455490112305
1633780000318455600,11.87445556640625,-12.969635009765625,20.318357467651367,-35.20466995239258
1633780000338334500,11.89433447265625,-12.566864013671875,20.724336624145508,-35.15499496459961
1633780000358214700,11.914214599609375,-12.4010009765625,20.738576889038086,-35.0736198425293
1633780000378093600,11.934093505859375,-12.5003662109375,20.731822967529297,-34.801204681396484
1633780000397972500,11.953972412109374,-12.13580322265625,20.657150268554688,-34.653377532958984
1633780000417852700,11.973852783203125,-12.84063720703125,21.051897048950195,-34.72945785522461
1633780000437731600,11.993731689453124,-13.923370361328125,20.814424514770508,-34.54855728149414
1633780000457610500,12.013610595703126,-13.947418212890625,21.104827880859375,-34.4071159362793
1633780000477489400,12.033489501953126,-14.2364501953125,21.03948211669922,-34.1167106628418
1633780000497369600,12.05336962890625,-14.740325927734375,20.89116859436035,-34.0124626159668
1633780000517248500,12.07324853515625,-15.12091064453125,21.287450790405273,-33.53694534301758
1633780000537127400,12.09312744140625,-15.155059814453125,21.165172576904297,-33.1726188659668
1633780000557006600,12.113006591796875,-14.906341552734375,21.27996063232422,-33.0911750793457
1633780000576887600,12.132887451171875,-14.897674560546875,21.613372802734375,-32.95566940307617
1633780000596766500,12.152766357421875,-14.5072021484375,21.670196533203125,-32.751224517822266
1633780000616645600,12.172645751953125,-14.33441162109375,21.660524368286133,-33.002254486083984
1633780000636525600,12.192525634765625,-13.324310302734375,21.782827377319336,-33.15877914428711
1633780000656404500,12.212404541015625,-12.72613525390625,21.297714233398438,-33.72304153442383
1633780000676283600,12.23228369140625,-11.767059326171875,20.787443161010742,-34.08064651489258
1633780000696162600,12.25216259765625,-11.231689453125,20.35826873779297,-34.4966926574707
1633780000716042500,12.27204248046875,-10.836273193359375,19.809457778930664,-34.736934661865234
1633780000735921700,12.291921630859376,-10.33551025390625,19.522615432739258,-35.03947830200195
1633780000755800600,12.311800537109375,-9.98272705078125,18.763771057128906,-35.06906509399414
1633780000775679500,12.331679443359375,-8.87457275390625,18.24913215637207,-35.432926177978516
1633780000795559700,12.3515595703125,-8.55255126953125,17.39862823486328,-35.87044143676758
1633780000815438600,12.3714384765625,-7.72808837890625,16.46240234375,-36.108028411865234
1633780000835317500,12.3913173828125,-7.608856201171875,15.72099494934082,-36.288578033447266
1633780000855196400,12.411196533203125,-7.4881591796875,15.372353553771973,-36.26212692260742
1633780000875076600,12.43107666015625,-7.622589111328125,14.932053565979004,-36.0500373840332
1633780000894955500,12.45095556640625,-7.555816650390625,13.880266189575195,-36.09030532836914
1633780000914834400,12.47083447265625,-7.6165771484375,13.66757869720459,-36.033206939697266
1633780000934714600,12.490714599609374,-7.68316650390625,13.404348373413086,-36.004642486572266
1633780000954593500,12.510593505859376,-8.19024658203125,12.538155555725098,-36.0059700012207
1633780000974472400,12.530472412109376,-7.834747314453125,12.39686393737793,-35.699527740478516
1633780000994351600,12.5503515625,-7.555419921875,11.799694061279297,-35.43227767944336
1633780001014231600,12.5702314453125,-7.640716552734375,11.40138053894043,-35.28580093383789
1633780001034110500,12.5901103515625,-7.81195068359375,10.604146003723145,-35.32723617553711
1633780001053989600,12.60998974609375,-7.249969482421875,9.9690523147583,-35.05691146850586
1633780001073868500,12.62986865234375,-6.952728271484375,9.38461971282959,-35.165164947509766
1633780001093748500,12.64974853515625,-6.951507568359375,8.6083984375,-35.20468521118164
1633780001113627400,12.66962744140625,-6.8045654296875,7.781391143798828,-34.97282791137695
1633780001133506600,12.689506591796874,-6.522674560546875,6.783149719238281,-34.90896987915039
1633780001153386500,12.709386474609374,-6.6177978515625,6.178287506103516,-34.56511306762695
1633780001173265400,12.729265380859376,-6.568695068359375,5.436439514160156,-34.4030647277832
1633780001193144600,12.74914453125,-6.6219482421875,4.503007888793945,-34.347713470458984
1633780001213023500,12.7690234375,-6.55279541015625,3.6547985076904297,-34.14594650268555
1633780001232903400,12.7889033203125,-5.96795654296875,2.7653732299804688,-34.04428482055664
1633780001252782600,12.808782470703125,-5.56597900390625,2.1968822479248047,-33.57734298706055
1633780001272661500,12.82866162109375,-5.666656494140625,1.4922771453857422,-33.50345993041992
1633780001292540700,12.848540771484375,-5.493621826171875,1.1525135040283203,-33.09343338012695
1633780001312420600,12.868420654296875,-5.58514404296875,0.7985572814941406,-32.66408157348633
1633780001332299500,12.888299560546875,-5.58453369140625,0.3729991912841797,-31.943042755126953
1633780001352178700,12.9081787109375,-5.684173583984375,0.1811084747314453,-31.902965545654297
1633780001372058600,12.92805859375,-6.45751953125,0.2719154357910156,-31.492855072021484
1633780001391937500,12.9479375,-7.126953125,0.4127769470214844,-30.464580535888672
1633780001411816700,12.967816650390626,-7.764251708984375,0.2563819885253906,-30.230411529541016
1633780001431695400,12.9876953125,-8.10565185546875,0.21394729614257812,-29.450878143310547
1633780001451575600,13.007575439453126,-8.283203125,0.06629371643066406,-28.650684356689453
1633780001471454700,13.027454833984375,-8.471221923828125,-0.17517471313476562,-27.990520477294922
1633780001491333400,13.04733349609375,-8.520660400390625,-0.6115589141845703,-27.460514068603516
1633780001511212500,13.067212646484375,-8.7720947265625,-0.7735977172851562,-26.874767303466797
1633780001531092700,13.0870927734375,-9.0843505859375,-1.1836071014404297,-26.307621002197266
1633780001550971400,13.106971435546875,-9.206787109375,-1.6003475189208984,-25.652210235595703
1633780001570853000,13.12685302734375,-9.07293701171875,-1.642599105834961,-24.958965301513672
1633780001590733000,13.146733154296875,-8.939056396484375,-1.902191162109375,-24.293781280517578
1633780001610612200,13.1666123046875,-9.26605224609375,-1.946725845336914,-23.894947052001953
1633780001630491100,13.1864912109375,-9.174774169921875,-1.9145164489746094,-23.472515106201172
1633780001650370000,13.2063701171875,-9.4757080078125,-2.056102752685547,-22.774066925048828
1633780001670250000,13.22625,-9.915740966796875,-2.160167694091797,-22.20694351196289
1633780001690129200,13.246129150390624,-9.48089599609375,-2.6326637268066406,-21.652423858642578
1633780001710008000,13.266008056640626,-10.13543701171875,-2.640146255493164,-21.162296295166016
1633780001729887000,13.285886962890626,-10.004486083984375,-3.0372562408447266,-20.444087982177734
1633780001749767200,13.30576708984375,-10.30548095703125,-3.3989219665527344,-20.211620330810547
1633780001769645800,13.325645751953125,-10.292816162109375,-3.6890602111816406,-19.906261444091797
1633780001789525000,13.34552490234375,-10.271148681640625,-4.335300445556641,-19.230693817138672
1633780001809404200,13.365404052734375,-10.50201416015625,-4.797252655029297,-18.66451644897461
1633780001829283800,13.385283935546875,-10.8646240234375,-5.187768936157227,-18.425914764404297
1633780001849163000,13.4051630859375,-11.333251953125,-5.478477478027344,-17.550434112548828
1633780001869042200,13.425042236328125,-11.736114501953125,-5.834789276123047,-17.357242584228516
1633780001888921900,13.444921875,-11.991729736328125,-6.449493408203125,-17.082416534423828
1633780001908801000,13.464801025390624,-12.6240234375,-6.67652702331543,-16.499073028564453
1633780001928680000,13.484679931640626,-13.177154541015625,-7.146463394165039,-15.882946014404297
1633780001948559000,13.50455908203125,-13.895172119140625,-7.419149398803711,-15.175861358642578
1633780001968439000,13.52443896484375,-13.73602294921875,-7.995594024658203,-14.542438507080078
1633780001988318000,13.54431787109375,-13.5518798828125,-8.725479125976562,-14.246456146240234
1633780002008197000,13.564197021484375,-13.104095458984375,-9.497093200683594,-13.924320220947266
1633780002028076000,13.584075927734375,-12.127105712890625,-9.939445495605469,-13.63516616821289
1633780002047956000,13.6039560546875,-11.783203125,-10.551952362060547,-12.938663482666016
1633780002067835100,13.623835205078125,-11.367919921875,-10.61783218383789,-12.046276092529297
1633780002087714000,13.643714111328125,-11.1353759765625,-11.413711547851562,-10.94986343383789
1633780002107593000,13.663593017578124,-10.97222900390625,-11.610404968261719,-10.159809112548828
1633780002127473200,13.68347314453125,-10.417022705078125,-11.974971771240234,-9.159908294677734
1633780002147352000,13.70335205078125,-9.988372802734375,-12.466434478759766,-7.93072509765625
1633780002167231000,13.72323095703125,-9.485198974609375,-12.838565826416016,-6.628227233886719
1633780002187111200,13.743111083984376,-9.040496826171875,-13.070899963378906,-5.505756378173828
1633780002206990000,13.762989990234376,-8.909454345703125,-13.277996063232422,-4.166007995605469
1633780002226869000,13.782868896484375,-8.471649169921875,-13.022258758544922,-3.0156402587890625
1633780002246748000,13.802747802734375,-8.3934326171875,-13.081371307373047,-2.278644561767578
1633780002266628000,13.822628173828125,-8.38958740234375,-12.883987426757812,-1.1830329895019531
1633780002286507000,13.842507080078125,-7.84161376953125,-12.866012573242188,-0.03421783447265625
1633780002306386000,13.862385986328125,-7.8348388671875,-12.291278839111328,1.3275527954101562
1633780002326265000,13.88226513671875,-7.9288330078125,-12.295135498046875,2.0535202026367188
1633780002346145300,13.902145263671875,-7.68328857421875,-12.018997192382812,3.0443649291992188
1633780002366024000,13.92202392578125,-7.636474609375,-11.367130279541016,4.265663146972656
1633780002385903000,13.941903076171876,-7.799957275390625,-10.79916000366211,5.422737121582031
1633780002405782000,13.961781982421876,-8.058258056640625,-10.173675537109375,6.329280853271484
1633780002425662000,13.981661865234376,-7.401214599609375,-9.77932357788086,7.331993103027344
1633780002445541000,14.001541015625,-7.687774658203125,-9.05364990234375,8.415328979492188
1633780002465420000,14.021419921875,-7.75140380859375,-8.553470611572266,9.161598205566406
1633780002485300000,14.041300048828125,-8.01885986328125,-7.604667663574219,10.000434875488281
1633780002505179000,14.061178955078125,-8.259613037109375,-6.72374153137207,10.682083129882812
1633780002525058000,14.08105810546875,-8.575225830078125,-5.794197082519531,11.133689880371094
1633780002544937200,14.100937255859375,-8.614288330078125,-4.960506439208984,11.936309814453125
1633780002564817000,14.12081689453125,-8.716766357421875,-4.2450408935546875,12.472686767578125
1633780002584692700,14.140692626953125,-8.772735595703125,-3.3500919342041016,12.879966735839844
1633780002604572000,14.160572021484375,-9.609710693359375,-2.724620819091797,13.098297119140625
1633780002624450600,14.180450439453125,-9.808868408203125,-1.9157485961914062,13.519351959228516
1633780002644330800,14.200330810546875,-9.8922119140625,-1.0921630859375,13.85504150390625
1633780002664210000,14.2202099609375,-9.96026611328125,-0.30045318603515625,14.429412841796875
1633780002684088800,14.2400888671875,-9.405731201171875,0.6591548919677734,15.314804077148438
1633780002703967700,14.2599677734375,-8.947967529296875,1.5199966430664062,15.59957504272461
1633780002723848000,14.279847900390624,-8.712432861328125,2.1308536529541016,16.28219223022461
1633780002743726800,14.299726806640624,-8.291900634765625,2.552183151245117,16.922927856445312
1633780002763605800,14.319605712890626,-7.799896240234375,2.9237194061279297,17.333145141601562
1633780002783486000,14.33948583984375,-7.578033447265625,3.3988399505615234,17.957550048828125
1633780002803364900,14.35936474609375,-6.686981201171875,3.6031551361083984,18.54708480834961
1633780002823243800,14.379243896484375,-6.047760009765625,3.6245555877685547,19.03793716430664
1633780002843122700,14.399122802734375,-6.1243896484375,3.639629364013672,19.269474029541016
1633780002863003000,14.4190029296875,-5.83740234375,3.7461414337158203,20.449459075927734
1633780002882881800,14.4388818359375,-5.054443359375,3.6034679412841797,21.574615478515625
1633780002902760700,14.4587607421875,-4.166107177734375,3.4244003295898438,22.271099090576172
1633780002922640000,14.478639892578125,-3.96673583984375,2.9192733764648438,22.877647399902344
1633780002942519800,14.498519775390625,-3.474609375,2.4332656860351562,24.114173889160156
1633780002962398700,14.518398681640624,-3.21630859375,2.252096176147461,24.864784240722656
1633780002982278000,14.53827783203125,-2.75872802734375,2.2545604705810547,25.911529541015625
1633780003002156800,14.55815673828125,-2.893524169921875,2.2359886169433594,26.85818099975586
1633780003022036700,14.57803662109375,-2.32794189453125,2.0454978942871094,27.75851058959961
1633780003041916000,14.597916015625,-1.726776123046875,1.8689041137695312,28.71438980102539
1633780003061794800,14.617794921875,-1.311431884765625,1.991384506225586,29.834924697875977
1633780003081674000,14.637674072265625,-1.28155517578125,2.026254653930664,30.94113540649414
1633780003101553700,14.6575537109375,-1.36163330078125,2.339029312133789,32.210365295410156
1633780003121432800,14.677432861328125,-1.067779541015625,2.5524635314941406,32.91201400756836
1633780003141312000,14.69731201171875,-1.174224853515625,2.7694969177246094,34.46703338623047
1633780003161191700,14.717191650390625,-1.125701904296875,3.237119674682617,35.67721939086914
1633780003181070800,14.73707080078125,-1.698272705078125,3.207813262939453,36.49085235595703
1633780003200950000,14.756949951171874,-2.029937744140625,3.7941436767578125,37.38478088378906
1633780003220828700,14.77682861328125,-2.254241943359375,4.650020599365234,38.282920837402344
1633780003240708900,14.796708984375,-2.239410400390625,5.315317153930664,38.892425537109375
1633780003260587800,14.816587890625,-2.239501953125,6.051441192626953,39.931907653808594
1633780003280466700,14.836466796875,-2.505218505859375,6.782802581787109,40.430538177490234
1633780003300345900,14.856345947265625,-2.97662353515625,7.58220100402832,41.20079040527344
1633780003320225800,14.876225830078125,-3.21063232421875,8.66025447845459,41.97533416748047
1633780003340104700,14.896104736328125,-3.511688232421875,9.826630592346191,42.15513229370117
1633780003359983600,14.915983642578125,-4.3687744140625,10.986221313476562,42.38407897949219
1633780003379862800,14.93586279296875,-4.766448974609375,12.36877727508545,41.80967712402344
1633780003399742700,14.95574267578125,-5.112762451171875,13.7969388961792,42.07530212402344
1633780003419621600,14.97562158203125,-6.037506103515625,15.188943862915039,41.579105377197266
1633780003439500800,14.995500732421876,-6.2017822265625,16.481910705566406,41.69261169433594
1633780003459381000,15.015381103515624,-6.747100830078125,17.7917537689209,41.29883575439453
1633780003479259600,15.035259765625,-7.406646728515625,18.957603454589844,40.816444396972656
1633780003499138800,15.055138916015625,-7.6260986328125,20.12411880493164,40.22736740112305
1633780003519017700,15.075017822265625,-7.173065185546875,21.31211280822754,39.349979400634766
1633780003538897700,15.094897705078125,-6.88348388671875,21.684188842773438,39.172080993652344
1633780003558776800,15.11477685546875,-6.41143798828125,22.548276901245117,38.43517303466797
1633780003578656000,15.134656005859375,-6.336944580078125,23.058494567871094,37.75897979736328
1633780003598535200,15.15453515625,-6.075775146484375,23.602943420410156,37.171634674072266
1633780003618414800,15.174414794921875,-5.84027099609375,24.227378845214844,36.717803955078125
1633780003638294000,15.1942939453125,-5.9569091796875,24.880128860473633,36.37127685546875
1633780003658173000,15.2141728515625,-5.614837646484375,25.3308048248291,35.950164794921875
1633780003678051800,15.2340517578125,-5.853973388671875,25.624652862548828,35.48490524291992
1633780003697932000,15.25393212890625,-5.340484619140625,25.860122680664062,34.93262481689453
1633780003717811000,15.27381103515625,-5.418609619140625,26.072265625,34.750648498535156
1633780003737689900,15.29368994140625,-5.303131103515625,26.503103256225586,34.44442367553711
1633780003757570000,15.313570068359375,-5.143951416015625,26.694408416748047,34.06367111206055
1633780003777449000,15.333448974609375,-5.692474365234375,26.67040252685547,33.447547912597656
1633780003797328000,15.353327880859375,-5.145843505859375,27.052474975585938,33.04877471923828
1633780003817206800,15.373206787109375,-5.034576416015625,27.0412654876709,32.775230407714844
1633780003837087000,15.3930869140625,-5.132415771484375,27.16792106628418,32.159751892089844
1633780003856966100,15.412966064453125,-5.22247314453125,27.496097564697266,31.95203971862793
1633780003876844800,15.4328447265625,-4.2281494140625,27.38150978088379,31.75594139099121
1633780003896724000,15.452723876953126,-3.7469482421875,27.486522674560547,31.667139053344727
1633780003916604200,15.472604248046874,-3.384613037109375,27.37961196899414,31.543312072753906
1633780003936482800,15.49248291015625,-3.12042236328125,27.342227935791016,31.498226165771484
1633780003956362000,15.512362060546875,-3.289093017578125,27.033916473388672,31.62624740600586
1633780003976241000,15.532240966796875,-3.715423583984375,26.438016891479492,31.60292625427246
1633780003996120800,15.552120849609375,-4.236083984375,25.92605972290039,31.781688690185547
1633780004016000000,15.572,-4.62689208984375,25.900632858276367,32.090782165527344
1633780004035879000,15.59187890625,-4.4923095703125,25.705141067504883,32.290069580078125
1633780004055758800,15.6117587890625,-4.58819580078125,25.592937469482422,32.12616729736328
1633780004075638000,15.631637939453125,-4.08123779296875,25.330963134765625,32.01247787475586
1633780004095517000,15.651516845703124,-3.93536376953125,25.523141860961914,31.915260314941406
1633780004115396000,15.67139599609375,-3.866912841796875,25.446800231933594,31.864608764648438
1633780004135275800,15.69127587890625,-3.88983154296875,25.637989044189453,31.762325286865234
1633780004155155000,15.711155029296876,-3.635009765625,25.572383880615234,31.87478256225586
1633780004175034000,15.7310341796875,-3.9383544921875,25.703433990478516,31.624736785888672
1633780004194913000,15.7509130859375,-3.61041259765625,25.802629470825195,31.578779220581055
1633780004214793000,15.77079296875,-4.296295166015625,26.21709632873535,31.67308235168457
1633780004234672000,15.790672119140625,-3.85198974609375,26.44529151916504,31.577648162841797
1633780004254551000,15.810551025390625,-3.821533203125,26.557836532592773,31.815893173217773
1633780004274431000,15.830430908203125,-3.626556396484375,26.407503128051758,31.83539390563965
1633780004294310000,15.850309814453125,-2.75238037109375,26.651687622070312,31.915237426757812
1633780004314189000,15.87018896484375,-2.960968017578125,26.393476486206055,31.911705017089844
1633780004334068000,15.89006787109375,-2.8780517578125,26.561622619628906,32.29713439941406
1633780004353948000,15.909947998046874,-2.918212890625,26.67050552368164,32.37678527832031
1633780004373827000,15.9298271484375,-2.99853515625,26.39069938659668,32.760162353515625
1633780004393705700,15.949705810546876,-3.438385009765625,26.27215003967285,32.972808837890625
1633780004413585000,15.9695849609375,-3.515655517578125,26.17159080505371,33.168701171875
1633780004433465000,15.989465087890625,-2.892181396484375,25.66206169128418,33.71666717529297
1633780004453343700,16.00934375,-2.87554931640625,25.5373477935791,34.00041198730469
1633780004473223000,16.029222900390625,-3.509765625,25.39457893371582,34.093666076660156
1633780004493102000,16.04910205078125,-3.613800048828125,25.256999969482422,34.05982971191406
1633780004512982000,16.06898193359375,-4.0208740234375,25.119258880615234,34.30448913574219
1633780004532861000,16.08886083984375,-3.987518310546875,24.960071563720703,34.62538528442383
1633780004552739800,16.10873974609375,-4.0125732421875,24.99439811706543,34.60242462158203
1633780004572619000,16.128618896484376,-3.709716796875,25.110851287841797,34.44684600830078
1633780004592498400,16.14849853515625,-3.551239013671875,25.106220245361328,34.33539581298828
1633780004612377600,16.168377685546876,-3.6912841796875,25.159748077392578,34.31716537475586
1633780004632256500,16.188256591796875,-3.240142822265625,25.09954833984375,34.73054504394531
1633780004652135700,16.2081357421875,-3.118133544921875,24.916091918945312,34.81373596191406
1633780004672015600,16.228015625,-3.494903564453125,24.869937896728516,34.81647872924805
1633780004691894500,16.24789453125,-3.147613525390625,24.646760940551758,35.10741424560547
1633780004711773700,16.267773681640627,-3.343353271484375,24.595359802246094,35.410545349121094
1633780004731653600,16.287653564453127,-3.3519287109375,24.752239227294922,35.744415283203125
1633780004751532500,16.307532470703126,-3.420928955078125,24.744577407836914,35.747684478759766
1633780004771411700,16.32741162109375,-4.019561767578125,24.502422332763672,36.041221618652344
1633780004791290600,16.34729052734375,-4.047698974609375,24.620262145996094,35.99538040161133
1633780004811170600,16.367170654296874,-4.3226318359375,24.575098037719727,36.16203308105469
1633780004831049700,16.3870498046875,-4.590545654296875,24.817304611206055,36.2071533203125
1633780004850928600,16.4069287109375,-5.01324462890625,24.85927391052246,36.48908233642578
1633780004870807600,16.4268076171875,-5.2236328125,24.59724998474121,36.68815994262695
1633780004890687500,16.4466875,-5.349456787109375,24.67472267150879,36.241790771484375
1633780004910566700,16.466566650390625,-5.05712890625,24.72686767578125,36.190574645996094
1633780004930445600,16.486445556640625,-5.096832275390625,24.715099334716797,36.412696838378906
1633780004950324500,16.506324462890625,-5.449737548828125,24.61166000366211,36.0843505859375
1633780004970204700,16.52620458984375,-4.9786376953125,24.547731399536133,36.335975646972656
1633780004990083600,16.54608349609375,-4.493896484375,24.386615753173828,35.65930938720703
1633780005009962500,16.56596240234375,-4.8294677734375,24.457109451293945,35.92978286743164
1633780005029841700,16.585841552734376,-4.58935546875,24.442276000976562,35.84429168701172
1633780005049721600,16.6057216796875,-4.911224365234375,24.417850494384766,35.72029495239258
1633780005069600500,16.6256005859375,-4.454620361328125,24.445348739624023,35.78315353393555
1633780005089479700,16.645479736328124,-4.507476806640625,24.18018341064453,35.45401382446289
1633780005109359600,16.665359619140624,-4.379913330078125,24.184608459472656,35.83060836791992
1633780005129238500,16.685238525390623,-4.548370361328125,24.481678009033203,35.912078857421875
1633780005149117400,16.705117431640623,-4.616180419921875,23.765764236450195,35.49808883666992
1633780005168996600,16.72499658203125,-4.443603515625,24.159727096557617,35.570159912109375
1633780005188876500,16.74487646484375,-5.082672119140625,24.018714904785156,35.90182113647461
1633780005208755500,16.76475537109375,-5.1981201171875,23.896137237548828,35.73662185668945
1633780005228634600,16.784634521484374,-4.501220703125,23.850242614746094,36.08320236206055
1633780005248513800,16.804513671875,-5.050506591796875,23.73680877685547,36.048004150390625
1633780005268393500,16.8243935546875,-4.64794921875,23.76161766052246,36.14497375488281
1633780005288272600,16.844272705078126,-4.758575439453125,23.79768180847168,36.10735321044922
1633780005308151600,16.864151611328126,-4.35845947265625,23.657503128051758,36.171058654785156
1633780005328030500,16.884030517578125,-4.5142822265625,24.0174503326416,36.11256408691406
1633780005347910700,16.90391064453125,-5.028961181640625,23.61614990234375,36.28047180175781
1633780005367789600,16.92378955078125,-4.9420166015625,23.39583396911621,36.37993621826172
1633780005387668700,16.943668701171877,-4.57244873046875,23.29596519470215,36.29642868041992
1633780005407547400,16.96354736328125,-4.4239501953125,23.335769653320312,36.29646301269531
1633780005427427600,16.983427490234376,-4.00616455078125,23.245262145996094,36.21836853027344
1633780005447306800,17.003306640625,-3.909912109375,23.140039443969727,36.230316162109375
1633780005467185400,17.023185302734376,-4.14410400390625,23.394775390625,36.26429748535156
1633780005487065600,17.043065673828124,-4.3505859375,23.15147590637207,36.483665466308594
1633780005506944800,17.06294482421875,-3.91766357421875,22.93535804748535,36.35379409790039
1633780005526823400,17.082823486328124,-3.950408935546875,22.82581329345703,36.67957305908203
1633780005546702600,17.10270263671875,-4.133819580078125,22.97125816345215,36.56511688232422
1633780005566582800,17.122582763671875,-4.347381591796875,22.942270278930664,36.649269104003906
1633780005586462500,17.14246240234375,-4.096832275390625,23.065929412841797,36.59490203857422
1633780005606341400,17.16234130859375,-4.26947021484375,22.869653701782227,36.73797607421875
1633780005626220500,17.182220458984375,-4.21044921875,22.7629451751709,36.41667175292969
1633780005646100500,17.2021005859375,-4.609527587890625,22.571840286254883,36.39077377319336
1633780005665979400,17.2219794921875,-4.45001220703125,22.67095947265625,36.53695297241211
1633780005685858600,17.241858642578126,-4.333740234375,22.596858978271484,36.6981201171875
1633780005705737500,17.261737548828126,-4.3804931640625,22.821022033691406,36.66995620727539
1633780005725617400,17.281617431640626,-4.32305908203125,22.89168357849121,36.66911697387695
1633780005745496600,17.30149658203125,-4.516845703125,22.89586067199707,36.663818359375
1633780005765375500,17.32137548828125,-4.533599853515625,22.816299438476562,36.57999038696289
1633780005785254400,17.34125439453125,-4.370269775390625,22.74226951599121,36.550086975097656
1633780005805134300,17.36113427734375,-4.45166015625,22.746191024780273,36.29205322265625
1633780005825013500,17.381013427734374,-4.37188720703125,22.61003875732422,36.07341766357422
1633780005844892400,17.400892333984373,-4.49383544921875,22.55782699584961,36.30756378173828
1633780005864772400,17.4207724609375,-4.80902099609375,22.457197189331055,36.34276580810547
1633780005884651500,17.440651611328125,-4.909912109375,22.778200149536133,36.1681022644043
1633780005904530400,17.460530517578125,-4.743377685546875,22.675884246826172,36.538536071777344
1633780005924409300,17.480409423828124,-4.350128173828125,22.71806526184082,36.66330337524414
1633780005944289500,17.50028955078125,-4.755706787109375,22.375499725341797,36.743614196777344
1633780005964168200,17.520168212890624,-4.656890869140625,22.567537307739258,36.740867614746094
1633780005984047400,17.54004736328125,-4.819854736328125,22.421463012695312,36.692291259765625
1633780006003926500,17.559926513671876,-4.702850341796875,22.30145263671875,36.61827087402344
1633780006023806200,17.57980615234375,-4.510009765625,22.336048126220703,36.52778625488281
1633780006043685400,17.599685302734375,-4.72821044921875,22.19148826599121,36.726463317871094
1633780006063564300,17.619564208984375,-4.246337890625,22.06664276123047,36.89842224121094
1633780006083443500,17.639443359375,-4.15203857421875,21.994897842407227,36.93464660644531
1633780006103323400,17.659323486328127,-4.01239013671875,22.09187889099121,36.89356994628906
1633780006123202300,17.679202392578127,-3.642120361328125,22.184524536132812,36.905029296875
1633780006143081500,17.69908154296875,-3.252227783203125,22.02706527709961,36.987083435058594
1633780006162960600,17.718960693359374,-2.667877197265625,22.13397979736328,37.21076965332031
1633780006182840300,17.73884033203125,-2.09283447265625,22.148805618286133,37.313865661621094
1633780006202719500,17.758719482421874,-2.052734375,22.243732452392578,37.50066375732422
1633780006222598400,17.778598388671874,-2.240325927734375,21.796188354492188,37.49659729003906
1633780006242478300,17.798478271484374,-2.095977783203125,21.95433807373047,37.404937744140625
1633780006262357500,17.818357421875,-2.023345947265625,21.69326400756836,37.66343307495117
1633780006282236400,17.838236328125,-2.2835693359375,21.67772674560547,37.419288635253906
1633780006302115300,17.858115234375,-2.154205322265625,21.60472297668457,37.663185119628906
1633780006321995500,17.87799560546875,-2.548919677734375,21.623332977294922,37.63646697998047
1633780006341874400,17.89787451171875,-2.364105224609375,21.339370727539062,37.813026428222656
1633780006361753300,17.91775341796875,-2.59478759765625,21.467811584472656,38.06067657470703
1633780006381632300,17.93763232421875,-3.006317138671875,21.112932205200195,37.77859115600586
1633780006401512400,17.957512451171876,-2.647491455078125,21.01653480529785,37.92446517944336
1633780006421391400,17.977391357421876,-2.368133544921875,20.99177360534668,37.920867919921875
1633780006441270300,17.997270263671876,-2.838043212890625,21.09358024597168,37.78704071044922
1633780006461149400,18.0171494140625,-2.804473876953125,21.04810905456543,37.94744110107422
1633780006481029600,18.037029541015624,-3.28204345703125,21.016643524169922,37.8336296081543
1633780006500908300,18.056908203125,-2.824249267578125,20.75276756286621,37.96120834350586
1633780006520787500,18.076787353515623,-3.06121826171875,20.731538772583008,37.90314865112305
1633780006540666400,18.096666259765627,-2.512359619140625,20.83442497253418,38.06031799316406
1633780006560546300,18.11654638671875,-2.58258056640625,21.03888702392578,37.92072677612305
1633780006580424400,18.136424560546875,-2.69482421875,20.731605529785156,37.971248626708984
1633780006600303600,18.1563037109375,-3.110687255859375,20.533288955688477,38.0540885925293
1633780006620182800,18.176182861328126,-3.2462158203125,20.433696746826172,38.01059341430664
1633780006640062500,18.1960625,-3.083404541015625,20.483154296875,38.0511474609375
1633780006659941600,18.215941650390626,-3.0635986328125,20.604089736938477,37.9733772277832
1633780006679820800,18.23582080078125,-3.18475341796875,20.689321517944336,37.947471618652344
1633780006699699700,18.25569970703125,-2.79962158203125,20.438873291015625,38.17292022705078
1633780006719579600,18.27557958984375,-2.95819091796875,20.595884323120117,37.98282241821289
1633780006739458600,18.29545849609375,-3.032958984375,20.631729125976562,37.66536331176758
1633780006759337700,18.315337646484377,-2.625030517578125,20.530656814575195,37.681182861328125
1633780006779217700,18.3352177734375,-2.6038818359375,20.636112213134766,37.73611068725586
1633780006799096600,18.3550966796875,-2.436614990234375,20.474544525146484,37.66304397583008
1633780006818975700,18.374975830078125,-2.619232177734375,20.385116577148438,37.65167236328125
1633780006838854700,18.394854736328124,-2.575653076171875,20.282367706298828,37.802459716796875
1633780006858734600,18.414734619140624,-2.473480224609375,20.739660263061523,37.72409439086914
1633780006878613800,18.43461376953125,-2.495880126953125,20.472841262817383,37.664031982421875
1633780006898492700,18.45449267578125,-2.780242919921875,20.58957290649414,37.99502182006836
1633780006918371600,18.47437158203125,-2.59814453125,20.290807723999023,38.282958984375
1633780006938251800,18.494251708984375,-2.117340087890625,20.09830093383789,38.253089904785156
1633780006958130700,18.514130615234375,-2.116943359375,20.291522979736328,38.066104888916016
1633780006978009600,18.534009521484375,-1.9930419921875,20.052371978759766,38.59206771850586
1633780006997888500,18.553888427734375,-2.01861572265625,20.185527801513672,38.41782760620117
1633780007017768700,18.573768798828127,-2.04449462890625,19.8211727142334,38.197994232177734
1633780007037647600,18.593647705078126,-1.75274658203125,19.911054611206055,38.26544189453125
1633780007057526500,18.613526611328126,-1.61676025390625,19.708776473999023,38.46833419799805
1633780007077405700,18.63340576171875,-1.892913818359375,19.587596893310547,38.56610870361328
1633780007097285600,18.65328564453125,-1.45538330078125,19.568584442138672,38.68526840209961
1633780007117164500,18.67316455078125,-1.64385986328125,19.6121883392334,38.813148498535156
1633780007137043700,18.693043701171874,-1.745819091796875,19.781757354736328,38.739524841308594
1633780007156922600,18.712922607421874,-1.936187744140625,19.60988426208496,38.763397216796875
1633780007176802600,18.732802490234373,-1.76483154296875,19.587459564208984,38.9613037109375
1633780007196681700,18.752681640625,-1.634979248046875,19.48344612121582,38.66096496582031
1633780007216560600,18.772560546875,-1.61285400390625,19.582773208618164,38.83503341674805
1633780007236439800,18.792439697265625,-1.4189453125,19.50237464904785,38.69843292236328
1633780007256319700,18.81231982421875,-1.4483642578125,19.413856506347656,38.995086669921875
1633780007276198700,18.83219873046875,-1.685211181640625,19.47164535522461,38.88014221191406
1633780007296077800,18.852077880859376,-1.92425537109375,19.439115524291992,38.9981689453125
1633780007315956500,18.87195654296875,-1.97515869140625,19.25687026977539,39.244476318359375
1633780007335836700,18.891836669921876,-1.680908203125,19.41457748413086,39.267826080322266
1633780007355715800,18.9117158203125,-1.474700927734375,19.435951232910156,39.23976516723633
1633780007375594500,18.931594482421875,-1.43560791015625,19.401222229003906,39.025856018066406
1633780007395473700,18.9514736328125,-1.717742919921875,19.247528076171875,39.09718704223633
1633780007415353900,18.971353759765623,-1.476959228515625,19.553237915039062,38.993194580078125
1633780007435232500,18.991232421875,-1.166046142578125,19.57956314086914,39.31373596191406
1633780007455111700,19.011111572265627,-1.385650634765625,19.63121223449707,39.023738861083984
1633780007474990600,19.030990478515626,-1.394866943359375,19.29583740234375,39.276145935058594
1633780007494870800,19.050870849609375,-1.060638427734375,19.689849853515625,39.28202819824219
1633780007514749700,19.070749755859374,-1.155242919921875,19.768024444580078,39.5966911315918
1633780007534628600,19.090628662109374,-1.31494140625,19.823287963867188,39.42893981933594
1633780007554507800,19.1105078125,-1.227630615234375,19.909725189208984,39.585594177246094
1633780007574387500,19.130387451171874,-1.092071533203125,19.741939544677734,39.47022247314453
1633780007594266600,19.1502666015625,-1.467437744140625,19.621780395507812,39.49113845825195
1633780007614145500,19.1701455078125,-1.5396728515625,19.474159240722656,39.65147018432617
1633780007634025500,19.190025390625,-1.135955810546875,19.523826599121094,39.73122024536133
1633780007653904400,19.209904296875,-1.169464111328125,19.617477416992188,39.70911407470703
