time,seconds_elapsed,z,y,x
1634127098989287700,0.03428759765625,-0.3898819456398487,0.30317747565507885,0.4285737876057625
1634127099009166600,0.05416650390625,-0.5017839852452278,-0.009306173005700111,0.38253757422640916
1634127099029045800,0.074045654296875,-0.2868167079627514,-0.26762393171489235,-0.037486850090324875
1634127099048924700,0.093924560546875,-0.03390343864560127,-0.3203606656461954,-0.024481603370979425
1634127099068803800,0.113803955078125,0.0644669192135334,-0.12438450455963611,0.2975292406350374
1634127099088682800,0.133682861328125,0.04693476965427398,-0.055045010873675346,0.41891134850829836
1634127099108561700,0.153561767578125,-0.0254974293500185,-0.021071429601311684,0.3552945433180779
1634127099128440600,0.173440673828125,-0.23176351378262042,-0.05340718053877353,0.28772943889349695
1634127099148320000,0.193320068359375,-0.36057518713474274,-0.14893500844836235,0.17725231752470136
1634127099168199200,0.21319921875,-0.3082300828695297,-0.05936755024790764,0.20091025648787617
1634127099188077800,0.233077880859375,-0.1587538071513176,-0.0001654196947813034,0.23384843029789626
1634127099207957000,0.25295703125,-0.07923135762512683,0.11954641687870025,0.2195665877714753
1634127099227836000,0.2728359375,-0.0737865362226963,0.15644728377461434,0.11401333267092705
1634127099247715800,0.2927158203125,-0.09346095850765705,0.13228256433308125,0.070484645133093
1634127099267595000,0.312594970703125,-0.09341302771270274,0.05483166038393974,0.0034793665483593937
1634127099287474000,0.332473876953125,-0.10775427227616309,-0.06239946528971195,-0.07923157682083547
1634127099307353000,0.35235302734375,-0.09414601816236973,-0.1302975279957056,-0.09837912568747997
1634127099327232000,0.37223193359375,0.0023135376393795012,-0.05943827739655971,-0.06066007427647709
1634127099347111000,0.39211083984375,0.12899287513792515,0.024302082085609435,-0.01198708265274763
1634127099366990000,0.411989990234375,0.1302583650290966,0.1099976672887802,0.05217164739444852
1634127099386869000,0.431868896484375,0.11518179192841052,0.11120762760043143,0.018789163883030414
1634127099406748200,0.451748046875,0.11788579019010066,0.06799041716456412,-0.02393134907707572
1634127099426626800,0.471626708984375,0.07803601036071776,0.0730237351566553,-0.02171133494004607
1634127099446506000,0.491506103515625,0.06097556996643543,0.061438511303067204,-0.02502425888031721
1634127099466385000,0.511385009765625,0.10568740287423133,0.022256839993596074,-0.03251885241940617
1634127099486264000,0.53126416015625,0.07867898443937302,0.004049567651748657,-0.04786079845800995
1634127099506143000,0.55114306640625,0.11496610335111618,-0.024644611912965773,-0.025655396390706298
1634127099526022000,0.57102197265625,0.20093641384243963,-0.027033552876114843,-0.04991510063931345
1634127099545901000,0.590901123046875,0.23982816229462622,-0.013767244067788124,-0.02153904711306095
1634127099565780000,0.610780029296875,0.18518997865617273,-0.009945055431127548,0.004753478137403727
1634127099585660000,0.630659912109375,0.16077800645530224,-0.027716274443268775,0.008545125505328178
1634127099605539000,0.6505390625,0.15519699145257473,-0.005628361275792122,0.021757804430276154
1634127099625418000,0.67041796875,0.19323650698959827,0.011103577816486358,0.02791720384284854
1634127099645297200,0.690297119140625,0.17000877613723278,0.010709025540947914,0.04573854560703039
1634127099665175800,0.71017578125,0.14592296715080738,-0.008082184168696403,0.05086071092635393
1634127099685055000,0.730054931640625,0.08691606690883635,-0.09014028965234756,0.04835135845392942
1634127099704934000,0.749933837890625,0.04533551776409149,-0.11195640014111995,0.06149594057872891
1634127099724813000,0.76981298828125,0.09422317505180836,-0.08400164076685905,0.07043781031668185
1634127099744692000,0.78969189453125,0.09988251598775386,-0.06215396609604358,0.0943335035584867
1634127099764571000,0.80957080078125,0.0848842688202858,-0.08925298542380332,0.056766720099747175
1634127099784450000,0.829449951171875,0.04881926822662353,-0.0727887573570013,0.02924304561913013
1634127099804329000,0.849328857421875,0.07349719788730144,-0.007867664635181426,0.035460312698781485
1634127099824208100,0.8692080078125,0.07852057900726794,0.041814357900619506,0.06950111398845911
1634127099844086800,0.889086669921875,0.0636690468341112,0.05069733705818653,0.061586249210685486
1634127099863966000,0.908966064453125,0.03811491886079311,0.061032268589735025,0.05559796858131885
1634127099883845000,0.92884521484375,0.03837035492658615,0.10933481946587562,0.05216799413263797
1634127099903724800,0.948724853515625,0.02273205628991127,0.14629063141942023,0.08788359676674008
1634127099923604000,0.96860400390625,-0.04134440230131149,0.15008827013671397,0.0872761323928833
1634127099943483000,0.98848291015625,-0.051690439748764035,0.14687281522154808,0.07062617249563335
1634127099963362000,1.008362060546875,-0.03068330755531788,0.1588502532631159,0.05748918915539979
1634127099983241000,1.028240966796875,-0.03830371943116188,0.12356208226084708,0.041600422888994217
1634127100003119900,1.048119873046875,-0.019568623822927473,0.10051730675995349,-0.020595774913579223
1634127100022999000,1.0679990234375,0.024375147321820258,0.07186170563995838,-0.0682562284938991
1634127100042878000,1.0878779296875,0.0622141718506813,0.05964461362361908,-0.0779167678952217
1634127100062757000,1.107757080078125,0.0355272404551506,0.04509703283309936,-0.08039455618560314
1634127100082635800,1.1276357421875,0.06799392429590224,0.06506663867235184,-0.12844400908350945
1634127100102515000,1.147514892578125,0.09079963034391403,0.10362462512552738,-0.18415829752087592
1634127100122394000,1.16739404296875,0.09094342272877692,0.16176467940509318,-0.1697308359786868
1634127100142272800,1.187272705078125,0.06305296076238155,0.17912147239744663,-0.2101099003791809
1634127100162152000,1.20715185546875,0.009264087429642676,0.2043359931528568,-0.21834142989069222
1634127100182030600,1.227030517578125,0.0487421113371849,0.19442133285999297,-0.22856442548036573
1634127100201909800,1.24690966796875,0.07436053671836852,0.13494681510627268,-0.23776363098025322
1634127100221790000,1.2667900390625,0.10576455976366995,0.11778116077184676,-0.204253575566411
1634127100241668600,1.286668701171875,0.12639233725070953,0.10254150606393814,-0.20454817459881305
1634127100261547800,1.3065478515625,0.12562018383443355,0.07165946106612682,-0.17524872261732816
1634127100281426700,1.3264267578125,0.122180272513628,0.008194412371516227,-0.17041384980678556
1634127100301305900,1.346305908203125,0.1358867263048887,0.028276830935478208,-0.13888123194575308
1634127100321184500,1.3661845703125,0.13345511524379253,0.04623334338665008,-0.07781535334736109
1634127100341063700,1.386063720703125,0.11177519835531712,0.059387423992156976,-0.04279343206584453
1634127100360942800,1.40594287109375,0.11832476612925528,0.043429976403713225,0.022108517564088104
1634127100380821800,1.42582177734375,0.033444588962197305,0.011647183173894881,0.05883358950167894
1634127100400701000,1.445700927734375,-0.018705869513750074,-0.031164369070529937,0.10339373897910117
1634127100420579600,1.46557958984375,-0.022190204498171804,-0.05933773963153362,0.11974398527741431
1634127100440458800,1.485458740234375,0.013373860836029051,-0.044509588333964345,0.12055223292037844
1634127100460337700,1.505337646484375,0.07785948475003242,0.016303484547138213,0.12733823979869485
1634127100480216800,1.525216796875,0.11364099222719669,0.007191957330703735,0.13513108563199638
1634127100500095700,1.545095703125,0.10622983918786048,-0.04585106607079505,0.08233093107566238
1634127100519974700,1.564974609375,0.17726093922257422,-0.05131985287070274,0.051878071275353425
1634127100539853800,1.584853759765625,0.29011224237680433,-0.03548983105421066,0.032588410524278875
1634127100559732700,1.604732666015625,0.25744682109355926,0.008403671208024025,0.03355374842509627
1634127100579612000,1.62461181640625,0.20409458561241625,0.04962298582494259,0.015393383964896201
1634127100599491800,1.644491943359375,0.16308511435389517,0.08285013264417648,-0.016323358291387556
1634127100619370800,1.664370849609375,0.05108838220238685,0.08333353224694728,-0.012882424057275056
1634127100639250000,1.68425,-0.03528174126148224,0.11596212865114211,-0.01118979479521513
1634127100659128600,1.704128662109375,-0.03453063063323498,0.11812310607731341,-0.006428571742773056
1634127100679007700,1.7240078125,-0.10425123259127139,0.121016489431262,0.0030436054795980453
1634127100698886700,1.74388671875,-0.11218787080943583,0.0989922891497612,0.029342706601321697
1634127100718765800,1.763765869140625,-0.07159341009259224,0.04273907153010368,0.0354084363810718
1634127100738644700,1.783644775390625,0.0393657957047224,0.017639701586961744,0.06992942240312695
1634127100758523600,1.803523681640625,0.1038455743998289,0.024680267748236655,0.10340250680744648
1634127100778402800,1.82340283203125,0.05510580115020275,0.013453355813026428,0.10006722490489482
1634127100798281700,1.84328173828125,0.01217617548406124,-0.030409751310944557,0.07893091337382793
1634127100818161000,1.863160888671875,0.006811433580517769,-0.010965630650520324,0.0887451820321381
1634127100838039600,1.88303955078125,0.025741759499907493,0.005344868159294128,0.07598375400602816
1634127100857918700,1.902918701171875,0.03191372613310814,-0.028554478833079336,0.0350621071614325
1634127100877798000,1.9227978515625,0.0621574732273817,0.005081833308935165,0.025843174047768116
1634127100897676800,1.9426767578125,0.11104629955887795,0.09443535649776458,0.04886982937008142
1634127100917555700,1.9625556640625,0.12278934432268142,0.19635960744619368,0.0649779374755919
1634127100937434600,1.9824345703125,0.072349196895957,0.24345570514202117,0.047319385057687756
1634127100957314800,2.002314697265625,0.07781973726153374,0.3080746000468731,0.06591887158751487
1634127100977193700,2.02219384765625,0.08622516203522682,0.2722282106399536,0.024298721084743735
1634127100997072600,2.04207275390625,0.007284896311163902,0.15858254223763943,0.01648527085483074
1634127101016951800,2.061951904296875,0.000090016371011734,0.0816378342449665,0.06548515634536743
1634127101036830700,2.081830810546875,0.05972293955683708,-0.007139350360631943,0.057632981540262695
1634127101056710000,2.1017099609375,0.09975742830336093,-0.10565233156085013,0.027238866189867258
1634127101076588500,2.121588623046875,0.07444821500182151,-0.19938918440043926,-0.003014379385113716
1634127101096467700,2.1414677734375,0.03948094651699066,-0.21581951019763945,0.003237812877446413
1634127101116347000,2.161346923828125,-0.03888824132084846,-0.11623685393929481,0.06837737065553665
1634127101136227000,2.18122705078125,-0.025739421412348747,0.0460801986515522,0.1290405136719346
1634127101156106000,2.20110595703125,0.02954290534853935,0.10437982740700244,0.11557298320308328
1634127101175985200,2.220985107421875,0.03677694825530052,0.11230185257792472,0.09980112131461501
1634127101195864000,2.240864013671875,0.049994157224893566,0.11133856050372123,0.0935240868717432
1634127101215743000,2.260742919921875,0.05622632961273193,0.060793783658742905,0.056121115672588345
1634127101235622000,2.280621826171875,0.03694119890630245,0.029547581523656843,0.003316284941136837
1634127101255501000,2.3005009765625,0.08049275586307049,0.041570027750730515,-0.002753536491841078
1634127101275380200,2.320380126953125,0.13704992486536502,0.07831073564887046,-0.012378273927420377
1634127101295259000,2.3402587890625,0.08413140462636948,0.042490649726986886,-0.028830080904066562
1634127101315138000,2.360137939453125,0.06102350076138973,0.006934183177351951,-0.05733765185549855
1634127101335017000,2.380016845703125,0.06882979059815407,0.006696282768249511,-0.058152475369721644
1634127101354897000,2.39989697265625,0.026254969719052314,-0.006047463470697402,-0.031194179686903953
1634127101374776000,2.419776123046875,0.04095803333222866,0.0006628478229045867,-0.02606646140962839
1634127101394655000,2.439655029296875,0.06450900478959083,-0.009304419440031051,-0.025735768150538206
1634127101414534100,2.4595341796875,0.03718552905619144,-0.022336919492483138,-0.04557312591224909
1634127101434413000,2.4794130859375,0.025953940945863722,-0.035731823116540905,-0.07358516843169927
1634127101454292000,2.4992919921875,0.00680091218650341,-0.017066285613179206,-0.07382599145025015
1634127101474171000,2.5191708984375,0.015368834045529365,0.04630640862286091,-0.037311931914836165
1634127101494050000,2.539050048828125,0.015878537133336066,0.07772212210595607,-0.05022168237045407
1634127101513929200,2.55892919921875,0.047513446325063706,0.11200082380473612,-0.05361278611347079
1634127101533807900,2.578807861328125,0.09235095143914222,0.1307253980189562,-0.08707520299330353
1634127101553687000,2.59868701171875,0.15113573336303232,0.14701719212830067,-0.10929477971643209
1634127101573566000,2.61856591796875,0.15489070198237895,0.1788824029445648,-0.10318433401212096
1634127101593445000,2.638445068359375,0.155763393163681,0.20553543207049368,-0.03244885592311621
1634127101613324000,2.658323974609375,0.09900397958755493,0.14739771587848663,0.006449030008912086
1634127101633203000,2.678202880859375,0.06219196001887321,0.058358080944418904,0.007631371661275625
1634127101653082000,2.69808203125,0.08245441132485866,0.029542320826649666,0.05659662422984838
1634127101672961000,2.7179609375,0.08859247568845749,-0.07350655023753642,0.04803074819743633
1634127101692840200,2.737840087890625,0.06689560766518116,-0.07763619738817215,0.0836786924228072
1634127101712718800,2.75771875,0.042727965614199635,-0.070745268830657,0.11462649613320827
1634127101732598000,2.777597900390625,0.03641805181503296,-0.07589432215690613,0.10622004844620823
1634127101752477000,2.797476806640625,0.024647534522414204,-0.07262275314033032,0.08693784034922719
1634127101772356900,2.81735693359375,0.027413492104411123,-0.02491875267922878,0.08742986164987086
1634127101792236000,2.837236083984375,0.002985153290629387,0.0045090018570423124,0.07170154664218426
1634127101812115000,2.857114990234375,-0.021347908455133437,0.021046879681944845,0.07136340072900056
1634127101831994000,2.876994140625,-0.02897650363743305,0.048858431193232535,0.08713760070502757
1634127101851873000,2.896873046875,-0.02914952211678028,0.05060147546827793,0.07619140540733933
1634127101871752000,2.916751953125,-0.00127834937274456,0.05305939001441001,0.06722367057576775
1634127101891631000,2.936631103515625,0.05113514395356178,0.05688800839185714,0.037249534203112125
1634127101911510000,2.956510009765625,0.07965864312648772,0.040250177323818206,-0.008044920898228882
1634127101931389200,2.97638916015625,0.060900751164555546,0.06284954714477062,-0.010367957018315792
1634127101951267800,2.996267822265625,0.01999707836806774,0.06803717891573906,-0.007946428959816693
1634127101971147000,3.01614697265625,-0.0010924714118242262,0.10337795688807963,-0.01757511191815138
1634127101991026000,3.03602587890625,-0.014409049102663994,0.1305330903172493,0.03378331939727068
1634127102010905000,3.055905029296875,-0.035649405530095095,0.07510521760582924,0.0050189972057938575
1634127102030784300,3.0757841796875,-0.056473582372069356,0.036537878802418704,-0.011917524547874927
1634127102050663000,3.095662841796875,0.003799392282962799,0.03671966511011123,0.012537117750942706
1634127102070542000,3.1155419921875,0.007842530193924904,0.026477088037133216,0.04049479973465204
1634127102090421000,3.1354208984375,0.001558335357904434,0.024210896670818327,0.038663931045681235
1634127102110300200,3.155300048828125,-0.010788520517945288,0.013159925824403762,0.05395721563696861
1634127102130178800,3.1751787109375,-0.010640636479854583,0.03783960905075073,0.05405103140026331
1634127102150057000,3.195056884765625,0.016962825238704682,0.06012392157316208,0.07026902962103486
1634127102169936000,3.214935791015625,0.00897942526936531,0.055934653189778326,0.048236207641661165
1634127102189814800,3.234814697265625,0.026739538365602493,0.022585925817489624,0.027549539574235678
1634127102209695000,3.254695068359375,0.02090016468763351,0.0357364992916584,0.02655117618665099
1634127102229573000,3.274572998046875,0.023220132067799566,0.03987257618308067,0.031220483171939848
1634127102249452800,3.294452880859375,-0.0057423430442810055,0.0395575188845396,-0.008632511527836322
1634127102269332000,3.31433203125,0.026011808612942694,0.09323708662390709,0.016774316929280757
1634127102289211000,3.3342109375,0.014283376896381378,0.09695464584231377,0.02329758121818304
1634127102309089800,3.35408984375,0.02091302416920662,0.0778688371002674,-0.0031210546299815177
1634127102328969000,3.373968994140625,0.03952361661493778,0.10558803415298461,-0.010715016890317201
1634127102348847900,3.393847900390625,0.0385772756755352,0.10716682777702807,-0.0024079379245638844
1634127102368727000,3.41372705078125,0.04410100753307342,0.11355214489996432,0.004364624950289726
1634127102388606000,3.43360595703125,0.005054945302009582,0.09021510845422744,-0.006293547186255455
1634127102408484900,3.45348486328125,0.028370354437828062,0.06507131484746932,-0.021847820801287887
1634127102428363800,3.47336376953125,0.053415363845229144,0.06474632067680358,-0.03337342342212796
1634127102448243000,3.493242919921875,0.04746376196444034,0.054769116541743275,-0.024090192900598047
1634127102468122000,3.5131220703125,0.028433482801914215,0.03946691799163818,-0.025152561435103415
1634127102488000800,3.533000732421875,0.052256256937980645,0.025386954712867737,-0.038261487724632025
1634127102507880000,3.5528798828125,0.07968670017719268,0.0403460389137268,-0.05978738309517503
1634127102527758800,3.5727587890625,0.11433131257891654,0.06647708999216556,-0.0976975731641054
1634127102547638000,3.592637939453125,0.13714520193338392,0.03977671459317207,-0.14450360187217592
1634127102567517000,3.612516845703125,0.14784721321165561,0.060790861049294466,-0.1175518820606172
1634127102587395800,3.632395751953125,0.07397650583684444,0.008934417083859444,-0.13553046021312473
1634127102607275000,3.65227490234375,0.06058569386601448,-0.038516485399007795,-0.14004355372339486
1634127102627154000,3.67215380859375,0.12350070746243,-0.05275543863177299,-0.12766688723117112
1634127102647033000,3.692033203125,0.16382219645678997,-0.03512041321992874,-0.10910130297094583
1634127102666911700,3.711911865234375,0.24919044940173624,-0.009599602994322776,-0.05812441831901669
1634127102686792000,3.7317919921875,0.2573632344633341,-0.07988485309779643,-0.08368073824942111
1634127102706671000,3.751671142578125,0.157229374063015,-0.05813420906066894,0.0066598962806165216
1634127102726549800,3.7715498046875,0.1167909806907177,-0.020658757147192952,0.012264292158931493
1634127102746429000,3.791428955078125,0.09114625182449818,0.03938157779574394,0.06059153908491134
1634127102766307800,3.811307861328125,-0.00935059666931629,0.09263912073075771,0.10213394817635417
1634127102786187000,3.83118701171875,-0.07569733828008174,0.09808686474263667,0.0760750855512917
1634127102806066000,3.85106591796875,-0.1504711319744587,0.09508008414208888,0.03793430159687996
1634127102825944800,3.87094482421875,-0.13424480431675911,0.13417699977755546,0.018745324741303918
1634127102845824000,3.890823974609375,-0.10260697251558304,0.1316267307728529,0.012690262486040592
1634127102865703000,3.910702880859375,-0.12475333787202834,0.13590776909291744,0.0338955476000905
1634127102885582000,3.93058203125,-0.13428162919580935,0.14974398674368858,0.04256064622327685
1634127102905460700,3.950460693359375,-0.15899813730120657,0.139621821179986,0.06294599325656891
1634127102925340000,3.97033984375,-0.1451426304280758,0.12188859609067439,0.07038695691227913
1634127102945218800,3.99021875,-0.042781741628050804,0.10832008946537972,0.0627940175652504
1634127102965098000,4.010097900390625,0.06334522170722484,0.1308200905650854,0.07986147222220898
1634127102984977000,4.029976806640625,0.08766074779629707,0.13210779228806496,0.10766922434121369
1634127103004855800,4.049855712890625,0.028451602980494498,0.08548223471343516,0.11820508527234196
1634127103024735000,4.06973486328125,-0.005015197813510895,0.011103577816486358,0.11508008511960506
1634127103044614000,4.08961376953125,-0.010478139394521713,-0.06942366483807563,0.12189984813705086
1634127103064493000,4.1094931640625,0.044528877556324,-0.1014800143122673,0.12016469490751623
1634127103084371700,4.129371826171875,0.06521919888556003,-0.0985959833085537,0.12581716771125792
1634127103104251000,4.1492509765625,0.05310965889692306,-0.1002162779867649,0.13255363635942338
1634127103124130000,4.169130126953125,0.025583354067802426,-0.07423778712153434,0.12835545401722193
1634127103144009200,4.18900927734375,0.041864042261242865,-0.017814473631978033,0.1101211475379765
1634127103163888000,4.20888818359375,0.07872574619054794,-0.017749007180333138,0.07764496521651744
1634127103183768000,4.22876806640625,0.09725625913739204,-0.05038578689098358,0.024885581061989067
1634127103203647200,4.248647216796875,0.09753712190538644,-0.03604220423996448,0.003195142779499292
1634127103223526000,4.26852587890625,0.07849339873939752,-0.02667348739206791,0.0208865745536983
1634127103243405000,4.288405029296875,0.10859306118786334,0.009641104048490523,0.021363398285210132
1634127103263284200,4.3082841796875,0.11323007333874702,0.0025531916141510007,0.05154606284201145
1634127103283163100,4.3281630859375,-0.03841536311209202,-0.16238485713005066,0.10200009266361594
1634127103303042000,4.3480419921875,-0.23744974272549152,-0.40939094823002814,0.24948095678091048
1634127103322921000,4.3679208984375,-0.3813894271045923,-0.604347703140974,0.43031507831513877
1634127103342800100,4.387800048828125,-0.352894569504261,-0.6583715542733669,0.4966220724374056
1634127103362679000,4.407678955078125,-0.23553484901487826,-0.6210813957989215,0.49422261008024215
1634127103382558200,4.42755810546875,-0.059817047581076616,-0.31594051111638544,0.6486544623792171
1634127103402437000,4.44743701171875,0.04198094663918018,-0.11905775657892226,0.5906842117086053
1634127103422316000,4.46731591796875,0.05832037928253412,0.018259879311919212,0.4870514032766223
1634127103442195200,4.4871953125,0.04646832118630409,0.09966390480101107,0.34291853441298004
1634127103462074000,4.50707421875,0.05942834052443504,0.15404139167666434,0.2185620869040489
1634127103481953000,4.526953125,0.13346826698631048,0.255218623650074,0.13408318401426075
1634127103501832000,4.54683203125,0.2337690083861351,0.346027606344223,0.05861614735871553
1634127103521711000,4.566711181640625,0.30106705937236544,0.41117549355924127,-0.0035348961278796193
1634127103541590300,4.58659033203125,0.31950492559969423,0.44071196916699407,-0.027365561309456825
1634127103561469200,4.60646923828125,0.3880129368975758,0.31863398798406123,-0.14215397000610827
1634127103581348000,4.62634814453125,0.38365795655846596,0.34157296502292156,-0.21620441786199807
1634127103601227000,4.64622705078125,0.3724181851416826,0.4525152196854353,-0.1942021371513605
1634127103621106200,4.666106201171875,0.34317426273971796,0.48940439614355563,-0.28037878386974335
1634127103640985000,4.685985107421875,0.2922764346733689,0.5394967530459165,-0.2934159600973129
1634127103660864000,4.705864013671875,0.2515022334754467,0.563310174831748,-0.3147621149867773
1634127103680743200,4.7257431640625,0.11783522904664277,0.5081926832437514,-0.35788258704990145
1634127103700623000,4.745623046875,0.013740648321807384,0.363195014244318,-0.38967327132523055
1634127103720502000,4.765501953125,0.2204541842609644,0.17103636561930177,-0.41311026101410386
1634127103740381000,4.785380859375,0.3038017450332641,0.1257663143068552,-0.28183599694073197
1634127103760260000,4.805260009765625,0.1799570464387536,0.1866641428619623,-0.11584230166375636
1634127103780139300,4.82513916015625,0.037163901746273036,0.12078560328483581,-0.05621726952344179
1634127103800018200,4.84501806640625,-0.014497019647061824,0.10361644181907176,0.014089023368060588
1634127103819897000,4.86489697265625,0.05911036061644554,0.1424357095569372,0.11239829868972301
1634127103839776000,4.88477587890625,-0.011168752007186412,0.09693477209806442,0.1368883045628667
1634127103859655200,4.9046552734375,-0.1840244420081377,0.028258126235008237,0.16252864951491355
1634127103879534000,4.9245341796875,-0.3307172244876623,0.023814006307721135,0.2592021403282881
1634127103899413000,4.9444130859375,-0.3752297354310751,-0.05683014072477817,0.32124270917773246
1634127103919292200,4.964292236328125,-0.21033435678482054,-0.18907178852558135,0.26401275548040865
1634127103939171000,4.984171142578125,-0.05328793807327747,-0.21368016008138654,0.23777532141804694
1634127103959050200,5.00405029296875,0.022065701335668562,-0.21410218488574026,0.1553670873224735
1634127103978929200,5.02392919921875,-0.008974749094247817,-0.14959084200859069,0.12385960390269755
1634127103998808000,5.04380810546875,0.018297288712859152,-0.03984919530749321,0.04031681281924247
1634127104018687000,5.06368701171875,0.1858154170781374,0.08007949888706206,-0.03566460309922695
1634127104038566100,5.083566162109375,0.2731859497562051,0.18628654172122477,-0.13410802619457243
1634127104058445300,5.1034453125,0.39241380220502614,0.31245033091306684,-0.18914280793517826
1634127104078324000,5.123323974609375,0.5860714572161436,0.28534371280074117,-0.3238034995764494
1634127104098203100,5.143203125,0.5793786815792322,0.29453473499417304,-0.35833500699251886
1634127104118082000,5.16308203125,0.4396878868162632,0.29769582937359806,-0.3416927920103073
1634127104137961000,5.1829609375,0.20242226848602293,0.24077391871213913,-0.3208931650876999
1634127104157840100,5.202840087890625,-0.06801087543070317,0.2282265718281269,-0.19822072514295577
1634127104177718800,5.22271875,-0.24050620768666267,0.19443010068833827,-0.11320201628804206
1634127104197598000,5.242597900390625,-0.2803974885702133,0.18984978716075418,-0.03841536311209202
1634127104217477000,5.26247705078125,-0.22812720310688017,0.15606266837120056,0.009281915347278118
1634127104237356000,5.28235595703125,-0.17817630050182343,0.14362228899300097,0.07782733604609966
1634127104257235000,5.30223486328125,-0.17989128772616386,0.0881950008034706,0.13144962064027785
1634127104277113900,5.32211376953125,-0.17854045763909815,0.02738894218504429,0.14468202717900275
1634127104296994000,5.341994140625,-0.17194500489681958,-0.021094225955009458,0.13805793286412954
1634127104316873000,5.361873046875,-0.20621786137670278,-0.0729500853985548,0.1645063793286681
1634127104336751900,5.381751953125,-0.14349164835065603,-0.06789397105276584,0.17387714200317858
1634127104356631000,5.401631103515625,-0.19790683688819408,-0.02538286305963993,0.18009177873432636
1634127104376510000,5.421510009765625,-0.2384898994281888,0.09882979206442832,0.25003975970745085
1634127104396389000,5.44138916015625,-0.03351122445762157,0.028847908821702,0.1601277258530259
1634127104416267800,5.461267822265625,0.1510533157765865,0.001765256106853485,0.11032967572212218
1634127104436147000,5.48114697265625,0.2589490423500538,-0.012950666987895964,0.06945639806389808
1634127104456026000,5.501026123046875,0.3582803541958332,-0.07946107472777367,-0.020988135232031344
1634127104475905000,5.520905029296875,0.3887573255240917,-0.04779167874455452,-0.02104980229139328
1634127104495784000,5.540783935546875,0.3591857786029577,-0.006786299139261246,-0.011511574095487594
1634127104515662800,5.560662841796875,0.2199742917895317,0.004157704201340675,-0.033953707528114316
1634127104535542000,5.5805419921875,-0.0027808628901839255,0.04916413614153862,0.040031566137075425
1634127104555421000,5.6004208984375,-0.09855039060115814,0.06938508639335632,0.04397942698001861
1634127104575300000,5.620300048828125,-0.03140139269679785,0.050691491839289664,0.043024318212270735
1634127104595179000,5.640178955078125,0.02729512642174959,0.029246552750468252,0.06341536433398723
1634127104615058000,5.660057861328125,0.025014029747247694,0.03565583527088165,0.08467617902755736
1634127104634937000,5.67993701171875,-0.03229132727384567,0.04689560668766498,0.11325111612677574
1634127104654816000,5.69981591796875,-0.08631810101568699,0.0321592253267765,0.11348375583887099
1634127104674695000,5.71969482421875,-0.08168693408370017,0.03747019121646881,0.1242412966966629
1634127104694573800,5.73957373046875,-0.008286182308197021,-0.01796235767006874,0.06419570105671882
1634127104714453000,5.759452880859375,0.0453828640371561,-0.042402386921644206,0.03857844471931457
1634127104734332200,5.779332275390625,0.05059767607599497,0.000848141261935234,0.04181318885684013
1634127104754211000,5.799211181640625,0.006237433084845543,0.0505985528588295,0.06283785670697689
1634127104774090000,5.819090087890625,-0.03978372885584831,0.08367606207430363,0.0652905105561018
1634127104793969000,5.838968994140625,-0.03213058375418186,0.0677647917151451,0.06272796659171581
1634127104813848000,5.85884814453125,0.02329144373834133,0.07445230665504932,0.03780307643264532
1634127104833727000,5.87872705078125,0.06936813525855541,0.08992577011883258,0.029431553928554056
1634127104853606000,5.89860595703125,0.06283259600996971,0.12158464470803737,0.016598375840485097
1634127104873486000,5.918486083984375,0.04943184716701507,0.12917933762073516,0.016694529691338538
1634127104893364000,5.938364013671875,0.10009937360882759,0.15292086321413517,0.003084522011876106
1634127104913244000,5.958243896484375,0.06214753635525703,0.14196458491384983,-0.02490881580710411
1634127104933122800,5.978122802734375,0.0473000958353281,0.11777765364050864,0.007477204012870788
1634127104953002000,5.998001953125,0.06580109042674302,0.09854279181659222,0.08922463611215352
1634127104972881200,6.017881103515625,0.025638299125432966,0.00589899491071701,0.11471592798233031
1634127104992760000,6.037760009765625,-0.01521218217909336,-0.08217676342725753,0.14222761976420878
1634127105012639000,6.057638916015625,-0.03798690856695175,-0.1311339788198471,0.15211363848447798
1634127105032518000,6.077517822265625,-0.01690261948406696,-0.12749533005654812,0.16874854694306848
1634127105052397000,6.09739697265625,0.017613982623815534,-0.09788871182203292,0.175498897986114
1634127105072276000,6.11727587890625,0.01695581097602844,-0.06074117668867111,0.18151099788248537
1634127105092155000,6.13715478515625,-0.011911387068033217,-0.030506197422742843,0.1429407364696264
1634127105112034000,6.157033935546875,-0.029881635783612727,-0.000754033237695694,0.09948416431993246
1634127105131913000,6.176912841796875,-0.023975334349274634,0.03875029415488243,0.04729541966021061
1634127105151792400,6.19679248046875,-0.0086661215364933,0.08354980534613132,-0.0011561842978000641
1634127105171671300,6.21667138671875,0.012359423096477985,0.0937853681564331,-0.02307020220309496
1634127105191550200,6.23655029296875,0.010557634371519088,0.0880254894554615,-0.038486674782633776
1634127105211429400,6.256429443359375,0.045591830612719056,0.07200140637159347,-0.07238865212351084
1634127105231308500,6.27630859375,0.036059155374765395,0.07557400416135787,-0.07460895852148533
1634127105251187200,6.296187255859375,0.005941080486774444,0.07422083598673343,-0.10075579169094562
1634127105271066400,6.31606640625,0.004898585696518421,0.1116185464888811,-0.12225742940306662
1634127105290945300,6.3359453125,0.014056582403182983,0.17758710243701933,-0.11228899309635161
1634127105310824400,6.355824462890625,0.04482172302305698,0.2131587665557861,-0.12449264110922813
1634127105330703400,6.375703369140625,0.12326543740183114,0.2346148115605116,-0.12190525496453046
1634127105350582300,6.395582275390625,0.12211831319332123,0.22559797689020633,-0.10490122093260287
1634127105370461400,6.41546142578125,0.10445347716510295,0.18183657657504082,-0.10650397995412349
1634127105390340400,6.43534033203125,0.09556845218092203,0.13959844030439852,-0.10966127494126558
1634127105410219500,6.455219482421875,0.021999358101189134,0.07211597266197205,-0.09723930800259113
1634127105430098200,6.47509814453125,0.0075534841194748875,0.04565583575963974,-0.057498541505634784
1634127105449977300,6.494977294921875,0.03085924864411354,0.037703999972343444,0.018611176967620848
1634127105469856300,6.514856201171875,0.0037497079223394393,0.0173234752446413,0.04464753549993038
1634127105489735400,6.5347353515625,-0.029480361506342888,-0.02176642612814903,0.06524521010965109
1634127105509615400,6.554615478515625,-0.001778407849371433,-0.02813128498494625,0.08444500062018633
1634127105529493200,6.5744931640625,-0.002214168918132782,-0.04559387643933296,0.10209960751533508
1634127105549372400,6.594372314453125,-0.0021697452545166016,-0.060194064199924464,0.0999070659071207
1634127105569252400,6.61425244140625,0.018442250141501425,-0.04115618625283241,0.11073124226033687
1634127105589131300,6.63413134765625,0.05648936446309089,-0.020444237613677977,0.10898059920072554
1634127105609010400,6.654010498046875,0.08589841429889201,0.006255553263425827,0.06797843446582555
1634127105628889300,6.673889404296875,0.12575988456606865,0.049510173100233076,0.03501461475789547
1634127105648768500,6.6937685546875,0.15821955414414404,0.10366261904835701,0.008367430850863456
1634127105668647200,6.713647216796875,0.19820961922705171,0.12131634916067123,-0.017825579547882078
1634127105688526300,6.7335263671875,0.18334551983326672,0.12120938165485859,-0.03968552917838097
1634127105708405200,6.7534052734375,0.1189607259452343,0.11469839232563972,-0.02830897963941097
1634127105728284400,6.773284423828125,0.09110358172655104,0.12923545172214507,0.025631869384646414
1634127105748163600,6.79316357421875,0.05131868382692337,0.0884083512932062,0.05502396808564663
1634127105768042200,6.813042236328125,0.060194064199924464,0.01695113480091095,0.049093993514776224
1634127105787921400,6.83292138671875,0.05118307474851608,-0.0345382294178009,0.03942074076235294
1634127105807800300,6.85280029296875,-0.00046703298985958095,-0.018636895930767058,0.06447510251998902
1634127105827679500,6.872679443359375,-0.020350714111328123,-0.025371757143735883,0.0723141255825758
1634127105847558100,6.89255810546875,-0.0013055296406149863,-0.0008761983126401901,0.09127192403078078
1634127105867437300,6.912437255859375,0.019270517659187317,0.03168225546479225,0.079285133638978
1634127105887316500,6.93231640625,0.018217793735861777,0.052225861799716944,0.07681874352544546
1634127105907195400,6.9521953125,-0.009438859474658966,0.06967968542575836,0.10291764589995145
1634127105927074600,6.972074462890625,0.017966449323296545,0.055496846294403074,0.11790975558757781
1634127105946953200,6.991953125,0.05956745673418045,-0.0172235220015049,0.08547814306020736
1634127105966832400,7.011832275390625,0.09128332220762968,-0.012484803041815757,0.08130202641934156
1634127105986711300,7.031711181640625,0.0835983206629753,-0.00029401451051235195,0.09495295063108206
1634127106006590500,7.051590576171875,0.09242050954401493,0.008848492366075515,0.10567045173943042
1634127106026469400,7.071469482421875,0.11867197213172911,0.014449965634942054,0.07758768207132816
1634127106046348300,7.091348388671875,0.1936228759586811,0.016935937231779098,0.06942366483807563
1634127106066227500,7.1112275390625,0.20806056663393974,-0.014194529569149017,0.04869739541262388
1634127106086106400,7.1311064453125,0.15718348909467458,-0.023349895927309988,0.018545125994086264
1634127106105985300,7.1509853515625,0.10039747977256774,-0.00039221418797969816,0.0031973347365856167
1634127106125864200,7.1708642578125,0.14216858305335045,0.05515022481381893,-0.0014794249027967451
1634127106145746200,7.19074609375,0.22063655509054658,0.1264987202346325,-0.03326221813261509
1634127106165625300,7.210625244140625,0.2993774988502264,0.1461480080783367,-0.09153905053436756
1634127106185504300,7.230504150390625,0.35107290703505273,0.31238720254898067,-0.065756374502182
1634127106205383400,7.250383544921875,0.4458396874442696,0.2905576480567455,-0.24346008905619382
1634127106225262000,7.270261962890625,0.8446312079876661,0.6320353360116482,-0.40229134535789485
1634127106245141200,7.290141357421875,0.9937401116982102,0.7527636561512947,-1.00272041375041
1634127106265020200,7.310020263671875,1.1720938145935536,1.0790823534190654,-1.700301696383953
1634127106284900000,7.329900146484375,1.9741917027562856,2.5566367861688137,-1.3082462060973048
1634127106304779300,7.349779296875,2.77413124384135,3.923112770655751,-0.5040791104450821
1634127106324658200,7.369658203125,3.326761911487579,4.5276609648048876,-0.0064405544415116305
1634127106344537300,7.389537353515625,3.2858284280747174,5.622736421647668,1.2877394246414302
1634127106364416000,7.409416015625,1.682145861968398,6.152056064072251,2.530843004220724
1634127106384295200,7.429295166015625,-0.6342319692730903,4.813736499011516,2.4831127002745865
1634127106404174300,7.44917431640625,-2.2182488809227943,3.1925890033632514,1.5155623841047285
1634127106424053200,7.46905322265625,-2.3783818674728274,2.1298726783335207,0.649154520855844
1634127106443932400,7.488932373046875,-1.2064566874444485,2.37051566414237,0.3620177871584892
1634127106463811000,7.50881103515625,0.8641898949384689,3.1485745050698517,0.6287509075134993
1634127106483690200,7.528690185546875,1.5501041206538677,2.7659534903436898,0.3772401984706521
1634127106503569200,7.548569091796875,0.5419605128109455,1.6639391741484402,-0.5833537226900458
1634127106523448300,7.5684482421875,-1.0870622462570667,0.6123614982485771,-0.7650958989799023
1634127106543327200,7.5883271484375,-2.0986586249023675,-1.150538985389471,-1.1111299350649118
1634127106563206100,7.6082060546875,-1.9956489168047904,-2.8562726436942816,-1.4494792618662118
1634127106583085300,7.628085205078125,-1.664500899684429,-3.5210990731954572,-0.9958139953628182
1634127106602964200,7.647964111328125,-3.087616470760107,-6.611517741894722,0.4676642735004425
1634127106622843400,7.667843505859375,-7.127393380856514,-9.246086493527889,6.15632891908586
1634127106642722000,7.68772216796875,-1.920292354786396,-8.911907145887612,5.048775673463941
1634127106662601200,7.707601318359375,-1.1547586489111183,-7.670049474716186,3.842356395420432
1634127106682480400,7.72748046875,-0.29069851783216,-3.193955031019449,1.5343842812135815
1634127106702359300,7.747359375,0.9438380166709422,0.1963394414409995,0.8378361410200595
1634127106722238200,7.76723828125,0.7129629761606454,1.914400374138355,0.9913581849977373
1634127106742117000,7.7871171875,0.4135094894647598,3.1122835867658254,-0.7085819845974445
1634127106761996300,7.806996337890625,0.7688286557674407,2.655169933374226,-1.0047489969685672
1634127106781875200,7.826875244140625,1.097384318307042,2.5299632987767455,-0.7780708236262202
1634127106801754000,7.846754150390625,1.5440449667453764,2.4421651883363724,-1.182406534293294
1634127106821633300,7.86663330078125,1.8749176740556954,2.620553670284152,-0.430340797278285
1634127106841512200,7.88651220703125,2.2373066326141355,2.333508706523478,0.05618541308045387
1634127106861391400,7.906391357421875,-0.8074883490294218,0.8461077102810144,-0.9033578299835324
1634127106881270300,7.926270263671875,-7.725066428539156,0.6595888211086393,1.595544267836213
1634127106901149200,7.946149169921875,-1.1915437804728746,0.10271832393556833,-0.8978681465260684
1634127106921028000,7.966028076171875,2.704287015503645,-0.09570376899838447,-1.8124160635657607
1634127106940907300,7.9859072265625,0.8768395331531763,0.8197469420999288,0.5490023941464722
1634127106960786400,8.005786376953125,0.19522037428319453,-0.41385786451101303,0.8892186838634312
1634127106980665000,8.0256650390625,1.236150399440527,-1.5347452234804628,-0.22517653660774228
1634127107000544300,8.045544189453125,-3.6366602198302744,-2.625217570441961,0.06777721280530094
1634127107020423200,8.065423095703125,-3.3924504814505574,-2.7252409562051296,1.1364565378926694
1634127107040302300,8.08530224609375,-1.5560095453053713,-2.0899735064044593,1.1193921519756316
1634127107060181200,8.10518115234375,-1.00926647439301,-0.7616466353088617,1.0029814758393913
1634127107080060200,8.12506005859375,-0.46983927945196624,0.19287994863688945,0.7559970120493322
1634127107099940400,8.1449404296875,0.3354933528482914,0.2922919245034456,0.045636473472043866
1634127107119818200,8.164818359375,1.129889580592513,0.38500060333907604,-0.20773856813795863
1634127107139698200,8.1846982421875,0.5802274073630571,0.2749941682219505,0.1810380466084927
1634127107159577300,8.204577392578125,-0.48158232421576974,-0.3434276529788971,0.21688604345060883
1634127107179456500,8.22445654296875,-0.20047990224659443,-0.555224337401241,0.5942053715720772
1634127107199335400,8.24433544921875,-0.0999374610453844,-0.2121386297278106,1.1335561402760446
1634127107219214300,8.26421435546875,-0.5412368747115135,0.335473479104042,0.821063285395503
1634127107239093200,8.28409326171875,-0.5345943679571151,0.5093716638952493,0.12469605472683906
1634127107258972400,8.303972412109376,-1.2890554756760597,0.28640125902965663,-0.10812482262160629
1634127107278851300,8.323851318359376,-1.1099690745919941,0.538377832018584,0.06207056212890893
1634127107298730500,8.34373046875,-0.24911738416552542,-0.47521702696755524,0.3331678325101733
1634127107318609200,8.363609130859375,-0.41709319317042826,-0.8711785847820341,0.28203217709995804
1634127107338488300,8.38348828125,-0.7836281654924154,-0.8089680661931633,0.2604384406575933
1634127107358367500,8.403367431640625,-0.9091513186931609,-0.7327461195170879,0.3868274534400552
1634127107378246400,8.423246337890625,-0.9516367077231407,0.4368140849456191,-0.036116146259009836
1634127107398125300,8.443125244140624,0.6032523091197014,0.27728900116086,-0.007541355290263891
1634127107418004200,8.463004150390624,0.26271920853853226,0.1410050922319293,-0.060031092190556225
1634127107437883400,8.48288330078125,0.22300912944078444,-0.27721272105425593,0.39467999357134104
1634127107457762300,8.50276220703125,0.51729661167562,-0.1317456809774041,0.639451895878464
1634127107477641500,8.522641357421875,0.6936901204138994,-0.2260837145805359,0.47914238371774553
1634127107497520400,8.542520263671875,0.5444821402430534,-0.22912410518974063,0.34987755977064366
1634127107517399300,8.5623994140625,0.5496428840070963,0.15057342330515383,0.3437491400182247
1634127107537278500,8.582278564453125,0.4755658404052257,0.06376432390213012,0.01354863288104534
1634127107557157400,8.602157470703125,0.3442155884861946,0.08206658105105161,-0.3183190402833745
1634127107577036300,8.622036376953124,0.3942646907687187,0.007730886512994766,-0.06973185400441288
1634127107596915200,8.641915283203126,0.7127922957688569,-0.03846972364783287,0.2800667953111231
1634127107616794400,8.66179443359375,0.09022212271690368,-0.08397504502087831,-0.532120525189489
1634127107636673500,8.681673583984375,0.6385638609975576,0.048994332532584665,0.2791379900284111
1634127107656552200,8.70155224609375,0.3147147687137127,-0.5299664158955216,0.15048954441398382
1634127107676431400,8.721431396484375,0.12132336342334747,-0.31475510072410107,0.0833579360358417
1634127107696310300,8.741310302734375,0.10120002832710742,-0.3686734456554055,-0.16300043174512682
1634127107716189400,8.761189453125,-0.0671072045892477,-0.2241194287702441,-0.3785890557963401
1634127107736068400,8.781068359375,-0.018867197555303573,-0.21460662727653979,-0.07403554254770278
1634127107755947300,8.800947265625,0.13477847280204294,-0.2952513588309288,0.010801379999518393
1634127107775826400,8.820826416015626,0.10853110186755656,-0.35194121430218217,0.1080607809420675
1634127107795705300,8.840705322265626,-0.5471159958779811,0.000009936872124671935,-0.34504049500301476
1634127107815584500,8.86058447265625,-0.2215945864677429,0.3040951750218868,-0.605959960643202
1634127107835463200,8.880463134765625,0.05877250696420669,-0.5001780113533139,0.11049396290574222
1634127107855342300,8.90034228515625,-0.18100187931656836,-0.3466068675369024,0.01635287664681673
1634127107875221200,8.92022119140625,-0.1776408784508705,-0.01744037962257862,0.21840676847817375
1634127107895100400,8.940100341796875,-0.19053426229357717,0.019109774139523503,0.12089037883356213
1634127107914979600,8.9599794921875,0.08394260405600071,-0.08650660932511091,-0.017991876025497913
1634127107934859300,8.979859375,0.24212767140865324,-0.1411111829549074,0.01224178806617856
1634127107954738400,8.999738525390624,0.43024727377593514,-0.18316051865518093,0.06004296529144049
1634127107974617300,9.019617431640626,0.2550000124633312,-0.012468436428904533,0.29995851360857484
1634127107994496300,9.039496337890625,0.19692016393840311,-0.13222118953466414,0.2636681798264384
1634127108014375400,9.05937548828125,0.21185645178556442,-0.30866788976490495,-0.22718451542928814
1634127108034254300,9.07925439453125,0.2050859347373247,-0.15391834981888533,0.02758358797430992
1634127108054133500,9.099133544921875,0.2656301275491714,-0.030629823802411554,0.21508973461836575
1634127108074012200,9.11901220703125,-0.016416297271847725,-0.115117494520545,0.2672382933981716
1634127108093891300,9.138891357421874,-0.3079962741136551,0.2942693620562553,-0.43732612612098454
1634127108113770200,9.158770263671874,0.4650228190809488,0.10008709864914417,0.2954578411884606
1634127108133649400,9.1786494140625,0.005341361027956008,0.1292620474681258,-0.027296295465528964
1634127108153525000,9.19852490234375,-0.02676934898197651,0.23549422474354503,-0.10158563011121004
1634127108173404200,9.218404052734375,0.170856917399168,-0.08018588187098502,-0.2785112364321947
1634127108193283300,9.238283447265625,0.19095336448848246,-0.1893281013742089,-0.3908186054354533
1634127108213162200,9.258162353515624,-0.04585165059268474,-0.2565107092872262,-0.12496051434930414
1634127108233041400,9.27804150390625,0.2310895600438118,-0.5695534531354903,0.1414209795564413
1634127108252920000,9.297920166015626,0.24021394674181937,-0.5873156120583415,0.12425269487351179
1634127108272799200,9.31779931640625,-0.4668476964205503,-0.13086042257547378,-0.7076642852306365
1634127108292678100,9.33767822265625,0.4283540073752403,-0.12298603593856096,0.7331194828741252
1634127108312557300,9.357557373046875,-0.09590367548465728,-0.45885289827436204,0.3683696404032409
1634127108332436200,9.377436279296875,-0.23394202686548232,-0.2047375596910715,0.19676628855094314
1634127108352315100,9.397315185546875,-0.23106325655877588,0.05789689317345619,0.3004235007718205
1634127108372194300,9.4171943359375,-0.06190554429292679,-0.010182371318340301,0.348885772254318
1634127108392073200,9.4370732421875,0.09334873030483722,0.026756489500403404,0.03393018052205443
1634127108411952400,9.456952392578126,-0.04946458039283752,0.13154372866451738,-0.10711480532884597
1634127108431831000,9.4768310546875,0.13879589174985885,0.019919336956739423,-0.07871902418881654
1634127108451710200,9.496710205078125,0.144513684874773,-0.07405132463872433,-0.025456366687268018
1634127108471589400,9.51658935546875,0.1734445958048105,-0.2036728530690074,0.3369074574299156
1634127108491468300,9.53646826171875,0.4614741866886615,-0.22691022853255272,0.525114884211123
1634127108511347200,9.55634716796875,0.21127602154910563,-0.14675591084361075,0.07733224600553512
1634127108531226000,9.57622607421875,0.5068909529954194,-0.30345483129173517,0.7693222845032811
1634127108551105300,9.596105224609374,-0.4697422488182783,-0.09334697673916816,-0.5701837138630449
1634127108570984200,9.615984130859376,0.35001053850054736,0.044452012927830215,0.08248044081525877
1634127108590863000,9.635863037109376,0.005697334858775139,-0.3216451524987817,0.04427682075770572
1634127108610742300,9.6557421875,-0.17613631910681724,0.26143589072972534,-0.2147325734774582
1634127108630621200,9.67562109375,-0.10949556298553943,0.1473407249942422,-0.28755656654462214
1634127108650500400,9.695500244140625,-0.030151977157592772,-0.037602877685427666,-0.32633345644548534
1634127108670379300,9.715379150390625,0.045292263144254684,-0.1940522072866559,0.17570216547325251
1634127108690258200,9.735258056640625,0.21356559379100798,-0.3602116145193577,0.3416927920103073
1634127108710137000,9.75513720703125,-0.17734803298413754,-0.08625847978293895,0.2400390468326397
1634127108730016300,9.775016357421874,-0.565561168628931,0.16435469589829443,-0.5439838353320956
1634127108749895400,9.7948955078125,0.5517635294228792,-0.18250176248550415,0.607161153126508
1634127108769774000,9.814774169921876,-0.06562777968645095,-0.5108639482796192,0.005525047031790018
1634127108789653200,9.8346533203125,0.04527589653134346,-0.14717033686339853,0.015731091486662626
1634127108809532200,9.8545322265625,0.06311492008268833,-0.04437923995256424,0.0047141690403223035
1634127108829411300,9.874411376953125,0.13283143038749695,-0.18495324729084966,0.33895985991507765
1634127108849290200,9.894290283203125,0.1253308454990387,-0.08629062848687172,0.10616495725810528
1634127108869169200,9.914169189453125,0.09245850346684455,0.15570260288715362,-0.1129268526084721
1634127108889048300,9.93404833984375,0.1686000783830881,0.24650106418728826,0.06908142727166414
1634127108908927200,9.95392724609375,0.05002104523181915,0.09920242476910351,0.038544378052931275
1634127108928806400,9.973806396484376,0.6047516077667474,-0.07430266905128956,0.6191023508109152
1634127108948685000,9.99368505859375,0.07905307844877242,0.05216624056696891,-0.01150324465855956
1634127108968564200,10.013564208984375,0.10998597685098647,0.004099252012372017,0.2472889996945858
1634127108988444400,10.0334443359375,-0.14900456655323505,-0.0673597180455923,-0.16841113168224692
1634127109008323000,10.053322998046875,-0.09345978946387767,-0.06519727931469678,0.11992124154046177
1634127109028202200,10.0732021484375,-0.05116612361371517,-0.16488135012090205,0.07805997575819491
1634127109048081200,10.0930810546875,-0.23450550596714018,-0.13347908064126968,-0.2078448780566454
1634127109067960300,10.112960205078124,-0.22047639609277248,-0.13123042493164538,-0.36233138315230606
1634127109087839200,10.132839111328124,0.08182020507454872,-0.3384609704822302,-0.15924787427857517
1634127109107718100,10.15271826171875,-0.04944529117047786,-0.29896482639610766,-0.2764727163419127
1634127109127597300,10.172597412109376,-0.20456629477739333,-0.1190174245685339,-0.1472241128772497
1634127109147476000,10.19247607421875,0.1359182904869318,-0.20545535257160663,0.06254442671835422
1634127109167355100,10.212355224609375,0.2060790374279022,-0.23910861584842202,0.09869915142208337
1634127109187234000,10.232234130859375,-0.3360246832460165,0.1877583678394556,-0.45664179809615013
1634127109207113000,10.252113037109375,0.201377727869153,0.22527532080709933,0.29057898310571906
1634127109226991900,10.271991943359374,0.1880161419928074,-0.34640257713645695,-0.16011983480751513
1634127109246871000,10.29187109375,-0.051017655053734776,0.11750292835235596,0.13447744402885436
1634127109266750200,10.311750244140624,0.039594928285479544,0.029115035325288773,0.0821846544727683
1634127109286628900,10.33162890625,0.10065876105725764,-0.017967326106131075,0.12158464470803737
1634127109306508000,10.351508056640625,0.00061608607172966,-0.009866729497909545,0.009441635953634977
1634127109326387000,10.371386962890625,-0.02782499551475048,-0.021840368147194384,0.09920081733390688
1634127109346266000,10.39126611328125,0.11165244875848293,-0.04834755906164646,0.19917787973731754
1634127109366144800,10.411144775390625,0.0454003996938467,-0.06324322263747453,0.044040646514808754
1634127109386024000,10.43102392578125,-0.005537760382890701,-0.07182400397807359,0.22629399633035063
1634127109405902800,10.45090283203125,0.22832477150559424,-0.15569558862447738,0.6576154752090573
1634127109425782000,10.470781982421874,0.33092414523661134,-0.3007715835571289,0.40878275320380925
1634127109445661200,10.4906611328125,0.3227157043397426,-0.05351882421970367,0.5320148728579283
1634127109465539800,10.510539794921876,0.10264672000408172,0.0286757671251893,0.24478461565822363
1634127109485419000,10.5304189453125,0.054606619456410405,0.4670040560260415,-0.4091428186878562
1634127109505298000,10.5502978515625,0.017530980515480042,0.10104571454823016,-0.21193419319689272
1634127109525177000,10.570177001953125,-0.04407061239480972,0.1421311736524105,-0.44319618719816206
1634127109545055700,10.5900556640625,-0.12830781548321246,0.004490881678462028,-0.22217209409475325
1634127109564935000,10.609934814453124,0.040244916626811025,-0.2629579857304692,-0.04575622739419341
1634127109584814000,10.62981396484375,-0.0637047026693821,-0.176207630777359,0.12372253351956605
1634127109604693000,10.64969287109375,-0.03415361401438713,-0.20963877573609352,0.1982262781009078
1634127109624572200,10.669572265625,0.025587445721030232,-0.21073270845264194,0.1392519649542868
1634127109644450800,10.689450927734375,-0.5222130252897739,0.0012117138773202894,-0.48635392253175375
1634127109664330000,10.709330078125,0.02931201920211315,-0.02653086405098438,0.08932765809521079
1634127109684209000,10.729208984375,0.2022229465216398,-0.45842707407772537,0.14812646854445338
1634127109704088000,10.749088134765625,0.022283143478631973,-0.16132658024877308,0.06275193198919296
1634127109723967000,10.768967041015625,0.03303776172697544,0.0010597381860017775,-0.021536124503612517
1634127109743846000,10.788845947265624,0.14287000932097435,0.06022972003519535,0.16313552936688064
1634127109763725000,10.80872509765625,0.06627893707156181,-0.019402619606256485,0.19745017916187643
1634127109783604000,10.82860400390625,0.08133212929666042,0.11300678597688674,-0.043885611216723915
1634127109803483100,10.848483154296876,0.21042203506827353,0.02917728690654039,0.26641630949079986
1634127109823361800,10.86836181640625,0.053906362232565876,-0.024698387926816938,0.038664515567570924
1634127109843241000,10.888240966796875,0.20349837328493595,-0.10191489859819412,0.4131872717730701
1634127109863120100,10.9081201171875,0.11621171949803828,-0.09257774593234061,-0.0574725211483892
1634127109882999000,10.9279990234375,0.05899579432606697,0.269528888553381,0.06636690761595965
1634127109902878000,10.9478779296875,0.0988438205897808,0.07637041523605585,-0.34253187318295236
1634127109922756900,10.9677568359375,0.2080792713344097,0.06084931323826313,0.024057167413830755
1634127109942636000,10.987635986328126,0.09466039742529392,0.03696808691322803,0.06928147988840937
1634127109962515000,11.007514892578126,-0.11316519140899181,0.24928952586203812,-0.06057531860247254
1634127109982393900,11.027393798828125,-0.03515899166464805,-0.04671732751131057,-0.1621225529320538
1634127110002273000,11.04727294921875,0.054740474969148634,-0.15026888740062713,-0.12410115757361054
1634127110022152000,11.06715185546875,-0.030808395239710806,-0.1770914278745651,-0.1624742889791727
1634127110042031000,11.087031005859375,-0.2533919927448034,-0.024229016849398613,-0.020798165617883203
1634127110061910000,11.106909912109375,-0.2717348741650581,-0.0930664062321186,0.08096724150702357
1634127110081789000,11.126788818359374,0.17577391553521154,-0.3639233285188675,0.27182797754229976
1634127110101667800,11.146667724609374,-0.10303484253883362,-0.12777765412926673,0.06577975537776946
1634127110121547000,11.166547119140626,-0.286384746286273,0.33395985967069863,-0.5246748853586614
1634127110141426200,11.18642626953125,0.28345336900949475,-0.01147299565076828,-0.16631123679354787
1634127110161305000,11.20630517578125,0.03287877177298069,-0.18613456602990627,-0.21010463968217372
1634127110181185000,11.22618505859375,-0.022619828087091443,-0.08848784627020359,-0.11047580619454384
1634127110201063200,11.246063232421875,-0.031116438275575635,-0.07848901482522487,-0.09206161310374736
1634127110220942000,11.265942138671875,0.08835457527935504,-0.1412926770016551,0.09425182575755751
1634127110240822000,11.285822021484375,0.1131698675841093,-0.11110358270406723,0.12954188732281327
1634127110260701200,11.305701171875,-0.00031038112342357635,0.08998568361252546,0.04434286259808577
1634127110280580000,11.325580078125,0.07286942137777805,0.1797936725705862,-0.00019698387682437897
1634127110300459300,11.345459228515624,-0.046373628640174865,0.17252075895816088,-0.000739566320925951
1634127110320338000,11.365337890625,-0.33798692322969437,0.3157844437718391,-0.06521306140571832
1634127110340217000,11.385217041015625,-0.20874328820109367,0.11822364384233951,-0.1067281440988183
1634127110360096300,11.40509619140625,0.07871522479653358,0.04538841699510812,-0.22069646858423947
1634127110379975200,11.42497509765625,-0.2656137609362602,-0.14471768301427362,-0.23647563699632881
1634127110399854000,11.44485400390625,0.9142530257463455,-0.2696095525741577,0.9836484874032437
1634127110419733000,11.46473291015625,-0.6016553953170776,-0.48511634356081484,-0.805215289530903
1634127110439612200,11.484612060546874,0.21525836918354033,0.15938275270462035,0.3624083939112723
1634127110459491000,11.504490966796874,0.19744448007345197,-0.11845423772782086,-0.08934212501198052
1634127110479370200,11.524370361328126,0.10912556062936782,0.09013327538967132,0.05329100681319832
1634127110499249200,11.544249267578126,0.07900573217570782,0.09652502225339413,-0.18208105285540221
1634127110519128000,11.564128173828125,0.16079963376522063,-0.03711889356076717,-0.010679799446463585
1634127110539007200,11.58400732421875,0.222810391998291,-0.02938216182887554,-0.05167332421718165
1634127110558886100,11.60388623046875,-0.040237902364134784,-0.023036007672548292,-0.005205898080021143
1634127110578765000,11.62376513671875,-0.06326748029589653,-0.03782090435028076,0.07384908006489277
1634127110598644000,11.64364404296875,-0.023481997874379157,-0.19721827010214327,0.23632994491532444
1634127110618523100,11.663523193359374,-0.10453238762021064,-0.09369067561030388,0.16051000316888092
1634127110638402000,11.683402099609374,-0.5770324107140302,0.17688012321144342,-0.8618146902397275
1634127110658281000,11.703281005859376,0.2696206584900617,-0.15601327627152203,0.5093254866659641
1634127110678160100,11.72316015625,0.1751701044231653,-0.24207506443858146,0.002153524772077799
1634127110698039000,11.7430390625,0.038424715462327,-0.03679214582443237,0.3145616239786148
1634127110717918200,11.762918212890625,0.2851882299780846,-0.13008359298408032,0.3225257347255945
1634127110737797000,11.782797119140625,0.2652525264084339,-0.05154986223429441,0.42033962774574757
1634127110757676000,11.802676025390625,0.17911562717854976,0.02730944720804691,0.15123656338900326
1634127110777555000,11.822554931640624,0.0974625953644514,0.22680033841729164,-0.08725216699540615
1634127110797434000,11.84243408203125,0.06759411132335662,0.21444588375687598,-0.051035921362787486
1634127110817313300,11.862313232421876,-0.21710545835494993,0.16240560765713452,-0.04663198731541633
1634127110837192000,11.88219189453125,-0.0031669395983219143,0.23061346696466206,0.14887481182687914
1634127110857071000,11.902071044921875,0.11698738004565239,-0.06339315250217914,-0.06724748984277248
1634127110876950000,11.921949951171875,-0.19642682746350765,0.17932459375411272,-0.11962385689592919
1634127110896829200,11.9418291015625,0.10002163219749927,-0.024198621711134908,0.17877134378552437
1634127110916708000,11.9617080078125,0.2816565487205982,-0.19419746097624302,0.0036598376818001268
1634127110936587000,11.9815869140625,0.2680073780745268,-0.248879483756423,0.12444836357608437
1634127110956466200,12.001466064453124,0.1481435658097267,-0.2788894220948219,0.2861303331337869
1634127110976345000,12.021344970703124,-0.13724047900140285,-0.07872107001543045,-0.13932576084285975
1634127110996224300,12.041224365234376,0.07860650372505187,0.01504091726541519,-0.24423384990766642
1634127111016103000,12.06110302734375,0.03941255745589733,-0.023407179072499274,-0.3478368477232754
1634127111035982000,12.080982177734375,0.1494645852804184,-0.08684124810695648,-0.4594723453469574
1634127111055861000,12.100861083984375,-0.01020633671581745,-0.07372808403372764,-0.09228475433513522
1634127111075740200,12.120740234375,0.13690905508995055,-0.30472002892196176,0.13468012699410317
1634127111095619300,12.140619384765625,-0.02782324194908142,-0.1764081217855215,0.10338687084689736
1634127111115498000,12.160498046875,-0.7070557979434728,0.5380263882324099,-0.5025711901001632
1634127111135377200,12.180377197265624,-0.2586953598499298,0.030558512131869792,-0.20597586931437253
1634127111155256800,12.2002568359375,-0.04047580277323723,-0.042429859450459476,-0.0880342572838068
1634127111175135700,12.2201357421875,0.08310147705674172,-0.2029500917524099,0.2385493745304644
1634127111195015000,12.240014892578126,0.015278233152627944,-0.3077034286469221,0.20644977043643592
1634127111214893800,12.259893798828125,-0.14438625910282135,-0.2889388146832585,0.213903155182302
1634127111234773000,12.27977294921875,0.014913491493463516,-0.4483183525174856,0.32717195309624075
1634127111254652000,12.29965185546875,0.2103846256673336,-0.6710679542392491,0.6090595340937376
1634127111274530800,12.31953076171875,-0.02607084532380104,-0.7372846397295594,0.579444440291822
1634127111294409700,12.33940966796875,0.2699181801319122,-0.4356719291731715,1.7288051756821572
1634127111314289000,12.359288818359374,-0.9152724319219588,0.020887889727950096,1.5875265272058545
1634127111334168000,12.37916796875,-0.3305769392341375,-1.6022840974852441,0.2711278481826186
1634127111354046700,12.399046630859376,-0.25830022305250167,-1.8305375573202967,-0.6344333370640873
1634127111373926000,12.41892578125,-3.131604665568471,-2.495827512679994,1.2928683119624853
1634127111393804800,12.4388046875,-2.4675287621736524,-2.6297394317805765,1.3306221424259244
1634127111413684000,12.45868408203125,-2.7326912722110746,-0.9892962840318679,1.4821468751065432
1634127111433563000,12.47856298828125,-2.099431362840533,-0.21467297051101922,1.1976881284467875
1634127111453441800,12.49844189453125,-0.9019909255445003,0.1208835107013583,0.47163697652369735
1634127111473321000,12.518321044921874,-0.03708849842250347,0.19874445675611493,0.06496157086268067
1634127111493200000,12.538199951171874,0.3048883712261915,0.2504053781494498,-0.2096839300520718
1634127111513079000,12.5580791015625,0.5480231738507747,0.05213496864587068,-0.3604587942134589
1634127111532957700,12.577957763671876,0.5245154570132494,0.09411971467733382,-0.45489700025543567
1634127111552836900,12.5978369140625,-0.6807324391633272,-0.06442278781086207,-0.7921069477632642
1634127111572715800,12.6177158203125,-1.2871090177834033,0.036062077984213826,-0.8425563014097511
1634127111592595000,12.637594970703125,-0.8963228167802095,0.3763090551003814,-0.8846741723015904
1634127111612473900,12.657473876953125,-0.18506781358122826,0.7470382642418145,-0.8250964864343404
1634127111632352800,12.677352783203125,0.5809627359002828,1.30408704059124,-0.626283932878077
1634127111652232000,12.69723193359375,1.1914251225292682,1.7830711650073527,-0.47862610475867984
1634127111672110800,12.71711083984375,1.3774761019289492,2.0263000756561755,-0.3638255672328174
1634127111691990000,12.736989990234376,1.3284949211388826,2.036868231421709,-0.40055779956355686
1634127111711868700,12.75686865234375,1.3389321440011261,1.9602818353474138,-0.4774610065020621
1634127111731747800,12.776747802734375,1.5343033249318598,1.8721587307363747,-0.5942939266383648
1634127111751627000,12.796626953125,2.0839771885991096,1.9362310976743697,-0.6873936506181955
1634127111771506000,12.816505859375,2.3411025226533413,2.177670494557917,-0.4683499176770448
1634127111791384800,12.836384765625,1.0105500844627617,2.2970953308835624,-0.017517536512017248
1634127111811263700,12.856263671875,-0.4030190751105547,2.3593495424836872,1.081903256058693
1634127111831143000,12.876142822265624,-0.2836924384623766,2.3621546630322934,3.554358076457679
1634127111851021800,12.896021728515626,0.5608493376761674,1.2518196777373551,3.570857668098807
1634127111870901000,12.91590087890625,1.4533540574729442,-0.2158428910732269,-0.5632108061105012
1634127111890780000,12.93577978515625,2.9197482137829063,0.764077954109013,-0.5012020937040448
1634127111910658800,12.955658935546875,1.9568354942858217,2.2754463936552405,0.16590543247163295
1634127111930538000,12.9755380859375,0.3494002976477146,2.2594424765765666,-0.31880203802734614
1634127111950417000,12.9954169921875,0.15046353318989275,1.673930406808853,-0.03467413075715303
1634127111970295800,13.0152958984375,-0.11038812791109084,0.5399661241233349,0.2183914065122604
1634127111990174700,13.0351748046875,-0.9729647424340248,-1.6340955322876571,-0.0379366396844387
1634127112010054000,13.055053955078124,-2.0551053143799303,-3.5528891729488965,-0.37042438097596164
1634127112029932800,13.074932861328126,-2.1168886935979128,-4.327431530188024,-1.015626364813745
1634127112049812000,13.09481201171875,-0.39414135664999483,-3.621239071075618,-0.19958266114592552
1634127112069691000,13.11469091796875,0.1513110899299383,-2.285412199613452,0.5738645943328737
1634127112089569800,13.13456982421875,-0.2757932096451521,-1.3906301825344562,0.9501303948134183
1634127112109449000,13.154448974609375,-0.627934330433607,-0.7027341353520751,0.9976491018354892
1634127112129327900,13.174327880859375,-1.0847989775002003,-0.1781856528520584,1.0125354130610824
1634127112149206300,13.194206298828124,-1.15350601850152,0.42279374289959665,0.8321044655002653
1634127112169085400,13.21408544921875,-0.8189455625891685,0.66250587759912,0.7892240858033299
1634127112188964400,13.23396435546875,-0.7825906391382217,0.4215700463235378,0.6442866225585341
1634127112208843500,13.253843505859376,-0.9995569812834262,0.031086043137311933,0.07773688128367066
1634127112228722700,13.27372265625,-0.6858376533478499,-0.13596972841322422,-0.4857892743863165
1634127112248601300,13.293601318359375,0.18852350699305534,0.05591098005324602,-0.6640152592487633
1634127112268480500,13.31348046875,0.5291197359383106,0.42444764758646486,-0.45538434538096184
1634127112288359400,13.333359375,0.2974029839068651,0.6544350916072725,-0.5277503472812474
1634127112308238600,13.353238525390625,0.07735270427167415,0.5819608070269227,-0.7122996899463236
1634127112328117200,13.3731171875,0.1629062506556511,0.4023807772070169,-0.7154971708133816
1634127112347996400,13.392996337890626,0.28509295291006564,0.32267712589502334,-0.5514259680315852
1634127112367875600,13.41287548828125,0.5139572381198406,0.3185311121314764,-0.34106340806558727
1634127112387754500,13.43275439453125,0.7462228562057018,0.21641221539378164,-0.335453020837903
1634127112407633700,13.452633544921875,0.5288029250741004,0.007345686587691307,-0.47969022685885426
1634127112427512300,13.47251220703125,0.1097404776573181,-0.06790390792489051,-0.42099063900038597
1634127112447391500,13.4923916015625,-0.20179449197649954,-0.028503625428676602,-0.298942760694772
1634127112467270400,13.5122705078125,-0.40330198370516296,-0.007431611305475235,-0.2671867093414068
1634127112487149600,13.532149658203124,-0.5589642545819282,-0.1308814653635025,-0.27931290820389987
1634127112507028500,13.552028564453124,-0.768462745064497,-0.2313724686384201,-0.27225641382113097
1634127112526907400,13.571907470703126,-0.7978150962769984,-0.2624199333310127,-0.1917662883065641
1634127112546787600,13.59178759765625,-0.7610954311668873,-0.3353799556016922,-0.16523630103841422
1634127112566665500,13.61166552734375,-0.6170119544029236,-0.3970873469740152,-0.26306466097533704
1634127112586544600,13.631544677734375,-0.3533662786692381,-0.28107757978886366,-0.36846506360173226
1634127112606423300,13.65142333984375,0.09884732772111893,-0.04336684803962707,-0.37370515621230005
1634127112626302500,13.671302490234375,0.44464463244080543,0.15578502047359943,-0.46546997832655906
1634127112646181600,13.691181640625,0.5807581532388926,0.28726328268647194,-0.5450079176828265
1634127112666060500,13.711060546875,0.7487707871228456,0.47877252749204635,-0.5166923621721565
1634127112685940500,13.7309404296875,0.8381576280593872,0.5069090731739998,-0.4901541915975511
1634127112705818400,13.750818359375,0.8751058412283659,0.4526408918917179,-0.4564297627806663
1634127112725698600,13.770698486328126,1.1121651233315468,0.3608540040761232,-0.3918694661952555
1634127112745576400,13.790576416015625,1.3275614396810531,0.19478665904104708,-0.5555138218671083
1634127112765455400,13.810455322265625,1.393705936717987,0.0458230090200901,-0.6568062046527862
1634127112785335600,13.83033544921875,1.2171452547192574,-0.06093465343415737,-0.5939123799748718
1634127112805214500,13.85021435546875,0.9165127873718738,-0.17480594728589058,-0.4507530323185026
1634127112825092600,13.870092529296874,0.306086641100049,-0.2723801863312721,-0.21126608467698096
1634127112844972300,13.88997216796875,-0.389353537851572,-0.40409225730001924,0.06310907486379146
1634127112864850400,13.909850341796876,-0.884490340167284,-0.45873862424492834,0.22489077846892178
1634127112884730600,13.929730712890626,-1.117632741087675,-0.35375147859454154,0.5322444438301026
1634127112904609500,13.949609619140626,-1.1021598621457815,-0.16919103001356123,0.7889955377444624
1634127112924488400,13.969488525390625,-0.9523942480921744,-0.02485036361813545,0.932512320536375
1634127112944367400,13.989367431640625,-0.6103168406784534,0.16955343358516692,0.8848384229525923
1634127112964245500,14.00924560546875,-0.14549334356188773,0.1749362956672907,0.7317343121260405
1634127112984124400,14.02912451171875,0.05143558820486068,0.06227028595209121,0.36738662071526046
1634127113004003600,14.049003662109374,0.31722587475180625,0.07017535998821259,0.05213409186303615
1634127113023883500,14.068883544921874,0.7082803713023662,0.24420681577026843,-0.0734030898630619
1634127113043762400,14.088762451171876,0.7879296620786189,0.41635728011131284,-0.06178104113042354
1634127113063641600,14.1086416015625,0.6852391029328108,0.6874135243624448,0.03578179973810911
1634127113083520500,14.1285205078125,0.6886199775427579,0.7393664144396781,0.04212298545837402
1634127113103399400,14.1483994140625,0.7661901239573955,0.5418506226956844,-0.20723025328963993
1634127113123278300,14.1682783203125,0.6669517510920763,0.3063391545563936,-0.2415419804751873
1634127113143157500,14.188157470703125,0.4462093975394964,-0.0859293939590454,-0.1253106794938445
1634127113163036700,14.20803662109375,0.2272282084405422,-0.32501988962888717,-0.09742050978839396
1634127113182915300,14.227915283203124,-0.052536242923140526,-0.4199403992950916,0.028589824141096322
1634127113202794500,14.24779443359375,-0.31756022127270694,-0.34111177725195885,0.19205635729432105
1634127113222673400,14.26767333984375,-0.47318625179231166,-0.26975392948091026,0.28218462771531194
1634127113242552600,14.287552490234376,-0.5315314732551575,-0.19575638085603714,0.23053221842199562
1634127113262431700,14.307431640625,-0.2927542813181877,-0.12149696642458438,0.09576777414530516
1634127113282310400,14.327310302734375,0.012280220380425453,-0.013893500795960426,-0.002397270400077104
1634127113302189600,14.347189453125,0.15053309129476547,0.0831061532318592,-0.06094444417580962
1634127113322067500,14.3670673828125,-0.0011035773277282715,0.09186229113936424,-0.1803985065959394
1634127113341947600,14.38694775390625,-0.2237432889342308,0.11151683968007564,-0.27179434926733376
1634127113361826300,14.406826416015624,-0.43239889885187144,0.14252864853739738,-0.271164380800724
1634127113381705500,14.42670556640625,-0.5756640449702739,0.17526304340362547,-0.13072452123612166
1634127113401584600,14.446584716796876,-0.6133177760601043,0.23274726412296293,-0.08732990840673446
1634127113421463600,14.466463623046875,-0.6413029305726289,0.33701310976147647,-0.01903758568614721
1634127113441342700,14.4863427734375,-0.6209118844509124,0.49331426306366916,0.0928422420874238
1634127113461221400,14.506221435546875,-0.5415782354950904,0.6151438224434852,0.2615994107283652
1634127113481099500,14.526099609375,-0.3957335942775011,0.6778437319844961,0.33232257732506837
1634127113500978400,14.545978515625,-0.2334381689965725,0.6679343323886394,0.2761706646554172
1634127113520858600,14.565858642578124,0.10373042358756064,0.519400305956602,0.23044117913767695
1634127113540737500,14.585737548828124,0.5052899475395679,0.325113413131237,0.05323061839547008
1634127113560615400,14.605615478515626,0.5609077898651361,0.027392449316382406,-0.06538023466616869
1634127113580494300,14.625494384765625,0.5114782807856798,-0.14739303970336914,-0.2069815392255783
1634127113600373500,14.64537353515625,0.4707996489167213,-0.2417424714833498,-0.17730306133124976
1634127113620253400,14.66525341796875,0.38923312634229656,-0.24946926634311675,-0.12953885511551053
1634127113640131600,14.685131591796875,0.24831892726421353,-0.22901216924786566,-0.060413844430446624
1634127113660010500,14.705010498046875,0.16132336537837982,-0.10456395180225371,0.058734513041377064
1634127113679889400,14.724889404296874,0.13466390651166438,0.02864507972598076,0.20448957627937198
1634127113699768600,14.7447685546875,0.027874095353484153,0.12185177121162413,0.2967062338143587
1634127113719647500,14.7646474609375,-0.11921031679213047,0.11872048744857311,0.3032494997116737
1634127113739526400,14.7845263671875,-0.17039397606253623,0.11099544615447521,0.27014205201566216
1634127113759405600,14.804405517578125,-0.12234803029596805,0.14846972902417183,0.26965806789100166
1634127113779284500,14.824284423828125,-0.1409679750919342,0.1630582263469696,0.2779578403331339
1634127113799163600,14.84416357421875,0.02787292630970478,0.24697686500549315,0.25960297621414063
1634127113819042600,14.86404248046875,0.23386662354171275,0.2858195136189461,0.2651513858552091
1634127113838921500,14.88392138671875,0.5333668719887733,0.1524322029143572,0.14649740603789688
1634127113858800400,14.90380029296875,0.641405221903324,-0.11269874294102192,-0.1201259703323245
1634127113878679600,14.923679443359376,0.5991220774471759,-0.34014380900263785,-0.3751623692832887
1634127113898558700,14.943558837890626,0.5131891763567924,-0.35912557284832,-0.5035984873212873
1634127113918437400,14.963437255859375,0.40948564077615734,-0.18807342513799666,-0.4039263992138207
1634127113938316500,14.983316650390625,0.3566191429853439,0.15599837096333502,-0.1638021765820682
1634127113958195500,15.003195556640625,0.3429565283358097,0.39725568927824495,0.09874825126081704
1634127113978074600,15.02307470703125,0.2592588389515877,0.4739584052085876,0.3223271434135735
1634127113997953500,15.04295361328125,0.00132628016769886,0.4185720335513353,0.6129875211924314
1634127114017832400,15.06283251953125,-0.2543593764722347,0.38378362876474853,0.9082692751616239
1634127114037711600,15.082711669921874,-0.3247749749571085,0.347583019092679,1.2107083535395562
1634127114057590500,15.102590576171876,-0.21023674162924288,0.1712017853140831,1.3456506386011837
1634127114077469700,15.1224697265625,0.012322305956482886,0.07036123794913292,1.225786168749258
1634127114097348400,15.142348388671875,-0.3662678458184004,0.14371815058290957,1.0976859316021204
1634127114117227500,15.1622275390625,-1.3416454946130514,0.38261020107120275,1.1017219091199337
1634127114137106400,15.1821064453125,-2.1267238589137794,0.6449126455023885,1.0708229129873215
1634127114156985300,15.2019853515625,-2.5309201611101626,0.9078279611349105,1.0398626881867647
1634127114176864300,15.2218642578125,-2.481433953407407,1.0338590638577938,0.91086652511321
1634127114196743200,15.2417431640625,-2.05094644113481,0.7824138212665915,0.5242649893835186
1634127114216622000,15.2616220703125,-1.0727765312731266,0.11676058555245399,-0.07701821162030101
1634127114236501200,15.281501220703126,0.056524435776472086,-0.48610067842304705,-0.7137064880043268
1634127114256380400,15.30138037109375,0.8317857549399137,-0.8725237157806753,-1.1737550988692789
1634127114276259000,15.321259033203125,1.2895529038041829,-0.9217521493300795,-1.2656054803751409
1634127114296138200,15.34113818359375,1.6057377450704573,-0.7360346396684646,-1.1143006740555166
1634127114316017200,15.36101708984375,1.6909698044151067,-0.5161562094688416,-0.9980303562380373
1634127114335896300,15.380896240234375,1.7462445323914288,-0.24445056139826774,-0.81312854687348
1634127114355775200,15.400775146484374,1.7932488601505756,-0.04175006049275398,-0.6609129093192517
1634127114375654100,15.420654052734376,1.7257880198180675,0.013255787414312362,-0.550159162966162
1634127114395533300,15.440533203125,1.4631769478291272,-0.012364683793485164,-0.3611500644132495
1634127114415412200,15.460412109375,1.0439543414145707,-0.08769114293456078,-0.18057766255512833
1634127114435291400,15.48029150390625,0.3762129012495279,-0.1721659541711211,-0.0028247020319104193
1634127114455170000,15.500170166015625,-0.3418020976036787,-0.17713965093046427,0.1921871440671384
1634127114475049200,15.52004931640625,-0.9992308180689811,-0.07783025865554809,0.4326549194395542
1634127114494928100,15.53992822265625,-1.3861393008559941,0.12861468947529792,0.6287476195778697
1634127114514807300,15.559807373046874,-1.5200100111633539,0.2812473833978176,0.5433608080629259
1634127114534686200,15.579686279296874,-1.3093120817631483,0.3016507044792175,0.3014644611921161
1634127114554565000,15.599565185546876,-0.8751216233193874,0.27490678219944237,-0.08790018257535993
1634127114574444300,15.6194443359375,-0.3093751612514257,0.3147708828151226,-0.3314613208532333
1634127114594323200,15.6393232421875,0.2011772368609905,0.49225481713861224,-0.3572740997627377
1634127114614202400,15.659202392578125,0.5202846875756979,0.7162710777953266,-0.25350436707809565
1634127114634081000,15.6790810546875,0.5338917726457119,0.8737409826159477,-0.033412732519209384
1634127114653960200,15.698960205078125,0.43282676887512206,0.9555430675119161,0.2586817697159946
1634127114673839400,15.71883935546875,0.4188344838798046,0.9156795514181256,0.5099935951858758
1634127114693718300,15.73871826171875,0.31061493217945096,0.6915700595200062,0.6153619952388107
1634127114713597200,15.75859716796875,0.19236615389585493,0.4518418504685163,0.7461578281454742
1634127114733476000,15.77847607421875,0.04149637799263,0.18001169923543928,0.7640973894618451
1634127114753355300,15.798355224609375,-0.13397592424750326,-0.0784466369882226,0.7203225451432168
1634127114773234200,15.818234130859375,-0.23843992280662057,-0.29007980141192674,0.6386376568861305
1634127114793113300,15.83811328125,-0.22548457964360713,-0.4862766195118427,0.4279919691298157
1634127114812992300,15.8579921875,-0.23132687593102455,-0.6881418386369943,0.11065554667562245
1634127114832871200,15.87787109375,-0.20811317360401152,-0.7095347552776337,-0.14693126741051674
1634127114852750300,15.897750244140624,-0.004252396747469901,-0.5976555120259524,-0.4300213560655713
1634127114872629200,15.917629150390624,0.29940964755415916,-0.46425738766640423,-0.6200127436541021
1634127114892508200,15.937508056640626,0.4676274486213922,-0.3108203916236758,-0.7718056257516145
1634127114912387000,15.957386962890626,0.4005301809042692,-0.09116524878591299,-0.7031051606215536
1634127114932266200,15.977266357421875,0.20562369487583637,0.16417378637343644,-0.5511491969168186
1634127114952145400,15.9971455078125,0.014003390911221504,0.35312019495368,-0.37978184577748175
1634127114972024300,16.0170244140625,-0.09135551066100597,0.48768005656898017,-0.156134564563632
1634127114991903200,16.0369033203125,-0.19284429280161858,0.4516805224269628,-0.039835605173558
1634127115011782100,16.0567822265625,-0.16766718144714832,0.3847372762277722,0.04154942335411906
1634127115031661300,16.076661376953126,-0.11319032585024832,0.23903438156843185,0.11409735769256948
1634127115051540200,16.096540283203126,-0.060513797673583024,0.10941343766003847,0.12687668670155108
1634127115071419100,16.116419189453126,-0.06361643986403942,-0.09433803360313177,0.103650490219146
1634127115091298300,16.13629833984375,-0.012696984487771987,-0.17346943798512218,0.0717200321469456
1634127115111177200,16.15617724609375,0.08623743699491024,-0.17120353887975215,0.13886486533284187
1634127115131056400,16.176056396484373,0.15331541548967362,-0.11655951002240181,0.2087805514715612
1634127115150935000,16.19593505859375,0.15538696106672287,-0.11097703371495007,0.21429785358831285
1634127115170814000,16.21581396484375,0.20670272228419778,-0.09646510875970124,0.22331483438909053
1634127115190692900,16.23569287109375,0.17279402294158935,-0.08758885160386562,0.29684695745930073
1634127115210572000,16.255572021484376,0.099837507802248,-0.06899988646805286,0.35026275969594717
1634127115230451000,16.275450927734376,0.03148001089096069,-0.047600540086627,0.42975108775682747
1634127115250329900,16.295329833984376,-0.011385317367315292,-0.11397241613864897,0.4659064700476825
1634127115270209000,16.315208984375,-0.09186112209558486,-0.254763573358953,0.4107188358329236
1634127115290088000,16.335087890625,-0.22506664649248123,-0.42062458216696974,0.3450383030459285
1634127115309967000,16.354967041015627,-0.37441958809196946,-0.536638733266294,0.25827322544772174
1634127115329846000,16.374845947265626,-0.3954565309017896,-0.5635919143825769,0.18161577343121169
1634127115349725000,16.394724853515626,-0.3562275133192539,-0.5274950573459267,0.07583126685805619
1634127115369603800,16.414603759765626,-0.3200485309571028,-0.4755497660532593,-0.03928396264016628
1634127115389483000,16.43448291015625,-0.28346739753484723,-0.349089916524291,-0.15731968269497154
1634127115409362200,16.454362060546874,-0.0976806220293045,-0.1187029517918825,-0.19823402301594614
1634127115429240800,16.47424072265625,0.15727555129230023,0.12302023046910762,-0.20208938326984643
1634127115449120000,16.4941201171875,0.4275000208944082,0.33867227514535186,-0.18086349375918506
1634127115468999000,16.5139990234375,0.5995820961743593,0.5066363937124609,-0.18956987424083052
1634127115488878000,16.533878173828125,0.7083861697643995,0.5978349602460861,-0.17243498037084937
1634127115508757000,16.553757080078125,0.7531132002413272,0.620750556409359,-0.1669764227040112
1634127115528636000,16.573635986328124,0.7442834125757217,0.593355476744473,-0.08346899519488216
1634127115548515000,16.59351513671875,0.6391016211360693,0.48811377181112764,-0.011357844838500022
1634127115568394000,16.61339404296875,0.3680336864471435,0.368014104963839,0.09170417796820401
1634127115588273200,16.633273193359376,-0.016210545566678045,0.2093660962745547,0.21176497410982845
1634127115608151800,16.65315185546875,-0.3697609486311674,0.02675999663174152,0.30009543786123394
1634127115628031000,16.673031005859375,-0.6076029055446386,-0.13763123188465834,0.4037449782323092
1634127115647910000,16.692909912109375,-0.7744038255512714,-0.2998895400255918,0.3949925666518509
1634127115667789000,16.7127890625,-0.8422042731016873,-0.3500152146756649,0.436261273368448
1634127115687668000,16.73266796875,-0.7714145806074142,-0.296726107558608,0.4294935327991843
1634127115707547000,16.752546875,-0.5305927311003208,-0.22855244278162717,0.3301004077635705
1634127115727426000,16.772426025390626,-0.1726525686442852,-0.10629793598800898,0.22594525595791637
1634127115747305000,16.792304931640626,0.2461293082654476,0.04903086515069008,0.12149594351127743
1634127115767184100,16.81218408203125,0.6137590900868177,0.1937830349564552,0.041833939383924004
1634127115787062800,16.832062744140625,0.7524684725970029,0.285353357411921,0.05142397083230316
1634127115806942000,16.85194189453125,0.6809253313869238,0.26420360187739134,0.02126907106526196
1634127115826821000,16.871821044921877,0.5095101955831051,0.14972382073849438,0.02375730768442154
1634127115846700000,16.891699951171876,0.34065935730934144,-0.009359656758606434,0.04746785361766815
1634127115866579000,16.911578857421876,0.2294949843287468,-0.1380591019079089,0.07001987716555595
1634127115886457900,16.931457763671876,0.027954174852371214,-0.26327625789940357,0.040795097855478524
1634127115906337000,16.9513369140625,-0.2046118874847889,-0.31657705545425413,-0.025148762042820454
1634127115926216000,16.9712158203125,-0.2632142985790968,-0.36925387589186426,-0.12212759247832
1634127115946095000,16.99109521484375,-0.23705402140617368,-0.37178280984759327,-0.2889744705185294
1634127115965974000,17.01097412109375,-0.19213994392454622,-0.31054595859646794,-0.4081912170514464
1634127115985853000,17.03085302734375,-0.0943950244873762,-0.14438625910282135,-0.45371224745027716
1634127116005732000,17.050732177734375,-0.033846740022301675,0.09646540102064609,-0.42648112617544826
1634127116025611000,17.070611083984375,0.1575286492705345,0.38516689981669183,-0.2889657757554203
1634127116045490000,17.090489990234374,0.30241175197958947,0.5865969423949718,-0.2657668326061219
1634127116065368800,17.110368896484374,0.431172571927309,0.6682350689008831,-0.24520532528832553
1634127116085248000,17.130248046875,0.5302537084043025,0.6703606827527284,-0.22568528984747827
1634127116105127200,17.150127197265626,0.5542348879724741,0.5931225447714329,-0.22162257045321165
1634127116125006000,17.170006103515625,0.41494039905071256,0.40315176157951355,-0.22324534934945403
1634127116144885000,17.189885009765625,0.24712124191224574,0.19883096599578856,-0.18399317008703947
1634127116164767200,17.209767333984374,0.07723346180617809,-0.03187047151327133,-0.1438891232356429
1634127116184646400,17.229646484375,-0.11940203997194766,-0.2659174200579524,-0.16989866682626306
1634127116204525600,17.249525634765625,-0.2307616432636976,-0.4516971813008189,-0.19950082808136937
1634127116224404200,17.269404296875,-0.37382746741771694,-0.553474132733047,-0.22074447244443
1634127116244283400,17.289283447265625,-0.4439823691397905,-0.5942354744493961,-0.29331315730996427
1634127116264162300,17.309162353515624,-0.34933658476173873,-0.5098302213177085,-0.3624626083165407
1634127116284041500,17.32904150390625,-0.11570903067290782,-0.3292076967075467,-0.4071886889453977
1634127116303920400,17.34892041015625,0.063281508821249,-0.12551087824106216,-0.4428118640556931
1634127116323799300,17.36879931640625,0.18770634539127348,0.08317921846807003,-0.4322852093443274
1634127116343678200,17.38867822265625,0.2986667202323675,0.28749299978911874,-0.35142800408303737
1634127116363557400,17.408557373046875,0.3689057931065559,0.39389585745632644,-0.24595205200240014
1634127116383436500,17.4284365234375,0.3637561552584171,0.4384209356203675,-0.11867840187251567
1634127116403315200,17.448315185546875,0.24952479592263696,0.4279588705778122,0.044253713876754044
1634127116423194400,17.4681943359375,0.14222528167665005,0.396069402103126,0.2129945159047842
1634127116443073300,17.4880732421875,0.057981648847460744,0.2935921934470534,0.3209758018698543
1634127116462952400,17.507952392578126,0.008858429238200188,0.17903788576722143,0.3938528950974345
1634127116482831400,17.527831298828126,-0.019288053315877914,0.046341772197186944,0.3630116205014288
1634127116502710300,17.547710205078126,-0.06101356388926506,-0.07448854701220989,0.2962807749439031
1634127116522589400,17.56758935546875,-0.13271452600955963,-0.1992342860996723,0.1485039966199547
1634127116542468400,17.58746826171875,-0.15681494804322718,-0.2874380547314882,-0.01383607152029872
1634127116562347500,17.607347412109377,-0.09453297165334223,-0.2848860321611166,-0.1757952505841851
1634127116582226200,17.62722607421875,-0.011094225466251372,-0.23688509458005427,-0.3152123429723084
1634127116602105300,17.647105224609376,0.12177344527840614,-0.07999035929888486,-0.35992344522774217
1634127116621984300,17.666984375,0.1564227338552475,0.06582125643193722,-0.38595987682528793
1634127116641863400,17.686863525390624,0.17567571585774422,0.19589198993444443,-0.3525684793550521
1634127116661742300,17.706742431640624,0.17033727743923663,0.2474579265207052,-0.2778450276084244
1634127116681621200,17.726621337890624,0.07305120768547058,0.2242673128083348,-0.1921783031735569
1634127116701500400,17.74650048828125,-0.012006664136052132,0.11553659671545027,-0.10733633912503719
1634127116721379300,17.76637939453125,-0.0930401027470827,0.049686114189028734,0.02682378258295357
1634127116741258500,17.786258544921875,-0.22388883488476274,0.014882511833310127,0.1621982485167682
1634127116761137200,17.80613720703125,-0.2906114240705967,-0.04430646697729826,0.2135297918252647
1634127116781016300,17.826016357421874,-0.25473639309108254,-0.033033670073747634,0.27651575176604093
1634127116800895500,17.8458955078125,-0.18088439041674137,0.028259003017842767,0.3400868181183934
1634127116820774400,17.8657744140625,-0.09945230787694453,0.05575111331641674,0.32939393999464806
1634127116840653300,17.8856533203125,0.032174422895908356,0.044992695675790305,0.3021386341266334
1634127116860532200,17.9055322265625,0.16594342639446258,0.0563408959031105,0.3677188483443111
1634127116880411400,17.925411376953125,0.1782464431285858,0.02385229249149561,0.41148185609467325
1634127116900290300,17.945290283203125,0.13174655776023864,0.01877455083578825,0.48239860903471704
1634127116920169500,17.96516943359375,0.0664449412882328,0.024406126981973645,0.582289454459399
1634127116940048400,17.98504833984375,0.003081599402427673,-0.00034486791491508483,0.6151394385293125
1634127116959927300,18.00492724609375,-0.0539794274687767,-0.024244214418530464,0.6178120918046682
1634127116979806500,18.024806396484376,-0.04950783501267433,-0.055906011617183685,0.557736612483114
1634127116999685400,18.044685302734376,-0.05832125606536865,-0.0788362208276987,0.445704662887752
1634127117019564300,18.064564208984375,0.013645663514733314,-0.06540536910742521,0.2876904951225966
1634127117039443200,18.084443115234375,0.11435177084505557,-0.046910219734907145,0.08344327623173595
1634127117059322400,18.104322265625,0.17702128524780272,-0.04060673567652702,-0.11817169445939361
1634127117079201500,18.124201416015627,0.1307154611468315,-0.07003712056130171,-0.2969608661625534
1634127117099080400,18.14408056640625,0.14305121110677718,-0.0657780018121004,-0.4075326800774783
1634127117118959400,18.16395947265625,0.1343582015633583,-0.0585085953310132,-0.49444750487729905
1634127117138838300,18.18383837890625,0.08298632624447345,0.016705635607242583,-0.49172808985076844
1634127117158714000,18.203714111328125,-0.03268704859316349,0.10953297238647937,-0.4279659579057246
1634127117178593000,18.223593017578125,-0.12341127561330795,0.18019962302297352,-0.34262254714109003
1634127117198472000,18.243471923828125,-0.1146253270894289,0.20154636243432758,-0.2645844178885221
1634127117218351000,18.26335107421875,-0.05300619852244853,0.23439795393943785,-0.19851634708866475
1634127117238230000,18.28322998046875,-0.03785305305421352,0.2481459087848663,-0.10505853038616478
1634127117258109200,18.303109130859376,-0.07993921363353729,0.24121494047790765,-0.03426182362921536
1634127117277987800,18.32298779296875,-0.11255728864371776,0.19224603464752435,0.021747867558151484
1634127117297867000,18.342866943359375,-0.09731704941391944,0.10483283187150955,0.02236081182472408
1634127117317746000,18.362745849609375,-0.03272387347221374,-0.010868015494942665,-0.0140128163266927
1634127117337625000,18.382625,0.06855214270055293,-0.047449148917198175,0.024095015206187963
1634127117357504300,18.402504150390627,0.08826163629889487,-0.0830973854035139,0.05349347058273852
1634127117377383000,18.4223828125,0.07690028432905674,-0.08788637324571609,0.0813408240597695
1634127117397262000,18.442261962890626,0.1261538523197174,-0.060678925107419485,0.1361195852126926
1634127117417141000,18.46214111328125,0.1811784049272537,-0.05297346529662609,0.15998692914284765
1634127117437020200,18.482020263671874,0.21869594241678714,-0.04707037873268127,0.15768069802708923
1634127117456898800,18.50189892578125,0.14651976400017738,-0.05019055657982826,0.16984167594201863
1634127117476778000,18.521778076171874,0.002113631153106689,-0.10914777246117591,0.14169723921455443
1634127117496657200,18.5416572265625,-0.07107143204510212,-0.18567279373705387,0.07137479890584945
1634127117516536000,18.5615361328125,-0.12713175744116306,-0.20861440112441776,0.024100787359848618
1634127117536414000,18.5814140625,-0.18421382710039613,-0.1769265927016735,-0.06711553402617573
1634127117556294000,18.6012939453125,-0.15443886656165123,-0.10567688148021698,-0.12261552212573587
1634127117576173000,18.621173095703124,-0.1597293741852045,0.021015900021791458,-0.18007555825188756
1634127117596052000,18.641052001953124,-0.18140227681100368,0.15321633902937173,-0.17405863604992627
1634127117615930000,18.66093017578125,-0.10317395874857901,0.29903643032759425,-0.12483356350138783
1634127117635809000,18.68080908203125,-0.07830547495186328,0.421056836104393,-0.024373028429970144
1634127117655688000,18.70068798828125,-0.06090659638345241,0.48091976865381,0.03604593056701123
1634127117675566800,18.72056689453125,-0.04725274956226349,0.4448097598746419,0.09127842683680355
1634127117695446000,18.740446044921875,-0.025229718324542044,0.3573831130951643,0.12970840299613773
1634127117715325200,18.7603251953125,-0.013931494718790053,0.23332068009674548,0.15443294827751813
1634127117735204000,18.7802041015625,-0.01790098287165165,0.10489216084331274,0.18974296578541397
1634127117755083000,18.8000830078125,-0.030497429594397545,0.033098259742558,0.22622575339972972
1634127117774962000,18.8199619140625,-0.04258826488256454,-0.02145575274378061,0.2714182094313204
1634127117794841000,18.839841064453125,-0.05179097751379013,-0.07043839483857155,0.32047289384901523
1634127117814720000,18.859719970703125,-0.04983808988034725,-0.12376958753168582,0.3038783904660493
1634127117834599000,18.879598876953125,-0.028182722911238668,-0.07066402028799057,0.3835746621891856
1634127117854478000,18.89947802734375,0.0025192893445491788,-0.059656304061412806,0.3403136126115918
1634127117874357000,18.91935693359375,0.05463876816034317,-0.06948533189743757,0.3064842621155083
1634127117894236200,18.939236083984376,0.13057576041519642,-0.08104892844110727,0.24395927074998616
1634127117914115000,18.959114990234376,0.18108838855624199,-0.11790917106568813,0.1603011827237904
1634127117933994000,18.978993896484376,0.19627660533785818,-0.13165128069221974,0.07242445408925413
1634127117953873000,18.998872802734375,0.17877894257009028,-0.12383505398333072,0.016834449618682263
1634127117973752000,19.018751953125,0.1257002633333206,-0.08554244046807288,-0.04043327880576253
1634127117993631200,19.03863134765625,0.0480319172412157,-0.042375498914718625,-0.08744009078294038
1634127118013510000,19.058510009765627,-0.05206570280194282,-0.012794307382404804,-0.14621332839950918
1634127118033389000,19.07838916015625,-0.09678162736296653,0.0338935017734766,-0.17832301549613475
1634127118053268000,19.09826806640625,-0.03898293386697769,0.15587094519138336,-0.15639482293501494
1634127118073147100,19.118147216796874,0.035191724890470504,0.2483645199716091,-0.12341609791889786
1634127118093026000,19.138026123046874,0.025318565651774406,0.23297493539899586,-0.138274352093786
1634127118112905000,19.157905029296874,0.03326689430773258,0.18660598293393849,-0.1319541360963136
1634127118132784000,19.1777841796875,0.022773557344079015,0.1147320023342967,-0.07101546407416462
1634127118152663600,19.19766357421875,0.020242577561736107,0.04951426475346088,-0.03305734321027994
1634127118172542200,19.217542236328125,0.03491173890531063,-0.020900456948578356,0.03509557103961706
1634127118192421400,19.23742138671875,0.04605974038541317,-0.10843991645276546,0.04083060756027698
1634127118212300300,19.25730029296875,0.06076806469559669,-0.17347265285551547,-0.024505641833692787
1634127118232179500,19.277179443359376,0.1320627841025591,-0.19347849905192852,-0.09694317460022867
1634127118252058400,19.297058349609376,0.28744740708172317,-0.14208850355446337,-0.14545359607338904
1634127118271937300,19.316937255859376,0.28179858753979203,-0.06825374427586793,-0.14162526995688676
1634127118291816400,19.33681640625,0.2196341000497341,0.03807517137229442,-0.12845482273846864
1634127118311695400,19.3566953125,0.18817922360002992,0.1003425347149372,-0.11492723264545202
1634127118331574500,19.376574462890623,0.15372808794379234,0.1372597682237625,-0.06387085301652551
1634127118351453200,19.396453125,0.048071080207824704,0.1303314302653074,-0.040373730638250706
1634127118371332400,19.416332275390626,-0.010061959809064864,0.13926964674144982,0.0072196490552276366
1634127118391211300,19.436211181640626,-0.03823357680439949,0.11676058555245399,0.07424604349322617
1634127118411090400,19.45609033203125,-0.051532618838548656,0.03858692028671503,0.07541340677216649
1634127118430969300,19.47596923828125,-0.12065583942532539,-0.07130816341042519,0.06019333354756236
1634127118450848300,19.49584814453125,-0.13261866441965103,-0.14603461083173752,0.06095372346080839
1634127118470727400,19.5157275390625,-0.05133329687416553,-0.17898060262203216,0.08844049999713897
1634127118490606300,19.5356064453125,0.010683306577801704,-0.19700462735146282,0.06181764681376516
1634127118510485500,19.555485595703125,0.03297229527533054,-0.16671908694207668,0.06086202658936381
1634127118530364200,19.5753642578125,0.05104103592932224,-0.09672112934738397,0.0724465197905898
1634127118550243300,19.595243408203125,0.1178191546946764,-0.03945201268345117,0.0457527933280915
1634127118570122200,19.615122314453124,0.15456512328982352,0.01966594671756029,-0.0022575696684420106
1634127118590001400,19.63500146484375,0.1276268474817276,0.07900543991476297,-0.03731039754487574
1634127118609880300,19.65488037109375,0.038408348849415776,0.12227759540826082,-0.05309358454495668
1634127118629759200,19.67475927734375,0.0321288301885128,0.16942951494455336,-0.08445997899360955
1634127118649638400,19.694638427734375,0.07394201904535293,0.15950725586712358,-0.10148761309683323
1634127118669517300,19.714517333984375,0.0813069948554039,0.10963584823906421,-0.12261924845278262
1634127118689396500,19.734396484375,0.061485857576131814,0.0427905094563961,-0.12254939808696508
1634127118709275100,19.754275146484375,0.005224456650018691,-0.02160480582565069,-0.09625263505280017
1634127118729154300,19.774154296875,-0.0495440753698349,-0.04347849172055721,0.01462276491858065
1634127118749033500,19.794033447265626,-0.09650748659670352,-0.05818272437751293,0.126210550943017
1634127118768912400,19.813912353515626,-0.12231763515770434,-0.07658113537728786,0.17602584446966646
1634127118788791300,19.833791259765626,-0.04207447014153003,-0.08307634261548519,0.20023118818253277
1634127118808670200,19.853670166015625,0.044516602596640586,-0.07934066321849823,0.17556772543862462
1634127118828549400,19.87354931640625,0.08073767053484916,-0.09405483274757862,0.11844481231234967
1634127118848428300,19.89342822265625,0.1265495736390352,-0.059947395962476724,0.01766746637672186
1634127118868307500,19.913307373046877,0.20058160905539987,0.009590835165977477,-0.011506021137535571
1634127118888186400,19.933186279296876,0.17372107465863226,0.0905085384428501,-0.0030397330220788715
1634127118908065300,19.953065185546876,0.07304711603224277,0.11943009702265261,-0.04110306782610714
1634127118927944400,19.9729443359375,0.029317864421010014,0.15923486866652964,-0.06371091321446001
1634127118947823400,19.9928232421875,0.04440086726248264,0.19317162505984306,-0.06579590279497206
1634127118967702300,20.012702392578124,0.000793196204304695,0.14694617271870375,-0.10015256510078907
1634127118987581200,20.032581298828124,-0.04007072910368442,0.13984043236672877,-0.08945091914869845
1634127119007460400,20.05246044921875,-0.08779752591848373,0.14564444247037173,-0.05278232663869858
1634127119027338200,20.072338134765626,-0.08097557094395161,0.17932810088545084,-0.0046419805869460104
1634127119047218400,20.092218505859375,-0.10873334644138813,0.1453323077812791,0.021242036927863955
1634127119067096600,20.1120966796875,-0.07328910809457302,0.14333061257004737,0.0628420214254409
1634127119086975200,20.131975341796874,-0.010888473761081695,0.15135346776694059,0.13605952558852732
1634127119106854400,20.1518544921875,0.04429156166911125,0.11511632547676563,0.17986885669864713
1634127119126733300,20.1717333984375,0.06106675538122654,0.042699324041604994,0.2101275091011077
1634127119146612500,20.191612548828125,0.027407646885514256,-0.04879793317764997,0.22344394066147505
1634127119166491100,20.2114912109375,-0.02882394342422485,-0.12495382888019084,0.21661825935989618
1634127119186369800,20.231369873046877,0.03291208952069282,-0.17386545156538485,0.21046477823145687
1634127119206249000,20.2512490234375,0.045368835511803624,-0.19780629912316797,0.13993022954203188
1634127119226128000,20.2711279296875,-0.06842822405993938,-0.21892039882242678,0.05381583440490067
1634127119246007000,20.291007080078124,-0.018122516667842863,-0.14453092827051878,-0.0035298546265810724
1634127119265886000,20.310885986328124,0.06245148773789405,-0.08740998790562152,-0.0995654859278351
1634127119285764900,20.330764892578124,0.13542320044636724,-0.03444558269828558,-0.15995850676596163
1634127119305644000,20.35064404296875,0.1816144582569599,0.026133389165997504,-0.20403876377195118
1634127119325523000,20.37052294921875,0.1366238084077835,0.08597849379777908,-0.23083302799947558
1634127119345402000,20.390402099609375,0.10812310558855533,0.16609657112956047,-0.19497494815476238
1634127119365280800,20.41028076171875,0.15181319423317907,0.2335834226861596,-0.16313304514884946
1634127119385160000,20.430159912109374,0.17489713270068166,0.21996990787535906,-0.1738179591618478
1634127119405039000,20.4500390625,0.16223171239495277,0.1673316658824682,-0.16049180992506443
1634127119424918000,20.46991796875,0.12614040831625462,0.10380933404266833,-0.12646459876932203
1634127119444797000,20.489796875,0.026285364857316015,-0.05100654913783073,-0.1233225013513118
1634127119464675800,20.50967578125,0.05775953052937984,-0.09906067821085453,-0.11021335586607456
1634127119484555000,20.529554931640625,0.019712416207790375,-0.14606325240433216,-0.027509426759555936
1634127119504434000,20.549433837890625,0.016470657807588576,-0.12866086670458315,0.07385660578422248
1634127119524313000,20.56931298828125,-0.0831236888885498,-0.14242664946764708,0.135613023930043
1634127119544192000,20.58919189453125,-0.17806231873333453,-0.11215192271322011,0.2047638631761074
1634127119564071000,20.60907080078125,-0.15588848084807394,-0.09112111738324165,0.17109949398338795
1634127119583950000,20.6289501953125,-0.01696983950138092,-0.04949497553110122,0.11429938307069241
1634127119603829000,20.6488291015625,0.05191606519818306,-0.009713000240921973,0.010554127240180969
1634127119623708000,20.6687080078125,-0.009718260937929152,0.04874269585907459,-0.09264321238398551
1634127119643586800,20.6885869140625,-0.03729366560578346,0.1346188983261585,-0.12646386811695992
1634127119663466000,20.708466064453123,-0.04749707971215248,0.21639321843236684,-0.12298640126474202
1634127119683345200,20.72834521484375,-0.06588380027413368,0.20023966374993324,-0.14636837283074855
1634127119703224000,20.74822412109375,-0.08532616736888884,0.13216186056286094,-0.14054485430903732
1634127119723103000,20.76810302734375,-0.08963526273965836,0.04211830928325653,-0.1291668434653431
1634127119742982000,20.78798193359375,-0.0361111778229475,-0.0013128361642360687,-0.07972294053435325
1634127119762861000,20.807861083984374,0.03558744620978832,0.027084406280517576,-0.007378565943986177
1634127119782740000,20.827739990234374,0.05478431411087513,0.0336430341437459,0.024996055699139832
1634127119802619000,20.847618896484374,0.1180412730127573,0.06295593012869358,0.04324760557413101
1634127119822498000,20.867498046875,0.18649346247017382,0.07664923217743634,0.07436411691494285
1634127119842377000,20.887376953125,0.17973522038161754,0.06255524037331342,0.057167044528946276
1634127119862256000,20.907256103515625,0.14545184250771998,0.03594342004060745,0.08109897812791168
1634127119882135000,20.927135009765625,0.08163608067929744,-0.0031488194197416305,0.14032711990512906
1634127119902014000,20.947013916015624,-0.009362287107110023,-0.05217237804681062,0.1440275087930262
1634127119921892900,20.966892822265624,-0.05814999115169048,-0.10776187106072901,0.17171740668602287
1634127119941772000,20.98677197265625,-0.08455518299639224,-0.1333975398376584,0.16672149809487163
1634127119961651200,21.006651123046876,-0.060120998963713645,-0.14043518338948488,0.13924356245212255
1634127119981529900,21.02652978515625,-0.001664133819937706,-0.047455870918929575,0.1351912913866341
1634127120001409000,21.046408935546875,0.03159633074700832,0.03470598720014095,0.09603899230211972
1634127120021288000,21.066287841796875,0.08786182332634926,0.1320508014038205,0.07488098039589822
1634127120041167000,21.0861669921875,0.11386895576417445,0.18142448864281177,0.0372804407980293
1634127120061045800,21.106045654296874,0.08947101208865642,0.1632020187318325,-0.034319252904877064
1634127120080924200,21.125924072265626,0.07580021413266658,0.1215206395611167,-0.08248071480989455
1634127120100802800,21.145802734375,0.07839724488854408,0.06952420260310173,-0.09285751272179185
1634127120120682000,21.165681884765625,-0.004487374547123908,0.0044160628765821455,-0.17547091400064527
1634127120140561000,21.185560791015625,-0.05997194588184356,-0.042405601792037485,-0.13723390313014389
1634127120160443400,21.205443359375,-0.058147653064131735,-0.030469957065582275,-0.040161037735641
1634127120180322300,21.225322265625,-0.1035673419803381,-0.0730263655051589,-0.004422638747841119
1634127120200201500,21.245201416015625,-0.09551906008124351,-0.10525953285098075,-0.008137275356799364
1634127120220080400,21.265080322265625,0.04671323585808277,-0.09645721771419048,0.04146941692046821
1634127120239959600,21.28495947265625,0.10494447555243969,-0.1034688500419259,0.05238309818804264
1634127120259838500,21.30483837890625,0.09416530738472938,-0.10081979683786631,0.059906260234490034
1634127120279717400,21.32471728515625,0.133957804068923,-0.05230681808143854,0.08115399625077843
1634127120299596300,21.34459619140625,0.17829788105487823,0.00014992986470460892,0.07530936187580227
1634127120319475500,21.364475341796876,0.14028525352478027,0.005746142436563968,-0.005288315666466951
1634127120339354600,21.384354736328124,0.12278116101622581,0.02904021652340889,-0.02626629483066499
1634127120359233300,21.4042333984375,0.10628829137682914,0.06725041245222091,-0.04562010685913265
1634127120379112400,21.424112548828123,0.0241945300579071,0.08915800061672925,-0.050046179673075675
1634127120398991400,21.443991455078127,-0.07603577645421028,0.06821458130925893,-0.10816256081610917
1634127120418870500,21.46387060546875,-0.04605798681974411,0.0740565853357315,-0.10672631746791303
1634127120438749400,21.48374951171875,0.03380874609947204,0.05346826307624578,-0.14656754866465926
1634127120458628400,21.50362841796875,0.1270171911507845,0.0038783027380704877,-0.2346284016944468
1634127120478507300,21.52350732421875,0.1812830343455076,-0.021091887867450712,-0.26696152228340503
1634127120498386400,21.543386474609374,0.1080465332210064,-0.03820931914597749,-0.2552343326758593
1634127120518265600,21.563265625,0.033466216272115705,-0.02300385896861553,-0.2107472484346479
1634127120538144300,21.583144287109373,0.0017424597531557082,-0.007656067711114883,-0.15105382723324
1634127120558023400,21.6030234375,-0.01585223364830017,-0.004626783017814159,-0.15092260206900537
1634127120577902300,21.62290234375,-0.030754034703969955,0.0318283859372139,-0.14528357326872646
1634127120597781500,21.642781494140625,-0.007415829214453697,0.07132014610916376,-0.12524565143361688
1634127120617660200,21.66266015625,0.029869068562984463,0.09316928208470344,-0.14602460089437663
1634127120637539300,21.682539306640624,0.01134790796637535,0.13098346443325282,-0.13292473469413815
1634127120657418500,21.70241845703125,-0.09874036021530627,0.1746393585473299,-0.10600063354186713
1634127120677297400,21.72229736328125,-0.11014262871742247,0.17877251282930373,-0.1523351722806692
1634127120697176600,21.742176513671875,0.03238017460107803,0.14049129749089478,-0.2738823345225304
1634127120717055200,21.76205517578125,0.16480360870957372,0.03294102335423231,-0.4842182256773114
1634127120736934400,21.781934326171875,0.2534007605731487,-0.06584697539508343,-0.5671815363723784
1634127120756813300,21.801813232421875,0.20998072104156015,-0.16448182940930128,-0.6693325087487697
1634127120776692500,21.8216923828125,0.14516075060665606,-0.22294892368614672,-0.7675829665552825
1634127120796571400,21.8415712890625,0.18941081122159956,-0.18153525554090738,-0.7461435804244131
1634127120816450300,21.8614501953125,0.17041501885056495,-0.05482639968693256,-0.6800218066759407
1634127120836329500,21.88132958984375,0.05715045872032642,0.06020458559393883,-0.5136942032694817
1634127120856208400,21.90120849609375,-0.004370470169186592,0.17811112631112336,-0.38285621172152456
1634127120876087600,21.921087646484374,-0.022607553127408028,0.19636925205737352,-0.22282442052364348
1634127120895966200,21.94096630859375,-0.09411503850221634,0.13516542629301548,-0.12670827133208512
1634127120915845400,21.960845458984377,-0.16107786618471145,0.012001987960934638,-0.11274338580034672
1634127120935724500,21.980724609375,-0.2409101123124361,-0.02546644968986511,-0.08147314520254731
1634127120955602400,22.0006025390625,-0.1050830072402954,-0.0016109423279762267,0.007107347787171602
1634127120975481600,22.020481689453124,0.08865209692120551,-0.03496726848483085,-0.09106361504234373
1634127120995360300,22.0403603515625,0.386546663737297,-0.0703577308177948,-0.2627237385831773
1634127121015239400,22.060239501953124,0.5177373411804438,-0.06289338628649711,-0.4733779019068926
1634127121035118300,22.080118408203123,0.38113106842935085,0.08970365180075168,-0.47096068469733
1634127121054997500,22.09999755859375,0.0678214903384447,0.295717222777009,-0.2964477290086448
1634127121074876400,22.11987646484375,-0.2567962482303381,0.43126667995154855,-0.1036848308801651
1634127121094755300,22.13975537109375,-0.43519408252835273,0.4381669608592987,0.06193652395308017
1634127121114634500,22.159634521484374,-0.3849497499346733,0.33515549919605253,0.15506372046172617
1634127121134513400,22.179513427734374,-0.4923480483800173,0.23021979147195815,0.290590381282568
1634127121154389200,22.19938916015625,-0.47263329408466814,0.1313297936528921,0.3580915536254644
1634127121174268200,22.21926806640625,-0.3051245180696249,0.1082639753639698,0.4388948367424309
1634127121194147000,22.23914697265625,-0.09450608364641666,0.05905833816826343,0.43255964237153527
1634127121214026200,22.259026123046876,0.09001111031472682,0.0670315090045333,0.40811588679291305
1634127121233905200,22.2789052734375,0.2645312263965606,0.10941899061799049,0.4444391729965806
1634127121253784000,22.2987841796875,0.3161211283802986,0.12750760501623154,0.49064679742008444
1634127121273663000,22.3186630859375,0.3463935170471668,0.12012012511342764,0.5365401682626456
1634127121293542100,22.338542236328124,0.3740039930284023,0.08720482072234154,0.5424237464085221
1634127121313421300,22.35842138671875,0.3173842801839113,0.06790390792489051,0.49368689576834435
1634127121333300200,22.37830029296875,0.20590426538288592,0.12439853308498859,0.564467382042855
1634127121353179100,22.39817919921875,0.26803952677845955,0.00929009865373373,0.5355400513093919
1634127121373058000,22.41805810546875,0.3489373563110828,-0.07921206840276718,0.45970016275346276
1634127121392937200,22.437937255859374,0.22379706494808196,-0.14929069001823664,0.4338888451486826
1634127121412816100,22.457816162109374,-0.037975218129158016,-0.16287001029849052,0.439736694394052
1634127121432695000,22.477695068359374,-0.26101123557686806,-0.2245250869616866,0.47584396322686223
1634127121452574200,22.49757421875,-0.47757367309629917,-0.30576106240749357,0.48170200507268307
1634127121472453000,22.517453125,-0.6079840138167143,-0.3094774525821209,0.43153062811736015
1634127121492332300,22.537332275390625,-0.5525356828391552,-0.3057823974564671,0.2785254110880196
1634127121512211200,22.557211181640625,-0.33487200607955453,-0.16021394283175466,0.25067308917492626
1634127121532090000,22.577090087890625,-0.03237549842596054,0.009985387441515921,0.12425532522201538
1634127121551969000,22.596968994140624,0.30972295177578923,0.2606613992258906,0.0918918094947934
1634127121571848200,22.61684814453125,0.5861947913348674,0.3880936009183526,0.0943638986967504
1634127121591727400,22.636727294921876,0.7432277660429477,0.5058990193486214,0.0797301009275019
1634127121611606000,22.65660595703125,0.7479319982111453,0.541271361503005,0.030878245605528352
1634127121631485200,22.676485107421875,0.7324696406632661,0.44112961005717516,-0.0060620765179395675
1634127121651364000,22.696364013671875,0.6581149491637944,0.25239450614005327,-0.030625586018711327
1634127121671243300,22.7162431640625,0.4374041597932577,0.050753743420541286,-0.001769786151498556
1634127121691122200,22.7361220703125,0.10621464161872864,-0.08653875802904366,0.1881136110179126
1634127121711000300,22.756000244140626,-0.20499182671308516,-0.07028057392835617,0.38971477237939833
1634127121730879000,22.77587890625,-0.41879707447886466,-0.0540232666105032,0.5070836990885437
1634127121750758100,22.795758056640626,-0.490354828736186,-0.03545125260949135,0.539153492566198
1634127121770637000,22.815636962890625,-0.29346622897982594,0.00647241088449955,0.5257113887995482
1634127121790516200,22.83551611328125,0.0043570261657238,-0.013716682924330233,0.40222646342813967
1634127121810395100,22.85539501953125,0.14811200162768362,-0.165310389187932,0.12487740264311432
1634127121830274000,22.875274169921877,0.1828086364775896,-0.34676907236129045,-0.08085751578854397
1634127121850153200,22.8951533203125,0.19111118539869784,-0.47415831169486045,-0.16274302291795611
1634127121870032100,22.9150322265625,0.1927332336425781,-0.5086696531057358,-0.07410539291352033
1634127121889911300,22.934911376953124,0.09516367077231407,-0.4673819494277239,0.04279967914354056
1634127121909790000,22.9547900390625,0.0061263739258050915,-0.3743874393880367,0.143677745507285
1634127121929669000,22.974669189453124,-0.058366848772764206,-0.2803732309117913,0.1526382468804717
1634127121949548300,22.99454833984375,-0.07531506096422672,-0.17956190964132546,0.10271247871667145
1634127121969427200,23.01442724609375,-0.14846797545850277,-0.12218962486386298,0.09157877975655719
1634127121989306000,23.03430615234375,-0.2108206789970398,-0.043675767858326435,0.03233244473552331
1634127122009185000,23.05418505859375,-0.22142156798839568,0.005210720385611057,-0.0200467627286911
1634127122029064200,23.074064208984375,-0.12449848632812499,0.11443828008472919,0.009328823228925465
1634127122048943000,23.093943115234374,-0.1007826796978712,0.17517098120599983,0.006782572812214493
1634127122068822300,23.113822265625,-0.11652619227468967,0.21471622513085603,-0.018573420506808904
1634127122088701200,23.133701171875,-0.10761749415397644,0.25033611230552194,-0.045428456744551655
1634127122108580000,23.153580078125,-0.0933148280352354,0.283857565896213,-0.03896832081973552
1634127122128459300,23.173459228515625,-0.09066635935306548,0.27896716350615025,-0.03911591259688139
1634127122148338200,23.193338134765625,-0.0890928264260292,0.2805295905172825,-0.06231032570153475
1634127122168217300,23.21321728515625,-0.08337386425733566,0.28422289207726714,-0.0372594710752368
1634127122188096500,23.233096435546877,-0.08573474816977977,0.23159517147839068,-0.04013846057765186
1634127122207975700,23.2529755859375,-0.033199674290418625,0.1648918715149164,-0.0910614230852574
1634127122227854600,23.2728544921875,-0.014534136787056923,0.10919804134368896,-0.17475246353298424
1634127122247733500,23.2927333984375,0.03296411196887493,0.05905015486180782,-0.2115195479813963
1634127122267612400,23.3126123046875,0.07594166842997074,0.053122518378496165,-0.2119562588982284
1634127122287491600,23.33249169921875,0.04470891029834747,0.05332622425705194,-0.173434366671741
1634127122307370500,23.35237060546875,-0.013359832310676573,0.0449582088842988,-0.10562325159683823
1634127122327249400,23.37224951171875,-0.04959434425234795,-0.0020268296524882314,-0.1035458608008921
1634127122347127600,23.39212744140625,-0.07777122194468974,-0.049773500211536884,-0.09924041869193315
1634127122367006500,23.41200634765625,-0.11420213324129581,-0.10446312177628278,-0.03528634437136352
1634127122386885400,23.431885498046874,-0.08384791150987148,-0.1499824716746807,0.01770845597423613
1634127122406764500,23.4517646484375,-0.05172901819348335,-0.15994214015305042,0.05580518159121275
1634127122426643700,23.471643798828126,0.017634440889954566,-0.12554536503255367,0.0798792270746082
1634127122446522400,23.4915224609375,0.10008242247402667,-0.06377484529614448,0.11741676617255434
1634127122466401500,23.511401611328125,0.10396715495288371,-0.024111235688626765,0.13351524793319403
1634127122486280400,23.531280517578125,0.11472177320122719,0.020286124442517758,0.14957045680768788
1634127122506159600,23.55115966796875,0.14703881943821906,0.05595277336835861,0.14993125294409693
1634127122526038500,23.57103857421875,0.1463613585680723,0.08331862693876027,0.1402253400310874
1634127122545917400,23.59091748046875,0.1545575245052576,0.10771072539538144,0.13969868580847977
1634127122565796600,23.610796630859376,0.2253022088140249,0.08868073849380016,0.12226904677562415
1634127122585675500,23.630675537109376,0.16263327893316745,-0.0035237902119755744,0.06408369204960764
1634127122605554700,23.6505546875,0.09315233094990252,-0.0776467187821865,0.004748363570868969
1634127122625433300,23.670433349609375,-0.040624855855107306,-0.14960691636055706,0.0006580072510056198
1634127122645312500,23.6903125,-0.10522563058137893,-0.15835340965688227,0.02174406816586852
1634127122665191400,23.71019140625,-0.17098200508356093,-0.10465805982649326,0.06581431523449718
1634127122685070600,23.730070556640626,-0.1081762970805168,-0.008611468739807605,0.11022066238969563
1634127122704949500,23.749949462890626,-0.048507718059420585,0.037593233074247834,0.04883475805670023
1634127122724828400,23.769828369140626,0.003621697628498077,0.01848082858622074,-0.020119389573484657
1634127122744707600,23.78970751953125,0.040730069795250894,-0.013111995029449462,-0.05465550009943545
1634127122764586500,23.80958642578125,0.0861082576572895,-0.012121230426430702,-0.04983808988034725
1634127122784465700,23.829465576171874,0.04290975192189216,-0.02775134575664997,-0.04672682599201798
1634127122804344300,23.84934423828125,-0.04673486316800117,0.0010474632263183592,0.005235489500686526
1634127122824223500,23.869223388671877,-0.08735153571665287,0.0486333902657032,0.04578676866292953
1634127122844102700,23.8891025390625,-0.050860418665409086,0.1222740882769227,0.10140972555503248
1634127122863981600,23.908981689453125,-0.012753683111071586,0.15814064368903635,0.11966332125663756
1634127122883860500,23.928860595703124,0.034496728363633156,0.1733054795950651,0.09441181122539564
1634127122903739400,23.948739501953124,0.0595914221316576,0.1552913917377591,0.07133483222164214
1634127122923618600,23.96861865234375,0.09492986201643944,0.1318143622994423,0.08712444896250962
1634127122943497500,23.98849755859375,0.09099836778640746,0.11726970411837101,0.13006693411022424
1634127122963376600,24.008376708984375,0.034359365719556806,0.08785510132461785,0.21857509251609444
1634127122983255600,24.028255615234375,-0.03458323760330677,0.08173661844432353,0.3268890445016324
1634127123003133400,24.048133544921875,-0.060358899372816084,0.031123452538251876,0.3859084388989955
1634127123023012600,24.0680126953125,-0.016707389172911643,-0.060789399744570254,0.3461537169419229
1634127123042891500,24.0878916015625,0.11707622737288474,-0.15887626448720693,0.2925713259667158
1634127123062770700,24.107770751953126,0.14047405409514904,-0.26653847456574437,0.13327420571893453
1634127123082649300,24.1276494140625,0.09775953248441219,-0.3316454452484846,0.042395354392658915
1634127123102528500,24.147528564453125,0.08937807310819626,-0.29549948837310075,-0.008551847507059574
1634127123122407400,24.167407470703125,0.11135025094151496,-0.1980433227494359,0.005083422477822751
1634127123142286600,24.18728662109375,0.05118482831418514,-0.10439648628085851,-0.001366319917142391
1634127123162165500,24.20716552734375,0.03312017931342125,-0.006399345648288726,0.01067848427221179
1634127123182044200,24.227044189453125,0.019944471397995947,0.041807928159832954,0.03507131338119507
1634127123201923300,24.24692333984375,-0.017379004824161527,0.06002104572057724,0.02561111885756254
1634127123221802500,24.266802490234376,0.005473462975025177,0.06502630666196346,0.0038217502452433105
1634127123241681400,24.286681396484376,0.0015641805768013,0.04079378268122673,-0.013089929328113793
