time,seconds_elapsed,z,y,x
1634126244650834000,0.019833984375,0.17971242402791976,-0.03307107947468758,0.01676434352453798
1634126244670712800,0.039712890625,0.1852431701481342,0.06418868679404259,0.15277440394815056
1634126244690591700,0.059591796875,-0.02329495086967945,0.034383915638923644,0.07575801895875484
1634126244710471000,0.079470947265625,0.0469733480989933,0.10583850178271531,0.05677596285212785
1634126244730350000,0.09935009765625,0.026130466556549072,0.2922287961393595,0.02023943575657904
1634126244750229000,0.11922900390625,-0.04771218376755714,0.3427101523593068,0.1356409713828936
1634126244770108000,0.13910791015625,0.16546061131358145,0.5667161838829518,0.09873298062644899
1634126244789986800,0.15898681640625,0.08268705103695392,0.5215206591114402,0.29093682010006156
1634126244809866000,0.178865966796875,0.23681144482195376,0.3606839082062244,0.17022683933470398
1634126244829745000,0.198744873046875,0.3432745082437992,0.3837432967543602,0.299343742711097
1634126244849623800,0.218623779296875,0.474890133100748,0.2595020000576973,0.23709376889467237
1634126244869503000,0.2385029296875,0.431778721126914,0.2276326975882053,0.3018626667294651
1634126244889382000,0.2583818359375,0.24505378798842428,-0.09078063338249921,0.10363602330237627
1634126244909261000,0.278260986328125,0.28470833750665187,0.34284020847976204,0.34013347027171403
1634126244929140700,0.298140625,0.8168786931872367,0.2606111303433776,0.36498624504264443
1634126244949020000,0.31802001953125,0.6479635575056075,0.29121465066075325,0.3195330557156354
1634126244968899000,0.337899169921875,0.6115232938587665,0.45527562430948015,0.6507069379296153
1634126244988778000,0.357778076171875,-0.11445523121953009,0.3162392018020153,0.014282427048310637
1634126245008657000,0.377656982421875,-0.5092524214297532,0.9224629279479384,-0.8360546644307673
1634126245028535800,0.397535888671875,-0.013756722673773765,-0.11502630910575389,0.1739878723686561
1634126245048415000,0.4174150390625,0.091053312844038,-0.4406239986225962,0.9967818174816667
1634126245068294000,0.4372939453125,0.16118249560296535,-0.9431482808411121,0.44432712745685127
1634126245088172800,0.4571728515625,0.17223288192749023,-1.1605118056103587,0.32880375554915514
1634126245108052000,0.477052001953125,0.3632581426084041,-1.0462202405199408,0.4150256661813706
1634126245127931000,0.496930908203125,0.36433249384164806,-0.8307344923213124,0.30839521030336614
1634126245147810000,0.51681005859375,0.28246903414726254,-0.8248173772320151,0.09446317608645186
1634126245167689000,0.53668896484375,0.08881634757220745,-0.967548270343244,0.15669632663223892
1634126245187567900,0.55656787109375,-0.07156301495432853,-1.3011109473899005,0.3459877127252519
1634126245207446800,0.57644677734375,-0.2484732410430908,-1.5461170968443154,0.5079656330222264
1634126245227326000,0.596325927734375,-0.4035001366257667,-1.7314532059729097,0.4730178729554638
1634126245247205000,0.616205078125,-0.5265624526709318,-1.6009519720986485,0.5348401959443465
1634126245267083800,0.636083740234375,-0.6622399201393127,-1.3773860855579376,0.47318555767256765
1634126245286963000,0.655962890625,-0.5533464147001504,-1.0796394027799368,0.3673617054697126
1634126245306841900,0.675841796875,-0.24758652133643624,-0.8107765769198536,0.304926310350094
1634126245326723800,0.695723876953125,-0.08592179517447948,-0.5647118583232164,0.2961235020229593
1634126245346603800,0.715603759765625,0.3003296850085258,-0.4712091065004468,0.29595519625134764
1634126245366482700,0.735482666015625,0.592491845652461,-0.43869215377718207,0.40409587402921165
1634126245386361900,0.75536181640625,0.7623404627919197,-0.307436886665225,0.5657648014422506
1634126245406240800,0.77524072265625,0.7352052031069993,-0.5598913062989711,0.6619757893104106
1634126245426119700,0.79511962890625,0.49255906078219414,-0.5946113220244645,0.685415263217315
1634126245445998600,0.81499853515625,0.1976443865597248,-0.6361281582832337,0.5775038276180625
1634126245465877800,0.834877685546875,-0.033413609302043915,-0.758593092957139,0.44508587340228256
1634126245485757000,0.8547568359375,0.23886954639554023,-0.8008096019178629,0.6704736416079103
1634126245505635800,0.8746357421875,-0.21478432193100452,-0.8049500627234578,0.5390456482775509
1634126245525514800,0.8945146484375,-0.42151977744102476,-0.7333370711475611,0.4377479682622477
1634126245545393700,0.9143935546875,-0.9511527235984801,-0.509748972775042,0.40640718317888674
1634126245565272800,0.93427294921875,-1.2613076370507479,-0.4829653030067682,0.6024257221024483
1634126245585151700,0.95415185546875,-1.0813812780112027,-0.0031853520378470417,0.45645690651591864
1634126245605030700,0.97403076171875,-0.7757394580692052,0.6025938452109694,0.10165997398905456
1634126245624909800,0.993909912109375,-0.2297206097781658,1.0216010553091763,-0.09363971260804682
1634126245644788700,1.013788818359375,0.07124386600255966,1.3429706057369708,-0.08421809652913362
1634126245664668000,1.03366796875,0.77830434012115,1.0771887947574257,-0.06800919493027031
1634126245684546800,1.053546875,0.9332833049088716,0.861716782823205,-0.022538725674897432
1634126245704425700,1.07342578125,0.9705430682450532,0.7720312512010336,0.04875131755694747
1634126245724304600,1.0933046875,1.424215641272068,0.9596908348411322,-0.11408632484190165
1634126245744184800,1.113184814453125,1.7774480644285677,0.6628983840480447,-0.3394365375161171
1634126245764063700,1.133063720703125,1.7898060262203215,0.6050836162000894,0.2746542687430978
1634126245783942700,1.152942626953125,1.1055179404020308,0.7306985393375158,0.750583827894181
1634126245803821800,1.17282177734375,0.714123836633563,0.38409897832423445,0.9940135218121111
1634126245823701000,1.192700927734375,-0.007979308316111565,1.9451690218895672,-1.5884728681452571
1634126245843579600,1.21257958984375,-0.7272633041918277,1.4897276856243609,-0.20875205602943897
1634126245863458800,1.232458740234375,-0.674846888256073,0.7476499663993715,0.42824499404281374
1634126245883337700,1.252337646484375,-0.28586393728256226,0.2884410942941904,0.1224199264883995
1634126245903217000,1.272216796875,-0.48484921705722805,-0.36785745309740303,0.2697980608835816
1634126245923095800,1.292095703125,-0.4507786051511764,-0.4931806998118758,0.22634528812617064
1634126245942974700,1.311974609375,-0.19095394901037216,0.011944997076690196,-0.11081731310859322
1634126245962853600,1.331853515625,-0.010665770921111106,0.4839896776184439,-0.19671572740748525
1634126245982732800,1.35173291015625,0.2958411414176225,0.44127018757164477,-0.2895161761797964
1634126246002612000,1.371612060546875,0.30236849735975263,0.5128571679234505,-0.7805249387800693
1634126246022490600,1.39149072265625,0.3827537011951208,0.7717123945102096,-1.3056246254220605
1634126246042369800,1.411369873046875,0.5816577324271202,0.4035147496730089,-0.9154562640562653
1634126246062248700,1.431248779296875,0.531547255346179,-0.3597080489113927,0.0843354027658701
1634126246082128000,1.4511279296875,0.5478723672032356,-0.7918003660321236,0.37806788146644826
1634126246102006800,1.4710068359375,0.5431435851156712,-0.5224897964045405,0.09711977327615022
1634126246121886700,1.49088671875,0.38148411965072154,-0.5644178438127041,0.029845103165507314
1634126246141766000,1.510765869140625,0.5810819783657789,-1.1160618385091423,-0.06735036569535732
1634126246161644800,1.530644775390625,0.2589829446196556,-1.4282614095315336,-0.36819793709814547
1634126246181523700,1.550523681640625,-0.2209282315135002,-1.4081544410482048,-0.2774579279869795
1634126246201403000,1.57040283203125,0.21531857493817805,-1.3311170863360167,0.0968786579966545
1634126246221281800,1.59028173828125,0.24489888968765733,-1.5254356894738972,0.3947521820247173
1634126246241161000,1.610160888671875,0.43287411514818663,-1.7156772524312138,0.559679124853015
1634126246261039600,1.63003955078125,0.2421124738395214,-1.7689296807996928,0.8384305997818708
1634126246280918800,1.649918701171875,0.40527591412663455,-0.5547323161005974,0.17457564566135406
1634126246300797700,1.669797607421875,0.44416181735992427,-0.8048689603112638,-0.07807546558827161
1634126246320674600,1.689674560546875,-0.3310065628230572,-1.0190218524709342,0.174896548178792
1634126246340553700,1.7095537109375,-0.760032770371437,-0.9897715003281831,-0.05359773467481136
1634126246360432600,1.7294326171875,-0.8389210136473179,-0.9479054122403263,-0.3808203950449824
1634126246380311800,1.749311767578125,-0.9462006541490554,-0.6502589749664068,-0.6697974959120154
1634126246400190500,1.7691904296875,-1.0779168167710305,-0.6693447837084532,-0.5477569241300225
1634126246420069600,1.789069580078125,-1.0038362660378217,-0.6612403877079487,-0.36238252881765365
1634126246439948500,1.808948486328125,-0.8897142122954129,-0.519550381951779,-0.1253384442836046
1634126246459827700,1.82882763671875,-0.11846505138278007,-0.1655979739576578,-0.3892617679148912
1634126246479707000,1.848706787109375,0.47113341091573235,0.24634178197234868,0.18417291056811808
1634126246499585500,1.86858544921875,-0.6346650999933481,-0.08749182097017764,0.31148908466547726
1634126246519465700,1.8884658203125,-0.8172334979742765,0.18501725243777037,0.1644914740204811
1634126246539344600,1.9083447265625,-0.9793348619878292,-0.11883622278273105,-0.015253390972316264
1634126246559223600,1.9282236328125,-0.8516694360613822,-0.5042269944831729,-0.18699381320774555
1634126246579102700,1.948102783203125,-1.1431284168720244,-0.5587181708663702,-0.32028672362715005
1634126246598981600,1.967981689453125,-0.8123743675053119,-0.2609276489466429,-0.5950912144958973
1634126246618860800,1.98786083984375,-0.628657968533039,0.08328823180049658,-1.1157944197446108
1634126246638739700,2.00773974609375,-0.501916087192297,-0.029001053556799886,-1.835714083175361
1634126246658618600,2.02761865234375,0.2606511700928211,0.5018868610978127,-0.30882980232834817
1634126246678497500,2.04749755859375,0.3317740400642156,1.3468451090827585,-0.47287090223282574
1634126246698376700,2.067376708984375,1.563250017952919,1.4972075199857353,-0.32518969323784114
1634126246718255900,2.087255859375,2.0050188026964664,1.0534402549013495,0.8144514660403132
1634126246738134500,2.107134521484375,1.9223563015788792,0.39983781472593544,1.4191422835305332
1634126246758013700,2.127013671875,1.0635071831464766,-0.27270664180666204,1.3462658478900789
1634126246777892600,2.146892578125,0.06347849269807339,0.047747255080938335,0.2748205652207136
1634126246797771800,2.166771728515625,-0.4515419907391071,0.05499240390360355,0.2774044442340731
1634126246817650400,2.186650390625,-0.14362462708055973,0.3964917191684246,0.31476883698850866
1634126246837529600,2.206529541015625,0.4009416843146085,1.0318827953487635,0.061173138365149496
1634126246857408800,2.22640869140625,1.0696364796817301,1.0883838502496481,0.5617348883390426
1634126246877287700,2.24628759765625,-0.44512627847790714,1.6170336305886506,0.29603578720688817
1634126246897166800,2.266166748046875,1.4332856674343346,1.1528297266751528,0.483683680409193
1634126246917046500,2.286046630859375,1.9731606061428784,1.4048241275817155,0.6613514468669891
1634126246936925700,2.30592578125,2.6827403696060177,1.1576248519971966,0.0618611206293106
1634126246956804900,2.325804931640625,3.3159482565283773,1.1137345646053551,0.6644260320067406
1634126246976683500,2.34568359375,2.33345814538002,0.7513593423113226,0.7978466604590415
1634126246996562700,2.365562744140625,2.34323076685369,0.8137415642052889,1.138808215585351
1634126247016441600,2.385441650390625,3.424716089761257,0.9279907514587045,1.6122335368305443
1634126247036320800,2.40532080078125,4.716726908111572,1.244869127947092,1.1367968757629394
1634126247056199400,2.425199462890625,4.1715234678566455,0.26246494151651856,0.9174334093481302
1634126247076078600,2.44507861328125,4.126936722633243,1.5066221218019722,0.9770172326952219
1634126247095957800,2.464957763671875,3.893547068953514,2.299630694580078,0.8818126453906298
1634126247115836700,2.484836669921875,4.716414773422479,2.900219921970367,0.6327882002055645
1634126247135715800,2.5047158203125,4.336915690109134,3.5761627887696026,-0.1767605884850025
1634126247155594500,2.524594482421875,3.5382261490851636,4.002345297324657,-0.7159557282358407
1634126247175473700,2.5444736328125,3.289857537460327,5.030230547469854,-0.7975713506489992
1634126247195352600,2.5643525390625,3.207194744081795,5.87540302272737,-0.403225411337614
1634126247215231700,2.584231689453125,2.8032024400249123,6.222744049757718,-0.16109131018817424
1634126247235110700,2.604110595703125,1.9620809937238692,6.71150371825695,-0.028887071788311004
1634126247254989600,2.623989501953125,0.9475796874172985,7.485777195426821,-0.39913375810980795
1634126247274868700,2.64386865234375,-0.09353515625502913,8.379529869458079,-1.6355156282186507
1634126247294747600,2.66374755859375,-1.1734592577278613,9.046238459444046,-3.2490643393009897
1634126247314626300,2.683626220703125,-2.3591538737811146,9.273878755816817,-5.33326481526196
1634126247334505200,2.703505126953125,-3.911614932824671,9.085518914952873,-7.712099394938349
1634126247354384100,2.723384033203125,-5.874274310958385,8.250714688974618,-9.841363585984706
1634126247374263300,2.74326318359375,-7.3317889952421185,7.3462015514761205,-11.916016481399536
1634126247394142200,2.76314208984375,-8.378722644728422,5.1528848672360175,-12.33061785775423
1634126247414021400,2.783021484375,-9.331021031230687,2.4328514165461064,-11.137487100350857
1634126247433900000,2.802900146484375,-10.438154590135811,0.355046779102087,-10.05683822826743
1634126247453779200,2.822779296875,-10.219956075847149,-0.30967735906839366,-9.663273794722556
1634126247473658000,2.842658203125,-8.551140235573053,-1.0720429563015699,-9.269719298049807
1634126247493537300,2.862537353515625,-6.587434270995855,-2.612062320792675,-8.496784960529208
1634126247513416200,2.882416259765625,-5.71883591196537,-3.730369600141048,-7.110608250272273
1634126247533295000,2.902295166015625,-5.1489469432652,-3.827230722481012,-6.8899091513395305
1634126247553174300,2.92217431640625,-3.9830566594868895,-3.440110058248043,-7.123006544074416
1634126247573053200,2.94205322265625,-3.241479583260417,-3.273573342135548,-7.385680744427442
1634126247592932400,2.961932373046875,-2.3271605065405367,-3.0868846493542192,-7.3315265449136495
1634126247612811000,2.98181103515625,-1.2954621278479694,-3.2401129710823295,-7.330463884118199
1634126247632691200,3.001691162109375,-0.08247311602532863,-3.2035072877407074,-7.375482591018081
1634126247652570400,3.0215703125,1.2409879025995731,-2.777706471979618,-7.602754638600349
1634126247672449000,3.041448974609375,2.4037042325168847,-2.0041548793435098,-7.612050874733924
1634126247692328200,3.061328125,3.4160096362143753,-1.2947808675855397,-7.603693380755185
1634126247712207400,3.081207275390625,4.5679508896172045,-0.15129063166379927,-8.10876588615179
1634126247732086300,3.101086181640625,5.467664517879486,1.8517051407724618,-8.628463129228352
1634126247751965200,3.120965087890625,6.182814190429449,3.89484120041728,-9.16115312486887
1634126247771844000,3.140843994140625,7.111843345025181,6.177890762552619,-9.412581124064326
1634126247791723300,3.16072314453125,8.779392526364326,7.644009024530649,-7.861530662471056
1634126247811602200,3.180602294921875,9.048017159554362,7.729991025459766,-5.274694552871584
1634126247831481300,3.2004814453125,8.595358147484063,7.9256305019378654,-2.881551461857557
1634126247851360300,3.2203603515625,6.932903074413537,7.600277434831857,0.26053660380244253
1634126247871239200,3.2402392578125,8.471544720810652,8.759730379039048,0.9609078094154596
1634126247891118300,3.260118408203125,9.62801835694611,10.27700073610544,2.0209160445302725
1634126247910997200,3.279997314453125,8.436043199318647,9.98630397183895,2.3879279867142436
1634126247930876200,3.299876220703125,4.187152414143085,8.447475278437137,8.573678815117479
1634126247950756400,3.31975634765625,-4.555900970861315,7.268547233909368,14.813901822942494
1634126247970635300,3.33963525390625,-7.136921087658405,6.984859471622109,13.086488832271097
1634126247990514200,3.35951416015625,-3.088720632609725,11.801652435594796,0.1541430984854698
1634126248010393000,3.37939306640625,-1.046505194941163,8.833426898890734,0.105667529129982
1634126248030272300,3.399272216796875,-0.20159107835888862,4.094735411730408,-1.069220884618163
1634126248050151200,3.419151123046875,0.7738421000152825,4.159769024915993,0.0909796630859375
1634126248070030300,3.4390302734375,-2.400038988007605,3.7339983120322224,1.7729390625715256
1634126248089909200,3.4589091796875,-1.7535282596588133,1.1550959180414675,0.15904256096482275
1634126248109788200,3.4787880859375,0.5384621493011713,2.379049245340377,-1.3616297134995459
1634126248129667300,3.498667236328125,0.14753098686933516,0.8644412393510341,-2.4839655177116393
1634126248149546200,3.518546142578125,0.4515095497742295,-1.4663925488747656,-3.27131358051002
1634126248169425200,3.538425048828125,1.4514347798481584,-1.6497019744813441,-3.3684365686565636
1634126248189304000,3.558303955078125,2.3834637007817623,-1.237554713280499,-3.2313714462220666
1634126248209183200,3.578183349609375,3.1326307937458155,-1.090028987108171,-2.224342521622777
1634126248229062400,3.5980625,3.8139880868092177,-0.7497945772126317,-1.5647750355631111
1634126248248942000,3.617942138671875,4.453835850137472,-0.4129004176557064,-1.3592413570582866
1634126248268821200,3.6378212890625,4.89500666898787,0.022918226511776447,-1.119777351900935
1634126248288700200,3.6577001953125,4.923917706173658,0.5712915289744734,-0.9852280116796492
1634126248308579300,3.677579345703125,4.429129863426089,1.198766132941842,-0.6815934399068355
1634126248328458500,3.69745849609375,3.1674083848774433,1.9840303752034902,-0.02837912226617336
1634126248348337700,3.717337646484375,1.6393220347642898,2.835553680792451,0.17343407441079617
1634126248368216600,3.737216552734375,-0.5693804346561432,2.6746938412725925,0.5712579189658165
1634126248388095700,3.757095703125,-2.881777671828866,2.323670326337218,0.6365811627477407
1634126248407974400,3.776974365234375,-3.8276197217985986,2.2858640350341797,-0.817033006966114
1634126248427853600,3.796853515625,-4.511821298377216,1.0797557226359844,-0.8608008370220661
1634126248447732500,3.816732421875,-6.507897208422422,-0.38292818097919223,0.45938510545492167
1634126248467611600,3.836611572265625,-6.944763023555279,-1.0751238250516355,1.3839029201060533
1634126248487490600,3.856490478515625,-4.903959790772199,-1.326077046342194,0.5883353104948997
1634126248507369500,3.876369384765625,-3.248385417126119,-1.3624069814823567,0.10694938563406467
1634126248527248600,3.89624853515625,-1.9137530161455272,-1.7991072307899594,-0.2455406947225332
1634126248547128300,3.91612841796875,-0.9452692185178398,-1.9726897737607358,-0.3052262248784304
1634126248567007500,3.936007568359375,-0.09797112940847873,-1.8312018664479255,-0.6370353362560272
1634126248586886700,3.95588671875,0.5754702759638428,-1.5805463129296897,-1.0149655628174543
1634126248606765600,3.975765625,0.9862532630741596,-1.3905942344382405,-1.245777474963665
1634126248626644700,3.995644775390625,1.0304898796856403,-1.2451479448884726,-0.9314695334851741
1634126248646523400,4.0155234375,0.8072133314803243,-1.2639549366891383,-0.6411287430495023
1634126248666402600,4.035402587890625,0.39136195506453514,-1.2149243637993932,-0.5200485407322645
1634126248686281500,4.055281494140625,-0.2647577286288142,-1.004559611876309,-0.9329138870745897
1634126248706160600,4.07516064453125,-0.8137444868147373,-0.8005278623670339,-1.634476348298788
1634126248726039600,4.09503955078125,-1.2498469163596628,-0.8939452739939093,-1.8573738340586423
1634126248745918500,4.11491845703125,-1.373091895495355,-1.2490633647665381,-1.5945289533138274
1634126248765797600,4.134797607421875,-1.0803671325325965,-1.4482371528506277,-0.9692968675762414
1634126248785676500,4.154676513671875,-0.3009983780503273,-1.4085390564516187,-0.36789106310606
1634126248805556500,4.174556396484375,0.4670122393324971,-1.214573942926526,0.010412088420987129
1634126248825435600,4.194435546875,1.3306339789941906,-0.7769339285507798,0.12468494881093502
1634126248845314600,4.214314453125,1.9379191968917846,-0.3082064097329974,0.1456827286541462
1634126248865193700,4.23419384765625,2.2610949199587105,0.07942863376289605,0.1869517276316881
1634126248885072400,4.254072265625,2.327943181350827,0.3687225454941392,0.10276245533823966
1634126248904951600,4.27395166015625,2.338512213899195,0.6956590823993086,-0.04799509236216545
1634126248924830500,4.29383056640625,2.2338871795594692,0.9657888594552874,-0.276563609495759
1634126248944709600,4.313709716796875,1.8610256345644591,1.1052914381697774,-0.3077735712736845
1634126248964588500,4.333588623046875,1.3199407355442643,1.0940708098448813,-0.231163794323802
1634126248984467500,4.353467529296875,0.8674877674400806,1.1770888464018703,-0.20804303097724913
1634126249004346600,4.3733466796875,0.600216886946559,1.161271976327896,-0.0331353768825531
1634126249024225500,4.3932255859375,0.6943389397114514,1.2038140639811754,-0.046773441612720484
1634126249044104700,4.413104736328125,0.9339058207213878,1.1478279728651046,0.2448796004652977
1634126249063984600,4.432984619140625,1.1488283820793033,1.140397968994826,0.4546832113742828
1634126249083863600,4.452863525390625,1.617338751015067,1.2535466476604342,0.33892800347208973
1634126249103742700,4.47274267578125,1.9642834722042082,1.3595792107105253,0.12873159385323524
1634126249123621400,4.492621337890625,2.1582699207782743,1.2195821264773608,0.043135961893200875
1634126249143500500,4.51250048828125,2.228667399084568,1.020005602811277,0.03333879050016403
1634126249163379500,4.53237939453125,2.349328206945956,0.9299166049547493,0.028248773884773253
1634126249183258600,4.552258544921875,2.4714497350096702,0.898570887967944,-0.015536591827869414
1634126249203137500,4.572137451171875,2.6527240015268325,0.8556967918813229,-0.013878303226828575
1634126249223016400,4.592016357421875,2.609900758844614,0.8615373346030711,0.1371200674921274
1634126249242895600,4.6118955078125,2.1567980946600436,0.987406817023456,0.15758008719682692
1634126249262774500,4.6317744140625,1.8112977270603179,0.8849138262763618,0.06612403877079487
1634126249282653700,4.65165380859375,1.0646809031009674,0.785749395430088,0.14121172071993351
1634126249302532400,4.671532470703125,0.11085866803228854,0.9842217572465538,0.14096096082925796
1634126249322412800,4.691412841796875,-0.711949415203929,1.3914461750924587,-0.20997195321321485
1634126249342292500,4.71129248046875,-1.1940505025967956,1.5320403484359382,-0.6749257987111806
1634126249362171600,4.731171630859375,-1.9407471137940882,1.1615116303026676,-0.7103951714992522
1634126249382050800,4.75105078125,-2.6491297764271495,0.6372326123937964,-0.461741897714138
1634126249401929700,4.7709296875,-3.2694401878535744,0.1366752463340759,-0.3884001826494932
1634126249421808600,4.79080859375,-3.6362592378139493,-0.35286183627843853,-0.2978518967181444
1634126249441687600,4.8106875,-4.033825892737507,-0.8999377924069761,-0.1883680241703987
1634126249461566700,4.830566650390625,-4.4100800027802585,-1.6947864400938153,-0.026331542086601257
1634126249481445600,4.850445556640625,-4.3904368524163955,-2.588985688848793,0.08358487665951252
1634126249501324500,4.870324462890625,-3.5549966666221615,-2.6364523734226823,0.26991175039112564
1634126249521203700,4.89020361328125,-2.210774014997482,-1.7346508329704402,0.29189328057467934
1634126249541082600,4.91008251953125,-0.7644143464565276,-0.27664427351653575,-0.15313947440087794
1634126249560961800,4.9299619140625,0.38536329917162654,1.4456465518355368,-0.8762018197715282
1634126249580840700,4.9498408203125,0.8739329980567098,2.70147049677819,-1.5693033266425132
1634126249600719600,4.9697197265625,1.0447817321494222,3.315713863250613,-2.20262811794281
1634126249620599800,4.989599853515625,1.2100967975124717,3.075635525587201,-2.3684938029259444
1634126249640478700,5.009478759765625,1.259001990456879,2.088942994312942,-1.3730237986952065
1634126249660357600,5.029357666015625,1.2178241768941283,1.1724684931248426,0.048825697967410084
1634126249680236500,5.049236572265625,1.1407356765165924,0.6953735434561967,1.2999737600535153
1634126249700115700,5.06911572265625,1.180793253877759,0.3843193430766463,2.1942852370113135
1634126249719994600,5.08899462890625,1.0491659385830163,0.1957519969418645,2.6535487619131803
1634126249739873500,5.10887353515625,0.954347720247507,0.5217119438998401,2.9022949746787545
1634126249759752700,5.128752685546875,1.0169903466433285,1.216022972691059,2.7504572305262087
1634126249779631600,5.148631591796875,1.0511217488259077,2.0764413862667976,2.23194539784193
1634126249799510800,5.1685107421875,1.2785796743690967,2.774281758227944,1.482864229595661
1634126249819389700,5.1883896484375,1.6103955077484249,3.1876527160048482,0.7466057180434464
1634126249839268600,5.2082685546875,2.1035037268459797,3.2529853121370076,0.42118484639823434
1634126249859148800,5.228148681640625,2.4675398680895566,3.513070957301557,0.4984148010730743
1634126249879027700,5.24802783203125,2.6490701551944014,4.019763172854483,0.6433113477855921
1634126249898906600,5.26790673828125,2.1372589891925453,4.414852331748604,0.8830331270962953
1634126249918785500,5.28778564453125,1.1204027903228997,3.9677515383273363,0.8681593830913304
1634126249938664700,5.307664794921875,0.8795938002973794,2.6861656678795813,-0.43712709641754627
1634126249958544000,5.3275439453125,0.3561819206118583,1.5711309804610907,-0.6134101305186748
1634126249978422500,5.347422607421875,-0.9456626017495989,0.5523033353880048,-0.08232757007479667
1634126249998301700,5.3673017578125,-2.5785510963350533,-0.3799313372507691,0.28371055864095684
1634126250018180600,5.3871806640625,-3.773098734799027,-1.3319570442914963,0.08322130404412746
1634126250038059800,5.407059814453125,-4.031405095331371,-1.5491642094552516,-0.8609224175751209
1634126250057938700,5.426938720703125,-4.113809237773716,-1.7665230580493807,-1.695471207487583
1634126250077817600,5.446817626953125,-4.161366230979562,-2.107600640770793,-2.2090257100254296
1634126250097696800,5.46669677734375,-4.022956708198786,-2.279068383544683,-2.4606296503096816
1634126250117576700,5.48657666015625,-3.15848945762366,-2.008897982217371,-2.7518846329808233
1634126250137455600,5.50645556640625,-2.0150825160712,-1.8440604712381958,-2.6416332831919194
1634126250157334500,5.52633447265625,-0.9625666825383901,-1.852954264050722,-2.135814927864075
1634126250177213700,5.546213623046875,0.00827010795623064,-1.667578115172684,-1.315782154560089
1634126250197092900,5.5660927734375,0.680208707550168,-1.4631471372127531,-0.43770635761022564
1634126250216971500,5.585971435546875,1.0496697964519262,-1.361784611800313,0.29931787761747836
1634126250236850700,5.6058505859375,1.2961445571541785,-1.1856722580909729,0.9355793068915605
1634126250256729600,5.6257294921875,1.2000786768451333,-1.010697091718018,1.4458306762307882
1634126250276608800,5.64560888671875,0.8770704192996025,-0.873613556843996,1.7353548895865678
1634126250296487700,5.66548779296875,0.6406991194605827,-0.5854752448886632,1.6251730979025363
1634126250316369200,5.685369140625,0.4347855017274618,-0.27250074397102,1.306612175154686
1634126250336247800,5.705247802734375,0.26500030521303414,-0.11731573521718382,1.0528922656297683
1634126250356127000,5.725126953125,0.08477145609557628,-0.2483160046547651,0.8078665346920489
1634126250376007000,5.7450068359375,-0.012571020020544528,-0.449271561589092,0.617356237795949
1634126250395885800,5.7648857421875,0.23685265361517666,-0.710769703900069,0.37689153116345403
1634126250415765000,5.784764892578125,0.6651707128942013,-1.0377876354783773,0.16969138075113296
1634126250435644000,5.804643798828125,0.9465078204020857,-1.3324571027681231,0.048615270087122915
1634126250455523000,5.824523193359375,1.051109766127169,-1.506335413815081,-0.14767828638553618
1634126250475402000,5.844402099609375,1.0980530113488436,-1.6368366476893423,-0.37537528138160703
1634126250495281000,5.864281005859375,0.9211755184859037,-1.6666110237061977,-0.6045680678933858
1634126250515159800,5.884159912109375,0.4432794815674424,-1.633549296581745,-0.8948726179718971
1634126250535039000,5.9040390625,-0.2714224472150206,-1.3715633707538246,-1.146150395041704
1634126250554918100,5.923918212890625,-0.8783981607720255,-1.0514160555973648,-1.4829618447512387
1634126250574796800,5.943796875,-1.046854154509306,-0.6845832693725824,-1.846995647907257
1634126250594676000,5.963676025390625,-0.981380980862677,-0.42528585197627544,-1.630029890283942
1634126250614555000,5.983554931640625,-0.8174071009755134,-0.5841247070625424,-0.8359966506332158
1634126250634434800,6.003434814453125,-0.41007630014568563,-0.7326017426103353,-0.0962035352140665
1634126250654314000,6.02331396484375,0.2588315534502268,-0.6481979507833718,0.5078565831571817
1634126250674193000,6.04319287109375,0.7551590268552303,-0.5450152242064475,0.9725953245997428
1634126250694072000,6.063072021484375,1.196882803413272,-0.521804444488883,1.258858490332961
1634126250713951000,6.082950927734375,1.4237021387919784,-0.48005847564935683,1.3042092056661843
1634126250733830000,6.102829833984375,1.1652829655349255,-0.5201140071839094,1.203330079856515
1634126250753708800,6.122708740234375,0.8083312295943498,-0.5798720180541277,0.8237795586168766
1634126250773588000,6.142587890625,0.36677199594825505,-0.5978884439989924,0.3958925842314958
1634126250793467100,6.162467041015625,-0.2586231713965535,-0.7472770414337515,0.05143792629241943
1634126250813345800,6.182345703125,-1.0027753588080406,-0.9544108486115932,-0.21919453958868979
1634126250833225000,6.202224853515625,-1.7910130639225244,-1.2700196435555815,-0.46039223667085166
1634126250853103900,6.222103759765625,-2.327525540460646,-1.39641373437196,-0.8792185372442006
1634126250872983800,6.24198388671875,-2.375340307819843,-1.3860638975322246,-1.362746734830737
1634126250892863000,6.261863037109375,-2.0331867664299903,-1.2652382544979452,-1.8112644093126058
1634126250912742000,6.281741943359375,-1.2756857064932583,-1.160861641961336,-1.8397464074313639
1634126250932621000,6.30162109375,-0.4085129963517189,-1.0958525786951183,-1.3061989181786775
1634126250952500000,6.3215,0.27227204978168007,-1.0436913065642117,-0.6547177079409361
1634126250972379000,6.34137890625,0.8150657985463738,-0.8892989094927907,-0.14932196193933486
1634126250992258000,6.361258056640625,1.1339867867782711,-0.4523182358086109,0.01817629268169403
1634126251012137000,6.381136962890625,1.157816282916069,0.057279053536057466,0.18610826254487037
1634126251032016100,6.40101611328125,0.9653729721307754,0.4889283030644059,0.46462475967407224
1634126251051894800,6.420894775390625,0.7857131550729274,0.7417167769581079,0.608847937169671
1634126251071774000,6.44077392578125,0.6625654988318681,0.8979284984111785,0.7966367001473903
1634126251091652900,6.46065283203125,0.3737009184285998,1.1171902580171822,1.0910410867601632
1634126251111532800,6.48053271484375,0.030740006178617475,1.0883271516263484,0.9822299989074468
1634126251131412000,6.500411865234375,-0.3141735014438629,0.8102811946183442,0.7886480394810438
1634126251151291000,6.520290771484375,-0.6894482450604439,0.5034066180109977,0.6959001976788044
1634126251171170000,6.540170166015625,-0.9574415946096181,0.23579788386523723,0.6055950728535652
1634126251191049000,6.560049072265625,-1.0583762499988079,0.07734510548710823,0.2059878520131111
1634126251210927900,6.579927978515625,-1.0015236051812768,-0.0479731727913022,-0.18968553650975226
1634126251230807000,6.59980712890625,-0.7959329357922077,-0.21031185269206762,-0.4104109389275312
1634126251250686000,6.61968603515625,-0.4966615276649594,-0.3243614257201552,-0.48447395400404925
1634126251270565000,6.639565185546875,-0.206234227989614,-0.3759133337810635,-0.4596715211808681
1634126251290443800,6.65944384765625,0.10623509988486766,-0.42890988769233224,-0.4365846601039171
1634126251310323000,6.679322998046875,0.30721973678320647,-0.49386809755414723,-0.29649463689029215
1634126251330199000,6.699198974609375,0.4408496240720153,-0.4624430317208171,-0.14762451037168503
1634126251350078000,6.719077880859375,0.43471448231786486,-0.40482466322779653,0.030428456011414525
1634126251369958000,6.7389580078125,0.33364071071892976,-0.29118279421776533,0.1184071837157011
1634126251389837000,6.758837158203125,0.16126345188468694,-0.21389351057112216,0.18697627755105495
1634126251409716000,6.778716064453125,-0.023874796584248542,-0.09843640883266926,0.14728782576322555
1634126251429595000,6.798594970703125,-0.26938977234363554,-0.07497866861671208,0.16345336314439773
1634126251449473800,6.818473876953125,-0.4303659317195415,-0.04710398874133825,0.0982774188786745
1634126251469353000,6.83835302734375,-0.5268152583882212,-0.016494623205065725,0.1251513972789049
1634126251489232100,6.858232177734375,-0.4231625762119889,0.07204495325237512,0.08226268814504147
1634126251509111000,6.878111083984375,-0.30363749438226223,0.0939466961979866,0.09912439109683036
1634126251528990000,6.897989990234375,-0.1892734485775232,0.06629471916258335,0.16579495783448217
1634126251548868900,6.917868896484375,-0.03744271868765354,0.048863691890239716,0.13445172506570816
1634126251568748000,6.937748046875,0.0711719698101282,0.0247568401157856,0.09038637336790561
1634126251588627000,6.957626953125,0.08670213189721107,0.0015115736067295073,0.10606441949307918
1634126251608507000,6.9775068359375,0.0203735104650259,-0.09317483504265546,0.12271277195513247
1634126251628386000,6.997385986328125,-0.015156068077683448,-0.23981968672722576,0.13557049996256829
1634126251648265000,7.017264892578125,-0.13129969077557324,-0.33650954415351153,0.15069383481442927
1634126251668143900,7.037143798828125,-0.20947160247564314,-0.30904081473052497,0.03371756068468094
1634126251688022800,7.057022705078125,-0.2562599493965506,-0.23547259743362664,-0.15852116743922232
1634126251707902000,7.07690185546875,-0.2953954434767365,-0.24027736736685038,-0.16053192273974418
1634126251727781000,7.096781005859375,-0.26814854011088607,-0.22215718878656623,-0.17251637504398823
1634126251747660000,7.116659912109375,-0.09295183994174003,-0.15645546708106994,-0.1787047082901001
1634126251767539000,7.1365390625,0.07615121952742337,-0.14382248774021864,-0.15632278061211108
1634126251787417900,7.15641796875,0.143094465726614,-0.2395323942184448,-0.07391513103842735
1634126251807297000,7.176297119140625,0.12118833886682986,-0.27485446749031545,-0.041161446949839586
1634126251827176000,7.196176025390625,0.07029810958504676,-0.2818698992103338,0.041949966979026795
1634126251847056000,7.216055908203125,0.006295300751924514,-0.2391036474123597,0.06874386588037014
1634126251866935000,7.23593505859375,-0.05779051018953323,-0.1823334201812744,0.0784790779531002
1634126251886814000,7.25581396484375,-0.07760317190140485,-0.09299451003968714,0.10519698900878428
1634126251906692900,7.27569287109375,-0.08444587740302086,-0.029954116497933864,0.10620645831227302
1634126251926571800,7.29557177734375,-0.0585848754376173,-0.024086685769259927,0.10758592997193336
1634126251946451000,7.315450927734375,-0.039752456934750074,-0.07685264579504728,0.08161269980370998
1634126251966330000,7.335330078125,-0.021615034958720206,-0.061010641279816626,0.09231529560387133
1634126251986209000,7.355208984375,0.0018622867405414581,-0.12058394323289394,0.10914017367660998
1634126252006088000,7.375087890625,0.05059153859615326,-0.14363164134323597,0.06191840377449989
1634126252025966800,7.394966796875,0.09918225876390933,-0.14669190569669008,0.061028761458396905
1634126252045846000,7.414845947265625,0.13686170881688595,-0.14482581956386564,0.032764790004491805
1634126252065725000,7.434724853515625,0.09456190548688173,-0.17327946837097405,0.11945172433257102
1634126252085604900,7.45460498046875,0.0021007716715335844,-0.17043109320253133,0.07551438292860985
1634126252105484000,7.474484130859375,-0.021216975551843643,-0.17616291485279797,0.08590659760534763
1634126252125363000,7.494363037109375,-0.10882014794200658,-0.1714279952853918,0.08545067053139209
1634126252145241900,7.514241943359375,-0.16808686816394328,-0.13343114984631538,0.00030512042641639707
1634126252165120800,7.534120849609375,-0.15738398010283708,-0.07084025363773107,-0.0673906977057457
1634126252185000000,7.554,-0.11821312244832514,-0.09961889661550521,-0.01485620834827423
1634126252204879000,7.573879150390625,-0.07215776597708463,-0.15363485670238733,-0.004943886142969131
1634126252224758000,7.593758056640625,-0.023266893818974493,-0.14191080889999866,0.02998480389714241
1634126252244637000,7.613636962890625,0.0358519423648715,-0.15494184764772653,0.06293254925310611
1634126252264515800,7.633515869140625,0.09955255338102578,-0.1490831847473979,0.10856500413715839
1634126252284395000,7.65339501953125,0.16785452071279286,-0.1290405136719346,0.13776128800511359
1634126252304274000,7.67327392578125,0.20368717385530472,-0.07792524346262217,0.22671149109005928
1634126252324153300,7.6931533203125,0.18407821802198887,-0.03882891234904527,0.21770926946699617
1634126252344032500,7.713032470703125,0.14151567210257052,-0.07452566415220499,0.20183014781177042
1634126252363911700,7.73291162109375,0.082860361777246,-0.0365142056658864,0.1466021815866232
1634126252383790600,7.75279052734375,0.0059349430069327355,-0.041592531843483445,0.0880862797319889
1634126252403669500,7.77266943359375,-0.07853869918584823,-0.04219488165080547,0.14613924024999142
1634126252423548400,7.79254833984375,-0.1120896711319685,-0.03465951770991087,0.17894553130865096
1634126252443427600,7.812427490234375,-0.13387421743869782,-0.06161094526052475,0.22087737810909747
1634126252463306500,7.832306396484375,-0.14412760816663503,-0.06402940457910299,0.1918313163667917
1634126252483185400,7.852185302734375,-0.15356237598806619,0.03891162219643592,0.12841186037957666
1634126252503064600,7.872064697265625,-0.15642039576768874,0.05946107375025749,0.060680386412143704
1634126252522943500,7.891943603515625,-0.15397124904990195,0.007864742025732993,0.06337853945493697
1634126252542822700,7.91182275390625,-0.13382394855618476,-0.011597206552326678,0.09328735550642013
1634126252562702600,7.93170263671875,-0.11670067205876111,-0.04303454734534025,0.031654198414087294
1634126252582581500,7.95158154296875,-0.1159147823780775,-0.11547639096081257,0.04584580537378788
1634126252602460700,7.971460693359375,-0.09465367542356252,-0.11910510285198687,-0.01649403868317604
1634126252622339600,7.991339599609375,-0.12715659962147474,-0.04065466647148132,-0.02078092222213745
1634126252642218500,8.011218505859375,-0.049077042379975316,-0.026736323495209217,-0.051690439748764035
1634126252662097400,8.031097412109375,0.06924947731494903,-0.06023848786354065,0.02818915265202522
1634126252681976600,8.0509765625,0.09552812017053365,-0.07776449994295835,0.21422902613580225
1634126252701855500,8.07085546875,0.1244324353545904,-0.02053133137524128,0.24635025753974912
1634126252721734400,8.090734375,0.11743483155220746,0.025574878500401972,0.23950725977718829
1634126252741613600,8.110613525390624,0.08634498902261256,0.10079846178889273,0.24445816018283364
1634126252761492500,8.130492431640626,0.0073047700554132455,0.12775222742706535,0.25863164696395397
1634126252781371600,8.15037158203125,-0.08684124810695648,0.11865677456259727,0.21307108827233312
1634126252801251600,8.17025146484375,-0.15277005656659604,0.08221183474063873,0.14578443546295164
1634126252821130500,8.190130615234375,-0.25641981613337994,0.007832593321800231,0.06656184566617011
1634126252841009700,8.210009765625,-0.2994786211371422,-0.035168928536772726,-0.03780512225925922
1634126252860888600,8.229888671875,-0.29702129111289977,-0.09381225616335868,-0.09107435563206673
1634126252880767500,8.249767578125,-0.2606941324517131,-0.15919044500291346,-0.062352119016647334
1634126252900646400,8.269646484375,-0.19693594602942466,-0.21748978149741888,-0.06261749195456505
1634126252920525600,8.289525634765624,-0.15455314059108494,-0.216476805062592,-0.03294073109328747
1634126252940404700,8.30940478515625,-0.1032405942440033,-0.17331921585947274,-0.055255438753962514
1634126252960283400,8.329283447265626,-0.09423135835826396,-0.12815934692323208,-0.02534311557114124
1634126252980162600,8.34916259765625,-0.06427694959938526,-0.05973112286329269,-0.01108604215979576
1634126253000041500,8.36904150390625,-0.018598317486047743,-0.03620645489096641,0.015231471401453017
1634126253019921700,8.388921630859375,-0.013847323566675186,-0.005124211145937443,0.0684492668479681
1634126253039800600,8.408800537109375,-0.08328121753782033,-0.010856617318093776,0.12916238648593426
1634126253059679500,8.428679443359375,-0.10554887118637561,-0.06860504193156958,0.1534901875346899
1634126253079558700,8.44855859375,-0.0720434919476509,-0.07073065578341484,0.13782324732542037
1634126253099437600,8.4684375,-0.14054799611419438,-0.07388210555166005,0.07021627652049064
1634126253119316500,8.48831640625,-0.14301380170583725,-0.10211480508446692,0.01893792470395565
1634126253139195400,8.5081953125,-0.024807985781133173,-0.13917466193437575,-0.013597732719779014
1634126253159074600,8.528074462890626,-0.015681260995566843,-0.2214528399094939,0.04967442375123501
1634126253178953700,8.54795361328125,-0.003347556862235069,-0.24855448958575724,0.054642859813570976
1634126253198832400,8.567832275390625,-0.03218845142126083,-0.21904490198493,0.01917173345983028
1634126253218711600,8.587711669921875,-0.10764145955145359,-0.18106266959309578,0.054928691017627713
1634126253238591500,8.607591552734375,-0.23191490495204925,-0.1069584457233548,-0.016601006188988684
1634126253258470700,8.627470703125,-0.3346186158403754,-0.024792788212001322,-0.012496493479609488
1634126253278349600,8.647349609375,-0.3896642112359404,0.0423699459567666,-0.05339899723231792
1634126253298228500,8.667228515625,-0.4041539243593812,0.044082595093548296,-0.04168167143166065
1634126253318107400,8.687107421875,-0.31434681218415494,-0.009589666122198104,0.024040216279029844
1634126253337986300,8.706986328125,-0.17816197971552608,-0.06861556332558393,0.07273322777748108
1634126253357865200,8.726865234375,0.009134908092021941,-0.11433160483986139,0.13126958789825438
1634126253377744400,8.746744384765625,0.18810089766681193,-0.16227964318990706,0.17235037082731722
1634126253397623300,8.766623291015625,0.30267712491750715,-0.19882395173311232,0.2009983731627464
1634126253417502500,8.78650244140625,0.32318682898283,-0.24432605823576448,0.2201701066225767
1634126253437381400,8.80638134765625,0.25353403156399723,-0.2156482452839613,0.10164251139760017
1634126253457261300,8.82626123046875,0.15246932005435226,-0.20684329979866742,0.09443243388831615
1634126253477140500,8.846140380859374,0.07906856827884912,-0.1888359339430928,0.04177753302156925
1634126253497019400,8.866019287109374,0.1294827044814825,-0.13516659533679484,0.017002572727203367
1634126253516898300,8.885898193359376,0.05746463923603296,-0.14083207375258205,0.043293198281526564
1634126253536777200,8.905777099609375,0.06344868208169936,-0.1414244866877794,0.07819500031471252
1634126253556656400,8.925656494140625,0.08243161497116089,-0.09037702101767063,0.05563596250414848
1634126253576535300,8.945535400390625,0.03975450276136398,-0.035412089642882345,0.0440408017784357
1634126253596414200,8.965414306640625,-0.03612432956546545,-0.006259937177598476,0.007477788534760475
1634126253616293400,8.98529345703125,-0.028440789325535294,0.0321072028785944,-0.030720716956257818
1634126253636172300,9.00517236328125,-0.044537060862779615,-0.02141395942866802,-0.006525017854571342
1634126253656051500,9.025051513671874,-0.07043488770723343,-0.10952595812380313,0.016274258452653883
1634126253675931100,9.04493115234375,-0.015158990687131882,-0.09829261644780635,0.010336685097217559
1634126253695810300,9.064810302734376,0.107002869386971,-0.09211743494421243,-0.024914661026000977
1634126253715689500,9.084689453125,0.2446028293505311,-0.1006800961062312,-0.005445405924320221
1634126253735568400,9.104568359375,0.3610378362104297,-0.09429828611463308,0.028258126235008237
1634126253755447300,9.124447265625,0.3562134847939014,-0.06515548599958419,0.04198796090185642
1634126253775326200,9.144326171875,0.28770459671318527,-0.055097617843747136,0.0017325228810310363
1634126253795205400,9.164205322265625,0.19202800798267125,-0.036842122446000575,-0.016381810480356217
1634126253815084300,9.184084228515625,0.0950903132751584,-0.024024141927063463,0.014969021072983741
1634126253834963200,9.203963134765624,0.010740589722990988,-0.06058510934412479,0.006193009421229362
1634126253854842400,9.22384228515625,0.0089449384778738,-0.10401508574783802,0.055148471248149866
1634126253874721300,9.24372119140625,0.050398061850666996,-0.10601239704489707,0.08725742769241332
1634126253894600400,9.263600341796876,0.07906652245223522,-0.09398702820837497,0.09368892204463482
1634126253914480400,9.28348046875,0.10835574530065059,-0.10077683447897434,0.09503098430335521
1634126253934359300,9.303359375,0.12131430333405732,-0.04743833526223898,0.05785422307550907
1634126253954238500,9.323238525390625,0.1348240655094385,-0.03423223220854998,0.0314490312308073
1634126253974117400,9.343117431640625,0.11657090819925069,-0.05723287630677223,0.04300269090235233
1634126253993996300,9.362996337890625,0.11086334420740604,-0.059305590927600856,0.06492284628748893
1634126254013875200,9.382875244140624,-0.00004939209967851639,-0.08767799119204282,0.06705810475051403
1634126254033754400,9.40275439453125,-0.0658656800955534,-0.06213058522045612,0.05869651911854744
1634126254053633300,9.42263330078125,-0.05626198544800281,-0.0674906509488821,0.1219797815054655
1634126254073512200,9.44251220703125,-0.10605331357717514,-0.03568330779969692,0.11142506974339485
1634126254093391400,9.462391357421875,-0.09360767350196837,-0.009679097971320152,0.07245616440176963
1634126254113270300,9.482270263671875,0.022591186514496802,0.05478197602331638,0.02354161910712719
1634126254133150500,9.502150390625,0.09089081575870514,0.015238485664129256,0.06433481726646423
1634126254153029400,9.522029296875,0.10911708506196736,-0.04512216727435588,0.08347440202236175
1634126254172908300,9.541908203125,0.11126461848467588,-0.045936114005744454,0.11580313869714737
1634126254192787500,9.561787353515625,0.03766717509329319,-0.07469020706415176,0.12447919710576534
1634126254212666400,9.581666259765624,-0.006921031434834003,-0.05722498526126146,0.10163958878815174
1634126254232545300,9.601545166015624,-0.10174889438152313,0.000633037206530571,0.08367547755241393
1634126254252424200,9.621424072265626,-0.1321086690708995,0.042430736233294006,0.04146481381058693
1634126254272303400,9.641303466796876,-0.1333949094891548,0.058175125592947005,0.06900105551183223
1634126254292182500,9.6611826171875,-0.11267390076071024,0.015633330200612545,0.10144903465211391
1634126254312061200,9.681061279296875,-0.051609775727987285,0.011299392649531365,0.07667173627018928
1634126254331940900,9.70094091796875,-0.017206570866703987,-0.012097849550843238,0.06971592578291892
1634126254351821000,9.720821044921875,-0.00653729281425476,-0.04615063353925943,0.09546820667684078
1634126254371699700,9.74069970703125,0.0221402278766036,-0.05534750095158815,0.12253975347578525
1634126254391579000,9.760578857421875,0.05235036496222019,-0.018239713306725025,0.11915478721261023
1634126254411457800,9.780457763671874,0.07674830863773822,0.022155717706680296,0.054037879657745355
1634126254431337000,9.8003369140625,0.09113163877725601,0.04872954411655664,0.0534042579293251
1634126254451216000,9.8202158203125,0.06520633940398693,0.0030339608684182167,0.11355565203130244
1634126254471094800,9.8400947265625,0.03912847981750965,-0.07128828966617584,0.1567360375881195
1634126254490973700,9.8599736328125,0.034542905592918394,-0.1040790908947587,0.12869067732095718
1634126254510852900,9.879852783203125,-0.00886135184764862,-0.11739508406370877,0.18921674995422363
1634126254530732000,9.89973193359375,-0.0020955109745264054,-0.1427124806717038,0.1280839435994625
1634126254550610700,9.919610595703125,-0.006040156947076321,-0.10760726502090692,0.17003507962226866
1634126254570491000,9.939490966796875,-0.12802782949805258,-0.06462649368941784,0.12847265065610408
1634126254590370000,9.9593701171875,-0.1205661153152585,-0.012782909205555915,0.0175239662528038
1634126254610248700,9.979248779296874,-0.03998772699534893,0.010769523556530476,-0.005557049605250358
1634126254630127900,9.9991279296875,-0.007380173379182815,-0.06062602587640285,0.01542962432205677
1634126254650006800,10.0190068359375,0.014779051458835601,-0.11046440801769494,0.09650690207481384
1634126254669886000,10.038885986328125,0.02927811693251133,-0.1374076522618532,0.16037585539519786
1634126254689764900,10.058764892578125,0.04382014476507902,-0.08907675207406282,0.14839374117851256
1634126254709643800,10.078643798828125,0.08307283548414707,-0.04487345321029424,0.16084288838505745
1634126254729523000,10.09852294921875,0.04414806154519319,-0.012208616448938846,0.17363456541895866
1634126254749401900,10.11840185546875,0.02558160050213337,0.030327333724498747,0.16250526863932607
1634126254769281000,10.138281005859374,-0.02139993090331554,0.034540567505359644,0.14266075048446655
1634126254789160700,10.15816064453125,-0.04273001144081354,0.03551818036586046,0.06589081453680992
1634126254809040000,10.178039794921874,-0.03269201702922583,0.06823620861917734,0.01830488749742508
1634126254828919000,10.1979189453125,-0.021697744806110857,0.05453384648114443,-0.006724339818954468
1634126254848797700,10.217797607421875,-0.052800739078223705,-0.02324614329189062,-0.026198271095752713
1634126254868676900,10.2376767578125,-0.03930938934236765,-0.04081599451303482,0.01547054085433483
1634126254888555800,10.2575556640625,0.033175708892941476,-0.021704466807842254,0.011793313646316528
1634126254908435000,10.27743505859375,0.014720014747977257,-0.016927753925323485,0.013200842356681824
1634126254928313900,10.29731396484375,0.00032207156121730803,-0.02640636088848114,0.025131518647074698
1634126254948192800,10.31719287109375,0.0012704583272337912,-0.045027766989171505,0.07566986575126647
1634126254968072000,10.337072021484374,0.019283669401705263,-0.05643529618829488,0.06024199499487876
1634126254987951900,10.356951904296874,0.008184183238446711,-0.03649900809675455,0.08664251066446303
1634126255007830800,10.376830810546876,0.028790333415567873,-0.02125409269183874,0.056817865765094754
1634126255027709700,10.396709716796876,0.08583060975968837,-0.004307049544155598,0.08005553348958491
1634126255047588900,10.4165888671875,0.1488975990474224,0.011167875224351882,0.13884323802292345
1634126255067468000,10.436468017578125,0.10261807843148708,0.0229354699075222,0.08560439978837966
1634126255087346700,10.4563466796875,0.1160673425912857,0.06698124012202024,0.02902092730104923
1634126255107225900,10.476225830078125,0.12901187209933995,0.04929711487144232,0.02810848863124847
1634126255127104800,10.496104736328125,0.10777093115001916,-0.027448271156847476,0.05962064822614192
1634126255146984000,10.51598388671875,0.08062456554919481,-0.03718611357808113,0.1057844335079193
1634126255166862800,10.53586279296875,0.08086305048018694,-0.02725070275813341,0.09792086052596569
1634126255186741800,10.55574169921875,0.12770546567589044,-0.04414075502157211,0.08287292899787425
1634126255206621000,10.575620849609376,0.15736556766331194,-0.07460369782447815,0.12328852601647376
1634126255226500900,10.5955009765625,0.14645283624380825,-0.09631313306838274,0.14266016596257686
1634126255246379800,10.6153798828125,0.11331482901275157,-0.06795826846063137,0.09434534012675284
1634126255266258700,10.6352587890625,0.025930852331221103,-0.04987257667183876,0.06958733096718787
1634126255286137900,10.655137939453125,-0.021150340056419373,-0.02281739648580551,0.06840075153112411
1634126255306017000,10.67501708984375,-0.109233404918015,0.011579378634691238,0.04552548737823963
1634126255325895700,10.694895751953124,-0.12457155156433582,-0.014561609315872191,0.03424246134161949
1634126255345774800,10.71477490234375,-0.1998369281679392,-0.02518850953131914,0.04755436285734176
1634126255365653800,10.73465380859375,-0.18898045698031782,-0.004970189628005027,0.07685176901221275
1634126255385533000,10.754532958984376,-0.14247019634842872,-0.007696691982448101,0.024131986215710638
1634126255405411800,10.774411865234375,-0.08589782977700233,-0.0405728334069252,0.03353577437698841
1634126255425291800,10.794291748046875,-0.03650076166242361,-0.035679508407413955,0.038976504126191136
1634126255445171000,10.8141708984375,-0.04525134661197662,-0.03209668148458004,-0.00040624271333217617
1634126255465049900,10.8340498046875,-0.005582768568396568,-0.04490267930477857,-0.0300070157289505
1634126255484928800,10.8539287109375,0.01216273148059845,-0.06072188746631145,-0.04254384121894836
1634126255504807700,10.8738076171875,0.00556523291170597,-0.1087473749667406,-0.02691664849817753
1634126255524686800,10.893686767578124,0.03332067032158375,-0.1264136722996831,-0.003586626315116882
1634126255544565800,10.913565673828124,-0.004081716355681419,-0.103906949198246,0.022128245177865026
1634126255564444700,10.933444580078126,-0.11908201423734426,-0.08137158452421427,-0.015763970842957494
1634126255584323800,10.95332373046875,-0.13791297143548725,-0.04514642493277788,-0.053257542935013766
1634126255604202800,10.97320263671875,-0.09253478357344866,-0.02483779639750719,-0.015442483803629874
1634126255624082000,10.99308203125,-0.04854541972130537,-0.08393120587915182,0.06733166099488735
1634126255643961600,11.012961669921875,0.035730946333706375,-0.06929536228328943,0.09130524177849292
1634126255663840800,11.0328408203125,0.10983166307210922,-0.022864158236980438,0.08427461248934269
1634126255683720000,11.052719970703125,0.17889613920897243,-0.047400049078464505,0.01673193909227848
1634126255703598800,11.072598876953125,0.2211503498315811,-0.055660220162570474,-0.02517711135447025
1634126255723477800,11.092477783203124,0.19055998125672338,-0.115997784486413,-0.03952186304926872
1634126255743356700,11.112356689453126,0.15342705917060373,-0.1523667364627123,-0.038785949990153314
1634126255763235800,11.13223583984375,0.1035538979768753,-0.1929600281357765,-0.027751930278539658
1634126255783114800,11.15211474609375,0.09316314460486173,-0.17778087144345045,-0.006083703827857971
1634126255802993700,11.17199365234375,0.06862053176164627,-0.12356675843596458,0.04731178627312183
1634126255822872800,11.191872802734375,0.11095189927369356,-0.05952157176584005,0.06234744284152984
1634126255842751700,11.211751708984375,0.0708431762471795,-0.029543489870429037,0.1058586677879095
1634126255862631700,11.231631591796875,0.09854629894793034,0.011567688196897507,0.13002046461999417
1634126255882510800,11.2515107421875,0.08885024984180927,0.050773909425735474,0.14812076945602892
1634126255902389800,11.2713896484375,0.07783347352594137,0.05251520013511181,0.12371522699594496
1634126255922269000,11.29126904296875,0.04888298111259937,0.03470072650313377,0.06604279022812842
1634126255942147800,11.31114794921875,0.006823416279256343,0.008692132760584354,0.061816696965694425
1634126255962026800,11.33102685546875,0.003496609944105148,-0.050124505606293675,0.0024777882903814314
1634126255981905700,11.35090576171875,0.025732991671562195,-0.11064940919578074,-0.00007306523621082306
1634126256001784800,11.370784912109375,0.004496726897358894,-0.11141279478371142,-0.008793547308444977
1634126256021664000,11.3906640625,0.035435470518469805,-0.17879881631433964,0.034957331612706186
1634126256041542700,11.410542724609375,0.027844284737110137,-0.1845949353724718,0.07390811677575111
1634126256061422800,11.4304228515625,-0.01805208178013563,-0.08551964411437511,0.027460838377475736
1634126256081301800,11.4503017578125,0.0031038112342357633,0.006993804410099983,-0.03715805652737617
1634126256101180700,11.4701806640625,0.052797231946885584,0.04368044403344393,-0.017530980515480042
1634126256121059800,11.490059814453126,0.0986237480983138,0.004174947597086429,0.13995967483222485
1634126256140938800,11.509938720703126,0.11998363925218582,0.000315057298541069,0.20000702403783796
1634126256160818000,11.52981787109375,0.11413140609264373,0.024183424142003057,0.22636896126270292
1634126256180696800,11.54969677734375,0.10152122310549021,0.03933481604456901,0.19155542203485965
1634126256200575700,11.56957568359375,0.07800006226450204,0.06298983239829539,0.1746218228906393
1634126256220454700,11.58945458984375,0.0771174342110753,0.10311053812354802,0.12200491594672203
1634126256240333800,11.609333740234375,0.024332477223873137,0.10686024604588747,0.07385317171812057
1634126256260213800,11.6292138671875,-0.00322159239500761,0.051342356963455675,0.07275543960928917
1634126256280092700,11.6490927734375,-0.04858195233941078,0.030076573833823204,0.06174830790460109
1634126256299971800,11.668971923828124,-0.062411155727505684,0.012876432707905769,0.07029986315071582
1634126256319850200,11.688850341796876,-0.043322424376010894,-0.0030450667843222616,0.06867430777549743
1634126256339729400,11.7087294921875,-0.039061552061140536,0.0017205401822924613,0.12005611996650695
1634126256359608000,11.728608154296875,-0.034141923576593396,0.030312428416311737,0.14785948817133904
1634126256379487200,11.7484873046875,-0.010976736566424368,0.06796966663748026,0.18659166214764117
1634126256399366100,11.7683662109375,0.04249854077249765,0.10267945322990417,0.1541606341421604
1634126256419245300,11.788245361328125,0.08397533728182316,0.11681845321953296,0.15859715528488158
1634126256439124200,11.808124267578124,0.11027882231771945,0.059492637932300564,0.1564706646502018
1634126256459003100,11.828003173828124,0.13890987351834774,0.0037111294776201245,0.16822715341746805
1634126256478883300,11.84788330078125,0.08719079219698905,-0.021619126611948012,0.10475801306962966
1634126256498762200,11.86776220703125,-0.021444939088821408,-0.03056289604604244,0.026711481314897537
1634126256518641200,11.88764111328125,-0.10257949998676777,-0.0676519789904356,0.05071019653975963
1634126256538520000,11.90752001953125,-0.15881284386217592,0.014265841239690779,-0.01847732145488262
1634126256558399200,11.927399169921875,-0.16923779176473616,0.046395255950093264,-0.07908698071837425
1634126256578278400,11.9472783203125,-0.05040566063523292,0.00012508768439292906,-0.014468085813522338
1634126256598157000,11.967156982421875,0.07173018821477889,-0.07529577174186707,0.11715338426232337
1634126256618036200,11.9870361328125,0.16788754619956014,-0.08210954340994357,0.22343115424513815
1634126256637915100,12.0069150390625,0.2045195330262184,-0.04865735566318035,0.2814092959612608
1634126256657794300,12.026794189453126,0.1764750495418906,0.027554654140770435,0.25716975771784784
1634126256677674200,12.04667431640625,0.11418459758460521,0.04409633135795593,0.2734837636590004
1634126256697553200,12.06655322265625,0.08507716104388237,0.09009148207455873,0.19586744001507758
1634126256717432300,12.086432373046875,-0.03545359069705009,0.13595131597369908,0.12003975335359572
1634126256737311200,12.106311279296875,-0.0763484956651926,0.1305494569301605,0.04902151280045509
1634126256757190100,12.126190185546875,-0.11572481276392936,0.05646072289049625,0.03285539089739323
1634126256777069000,12.146069091796875,-0.11572539728581904,-0.001928337714076042,0.04888824180960655
1634126256796948200,12.1659482421875,-0.09607172552794217,-0.10996347275823354,0.04345452632308006
1634126256816827400,12.185827392578124,-0.03799509187340736,-0.17251929765343665,0.08043605723977089
1634126256836706000,12.2057060546875,0.008530804719030857,-0.16835399466753004,0.06853343800008296
1634126256856585200,12.225585205078126,0.027623919984698295,-0.15311317091584203,0.011836568266153334
1634126256876465400,12.24546533203125,0.05006342306882143,-0.06870996361076831,-0.02127192060947418
1634126256896344000,12.265343994140625,0.030495968289673325,-0.04935498253852129,-0.043599487751722336
1634126256916223200,12.28522314453125,0.029784020628035066,-0.040379064400494095,-0.07569675375819206
1634126256936102100,12.30510205078125,0.016779577626287935,-0.08837766389399766,-0.03764554778337478
1634126256955981300,12.324981201171875,-0.017252748095989225,-0.1138645718500018,0.017287234887480733
1634126256975860200,12.344860107421875,-0.028988778597116467,-0.0889604322180152,0.02441080315709114
1634126256995739100,12.3647392578125,0.022216800244152544,-0.08753829046040773,0.05179390012323856
1634126257015618000,12.3846181640625,0.1079176461443305,-0.04117985938936472,0.11181669940948485
1634126257035497200,12.404497314453126,0.09544628710597752,-0.005949263793230056,0.1295744744181633
1634126257055376400,12.42437646484375,0.12457301286906003,0.03286094385534525,0.06672609631717205
1634126257075256000,12.444256103515626,0.15382161144614218,0.0012000234395265579,0.09196516699194908
1634126257095135200,12.46413525390625,0.11334113249778748,-0.03742576755285263,0.1462532220184803
1634126257115014400,12.484014404296875,0.0510907202899456,-0.02496113051623106,0.13209025663137436
1634126257134893000,12.50389306640625,-0.001420095930993557,0.018000351592898367,0.11124503700137138
1634126257154772200,12.523772216796875,-0.005482523064315319,0.04995148712694645,0.09643617492616176
1634126257174651100,12.543651123046875,-0.016253800186514854,0.031051556345820425,0.0814811823785305
1634126257194530300,12.5635302734375,-0.07286357615888119,0.03765139300227165,0.06045242287516594
1634126257214409200,12.5834091796875,-0.08794014925956725,0.05183452439457178,-0.014589666366577148
1634126257234288000,12.6032880859375,-0.10536825392246246,0.013543372184038161,-0.03025485301017761
1634126257254167300,12.623167236328126,-0.10117752423435449,-0.06427431925088167,-0.019342998373508453
1634126257274047200,12.643047119140626,-0.08708031755983829,-0.08152852865159511,0.02428220834136009
1634126257293926100,12.662926025390625,-0.025487200216948985,-0.11242080278247595,0.029711832174658774
1634126257313805000,12.68280517578125,0.0042865912780165666,-0.09096212742924689,0.07299918523728847
1634126257333684500,12.7026845703125,0.0213429400190711,-0.01539952144473791,0.07337795542180538
1634126257353563400,12.7225634765625,0.07085720477253198,0.015987842726707457,0.09622165539264678
1634126257373442300,12.7424423828125,0.09055471567213534,0.006288578750193119,0.0962514660090208
1634126257393321500,12.762321533203124,0.09358750749677419,0.018005612289905548,0.09270108005106449
1634126257413200400,12.782200439453124,0.07747077769339084,0.0025040917754173275,0.0951408744186163
1634126257433079600,12.80207958984375,0.029525661952793596,-0.00788490803092718,0.0875812528192997
1634126257452958500,12.82195849609375,-0.03560673543214798,-0.006996142497658729,0.0645890842884779
1634126257472838400,12.84183837890625,-0.07941197488903999,-0.012469605472683906,0.039109190595149994
1634126257492717600,12.861717529296875,-0.0649792526498437,-0.03280044583976269,0.04697393262088299
1634126257512596500,12.881596435546875,-0.07959288441389799,-0.007013385893404484,0.04134440230131149
1634126257532475400,12.901475341796875,-0.09723463182747363,0.0028738018706440925,-0.024518939706683156
1634126257552354300,12.921354248046875,-0.03263210353553295,0.021713526897132397,-0.021429741519689557
1634126257572233500,12.9412333984375,0.03812544025480747,-0.038756431634724135,0.03987666783630848
1634126257592112400,12.9611123046875,0.07524842546880245,-0.058549219602346415,0.08636194015741348
1634126257611991300,12.9809912109375,0.10509762028753757,-0.017492109809815883,0.10508885245919226
1634126257631870500,13.000870361328126,0.10477233385592699,-0.001998188079893589,0.09660685531795024
1634126257651749400,13.020749267578125,0.12381430345624685,-0.014578560450673102,0.05209142176508903
1634126257671629300,13.04062939453125,0.09515841007530688,-0.04979600430428981,0.01186637888252735
1634126257691508200,13.06050830078125,0.05780395419299602,-0.032995676150918,0.02716565482318401
1634126257711387400,13.080387451171875,0.04990414085388183,-0.058738312433660025,-0.00938157632946968
1634126257731266600,13.1002666015625,0.020564941383898257,-0.07548077291995287,0.03296469649076462
1634126257751145500,13.1201455078125,0.02096387757360935,-0.055823009508848186,0.06779810946285725
1634126257771024400,13.1400244140625,-0.01449322025477886,-0.05297931051552295,0.13484160116612912
1634126257790903300,13.1599033203125,-0.012164485046267508,-0.03772095110714435,0.17088965062499045
1634126257810782500,13.179782470703126,0.024459318473935125,0.05561667328178882,0.09095628221035003
1634126257830661400,13.199661376953125,0.07814590047597884,0.08354366786628961,0.06819967600107192
1634126257850540300,13.219540283203125,0.13424655788242817,0.05718494551181793,0.014415478843450546
1634126257870420500,13.23942041015625,0.15283493849635124,0.010929974815249443,0.023830957442522047
1634126257890299400,13.25929931640625,0.13800620267689226,-0.04844137482494115,0.04252279843091965
1634126257910178300,13.27917822265625,0.07659720972925424,-0.10689327153265475,0.0892500628143549
1634126257930057500,13.299057373046875,0.05387070639729499,-0.06942834101319313,0.07064297749996185
1634126257949936400,13.318936279296874,-0.021062661772966385,0.02482990535199642,0.040384032836556435
1634126257969815600,13.338815673828124,-0.009385960243642329,0.010167758271098136,0.0914063640654087
1634126257989694500,13.358694580078126,0.004966097974777222,-0.015095570062100886,0.12079787824451922
1634126258009573400,13.378573486328126,-0.0019236615389585494,0.049044016893208024,0.046779286831617355
1634126258029452300,13.398452392578125,0.052099897332489487,0.056095104448497295,-0.024821722045540808
1634126258049331500,13.41833154296875,0.10275953272879124,0.005816577324271202,0.012235796716809272
1634126258069211400,13.43821142578125,0.15990940692722797,-0.07746668604016303,0.09805471603870392
1634126258089090300,13.45809033203125,0.1790565904676914,-0.11910334928631781,0.15689970371723175
1634126258108969500,13.477969482421875,0.16211422349512575,-0.08038988001048565,0.1432476104617119
1634126258128848400,13.497848388671875,0.11228636274784803,-0.04049772234410047,0.10516542482674121
1634126258148727300,13.517727294921874,0.05422025048732757,-0.02459375850856304,0.15306874725222586
1634126258168606500,13.5376064453125,0.03633300388008356,0.02688859144747257,0.12585574615597725
1634126258188485400,13.5574853515625,0.010881459498405455,0.04349193572402,0.08522153795063495
1634126258208364500,13.577364501953125,0.0010895488023757935,0.010718962413072585,0.044645197412371634
1634126258228243500,13.597243408203125,-0.0068956047326326365,-0.0241729027479887,0.042678281253576276
1634126258248122400,13.617122314453125,-0.008101765652000903,-0.07722381719499825,0.03686579558253288
1634126258268002600,13.63700244140625,0.004675590595602989,-0.09123568367362021,0.07520809345841407
1634126258287881500,13.656881591796875,0.007682955718040466,-0.06945201414972543,0.10130348870158194
1634126258307760400,13.676760498046875,-0.001263151803612709,-0.018758184222877023,0.1320715519309044
1634126258327639300,13.696639404296874,0.010962415780127048,0.04090864123255014,0.09416413834095001
1634126258347518200,13.716518310546874,-0.06068798519670963,0.07417173614799975,0.09335048387050628
1634126258367397400,13.7363974609375,-0.06373948172181844,0.051527942663431164,0.09070201518833637
1634126258387276300,13.7562763671875,-0.07291969026029109,0.016150924333930016,0.09179331755638122
1634126258407155200,13.7761552734375,-0.05391805267035961,-0.05428220980763435,0.09433715682029724
1634126258427034400,13.796034423828125,-0.05712853914946317,-0.0443918071731925,0.07185527589917183
1634126258446913300,13.815913330078125,-0.0019116788402199743,-0.1007347489029169,0.048750294643640515
1634126258466793200,13.835793212890625,0.027668343648314473,-0.14249620757251977,0.12816460762023926
1634126258486672400,13.85567236328125,-0.0105853991612792,-0.05703326208144426,0.07343582308888436
1634126258506551300,13.87555126953125,-0.040948680981993675,-0.00026624972075223923,-0.01721416965126991
1634126258526430500,13.895430419921874,-0.03916910408884287,0.005338730679452419,0.03714987322092056
1634126258546309000,13.91530908203125,-0.03965747212767601,-0.019151567454636097,0.16982582078576086
1634126258566188300,13.935188232421876,-0.05890460891127586,-0.007102817742526531,0.19791969636976717
1634126258586067200,13.955067138671875,-0.033983810405433176,0.05702566329687833,0.17016075182855128
1634126258605946400,13.9749462890625,-0.03000526216328144,0.06533581100255251,0.13458382701277732
1634126258625825300,13.9948251953125,-0.03628770343363285,0.027737901753187178,0.15719196466207502
1634126258645704200,14.0147041015625,-0.008894377334415912,-0.011585223853588103,0.16133622485995291
1634126258665584400,14.03458447265625,-0.019410802912712095,0.002115384718775749,0.06752572226226329
1634126258685463300,14.05446337890625,-0.0340022228449583,-0.009031447717547415,0.031305238845944404
1634126258705342200,14.07434228515625,-0.048125440743565555,-0.031600130139291284,0.010797872868180274
1634126258725221400,14.094221435546874,-0.03701660223007202,-0.09188274940550327,0.03051028907597065
1634126258745100300,14.114100341796876,-0.02252279745340347,-0.1054144311517477,0.05607435392141342
1634126258764979500,14.1339794921875,0.02564560564905405,-0.1273360478416085,0.07783493483066559
1634126258784858000,14.153858154296875,0.06756225488036871,-0.10224866059720515,0.05158171867728233
1634126258804737300,14.1737373046875,0.08845511304438114,-0.05848930610865354,0.053073418539762496
1634126258824616200,14.1936162109375,0.07805354601740837,-0.042219139309227466,0.03020049247443676
1634126258844496100,14.21349609375,0.06762392193973064,-0.04509177213609218,0.03512859652638435
1634126258864375300,14.233375244140625,0.0575216301202774,-0.05071341141015291,0.03595569500029087
1634126258884254200,14.253254150390624,0.022962650175392625,-0.08875555729568003,0.038593057766556735
1634126258904133400,14.27313330078125,-0.029141923332214353,-0.07077741753458976,0.05700140563845634
1634126258924012300,14.29301220703125,-0.041376258744299406,-0.08190612979233264,0.057332829549908634
1634126258943891200,14.31289111328125,0.0016693945169448852,-0.09556377600580453,0.06832008751034736
1634126258963770400,14.332770263671875,-0.01884030954837799,-0.07781798369586468,0.07410743874013423
1634126258983649300,14.352649169921875,-0.006788344965875148,-0.04742284543216228,0.016861118429899215
1634126259003528400,14.372528564453125,0.04356880035251379,-0.04532587315291166,0.0005155483067035675
1634126259023407000,14.392406982421875,0.038010289442539216,-0.08191109822839499,0.039320787519216534
1634126259043287300,14.412287353515625,0.026114976726472377,-0.08882599218338727,0.09969605350494384
1634126259063166500,14.43216650390625,0.0327978154912591,-0.03842617676705122,0.05451426499783992
1634126259083045000,14.452045166015624,0.06973170787394047,-0.057444473230838775,0.016267244189977645
1634126259102924300,14.47192431640625,0.09419365669637918,-0.07248918988853692,0.02990764700770378
1634126259122803200,14.49180322265625,0.07699059296101331,-0.07622749963402747,0.05731295580565929
1634126259142682400,14.511682373046876,0.0628217823550105,-0.07771247749477625,0.01833177550435066
1634126259162561300,14.531561279296875,0.05899930145740509,-0.04282996468394994,-0.012574234890937805
1634126259182440200,14.551440185546875,0.02137479646205902,-0.04552782546579837,0.027858897784352302
1634126259202319400,14.5713193359375,0.008964519961178303,-0.08614712836295366,0.07296002227067946
1634126259222198300,14.5911982421875,0.02647387316673994,-0.06818389391005039,0.11391980916857719
1634126259242077400,14.611077392578125,0.029269056843221185,-0.0016755319967865943,0.10344751499295234
1634126259261957000,14.63095703125,0.048662616360187524,0.044458150407671926,0.1044733509093523
1634126259281836300,14.650836181640624,0.06373071389347315,0.07675123124718666,0.07943594028651714
1634126259301715500,14.670715576171874,0.035573125423490996,0.08675707695484161,0.05028115747272968
1634126259321594000,14.690593994140626,-0.04103694378733635,0.02821311804950237,0.05297755694985389
1634126259341473300,14.710473388671875,-0.08093085501939058,-0.02557897015362978,0.026918402063846585
1634126259361352200,14.730352294921875,-0.03361906874626875,-0.05844634374976158,0.05080956526100635
1634126259381231400,14.7502314453125,-0.018706161774694918,-0.06767389856129884,0.04906769002974033
1634126259401110300,14.7701103515625,0.0364183440759778,-0.02255465389639139,0.06384907957613468
1634126259420989200,14.7899892578125,0.10664631103426217,-0.03912701851278543,0.08123509866297245
1634126259440868400,14.809868408203124,0.07049830833226442,-0.017242811223864556,0.059574470996856685
1634126259460748300,14.829748291015624,-0.003301379632949829,0.060629240746796126,-0.013072247540950774
1634126259480627200,14.849627197265624,-0.021498715102672577,0.07250877137184143,0.017355039426684378
1634126259500506400,14.86950634765625,0.00870674580782652,0.016163491554558276,0.08740122007727623
1634126259520385300,14.88938525390625,0.030692075383663177,0.039108606073260305,0.15542670855522156
1634126259540264400,14.909264404296875,0.03073971391767263,0.06512713668793439,0.16457272256314753
1634126259560143400,14.929143310546875,0.017909458439052103,0.07731471034884452,0.15987901178896427
1634126259580022300,14.949022216796875,0.010047346761822699,0.054739890447258945,0.12369593777358531
1634126259599901200,14.968901123046875,0.01626958227753639,0.013736264407634735,0.08782149131596088
1634126259619780400,14.9887802734375,-0.028486089771986006,-0.009973112481832504,0.03694587508141994
1634126259639659500,15.008659423828124,-0.03810615103244781,-0.01799976707100868,-0.006101239484548568
1634126259659539200,15.028539306640624,-0.08213584689497948,-0.02062631618231535,-0.012132336342334746
1634126259679418400,15.04841845703125,-0.03864566473662853,-0.01405365979373455,0.033550387424230575
1634126259699297300,15.06829736328125,0.005920914481580257,0.0009425415471196174,0.1110346091210842
1634126259719176200,15.08817626953125,0.09576309797018766,0.036411914335191246,0.05823416230380535
1634126259739055400,15.108055419921875,0.09295008637607097,-0.010116904866695404,0.0865261908084154
1634126259758934300,15.127934326171875,0.07142565231025219,0.024635844084620474,0.10570727661848067
1634126259778813400,15.1478134765625,-0.019460195012390612,0.005730360345542431,0.09395604854822158
1634126259798692400,15.1676923828125,-0.023545710760354995,-0.046131052055954934,0.04187047200202942
1634126259818571300,15.1875712890625,-0.006122866794466972,-0.034599019694328305,0.08594108439683913
1634126259838450200,15.2074501953125,-0.019839257457852363,-0.06078180096000432,0.045749943783879275
1634126259858330400,15.227330322265624,-0.0376928940564394,-0.06795534585118293,0.004748071309924125
1634126259878209300,15.247209228515626,-0.08369242868721484,-0.009566577507555483,-0.03318096958994865
1634126259898088200,15.267088134765626,-0.043461832846701146,-0.07541384516358375,0.007117723050713539
1634126259917967400,15.28696728515625,-0.0286933027818799,-0.12171294726282357,0.04941138890087604
1634126259937846300,15.30684619140625,-0.02172989351004362,-0.06558247924000024,0.024716508105397224
1634126259957725200,15.32672509765625,0.022655483922362326,-0.007360007373988628,-0.0026063831061124802
1634126259977604400,15.346604248046875,0.047829964928328986,-0.03495908517837524,0.042274961149692536
1634126259997483300,15.366483154296875,0.044727614998817444,-0.09008125294148922,0.13679331975579262
1634126260017362400,15.386362548828124,0.04066577238738536,-0.1273480305403471,0.20414777710437773
1634126260037241300,15.406241455078124,0.03577215512692928,-0.09939444020986557,0.1883463968604803
1634126260057120300,15.426120361328126,0.05002016844898462,-0.05440174453407526,0.16178163053989408
1634126260077000400,15.44600048828125,0.049314942789077755,-0.028278292240202424,0.14863982489407063
1634126260096879400,15.46587939453125,0.013004443001747131,-0.0063338791966438285,0.11391104134023189
1634126260116758300,15.48575830078125,-0.012144026780128478,-0.003237666746973991,0.09109189128875732
1634126260136637200,15.50563720703125,-0.031133097149431705,-0.032817104713618754,0.0470645335137844
1634126260156516400,15.525516357421875,-0.08140285644531249,-0.09808335761129855,0.04376958362162113
1634126260176395300,15.545395263671875,-0.060686816152930256,-0.14212006773650646,0.06320552097558975
1634126260196274200,15.565274169921874,-0.018313070803880692,-0.14683774390816687,0.09250994139313698
1634126260216153300,15.5851533203125,0.04061141185164451,-0.09583177929222583,0.10214286213517189
1634126260236032300,15.6050322265625,0.10835399173498153,-0.05193330859392881,0.11975684475898742
1634126260255911400,15.624911376953126,0.10183072744607925,-0.013078677281737327,0.0874368759125471
1634126260275791000,15.644791015625,0.07143149752914905,0.02947071689516306,0.10389701232612132
1634126260295670300,15.664670166015625,0.013222469666600227,0.019260580787062644,0.07470189750194549
1634126260315549400,15.684549560546875,-0.042679742558300496,-0.002586509361863136,0.0605061988890171
1634126260335428400,15.704428466796875,-0.07038871047794819,-0.03672404902428388,0.09370353509187698
1634126260355307000,15.72430712890625,-0.06799304751306771,-0.024431845945119858,0.07609013698995112
1634126260375186200,15.744186279296875,-0.018293781581521035,-0.08771598511487246,0.10393266816139221
1634126260395065300,15.7640654296875,0.038000060309469695,-0.1075099421262741,0.15800620365440846
1634126260414944300,15.7839443359375,0.05249883352220058,-0.007039397117495536,0.07183247954547405
1634126260434823200,15.8038232421875,0.1270382339388132,0.02983750438094139,-0.016239771661162375
1634126260454702000,15.8237021484375,0.1789580985292792,-0.02275076099038124,0.07345569683313369
1634126260474581200,15.843581298828125,0.1663040764003992,-0.0616153291746974,0.18302783218622207
1634126260494461200,15.863461181640625,0.15072802934497595,-0.048806116484105586,0.14276070372760294
1634126260514340000,15.883340087890625,0.07322188807725906,0.00402677129805088,0.11579320182502269
1634126260534219300,15.90321923828125,0.019547581034898755,0.024058920979499816,0.10280337187051772
1634126260554098200,15.92309814453125,0.010977028827369213,0.022343641494214535,0.11172960564792156
1634126260573977300,15.942977294921874,0.012852467310428618,0.02685498143881559,0.054279871720075604
1634126260593856000,15.96285595703125,0.011927753680944442,0.020021628287434576,-0.015158406165242194
1634126260613735200,15.982735107421876,0.019229893387854097,-0.00946224035024643,-0.05176818116009235
1634126260633614300,16.0026142578125,-0.011447861209511757,-0.03256488351821899,-0.018427052572369575
1634126260653493200,16.0224931640625,-0.014609540110826491,-0.06974573639929295,0.001173135432600975
1634126260673372200,16.0423720703125,0.022163316491246223,-0.07792816607207059,0.03707563894093036
1634126260693252000,16.062252197265625,0.0805339646562934,-0.021079320646822452,0.09108020085096359
1634126260713131300,16.08213134765625,0.10025134930014609,0.01309679746031761,0.09844809927046298
1634126260733010200,16.10201025390625,0.10249971274882555,0.054831952644884586,0.10459610050618648
1634126260752889000,16.12188916015625,0.07807488106638193,0.0808235952526331,0.09696575175821781
1634126260772768300,16.141768310546876,0.027335458432137964,0.05224661232680082,0.061060910162329674
1634126260792647200,16.161647216796876,-0.00899988353550434,0.003965396499633789,0.05222527727782726
1634126260812526300,16.1815263671875,-0.05467383947372436,-0.010740589722990988,0.05882569845616817
1634126260832405000,16.201405029296875,-0.04865764792412519,0.008455985917150974,0.01724339574575424
1634126260852284200,16.2212841796875,0.0082151628986001,-0.03469517354518175,-0.0015180033475160597
1634126260872163300,16.241163330078123,0.03669336162507534,-0.03522796524763107,0.09514847320318222
1634126260892043000,16.26104296875,-0.00011456629037857055,-0.018674889853596686,0.03747311382591724
1634126260911922200,16.280922119140627,0.009196867412328719,0.056200318388640876,0.03687631697654724
1634126260931801300,16.30080126953125,0.06614478929787874,0.017693769861757754,0.0538747980505228
1634126260951680300,16.32068017578125,0.04726999295800924,-0.0035559389159083364,0.19249650227725504
1634126260971559200,16.34055908203125,0.05108662863671779,0.022768881168961523,0.19314824418425558
1634126260991438000,16.36043798828125,0.013012918569147587,0.046965749314427374,0.1851958238750696
1634126261011317200,16.380317138671874,0.009764145906269549,0.042755730403959746,0.1369815358042717
1634126261031196200,16.400196044921874,0.00594692570567131,-0.008334697625041007,0.10883680681586265
1634126261051075300,16.420075439453125,-0.003678103990852833,-0.04666267471462488,0.06283551861941813
1634126261070954200,16.439954345703125,-0.00833586666882038,-0.05283084195554256,0.015263035583496093
1634126261090833200,16.459833251953125,-0.03016775924861431,-0.06023878012448549,-0.020513795718550682
1634126261110713300,16.47971337890625,-0.06634469578415154,-0.06552578061670064,-0.03355681716501713
1634126261130592000,16.499592041015624,-0.06693067897856235,-0.07412351309210062,0.018595979398488997
1634126261150471200,16.51947119140625,-0.0381155033826828,-0.06161240656524896,0.04594985027015209
1634126261170350300,16.539350341796876,0.0005222703084349631,-0.04761895252615213,0.09786533094644546
1634126261190229200,16.559229248046876,0.014385375966131686,-0.010027765278518199,0.12088380296230315
1634126261210108200,16.579108154296875,0.021614158175885675,0.009181085321307183,0.11320844602882861
1634126261229987000,16.598987060546875,0.03938596170991659,0.011256722551584244,0.13379063080847262
1634126261249866200,16.6188662109375,0.04897533557116985,0.02152911024093628,0.11429565674364565
1634126261269745200,16.6387451171875,0.03987286844402552,-0.0017597031489014624,0.06254559576213359
1634126261289624300,16.658624267578126,-0.009981295788288116,-0.03742810564041137,0.0697562577933073
1634126261309504300,16.678504150390626,-0.04739420385956764,-0.033736849907040595,0.018671967244148255
1634126261329384000,16.698384033203126,-0.03634381753504276,-0.05275923802405595,-0.00004676175117492675
1634126261349262600,16.7182626953125,0.0037640287086367604,-0.096223116697371,0.06915536929070949
1634126261369141800,16.738141845703126,-0.016560966439545154,-0.08324263909310102,0.08140694809854031
1634126261389020700,16.758020751953126,-0.012186696878075599,-0.020786767441034314,0.038515900877118106
1634126261408899800,16.77789990234375,0.0034340661019086837,-0.005198153164982795,0.05154664736390113
1634126261428779000,16.797779052734374,0.009399111986160278,-0.03737257606089115,0.10582008934319019
1634126261448657700,16.81765771484375,-0.0042681788384914396,-0.03880056303739547,0.15830489434003828
1634126261468536800,16.837536865234377,0.017275544449687003,-0.01366319917142391,0.128812257874012
1634126261488415700,16.857415771484376,0.05562544111013412,-0.0048883565634489055,0.08914192626476287
1634126261508295000,16.877294921875,0.06936462812721729,-0.03991612306386232,0.10959668527245521
1634126261528174800,16.8971748046875,0.05772913539111614,-0.07875029610991477,0.0913800605803728
1634126261548053800,16.9170537109375,0.06091214934140443,-0.07575257559865713,0.05467968469262123
1634126261567933000,16.936932861328124,0.052823535431921476,-0.06778320415467023,0.023780688560009002
1634126261587811600,16.9568115234375,0.04222235417962074,-0.09348375486135482,0.001998480340838432
1634126261607690800,16.976690673828124,0.059921676999330514,-0.10127455486804246,-0.009618892216682433
1634126261627569700,16.996569580078123,0.013448971898853778,-0.0803849115744233,-0.02597323016822338
1634126261647448800,17.01644873046875,0.031468320453166956,-0.07500526436269282,-0.052908583366870876
1634126261667328000,17.036327880859375,0.042317046725749964,-0.06927928793132304,-0.07546411404609679
1634126261687206700,17.05620654296875,0.06338847632706165,-0.10565350060462951,-0.0433873063057661
1634126261707085800,17.0760859375,0.0367930226072669,-0.10395575677603483,-0.026646599385142324
1634126261726966000,17.095966064453126,-0.008154372622072695,-0.08106471053212881,-0.018051789519190786
1634126261746844700,17.1158447265625,-0.021379764898121354,-0.030565818655490875,0.014697802916169166
1634126261766723800,17.135723876953126,-0.001695113480091095,-0.03529138587266206,0.08404840251803397
1634126261786602800,17.155602783203125,0.02820405796021223,0.012635317428410052,0.14380115269124508
1634126261806482000,17.17548193359375,0.03823737619668245,0.048070203424990174,0.15587094519138336
1634126261826360600,17.195360595703125,0.1217751988440752,0.04641834456473588,0.15833236686885355
1634126261846239700,17.21523974609375,0.08713409357368945,0.04998012869954109,0.14446516955792904
1634126261866118700,17.23511865234375,0.02316547927111387,0.07205050621032714,0.04525426922142505
1634126261885997800,17.254997802734376,0.00376753583997488,0.06947656406909226,-0.04353168321251869
1634126261905877000,17.274876953125,0.0033773674786090847,-0.013138590775430201,-0.016249708533287048
1634126261925756700,17.294756591796876,0.03264788562655449,-0.11416238575279712,0.08366729424595833
1634126261945635800,17.3146357421875,0.040569034014642236,-0.1331537942096591,0.16941314833164214
1634126261965515000,17.334514892578124,0.1137234098136425,-0.07896890729665756,0.16623101116418837
1634126261985393700,17.3543935546875,0.21114947255998848,0.01838496699631214,0.18989128821492193
1634126262005272800,17.37427294921875,0.2110509806215763,0.046236558257043356,0.24495792639851569
1634126262025151700,17.39415185546875,0.06253828923851251,0.09688158060610294,0.2741834363609552
1634126262045031000,17.414031005859375,-0.12999562243968246,0.13800591041594742,0.09104279145002364
1634126262064909800,17.433909912109375,-0.3181976423934102,0.07438391759395599,0.00820610280930996
1634126262084788700,17.453788818359374,-0.39034079532325267,-0.03509995495378971,0.04770224689543247
1634126262104668000,17.47366796875,-0.3224892021074891,-0.11434154171198606,0.029364041650295256
1634126262124546800,17.493546875,-0.09075316085368394,-0.1261795712828636,0.02697276259958744
1634126262144426800,17.5134267578125,0.06701660369634628,-0.11668868936002254,0.048365094718337054
1634126262164305700,17.5333056640625,0.1689443617761135,-0.10421557675600052,0.055821255943179125
1634126262184184800,17.553184814453125,0.1966796331807971,-0.08405570904165506,0.07750409544110298
1634126262204064000,17.57306396484375,0.13866232849806545,-0.07170066985934972,0.08561199857294559
1634126262223942700,17.592942626953125,0.03148585610985756,-0.05398410364389419,0.10884674368798732
1634126262243821800,17.61282177734375,0.020754618737101552,-0.01092003794312477,0.1381488260179758
1634126262263700700,17.63270068359375,0.0270440742701292,0.005318564674258232,0.17081015564799307
1634126262283580000,17.652579833984376,0.03548106322586536,0.022364976543188093,0.16269465373158454
1634126262303458800,17.672458740234376,0.08354805178046226,-0.022998013749718663,0.13648527671992777
1634126262323338200,17.692338134765624,0.09093436263948679,-0.08479542149305343,0.15317980641126633
1634126262343218400,17.712218505859376,0.05558890849202871,-0.05084492883533239,0.05119710327386856
1634126262363097000,17.73209716796875,0.07841185793578624,-0.0038271570727229118,-0.10730594398677348
1634126262382976300,17.751976318359375,0.11491174281537532,-0.04476619344353676,-0.038192660272121426
1634126262402855400,17.77185546875,0.10264613548219204,-0.12433540472090243,0.036513913404941555
1634126262422734300,17.791734375,0.03604395780563354,-0.10061083026230334,0.06322130306661129
1634126262442613200,17.81161328125,-0.0394400299847126,-0.09390227253437042,0.05806815808713436
1634126262462492200,17.8314921875,-0.0823851454809308,-0.07262479896694421,0.07451718858480454
1634126262482371300,17.851371337890626,-0.10638853688091039,-0.020717501597106454,0.09322831879556179
1634126262502250200,17.871250244140626,-0.06523030480146408,0.028671383211016654,0.06272972015738487
1634126262522129400,17.89112939453125,0.007210369770228862,0.02304915941506624,-0.012940730115771293
1634126262542008300,17.91100830078125,0.11173895799815654,-0.01519260069578886,-0.003142389678955078
1634126262561888300,17.93088818359375,0.14484803139567373,-0.07994681241810321,-0.02231587670445442
1634126262581767400,17.950767333984373,0.12406623239070176,-0.09876286430805921,0.015060206487774848
1634126262601646000,17.97064599609375,0.08891279368400573,-0.0884784939199686,0.05687105725705623
1634126262621525200,17.990525146484377,0.08600479728281497,-0.054012745216488835,0.12672668377161025
1634126262641404400,18.010404296875,0.05172697236686945,0.019044892209768294,0.13152502396404742
1634126262661283300,18.030283447265624,0.022546178328990935,0.0997018987238407,0.13463935659229756
1634126262681162200,18.050162353515624,-0.012765958070755003,0.11787760688364506,0.12702712802290916
1634126262701041200,18.070041259765624,-0.01711363188624382,0.09360942706763743,0.10741174244880676
1634126262720920300,18.08992041015625,-0.0013444003462791442,0.04849193596839905,0.07849544456601143
1634126262740799200,18.10979931640625,0.0480582207262516,-0.014150105905532836,0.05215864178240299
1634126262760679200,18.12967919921875,0.03590133446455002,-0.05913900218904018,0.02795534389615059
1634126262780558300,18.149558349609375,0.034387715031206606,-0.08249971177130937,-0.037945407512784
1634126262800437200,18.169437255859375,0.05608809018582105,-0.13370119895935056,-0.017588848182559014
1634126262820316400,18.18931640625,0.006719955904781818,-0.1284478084757924,0.04449146815538406
1634126262840195000,18.209195068359374,-0.026005963394045827,-0.07053834808170795,-0.00500058476626873
1634126262860074200,18.22907421875,0.01472206057459116,0.007753390605747699,-0.03972527666687965
1634126262879953400,18.248953369140626,0.03891454480588436,-0.02602992879152298,0.060792030093073844
1634126262899832300,18.268832275390626,0.05135667774975299,-0.017808628413081166,0.1511725582420826
1634126262919711200,18.288711181640625,0.08355009760707616,0.018796762667596337,0.15734335583150386
1634126262939590100,18.308590087890625,0.10186813684701919,0.04889379476755857,0.12159808871150016
1634126262959469300,18.32846923828125,0.0847837310552597,0.03671791154444218,0.11173954252004623
1634126262979349200,18.348349365234377,0.05959492926299571,-0.0015177110865712165,0.1015408045887947
1634126262999228200,18.368228271484377,0.02127425869703293,-0.012740823629498481,0.06959726783931255
1634126263019107300,18.388107421875,-0.015680676473677158,-0.021756781516969203,-0.013774258330464362
1634126263038986200,18.407986328125,-0.03215776402205229,-0.044300037236511706,-0.03661854282319545
1634126263058865400,18.427865478515624,-0.04359481157660484,-0.06991729357391595,-0.024833412483334538
1634126263078744000,18.447744140625,-0.027612229546904562,-0.10570435400903225,0.014750994408130646
1634126263098623200,18.467623291015624,-0.0016164952859282493,-0.11970365326702594,0.09590367548465728
1634126263118502400,18.48750244140625,0.028987609553337096,-0.0742874714821577,0.04262275167405605
1634126263138381300,18.50738134765625,0.049290100608766076,-0.005615501794219017,0.07686287492811679
1634126263158260200,18.52726025390625,0.07612579282522201,0.0458797076433897,0.0666805036097765
1634126263178140400,18.547140380859375,0.061090720778703686,0.07783171996027231,0.10335866766571998
1634126263198019300,18.567019287109375,0.06077858608961105,0.05060527486056089,0.09099018447995186
1634126263217898500,18.5868984375,0.037030630755424496,0.06148965696841478,0.12698854957818984
1634126263237777200,18.606777099609374,-0.012185820095241068,0.043806700761616225,0.10161270078122615
1634126263257656300,18.62665625,-0.06649199530035257,0.03835194248706102,0.09601531916558742
1634126263277535200,18.64653515625,-0.03377630513459444,0.036894437155127524,0.08027589824199675
1634126263297414400,18.666414306640625,0.048156128142774104,0.007209785248339175,0.12472703438699245
1634126263317293300,18.686293212890625,0.032623920229077334,-0.022939561560750006,0.055414428707957264
1634126263337175000,18.706175048828126,-0.0019090484917163848,-0.019960545749962328,0.005646481454372406
1634126263357054000,18.726053955078125,0.014865268437564373,0.0015299860462546348,0.014900632011890411
1634126263376933000,18.74593310546875,0.04691752625852823,-0.04776274491101503,0.06056932725310325
1634126263396813000,18.76581298828125,0.05708119287639856,-0.045673955938220025,0.135582190400362
1634126263416692000,18.78569189453125,0.07030687741339206,0.015517302605509757,0.13018705335855482
1634126263436571100,18.805571044921876,0.0476572387099266,0.05179390012323856,0.10030687887966633
1634126263456450000,18.825449951171876,0.031977731280028815,0.01881722093373537,0.1226899756014347
1634126263476329200,18.8453291015625,-0.017888123390078545,0.02241524542570114,0.13445581671893597
1634126263496208100,18.8652080078125,-0.04561082757413387,-0.01225683950483799,0.0685924747109413
1634126263516087000,18.885087158203124,-0.047663668450713154,-0.025469372299313543,0.047127661877870555
1634126263535966200,18.90496630859375,-0.037110710254311556,-0.040512043130397794,-0.00005143792629241943
1634126263555845000,18.92484521484375,-0.00725274760723114,-0.06730185037851333,0.09672551326155662
1634126263575724000,18.94472412109375,0.0076876318931579585,-0.02493658059686422,0.05143325011730194
1634126263595603000,18.96460302734375,0.03266951293647289,0.011743629285693167,0.053797641161084174
1634126263615483100,18.984483154296875,0.03590717968344688,0.013459201031923293,0.12375205187499523
1634126263635362000,19.004362060546875,0.016313129158318042,0.011977438041567801,0.13362287302613257
1634126263655241000,19.024240966796874,-0.002697568520903587,0.023289105650782585,0.089859719145298
1634126263675120000,19.0441201171875,-0.014834288777410984,0.04462357010245323,0.04815057518482208
1634126263694999000,19.0639990234375,-0.0065288172468543045,0.011448737992346286,0.037647301349043844
1634126263714878200,19.083878173828126,-0.003939677536487579,-0.0381762936592102,-0.0030067806005477904
1634126263734757000,19.103757080078125,0.012246025849878788,-0.07020195573419333,0.0074193363457918165
1634126263754636000,19.123635986328125,-0.03348316740691662,-0.05114566534757614,-0.03191197256743908
1634126263774515200,19.14351513671875,-0.029918752923607825,-0.037703123189508914,-0.004975450325012207
1634126263794394000,19.16339404296875,0.018577274698019026,-0.05955898116677999,0.033950200396776195
1634126263814274000,19.183274169921877,-0.009076748163998127,-0.017507307378947734,0.0426291814148426
1634126263834153200,19.2031533203125,0.0015419687449932098,0.027673604345321654,0.021385902377963065
1634126263854032100,19.2230322265625,0.045669279763102526,0.023612346255779265,0.02850596351623535
1634126263873911000,19.2429111328125,0.04746083935499191,-0.012063947281241416,0.09036649962365627
1634126263893790000,19.2627900390625,0.03924655323922634,-0.08599427588880061,0.16710896304249762
1634126263913669000,19.282669189453124,0.05607903009653091,-0.0838277455046773,0.17994331017434595
1634126263933548000,19.302548095703123,0.035057284855842585,-0.07067103455066681,0.187779995149374
1634126263953427200,19.32242724609375,0.037788171124458314,-0.057089668443799015,0.1723947944909334
1634126263973306000,19.34230615234375,0.03734101187884807,-0.01254004036039114,0.14025076673328876
1634126263993185000,19.36218505859375,-0.0013677812218666075,0.04891746790409088,0.06560615237653256
1634126264013065200,19.382065185546875,-0.007693184851109981,0.057279930318891996,-0.008495441144704819
1634126264032943900,19.40194384765625,-0.05049509248435497,0.009044891721010207,-0.022967034089565276
1634126264052823000,19.421822998046874,-0.052123278208076954,-0.059627077966928475,-0.001191255611181259
1634126264072702200,19.4417021484375,-0.00751022949963808,-0.11232494119256735,0.058195583859086034
1634126264092581000,19.4615810546875,0.04382248285263776,-0.11288140603154898,0.1072837321549654
1634126264112460000,19.4814599609375,0.08951689705699682,-0.07601444140523672,0.15561550912559033
1634126264132339000,19.5013388671875,0.10715718316584825,-0.013050327970087528,0.14713234294056893
1634126264152218000,19.521218017578125,0.0791758280456066,0.02348492048382759,0.09974749143123626
1634126264172097000,19.541096923828125,0.00563975945264101,0.013921850107610224,0.09373100762069225
1634126264191976200,19.56097607421875,-0.030556466305255887,-0.011176058530807494,0.04483224441707134
1634126264211855000,19.580855224609376,-0.0666650137796998,-0.042427229101955885,0.023629297390580176
1634126264231735000,19.600735107421876,-0.03058832274824381,-0.09453794008940458,0.047339843323826784
1634126264251614200,19.6206142578125,-0.03153349464386702,-0.07793459581285715,0.05048807822167873
1634126264271493000,19.6404931640625,0.01884673928916454,-0.07753887449353933,0.05386427665650844
1634126264291372000,19.6603720703125,0.06255845524370669,-0.10736965687274933,0.11317512828111648
1634126264311251200,19.680251220703123,0.02715221081972122,-0.048741526815295214,0.11672025354206561
1634126264331127000,19.700126953125,0.0002519289344549179,0.029042554610967636,0.021506898409128186
1634126264351006000,19.720005859375,0.07573913159519434,0.0035357729107141495,0.04669394663572311
1634126264370884900,19.739884765625,0.0885831233382225,-0.057742287133634086,0.13845336192250252
1634126264390764000,19.759763916015626,0.07658756511807441,-0.10598667808175086,0.20562369487583637
1634126264410643000,19.779642822265625,0.06055296064019203,-0.09798398889005183,0.16107319000959394
1634126264430523000,19.79952294921875,0.04297872550487518,-0.032412323305010794,0.13877017278671264
1634126264450402000,19.819402099609373,0.015373510220646857,-0.0000935235023498535,0.08303016538619995
1634126264470281000,19.839281005859377,-0.02118395006507635,0.00991495255380869,0.07522153746187686
1634126264490159900,19.859159912109376,-0.02600537887215614,-0.006887421426177025,0.02698503755927086
1634126264510038800,19.879038818359376,-0.019330723413825034,-0.02335983279943466,-0.012235796716809272
1634126264529918000,19.89891796875,-0.04437865543067455,-0.06172317346334457,-0.020887889727950096
1634126264549796900,19.918796875,-0.050045595151185986,-0.09338730874955653,0.016616203758120535
1634126264569676000,19.938676025390624,-0.018800269798934458,-0.10182897388041019,0.057471361237764355
1634126264589555000,19.958554931640624,0.025467910994589327,-0.08254881161004304,0.07486848624050617
1634126264609433900,19.978433837890623,0.02173340064138174,-0.039651626908779145,0.10358721572458743
1634126264629314000,19.99831396484375,0.04087327765822411,-0.008804068702459335,0.10043372012972832
1634126264649192700,20.018192626953127,0.020524024851620196,0.016365151606500147,0.11007774678766727
1634126264669072000,20.03807177734375,0.0033466800794005394,0.004966974757611751,0.07490881825089454
1634126264688951000,20.057950927734375,-0.02068330706655979,-0.012656652477383613,0.09671090021431446
1634126264708830000,20.077829833984374,-0.007288403442502022,-0.05178074838072061,0.06921031434834003
1634126264728708900,20.097708984375,0.015367665001749992,-0.06313070217370986,0.050123921084403986
1634126264748587800,20.117587890625,0.0008352817803621292,-0.04638181194663048,0.036223406025767325
1634126264768467000,20.137467041015626,0.02220949372053146,-0.048829789620637894,0.024163550397753714
1634126264788345900,20.157345947265625,0.037568683154880995,-0.10468845496475696,0.046913142344355584
1634126264808225000,20.17722509765625,-0.013866612789034843,-0.057819151762127874,0.03879413329660892
1634126264828105000,20.19710498046875,-0.03731529291570186,-0.006017652854323386,-0.013504209217429161
1634126264847983900,20.21698388671875,0.022006664624810216,-0.004483867415785789,0.0078068743586540215
1634126264867863000,20.236863037109377,0.04134060290902853,-0.05549480046778917,0.09149111973941326
1634126264887741700,20.25674169921875,0.03861819220781326,-0.04470598768889904,0.14513035546839237
1634126264907620900,20.276620849609376,0.028667291557788847,-0.02879530185163021,0.11332710397243499
1634126264927500000,20.2965,0.02196954748481512,-0.031634909191727636,0.08304302486777305
1634126264947379000,20.31637890625,0.05703004721105098,-0.014072949016094207,0.08501695528924465
1634126264967257900,20.3362578125,0.04866290862113237,0.015030688132345675,0.033898762470483776
1634126264987136800,20.35613671875,0.060006724934279915,-0.002858312040567398,0.036650691527128215
1634126265007016000,20.376015869140623,0.06999912663847208,-0.010453297214210032,0.024455226820707318
1634126265026896000,20.395895751953127,0.03845189573019743,-0.038137422953546045,0.06389993298053741
1634126265046774800,20.41577490234375,0.02200783366858959,-0.05100011939704418,0.053256958413124084
1634126265066654000,20.435654052734375,0.019383914905786514,-0.03762976569235325,0.08212766358852386
1634126265086532900,20.455532958984374,0.045153146934509274,-0.03531242866069078,0.1366927819907665
1634126265106412000,20.475412109375,0.06506488510668278,0.0033668460845947264,0.13265724286437033
1634126265126290700,20.495290771484374,0.08988397680372,0.014838672691583633,0.14608020353913306
1634126265146169900,20.515169921875,0.08528992701172829,0.031092472878098486,0.09601941081881522
1634126265166049000,20.535049072265625,0.02330576452463865,-0.011638707606494426,0.08108663010299205
1634126265185928000,20.554927978515625,0.002149286988377571,-0.04393851044774055,0.04446458014845848
1634126265205806800,20.574806884765625,-0.00246434428691864,-0.06440086823999881,0.030885552129149434
1634126265225685800,20.594685791015625,-0.007159808626770973,-0.09190554575920104,0.06074760642945766
1634126265245566000,20.61456591796875,-0.022689970713853834,-0.03796440447419882,0.06047463470697403
1634126265265445000,20.634445068359376,0.028802023853361607,-0.014412556234002113,0.07433364871144295
1634126265285323800,20.65432373046875,0.059980713710188864,-0.038918636459112164,0.11391279490590095
1634126265305203000,20.674202880859376,0.03469546580612659,-0.002853635865449905,0.10797639059424399
1634126265325081900,20.694081787109376,-0.0030436054795980453,0.03434416815042496,0.02142623438835144
1634126265344961300,20.713961181640624,0.010008476056158542,-0.0012634440645575523,0.0096247374355793
1634126265364840400,20.73384033203125,0.008731880249083042,-0.06833645412325859,0.07914367934167385
1634126265384719400,20.75371923828125,0.008551847507059574,-0.08608107738941907,0.12467442741692066
1634126265404598500,20.7735986328125,-0.014203297397494315,-0.03402794180810451,0.07023147408962249
1634126265424477400,20.7934775390625,0.02273848603069782,0.02007774238884449,0.02862403693795204
1634126265444357400,20.813357421875,-0.013529635919630526,-0.024829613091051576,0.040166590693593025
1634126265464236500,20.833236572265626,0.041913726621866224,-0.04399520907104015,0.11074702435135841
1634126265484115500,20.853115478515626,0.03507861990481615,-0.046616789746284484,0.08653612768054007
1634126265503994400,20.872994384765626,0.044129649105668065,-0.021439093869924545,0.07450140649378299
1634126265523873300,20.892873291015626,-0.005117196883261204,-0.00284516029804945,0.10067512767016887
1634126265543752400,20.91275244140625,-0.005075988090038299,0.012525719574093819,0.11596329769492149
1634126265563631400,20.93263134765625,-0.014434475804865359,-0.01052051723152399,0.10881517950594424
1634126265583510300,20.95251025390625,-0.004220540304481983,-0.038859307487308974,0.09087795627713204
1634126265603389400,20.972389404296877,-0.008831833492219448,-0.04571282664388418,0.0943342342108488
1634126265623268400,20.992268310546876,-0.008689502412080764,-0.06101736328154802,0.018731588476896283
1634126265643147500,21.0121474609375,-0.012222060452401637,-0.06602817718088627,0.009107435563206673
1634126265663027500,21.03202734375,-0.012396540236473083,-0.06279547886997461,-0.010260697251558303
1634126265682906400,21.05190625,-0.05786152959913015,-0.06452507914155721,-0.010346621969342232
1634126265702785500,21.07178564453125,-0.06593436141759157,-0.06840513544529676,0.04859072016775608
1634126265722664400,21.09166455078125,-0.0730938777834177,-0.05964724397212266,0.05431903468668461
1634126265742543400,21.11154345703125,-0.06701514239162207,0.0036181904971599576,0.06038987903296947
1634126265762422300,21.13142236328125,-0.028383213919401167,0.01754793165028095,0.0521060348123312
1634126265782301400,21.151301513671875,0.06368950510025025,-0.017731471523642538,0.1037368533283472
1634126265802180600,21.1711806640625,0.06903437325954437,0.003980301807820797,0.09806699099838734
1634126265822059500,21.1910595703125,0.07378682848364114,0.0370239087536931,0.014614216285943985
1634126265841938400,21.2109384765625,0.06012246026843786,0.008706453546881675,0.002457330024242401
1634126265861818400,21.230818359375,0.013660276561975479,-0.029115035325288773,0.06568097117841243
1634126265881697500,21.250697509765626,-0.013641279600560665,-0.04589578199535608,0.08974690642058848
1634126265901576400,21.270576416015626,-0.015794950503110885,-0.04023322618901729,0.09176642954945564
1634126265921455400,21.290455322265625,0.02484218031167984,-0.01530804376900196,0.10457388867437839
1634126265941334500,21.31033447265625,0.043725744479894635,-0.010007307012379169,0.10364625243544578
1634126265961213400,21.33021337890625,0.04990589441955089,-0.007004033543169498,0.10123276155292987
1634126265981092400,21.35009228515625,0.049824645876884455,0.008275660914182663,0.06114858844578266
1634126266000971300,21.36997119140625,0.0006134557232260703,-0.00604191051274538,-0.0009615385085344314
1634126266020850400,21.389850341796876,-0.050449499776959415,-0.04412263484299182,-0.016106500670313835
1634126266040729600,21.4097294921875,-0.05613339063227176,-0.05266892939209938,0.006067337214946746
1634126266060608500,21.4296083984375,-0.011054185716807842,-0.07452975580543279,0.024077625679969787
1634126266080488400,21.449488525390624,0.051013855661451814,-0.05250409421920776,0.06322890185117722
1634126266100367400,21.469367431640624,0.08603226981163024,-0.03034545390307903,0.1056844802647829
1634126266120246500,21.48924658203125,0.11722148106247186,0.039594051502645014,0.10009119030237197
1634126266140125400,21.50912548828125,0.08583177880346775,0.06513356642872095,0.12024784314632415
1634126266160004400,21.52900439453125,0.07700111435502767,0.09344517641663551,0.09973872360289096
1634126266179883500,21.548883544921875,0.04883329675197601,0.07491115633845329,0.1059545293778181
1634126266199762400,21.568762451171875,0.0469578582689166,0.02610533211529255,0.12180617850422859
1634126266219641300,21.588641357421874,0.043242637138068675,-0.034251521430909634,0.10744213758707045
1634126266239520300,21.608520263671874,0.005320318239927292,-0.024428923335671423,0.06847264772355556
1634126266259400400,21.628400390625,0.009753916773200035,-0.06281447583138942,0.033060558080673215
1634126266279279400,21.648279296875,0.021105331870913506,-0.10918722768872975,0.08355272795557975
1634126266299158300,21.668158203125,0.014522154088318346,-0.03641542146652937,0.004884264910221099
1634126266319037400,21.688037353515625,0.027758944541215896,-0.0006225158125162124,-0.0900292304933071
1634126266338916000,21.707916015625,0.08983633826971053,-0.028882980135083197,-0.06228782160878181
1634126266358795000,21.727794921875,0.11840163075774908,-0.08837620258927345,0.07457797886133194
1634126266378674000,21.747673828125,0.16307459295988083,-0.14349924713522194,0.16690204229354857
1634126266398553000,21.767552978515624,0.18439385984241963,-0.08228665354251861,0.17601824568510055
1634126266418432000,21.787431884765624,0.17644640796929598,-0.018422084136307238,0.17876257595717907
1634126266438311200,21.807311279296876,0.16866583709567784,-0.008149696446955203,0.1380874512195587
1634126266458190000,21.827190185546876,0.1419058404639363,0.0106420977845788,0.13020809614658355
1634126266478070000,21.847070068359375,0.10723638588190078,0.016463059023022652,0.021163784059882163
1634126266497949200,21.86694921875,0.0473588402852416,-0.019360241769254206,-0.020734160470962524
1634126266517828000,21.886828125,-0.0012388941451907157,-0.04858984338492155,-0.02474105802476406
1634126266537707000,21.90670703125,-0.013698855006694793,-0.07438362533301114,0.022605799561738967
1634126266557586000,21.9265859375,0.03422638698965311,-0.044297114627063275,0.04283025694489479
1634126266577465000,21.946465087890626,0.049825230398774144,-0.009512801493704318,0.07818915509581566
1634126266597344000,21.966343994140626,0.0706122901007533,0.02600099495798349,0.10738777705132961
1634126266617223000,21.986222900390626,0.06453063209950924,0.07338584646731615,0.10766542494893074
1634126266637102000,22.00610205078125,0.0242228793695569,0.10035013349950313,0.0697562577933073
1634126266656981000,22.02598095703125,-0.009537059152126312,0.09995295087546109,0.05427051936984062
1634126266676861000,22.04586083984375,-0.04336480221301317,0.08916355357468128,0.07386778476536274
1634126266696740000,22.065739990234373,-0.03594283551871776,0.0455570515602827,0.06839373726844787
1634126266716619000,22.085618896484377,-0.03603577449917793,0.02293897703886032,0.08723463133871555
1634126266736498200,22.105498291015625,-0.006097147831320762,0.058818684193491934,0.08537935886085032
1634126266756377000,22.125377197265625,0.048533729283511635,0.028638649985194206,0.08885375697314739
1634126266776256000,22.145256103515624,0.06549626226127148,0.025227964758872984,0.10270166506171226
1634126266796135000,22.165135009765624,0.026593992415070534,0.0654553457289934,0.0830500391304493
1634126266816014000,22.18501416015625,0.03620820845663547,0.09596709610968827,0.036516836014389986
1634126266835893200,22.204893310546876,0.039923429587483406,0.05612608410865068,0.07089432191252708
1634126266855772000,22.22477197265625,0.005438391661643982,0.017541501909494397,0.14972002134621143
1634126266875652000,22.244652099609375,-0.026593407893180845,0.004881926822662353,0.1749216826200485
1634126266895531000,22.264531005859375,-0.07253945877104997,0.04992635268568992,0.14382044191360474
1634126266915410000,22.284409912109375,-0.03326309491544962,0.06199059222787618,0.09116904817819595
1634126266935289000,22.3042890625,0.01312251642346382,0.03112140671163797,0.06855214270055293
1634126266955168000,22.32416796875,0.020907178950309753,-0.0020227379992604254,0.02093698956668377
1634126266975047200,22.344047119140626,-0.010383739109337329,-0.03323006942868233,-0.05310322915613651
1634126266994926000,22.363926025390626,-0.04241670770794153,-0.05362666850835084,-0.08025543997585773
1634126267014805000,22.383804931640626,-0.04074263701587915,-0.12074351770877838,-0.0443938529998064
1634126267034684000,22.403683837890625,-0.02637918062061071,-0.13485153803825378,0.03739186528325081
1634126267054563000,22.42356298828125,0.027565175534784794,-0.08914689470082521,0.08134031260311603
1634126267074442200,22.443442138671877,0.047077977517247196,-0.011507190181314944,0.13809914165735243
1634126267094322000,22.463322021484377,0.05000321731418371,0.05343962150365114,0.17838789742588995
1634126267114201000,22.483201171875,0.011765841117501258,0.09361118063330649,0.17365560820698736
1634126267134080000,22.503080078125,-0.012820026345551013,0.08574731539040803,0.14459084176421164
1634126267153959000,22.522958984375,-0.07792027502655982,0.025507073961198327,0.1092792898863554
1634126267173838000,22.542838134765624,-0.07344079152494669,-0.03701017248928547,0.06485621079206466
1634126267193717000,22.562717041015624,-0.0802802821561694,-0.06619681174606085,0.047097266739606854
1634126267213596200,22.58259619140625,-0.08794131830334663,-0.06572364127635956,0.010970306825637816
1634126267233475000,22.60247509765625,-0.04932984809726476,-0.07928396459519862,-0.031442016968131065
1634126267253354000,22.62235400390625,-0.007623919007182121,-0.10833294894695282,0.02090776347219944
1634126267273233000,22.64223291015625,-0.036892099067568775,-0.10218962388634681,0.05386719926595687
1634126267293113000,22.662113037109375,-0.052637365210056304,-0.029384499916434288,0.0214759187489748
1634126267312992000,22.681991943359375,-0.04209902006089687,-0.005362403815984726,0.005631283885240554
1634126267332870100,22.7018701171875,-0.019454057532548905,-0.02920037552118301,0.07551029127538204
1634126267352749300,22.721749267578126,0.004085515747964382,-0.036762042947113514,0.17329612724483012
1634126267372628200,22.741628173828126,0.03666822718381881,-0.020362989071011542,0.17525486009716987
1634126267392507400,22.76150732421875,0.0699912355929613,-0.032923779958486554,0.15173603734374044
1634126267412386300,22.78138623046875,0.058139762018620963,-0.04287088121622801,0.1727531064093113
1634126267432265200,22.80126513671875,0.039731121885776516,-0.05367255347669124,0.19959084445238112
1634126267452144400,22.821144287109377,0.04964285956919193,-0.060331426844000814,0.15089023416936398
1634126267472023300,22.841023193359376,0.024024434188008308,-0.020513503457605838,0.08108136940598487
1634126267491903200,22.8609033203125,-0.06558627863228321,-0.02895955250263214,0.03340834860503673
1634126267511782400,22.880782470703124,-0.12355448347628116,-0.062491819748282426,0.03076163348853588
1634126267531661300,22.900661376953124,-0.11343056434690951,-0.1169300969004631,0.012993337085843085
1634126267551540500,22.92054052734375,-0.07608341498821973,-0.14742372710257767,0.0004664484679698944
1634126267571419100,22.940419189453124,-0.023794424824416637,-0.14986995121091604,0.015021628043055534
1634126267591298300,22.96029833984375,0.06637596770524978,-0.14920914921462536,0.05667348885834217
1634126267611177500,22.980177490234375,0.11825783837288617,-0.10948241124302148,0.09206687380075454
1634126267631056400,23.000056396484375,0.11840543015003203,-0.0891407572209835,0.12856091346144674
1634126267650935300,23.019935302734375,0.11154986516684293,-0.04206862492263317,0.10946049167215824
1634126267670815200,23.039815185546875,0.05689560717642307,-0.045778877617418764,0.15250117649734019
1634126267690694400,23.0596943359375,-0.004804185411334038,-0.04559796809256077,0.13045476438403128
1634126267710573300,23.0795732421875,-0.07367898419499397,-0.015099661715328692,0.09611527240872382
1634126267730452200,23.0994521484375,-0.06303337927907705,-0.05246697707921266,0.09328209480941295
1634126267750331400,23.119331298828126,-0.04822656303048133,-0.08630524153411388,0.09596271219551562
1634126267770210300,23.139210205078125,-0.08596651109904051,-0.06496990029960871,-0.00914016878902912
1634126267790089500,23.15908935546875,-0.09286094678789376,-0.06559183159023523,-0.13237784140110015
1634126267809968000,23.178968017578125,-0.07765081043541432,-0.095083591273427,-0.11923428218960762
1634126267829847300,23.198847412109377,-0.015176234082877636,-0.15869798531085252,-0.06341010363698005
1634126267849726500,23.2187265625,0.05763678093254566,-0.14711246919631957,0.008674304842948913
1634126267869605400,23.23860546875,0.10482201821655035,-0.08696779709607362,0.06386193905770779
1634126267889485300,23.2584853515625,0.12763444626629353,-0.05910568444132804,0.14674772753715515
1634126267909364200,23.2783642578125,0.13038140688687563,-0.04419716138392687,0.17672843978106975
1634126267929243400,23.298243408203124,0.06288081906586886,-0.007017477546632289,0.17677870866358278
1634126267949122300,23.318122314453124,0.018236206175386904,0.009880173501372337,0.1041331591695547
1634126267969001200,23.338001220703124,-0.04084346704185009,-0.014485329209268092,0.06155073950588703
1634126267988880400,23.35788037109375,-0.07461538826227188,-0.06537292814254761,0.032496494457125664
1634126268008759300,23.37775927734375,-0.07138415125608444,-0.10700140808224677,0.015189385825395583
1634126268028638500,23.397638427734375,-0.02724807240962982,-0.13943068252205848,0.00042377837002277374
1634126268048517000,23.41751708984375,0.004753624267876148,-0.14010346721708775,0.018738602739572525
1634126268068397300,23.437397216796874,0.06148088914006948,-0.1253100949719548,0.05213000020980835
1634126268088276500,23.4572763671875,0.06608487580418586,-0.0824438899308443,0.05885726263821125
1634126268108155100,23.477155029296874,0.028785364979505536,-0.06524491784870624,0.04231003246307373
1634126268128034300,23.497034423828126,0.019962007054686544,-0.04797141922563314,0.07065466793775559
1634126268147913200,23.516913330078125,-0.011846212877333163,-0.05983487549871206,0.06040040042698383
1634126268167792400,23.53679248046875,-0.024794834038615224,-0.043431729969382285,0.05756722282767295
1634126268187671300,23.55667138671875,-0.04306348117887974,-0.027897476229071617,0.04384849407672882
1634126268207550200,23.57655029296875,-0.008911620730161666,-0.020246084693074224,0.03172492556273937
1634126268227429400,23.596429443359376,-0.03660743690729141,-0.07514321152865887,0.11057634395956993
1634126268247308300,23.616308349609376,-0.05248012882173061,-0.0416840095192194,0.06261515386700629
1634126268267188200,23.636188232421876,-0.024193945536017416,0.025536007794737813,-0.0453653283804655
1634126268287067400,23.6560673828125,0.021288287222385405,0.026088380980491637,-0.08188333343863487
1634126268306946300,23.6759462890625,0.05670505304038524,-0.03165653650164604,0.028209026396274563
1634126268326825500,23.695825439453124,0.13160802607238292,-0.07063070254027844,0.0953752676963806
1634126268346704100,23.7157041015625,0.13052461474984883,-0.07329173844307661,0.11753916870951651
1634126268366583000,23.7355830078125,0.10756313361823558,-0.047391281250119204,0.12597265053391457
1634126268386462200,23.755462158203127,0.059418988174200056,0.006155307759344577,0.11164835710525511
1634126268406341000,23.775341064453126,0.029564532658457755,0.02790039883852005,0.12443185083270072
1634126268426220300,23.79522021484375,0.03162497231960296,0.05003536601811647,0.09221066618561743
1634126268446099200,23.81509912109375,0.05660042362213134,0.0646194794267416,0.06628945846557617
1634126268465979100,23.834979248046874,0.046859366330504415,0.04937631758749485,0.04357376878857613
1634126268485858300,23.8548583984375,0.01964490392953157,-0.02125058556050062,0.08494272100925446
1634126268505737000,23.874737060546874,0.061354340150952334,-0.03030716771930456,0.10166413870751857
1634126268525616000,23.8946162109375,0.08003975139856338,-0.04233282881677151,0.10626315693557262
1634126268545495300,23.914495361328125,0.0874415520876646,-0.03709229781478643,0.1256535015821457
1634126268565374200,23.934374267578125,0.07251987728774548,-0.02263619470000267,0.131844757437706
1634126268585253000,23.954253173828125,0.07274024204015732,0.01849047319740057,0.11532149266004561
1634126268605132000,23.974132080078125,0.060488955493271344,0.04052811748236418,0.06488660593032837
1634126268625011200,23.99401123046875,0.052853638309240336,0.030341362249851227,0.0828407802939415
1634126268644890000,24.01389013671875,0.02344488073438406,-0.0066308163166046135,0.1111392385393381
1634126268664769300,24.033769287109376,0.01104775597602129,0.0013107903376221655,0.09015431817770003
1634126268684649200,24.053649169921876,-0.015505612167716025,-0.015934651234745977,0.04265373133420944
1634126268704528100,24.073528076171876,0.003301671893894672,-0.045262452527880664,0.09479834459125995
1634126268724407300,24.0934072265625,-0.055526656910777086,-0.05154723188579082,0.09689911626279353
1634126268744286000,24.113285888671875,-0.031663843025267126,0.020373218204081056,0.013459201031923293
1634126268764165000,24.1331650390625,0.018649755412340163,0.042650516463816165,-0.015202829828858375
1634126268784044300,24.153044189453126,0.0353401934504509,-0.018745617002248763,0.04264320994019508
1634126268803923200,24.172923095703126,0.01776800414174795,-0.07529781756848096,0.13324351831972597
1634126268823802000,24.192802001953126,0.010352467188239097,-0.05643208131790161,0.154109196215868
