Acc_timestamp,Accx,Accy,Accz,Gyro_timestamp,Gyrox,Gyroy,Gyroz,Baro_timestamp,Pressure_Reading
20866304.000000,-9.413363,-0.681954,0.535992,20864384.000000,-117.599998,-181.369995,-21.700001,0.000000,0.000000
20888832.000000,-8.623734,-0.806381,0.801596,20884736.000000,-113.470001,-174.720001,-22.400000,0.000000,0.000000
20905984.000000,-8.202596,-0.808774,0.299103,20907264.000000,-93.449997,-166.460007,-22.680000,0.000000,0.000000
20925952.000000,-7.625926,-0.155533,-0.629312,20924416.000000,-63.209999,-155.750000,-20.440001,0.000000,0.000000
20945920.000000,-6.427122,0.717847,-1.658226,20944384.000000,-36.470001,-145.389999,-16.660000,0.000000,0.000000
20965888.000000,-5.355137,1.083949,-2.124826,20964352.000000,-27.090000,-137.830002,-10.080000,0.000000,0.000000
20986752.000000,-4.917251,0.780060,-1.957329,20984320.000000,-44.520000,-120.400002,-7.630000,0.000000,0.000000
21005824.000000,-5.101498,0.327817,-1.270589,21005184.000000,-63.139999,-90.860001,-3.640000,0.000000,0.000000
21025920.000000,-5.706882,0.260818,-0.442672,21024256.000000,-62.650002,-55.720001,0.840000,0.000000,0.000000
21045888.000000,-8.149954,0.148355,-0.868595,21044352.000000,-45.639999,-17.570000,9.800000,0.000000,0.000000
21065856.000000,-11.296515,0.528814,-1.277767,21064320.000000,-26.320000,35.349998,21.559999,0.000000,0.000000
21086720.000000,-11.588440,0.461815,-1.234696,21084288.000000,-32.549999,94.570000,33.529999,0.000000,0.000000
21105792.000000,-12.014362,0.497707,-0.256032,21105152.000000,-42.209999,130.410004,52.220001,0.000000,0.000000
21125760.000000,-12.741781,0.203390,1.083949,21124224.000000,-49.000000,175.000000,60.970001,0.000000,0.000000
21145856.000000,-13.105491,-0.636491,1.612763,21144192.000000,-48.160000,217.350006,72.379997,0.000000,0.000000
21165824.000000,-13.153346,-1.306481,1.823331,21164288.000000,-33.250000,251.509995,88.269997,0.000000,0.000000
21186688.000000,-13.818550,-1.574477,2.813959,21184256.000000,-0.210000,275.869995,104.860001,0.000000,0.000000
21205760.000000,-14.854643,-1.952543,4.376472,21205120.000000,47.180000,289.799988,118.860001,1426602624.000000,1009.024902
21225728.000000,-14.845071,-2.268396,4.637290,21224192.000000,115.010002,294.559998,124.180000,0.000000,0.000000
21245696.000000,-13.868800,-1.672583,1.859223,21244160.000000,211.610001,279.440002,112.770004,0.000000,0.000000
21265792.000000,-12.993028,0.813560,-0.787239,21264128.000000,311.360016,241.080002,81.550003,0.000000,0.000000
21286656.000000,-12.110075,4.206582,-1.562513,21284224.000000,340.130005,185.710007,39.830002,0.000000,0.000000
21305728.000000,-10.923235,6.077770,-0.701097,21305088.000000,257.250000,135.309998,3.570000,0.000000,0.000000
21325696.000000,-10.511670,4.759324,-0.267996,21324160.000000,90.230003,101.360001,-40.110001,0.000000,0.000000
21345664.000000,-11.006985,2.196611,0.071785,21344128.000000,-79.590004,96.599998,-86.379997,0.000000,0.000000
21365632.000000,-11.633904,0.150748,1.062413,21364096.000000,-209.369995,105.000000,-116.129997,0.000000,0.000000
21386752.000000,-11.925828,-0.818345,2.041078,21384064.000000,-272.860016,109.760002,-119.980003,0.000000,0.000000
21405696.000000,-11.643474,-1.452443,2.392823,21405184.000000,-266.489990,114.800003,-97.019997,0.000000,0.000000
21425664.000000,-10.882557,-1.892723,2.725425,21424128.000000,-214.550003,117.809998,-61.880001,0.000000,0.000000
21445632.000000,-10.403993,-2.225325,3.830909,21444096.000000,-151.479996,119.559998,-18.480000,0.000000,0.000000
21465600.000000,-10.238889,-1.579263,4.740182,21464064.000000,-82.320000,126.559998,23.870001,0.000000,0.000000
21486464.000000,-10.016356,-0.763310,4.996214,21484032.000000,-2.310000,135.660004,55.090000,0.000000,0.000000
21505536.000000,-9.970891,-0.009571,5.678168,21504896.000000,79.029999,135.380005,69.720001,0.000000,0.000000
21525632.000000,-11.045268,0.957129,6.585048,21544064.000000,199.430008,124.599998,72.660004,0.000000,0.000000
21545600.000000,-13.246667,2.196611,6.604190,0.000000,0.000000,0.000000,0.000000,0.000000,0.000000
21565568.000000,-14.158331,3.349952,4.654040,21564032.000000,236.110001,113.959999,70.070000,0.000000,0.000000
21586432.000000,-13.021741,4.479364,2.368894,21584000.000000,236.320007,74.059998,65.870003,0.000000,0.000000
21605504.000000,-13.476377,5.726025,2.586641,21604864.000000,176.889999,10.640000,62.790001,0.000000,0.000000
21625472.000000,-16.082161,5.326423,3.326023,21623936.000000,67.199997,-34.160000,51.310001,0.000000,0.000000
21645568.000000,-18.080168,2.825923,2.644069,21643904.000000,-42.070000,-57.260002,31.360001,0.000000,0.000000
21665536.000000,-18.068203,0.236889,1.241875,21664000.000000,-122.570000,-93.169998,3.290000,0.000000,0.000000
21686400.000000,-15.364313,-1.048056,0.607777,21683968.000000,-164.500000,-139.649994,-10.220000,0.000000,0.000000
21705472.000000,-13.021741,-1.100698,0.765703,21704832.000000,-172.830002,-190.330002,-7.980000,0.000000,0.000000
21725568.000000,-12.947563,-1.028914,1.088734,21723904.000000,-156.029999,-219.449997,-15.820000,0.000000,0.000000
21745408.000000,-14.778071,-1.526621,0.942772,21744000.000000,-118.580002,-222.040009,-30.799999,0.000000,0.000000
21765504.000000,-16.929220,-2.076970,0.528814,21763840.000000,-64.750000,-211.610001,-43.540001,0.000000,0.000000
21786368.000000,-17.704494,-2.395216,-0.045464,21783936.000000,-4.410000,-201.880005,-42.700001,0.000000,0.000000
21805440.000000,-16.429121,-2.323431,-0.945165,21804800.000000,55.930000,-199.080002,-26.809999,0.000000,0.000000
21825408.000000,-14.510076,-1.914258,-1.395016,21823872.000000,106.050003,-203.139999,-1.260000,0.000000,0.000000
21845376.000000,-12.380465,-1.311267,-1.622334,21843840.000000,135.029999,-206.500000,18.410000,0.000000,0.000000
21865344.000000,-11.217552,-0.669990,-1.840081,21863808.000000,139.649994,-213.500000,27.510000,0.000000,0.000000
21888256.000000,-10.736595,0.076570,-1.852045,21883776.000000,126.279999,-215.529999,22.049999,0.000000,0.000000
21905408.000000,-10.346564,0.521635,-1.816152,21906688.000000,97.160004,-214.759995,7.910000,0.000000,0.000000
21925376.000000,-10.042676,0.512064,-1.758725,21923840.000000,52.639999,-212.940002,-8.960000,0.000000,0.000000
21945344.000000,-9.762716,-0.011964,-1.560120,21943808.000000,-3.990000,-208.740005,-26.950001,0.000000,0.000000
21965312.000000,-9.346365,-0.564706,-1.088734,21963776.000000,-59.639999,-199.149994,-41.860001,0.000000,0.000000
21986304.000000,-8.621340,-0.866202,-0.851845,21983744.000000,-99.470001,-188.649994,-53.760002,0.000000,0.000000
22005376.000000,-7.922636,-1.062413,-0.787239,22004736.000000,-117.180000,-180.110001,-62.650002,0.000000,0.000000
22025344.000000,-7.444071,-0.634098,-1.720440,22023808.000000,-121.099998,-171.430008,-70.070000,0.000000,0.000000
22045312.000000,-6.632904,0.622134,-3.352344,22043776.000000,-114.940002,-160.930008,-75.110001,0.000000,0.000000
22065280.000000,-5.123034,1.442872,-4.058227,22063744.000000,-105.559998,-154.910004,-75.739998,0.000000,0.000000
22086144.000000,-4.094120,1.127020,-2.431108,22104576.000000,-138.180008,-122.779999,-66.290001,0.000000,0.000000
22105216.000000,-4.646862,0.267996,-0.909273,0.000000,0.000000,0.000000,0.000000,0.000000,0.000000
22125312.000000,-6.630512,-0.155533,0.445065,22123648.000000,-145.949997,-64.959999,-55.790001,0.000000,0.000000
22145280.000000,-8.939585,-0.729811,-0.122034,22143744.000000,-136.570007,0.980000,-42.139999,0.000000,0.000000
22165248.000000,-10.841879,-0.693919,-0.275175,22163712.000000,-105.000000,51.240002,-6.930000,0.000000,0.000000
22186112.000000,-10.832308,-0.165105,0.378066,22183680.000000,-81.690002,108.010002,37.730000,0.000000,0.000000
22205184.000000,-10.999805,0.143569,1.261017,22204544.000000,-52.500000,151.130005,87.989998,1427602048.000000,1009.025391
22225152.000000,-12.330215,-0.423530,1.462015,22223616.000000,-18.620001,196.070007,119.840004,0.000000,0.000000
22245248.000000,-13.375877,-1.019342,1.768296,22243584.000000,19.670000,242.550003,140.070007,0.000000,0.000000
22265216.000000,-14.467006,-0.674776,3.081956,22263680.000000,61.740002,274.119995,155.399994,0.000000,0.000000
22286080.000000,-16.118053,-0.162712,3.242275,22283648.000000,106.750000,292.950012,164.710007,0.000000,0.000000
22305152.000000,-16.505690,-0.366102,2.608176,22304512.000000,160.720001,309.679993,165.899994,0.000000,0.000000
22325120.000000,-15.302100,-0.514457,1.509871,22323584.000000,190.190002,308.559998,154.490005,0.000000,0.000000
22345088.000000,-13.808979,1.395016,0.236889,22343552.000000,248.639999,276.290009,143.990005,0.000000,0.000000
22365184.000000,-12.394822,4.656433,-0.241675,22363520.000000,276.079987,222.669998,113.120003,0.000000,0.000000
22386048.000000,-10.980663,6.407979,-0.035892,22383616.000000,232.330002,173.460007,79.169998,0.000000,0.000000
22405120.000000,-10.590633,5.812167,0.016750,22404480.000000,111.160004,131.389999,34.230000,0.000000,0.000000
22425088.000000,-10.724631,3.103491,-0.397209,22423552.000000,-48.299999,112.629997,-23.309999,0.000000,0.000000
22445056.000000,-11.542977,0.634098,-0.318245,22443520.000000,-193.130005,118.090004,-65.309998,0.000000,0.000000
22465024.000000,-11.863614,-0.617348,0.490529,22463488.000000,-282.170013,123.059998,-85.400002,0.000000,0.000000
22486016.000000,-11.808580,-1.359123,0.758525,22483456.000000,-297.010010,115.849998,-77.910004,0.000000,0.000000
22505088.000000,-11.688939,-2.227718,1.287339,22504448.000000,-263.480011,108.779999,-54.320000,0.000000,0.000000
22525056.000000,-11.212767,-2.854637,1.995614,22523520.000000,-221.690002,105.209999,-19.950001,0.000000,0.000000
22545024.000000,-10.655239,-3.127419,2.943172,22543488.000000,-178.850006,102.550003,26.110001,0.000000,0.000000
22564992.000000,-10.162319,-3.036492,3.751946,22563456.000000,-124.180000,103.250000,70.070000,0.000000,0.000000
22585984.000000,-9.997212,-2.596212,4.450650,22583424.000000,-50.820000,108.360001,106.470001,0.000000,0.000000
22605056.000000,-10.511670,-1.868794,5.125426,22604416.000000,25.480000,111.930000,123.620003,0.000000,0.000000
22625024.000000,-12.299109,-1.323231,6.250053,22623488.000000,88.269997,119.489998,130.970001,0.000000,0.000000
22644992.000000,-14.423935,-1.751546,6.762117,22643456.000000,131.250000,129.289993,129.220001,0.000000,0.000000
22664960.000000,-14.636896,-2.459821,4.852644,22663424.000000,160.720001,121.169998,118.720001,0.000000,0.000000
22685824.000000,-15.505490,-0.325424,4.170690,22683392.000000,178.850006,72.730003,95.059998,0.000000,0.000000
22704896.000000,-17.082361,2.907279,3.201597,22704256.000000,179.899994,16.240000,67.970001,0.000000,0.000000
22724992.000000,-16.622938,3.278167,1.605584,22723328.000000,144.759995,-31.010000,41.090000,0.000000,0.000000
22744960.000000,-14.725430,0.839881,1.067199,22743424.000000,54.950001,-91.000000,-1.820000,0.000000,0.000000
22764928.000000,-12.744174,-0.605384,1.653440,22763392.000000,-43.119999,-141.889999,-37.240002,0.000000,0.000000
22785792.000000,-11.612368,-0.792024,1.820938,22783360.000000,-98.000000,-176.750000,-60.340000,0.000000,0.000000
22804864.000000,-12.301501,-1.316052,1.493121,22804224.000000,-101.919998,-188.789993,-79.730003,0.000000,0.000000
22824832.000000,-14.134403,-2.373680,0.586242,22823296.000000,-70.840004,-181.509995,-101.639999,0.000000,0.000000
22844800.000000,-15.787844,-2.857030,-0.126820,22843264.000000,-16.590000,-168.559998,-109.830002,0.000000,0.000000
22864896.000000,-16.503298,-2.538785,-0.500100,22863232.000000,42.490002,-164.850006,-98.840004,0.000000,0.000000
22887680.000000,-15.098711,-1.950150,-1.399801,22883328.000000,100.379997,-169.960007,-73.080002,0.000000,0.000000
22904832.000000,-14.790037,-1.107877,-2.057827,22906112.000000,153.509995,-188.369995,-44.310001,0.000000,0.000000
22924800.000000,-13.493127,-0.435494,-2.196611,22923264.000000,176.960007,-190.470001,-29.820000,0.000000,0.000000
22944768.000000,-12.088539,0.282353,-2.220540,22943232.000000,163.940002,-204.680008,-13.930000,0.000000,0.000000
22964736.000000,-11.363515,0.509671,-2.452643,22963200.000000,126.139999,-214.830002,-13.440001,0.000000,0.000000
22985728.000000,-11.083554,0.382852,-2.234896,22983168.000000,80.639999,-213.360001,-22.960001,0.000000,0.000000
23004800.000000,-10.729417,0.112463,-2.153540,23004160.000000,30.870001,-209.509995,-37.240002,0.000000,0.000000
23024768.000000,-10.734202,-0.433101,-1.359123,23023232.000000,-10.500000,-201.949997,-47.180000,0.000000,0.000000
23044736.000000,-9.561719,-0.823131,0.016750,23043200.000000,-35.980000,-185.919998,-51.660000,0.000000,0.000000
23064704.000000,-6.987042,-0.430708,0.741775,23063168.000000,-47.389999,-173.600006,-47.110001,0.000000,0.000000
23085696.000000,-5.474778,-0.729811,1.196411,23083136.000000,-38.920002,-171.430008,-36.889999,0.000000,0.000000
23104768.000000,-5.608776,-0.969093,1.076770,23104128.000000,-22.680000,-156.520004,-26.600000,0.000000,0.000000
23124736.000000,-7.104291,-1.335195,0.160319,23123200.000000,-21.910000,-120.260002,-16.450001,0.000000,0.000000
23144704.000000,-8.561519,-1.229911,-0.282353,23143168.000000,-29.049999,-89.739998,-13.930000,0.000000,0.000000
23164672.000000,-9.028119,-0.988236,-0.378066,23163136.000000,-31.780001,-75.879997,-12.180000,0.000000,0.000000
23185536.000000,-8.338986,-0.411566,-1.045663,23203968.000000,-28.420000,-79.099998,-23.450001,1428601600.000000,1009.023254
23204608.000000,-7.314859,0.394816,-1.368695,0.000000,0.000000,0.000000,0.000000,0.000000,0.000000
23224704.000000,-7.453642,0.641276,-1.768296,23223040.000000,-20.790001,-70.489998,-36.959999,0.000000,0.000000
23244672.000000,-9.655040,0.279960,-3.481557,23243136.000000,-10.850000,-43.750000,-48.930000,0.000000,0.000000
23264640.000000,-11.916256,0.954736,-3.235096,23263104.000000,-2.100000,3.010000,-52.779999,0.000000,0.000000
23285504.000000,-10.736595,1.631905,-1.141376,23283072.000000,8.330000,36.470001,-44.099998,0.000000,0.000000
23304576.000000,-9.166903,1.105484,0.555135,23303936.000000,41.650002,50.610001,-18.830000,0.000000,0.000000
23324544.000000,-9.877571,0.921237,0.703490,23323008.000000,72.800003,95.690002,-2.870000,0.000000,0.000000
23344640.000000,-11.002198,1.854438,0.138784,23342976.000000,81.129997,163.169998,12.390000,0.000000,0.000000
23364608.000000,-11.499906,2.660819,-0.772882,23363072.000000,77.489998,212.520004,28.770000,0.000000,0.000000
23385472.000000,-12.433105,2.275574,-1.026521,23383040.000000,63.910000,227.290009,41.299999,0.000000,0.000000
23404544.000000,-13.825729,1.476372,-0.330210,23403904.000000,29.049999,232.470001,48.020000,0.000000,0.000000
23424512.000000,-14.787644,1.124627,0.581456,23422976.000000,-15.400000,231.139999,53.830002,0.000000,0.000000
23444480.000000,-14.514862,1.055235,1.818545,23442944.000000,-35.700001,219.660004,61.950001,0.000000,0.000000
23464576.000000,-13.201202,1.304088,2.483750,23462912.000000,-24.010000,205.240005,63.910000,0.000000,0.000000
23485440.000000,-12.303895,1.698904,1.990828,23483008.000000,4.900000,190.330002,59.570000,0.000000,0.000000
23504512.000000,-11.810973,1.864009,1.174876,23503872.000000,29.750000,182.979996,46.270000,0.000000,0.000000
23524480.000000,-11.495120,1.325624,0.301496,23522944.000000,21.559999,176.259995,34.439999,0.000000,0.000000
23544448.000000,-12.100503,0.679562,0.220140,23542912.000000,-13.160000,166.740005,28.910000,0.000000,0.000000
23564416.000000,-13.112667,0.454636,0.457029,23562880.000000,-43.189999,161.910004,26.809999,0.000000,0.000000
23585408.000000,-13.428520,0.248854,1.153341,23582848.000000,-48.160000,154.839996,27.160000,0.000000,0.000000
23604480.000000,-12.629318,0.016750,1.411765,23603840.000000,-43.610001,143.430008,30.100000,0.000000,0.000000
23624448.000000,-12.222539,-0.397209,1.998007,23622912.000000,-46.200001,138.600006,40.040001,0.000000,0.000000
23644416.000000,-11.930614,-0.514457,2.512464,23642880.000000,-49.420002,151.130005,50.400002,0.000000,0.000000
23664384.000000,-11.387443,-0.476172,2.897708,23662848.000000,-45.639999,159.250000,57.959999,0.000000,0.000000
23685248.000000,-10.939985,-0.488136,3.498307,23682816.000000,-27.160000,161.210007,62.860001,0.000000,0.000000
23704448.000000,-10.947165,-0.406780,4.266403,23703680.000000,-2.310000,150.990005,59.570000,0.000000,0.000000
23724416.000000,-12.201002,-0.224925,5.197211,23722880.000000,21.910000,141.610001,55.720001,0.000000,0.000000
23744384.000000,-13.792230,-0.337388,5.840880,23742848.000000,46.970001,136.360001,52.290001,0.000000,0.000000
23764352.000000,-13.433307,-0.358923,4.969893,23762816.000000,78.190002,120.400002,50.470001,0.000000,0.000000
23785216.000000,-12.497713,0.088534,3.864408,23782784.000000,108.080002,78.470001,49.560001,0.000000,0.000000
23804288.000000,-14.498112,1.612763,5.063213,23803648.000000,118.090004,27.230000,42.139999,0.000000,0.000000
23824384.000000,-16.438692,2.579463,4.654040,23822720.000000,102.900002,4.830000,30.309999,0.000000,0.000000
23844352.000000,-15.842879,1.940579,2.782853,23842816.000000,77.419998,-28.980000,19.530001,0.000000,0.000000
23864320.000000,-13.923835,0.727418,1.584049,23862784.000000,37.099998,-86.870003,-2.240000,0.000000,0.000000
23887232.000000,-12.366108,0.303888,1.268196,23882752.000000,-6.790000,-138.039993,-11.900000,0.000000,0.000000
23904256.000000,-12.308680,0.236889,1.268196,23905664.000000,-36.189999,-177.169998,-26.250000,0.000000,0.000000
23924224.000000,-13.899906,-0.083749,1.284946,23922688.000000,-49.349998,-196.910004,-44.799999,0.000000,0.000000
23944320.000000,-16.555939,-0.957129,0.708275,23942656.000000,-50.610001,-199.570007,-62.230000,0.000000,0.000000
23964288.000000,-18.826727,-1.942972,0.035892,23962752.000000,-37.520000,-199.919998,-75.459999,0.000000,0.000000
23985152.000000,-18.623339,-2.330609,-0.315853,23982720.000000,-13.090000,-206.779999,-80.360001,0.000000,0.000000
24004224.000000,-16.773687,-1.931008,-0.229711,24003584.000000,12.670000,-222.740005,-70.070000,0.000000,0.000000
24024192.000000,-15.677773,-1.648655,-0.569492,24022656.000000,35.279999,-237.369995,-57.680000,0.000000,0.000000
24044160.000000,-14.809179,-1.605584,-1.052842,24042624.000000,63.700001,-245.139999,-57.750000,0.000000,0.000000
24064256.000000,-13.899906,-0.923629,-1.112662,24062592.000000,77.629997,-252.419998,-65.099998,0.000000,0.000000
24085120.000000,-12.978670,-1.004985,-0.940379,24082688.000000,66.500000,-259.279999,-71.120003,0.000000,0.000000
24104192.000000,-12.473784,-1.507478,-0.863809,24103552.000000,48.160000,-259.700012,-75.809998,0.000000,0.000000
24124160.000000,-11.851650,-1.519442,-0.966700,24122624.000000,38.290001,-255.500000,-76.930000,0.000000,0.000000
24144128.000000,-10.932807,-1.270589,-0.861416,24142592.000000,43.889999,-249.270004,-70.000000,0.000000,0.000000
24164096.000000,-9.870394,-1.287339,-0.806381,24162560.000000,49.910000,-241.290009,-58.380001,0.000000,0.000000
24185088.000000,-9.116654,-1.328017,-0.820738,24203520.000000,36.889999,-212.800003,-38.360001,1429601024.000000,1009.024170
24204160.000000,-8.472985,-0.985843,-1.871187,0.000000,0.000000,0.000000,0.000000,0.000000,0.000000
24224128.000000,-7.348359,-0.107677,-3.263810,24222592.000000,35.490002,-197.470001,-32.130001,0.000000,0.000000
24244096.000000,-5.848059,0.873380,-4.254438,24242560.000000,38.779999,-192.080002,-29.680000,0.000000,0.000000
24264064.000000,-4.369294,1.363909,-3.871587,24262528.000000,32.549999,-186.270004,-27.090000,0.000000,0.000000
24284928.000000,-3.682554,0.591027,-2.383251,24282496.000000,-0.840000,-169.820007,-25.549999,0.000000,0.000000
24304000.000000,-4.029513,0.189033,-1.428515,24303360.000000,-49.420002,-137.410004,-23.450001,0.000000,0.000000
24324096.000000,-5.364708,-0.746561,-0.447458,24322432.000000,-74.480003,-81.269997,-20.299999,0.000000,0.000000
24344064.000000,-7.271788,-0.851845,-1.217947,24342528.000000,-62.439999,-18.620001,-10.290000,0.000000,0.000000
24364032.000000,-9.913465,-0.294317,-2.486143,24362496.000000,-21.910000,33.250000,9.940000,0.000000,0.000000
24384896.000000,-11.117055,0.093320,-2.462214,24382464.000000,7.490000,93.870003,31.500000,0.000000,0.000000
24403968.000000,-11.085947,0.378066,-1.225125,24403328.000000,9.940000,137.550003,48.509998,0.000000,0.000000
24423936.000000,-11.198411,-0.129212,-0.827917,24422400.000000,5.460000,177.940002,50.259998,0.000000,0.000000
24444032.000000,-12.122040,-0.507278,-0.251246,24442368.000000,14.980000,227.500000,44.660000,0.000000,0.000000
24464000.000000,-13.263416,0.086142,0.732204,24462464.000000,27.370001,270.970001,40.110001,0.000000,0.000000
24484864.000000,-14.648861,0.777667,1.026521,24482432.000000,51.099998,299.809998,38.080002,0.000000,0.000000
24503936.000000,-16.158731,1.055235,0.251246,24503296.000000,80.709999,313.950012,39.549999,0.000000,0.000000
24523904.000000,-16.220945,1.708475,-0.634098,24522368.000000,90.510002,321.160004,43.889999,0.000000,0.000000
24543872.000000,-15.684953,2.356930,-1.241875,24542336.000000,81.900002,299.739990,52.500000,0.000000,0.000000
24563968.000000,-14.962320,2.715853,-0.928415,24562304.000000,77.209999,262.149994,52.150002,0.000000,0.000000
24584832.000000,-13.799409,3.117848,-0.172283,24582400.000000,66.849998,219.660004,38.709999,0.000000,0.000000
24603904.000000,-13.172488,3.383451,0.457029,24603264.000000,35.700001,184.940002,20.299999,0.000000,0.000000
24623872.000000,-13.390236,2.311467,1.028914,24622336.000000,-25.969999,170.169998,1.190000,0.000000,0.000000
24643840.000000,-13.964513,0.672383,1.115055,24642304.000000,-98.000000,173.949997,-8.680000,0.000000,0.000000
24663808.000000,-14.220546,-0.435494,1.490728,24662272.000000,-144.759995,177.869995,-12.250000,0.000000,0.000000
24684800.000000,-14.079369,-0.921237,2.158326,24682240.000000,-149.589996,179.479996,-1.120000,0.000000,0.000000
24703872.000000,-13.713267,-1.337588,3.117848,24703232.000000,-115.919998,177.729996,17.150000,0.000000,0.000000
24723840.000000,-13.050454,-1.524228,3.840480,24722304.000000,-58.869999,178.080002,37.029999,0.000000,0.000000
24743808.000000,-12.138789,-1.153341,3.783052,24742272.000000,8.190000,178.639999,52.639999,0.000000,0.000000
24764032.000000,-11.162518,-0.430708,3.443272,24762240.000000,72.519997,174.860001,63.980000,0.000000,0.000000
24784768.000000,-10.738988,0.351745,3.285345,24782464.000000,123.620003,163.660004,64.330002,0.000000,0.000000
24803840.000000,-11.006985,1.217947,3.632305,24803200.000000,151.759995,142.589996,53.480000,0.000000,0.000000
24823808.000000,-12.126825,1.689333,4.515256,24822272.000000,163.100006,119.279999,42.279999,0.000000,0.000000
24843776.000000,-13.086348,2.088934,4.795217,24842240.000000,157.220001,96.459999,32.060001,0.000000,0.000000
24863744.000000,-12.777672,2.500499,3.491128,24862208.000000,147.070007,66.360001,30.309999,0.000000,0.000000
24886656.000000,-13.507483,3.141776,3.534199,24882176.000000,135.029999,19.879999,25.830000,0.000000,0.000000
24903680.000000,-15.692131,3.505485,4.563113,24905088.000000,101.080002,-14.350000,17.990000,0.000000,0.000000
24923776.000000,-17.405392,2.734996,3.680161,24922112.000000,60.760002,-30.590000,20.230000,0.000000,0.000000
24943744.000000,-17.161324,1.820938,1.875973,24942208.000000,28.000000,-63.209999,18.690001,0.000000,0.000000
24963712.000000,-14.445471,1.150948,1.057628,24962176.000000,4.760000,-107.590004,26.530001,0.000000,0.000000
24984576.000000,-12.674782,0.720240,0.940379,24982144.000000,-16.100000,-161.490005,35.279999,0.000000,0.000000
25003648.000000,-13.234701,0.208176,1.014557,25003008.000000,-36.189999,-195.020004,30.240000,0.000000,0.000000
25023616.000000,-15.448064,-0.617348,0.825524,25022080.000000,-52.009998,-202.509995,18.410000,0.000000,0.000000
25043712.000000,-17.718851,-1.277767,0.064606,25042048.000000,-49.980000,-205.309998,5.600000,0.000000,0.000000
25063680.000000,-18.290737,-1.636691,-0.581456,25062144.000000,-20.160000,-213.360001,0.980000,0.000000,0.000000
25084544.000000,-17.252251,-1.258625,-0.770489,25082112.000000,33.320000,-238.000000,6.020000,0.000000,0.000000
25103616.000000,-15.208780,-0.911665,-0.500100,25102976.000000,82.599998,-263.130005,19.740000,0.000000,0.000000
25123584.000000,-14.072189,0.488136,-1.404587,25122048.000000,108.150002,-276.570007,33.810001,0.000000,0.000000
25143552.000000,-14.067404,1.074377,-1.957329,25142016.000000,96.320000,-278.390015,41.160000,0.000000,0.000000
25163648.000000,-13.210773,0.033500,-1.560120,25161984.000000,55.369999,-264.390015,37.660000,0.000000,0.000000
25184512.000000,-12.930815,-0.196211,-1.002593,25182080.000000,-1.680000,-263.130005,26.460001,0.000000,0.000000
25203584.000000,-13.048061,-0.382852,-0.394816,25202944.000000,-43.610001,-249.970001,22.190001,1430600448.000000,1009.025391
25223552.000000,-11.748759,-0.638884,0.476172,25222016.000000,-58.240002,-230.089996,27.020000,0.000000,0.000000
25243520.000000,-9.695717,-0.775275,1.325624,25241984.000000,-58.380001,-212.100006,35.490002,0.000000,0.000000
25263488.000000,-9.183653,-1.071985,2.677568,25261952.000000,-40.459999,-192.289993,44.660000,0.000000,0.000000
25284480.000000,-9.523434,-0.598206,4.232903,25281920.000000,-14.560000,-159.740005,53.060001,0.000000,0.000000
25303552.000000,-10.583455,0.069392,3.101098,25302912.000000,18.059999,-126.489998,64.470001,0.000000,0.000000
25323520.000000,-11.071590,0.488136,0.579063,25321984.000000,54.180000,-104.650002,73.779999,0.000000,0.000000
25343488.000000,-9.446864,0.803988,-0.990629,25341952.000000,60.830002,-104.370003,77.699997,0.000000,0.000000
25363456.000000,-7.322037,1.038485,-1.727618,25361920.000000,24.080000,-131.809998,71.400002,0.000000,0.000000
25384320.000000,-5.541777,1.045663,-3.022135,25381888.000000,-56.490002,-156.589996,46.270000,0.000000,0.000000
25403520.000000,-5.046463,1.284946,-2.545963,25402752.000000,-138.740005,-152.250000,7.630000,0.000000,0.000000
25423488.000000,-5.656632,0.196211,-2.746960,25421952.000000,-200.059998,-137.199997,-42.700001,0.000000,0.000000
25443456.000000,-7.054041,-0.595813,-2.696711,25441920.000000,-216.229996,-105.559998,-73.570000,0.000000,0.000000
25463424.000000,-6.769295,-0.947558,-1.454836,25461888.000000,-200.059998,-66.010002,-83.930000,0.000000,0.000000
25484288.000000,-5.730811,-0.198604,-0.734596,25481856.000000,-137.690002,-41.369999,-65.519997,0.000000,0.000000
25503360.000000,-6.149554,0.363709,-0.564706,25502720.000000,-56.490002,7.070000,-40.529999,0.000000,0.000000
25523328.000000,-7.386643,0.394816,-1.182054,25521792.000000,6.580000,73.010002,-23.379999,0.000000,0.000000
25543424.000000,-7.908278,1.000200,-2.804388,25541760.000000,32.759998,142.800003,-10.920000,0.000000,0.000000
25563392.000000,-8.733803,1.612763,-4.063013,25561856.000000,42.630001,194.880005,-3.640000,0.000000,0.000000
25584256.000000,-11.181661,1.170090,-3.519842,25581824.000000,45.990002,221.759995,1.050000,0.000000,0.000000
25603328.000000,-14.148761,0.803988,-1.275374,25602688.000000,21.629999,240.240005,3.640000,0.000000,0.000000
25623296.000000,-14.943177,0.524028,-0.411566,25621760.000000,-15.820000,246.889999,17.920000,0.000000,0.000000
25643392.000000,-14.419148,0.107677,-0.138784,25641728.000000,-18.200001,247.449997,35.910000,0.000000,0.000000
25663360.000000,-15.014962,-0.153141,0.119641,25661824.000000,10.220000,255.779999,44.660000,0.000000,0.000000
25684224.000000,-15.885949,0.272782,1.234696,25681792.000000,48.020000,272.089996,51.029999,0.000000,0.000000
25703296.000000,-17.115860,1.696511,2.361716,25702656.000000,94.570000,284.059998,48.790001,0.000000,0.000000
25723264.000000,-17.510677,2.689533,1.304088,25721728.000000,147.559998,292.040009,39.410000,0.000000,0.000000
25743232.000000,-16.910078,3.728018,-0.162712,25741696.000000,183.960007,292.390015,22.400000,0.000000,0.000000
25763328.000000,-17.070396,4.046263,-0.119641,25761664.000000,162.119995,274.049988,7.910000,0.000000,0.000000
25784192.000000,-17.690138,3.359523,1.316052,25781760.000000,81.129997,253.399994,-7.490000,0.000000,0.000000
25803264.000000,-16.931612,2.371287,2.481357,25802624.000000,-16.799999,239.399994,-18.900000,0.000000,0.000000
25823232.000000,-16.338192,1.354338,3.656233,25821696.000000,-71.610001,225.330002,-27.580000,0.000000,0.000000
25843200.000000,-15.309279,0.693919,4.311867,25841664.000000,-76.860001,215.180008,-32.060001,0.000000,0.000000
25863168.000000,-14.060226,0.256032,4.699504,25861632.000000,-52.779999,199.779999,-26.600000,0.000000,0.000000
25886080.000000,-12.894921,0.294317,4.914857,25881600.000000,-6.930000,177.380005,-19.110001,0.000000,0.000000
25903232.000000,-12.457035,1.000200,5.446064,25904512.000000,44.310001,150.570007,-6.510000,0.000000,0.000000
25923200.000000,-12.552748,1.512264,6.262017,25921664.000000,92.959999,130.479996,6.860000,0.000000,0.000000
25943168.000000,-12.291929,1.629512,6.345766,25941632.000000,132.789993,117.809998,18.129999,0.000000,0.000000
25963136.000000,-11.942577,1.947758,5.300103,25961600.000000,167.369995,101.290001,26.250000,0.000000,0.000000
25984000.000000,-13.069597,2.933600,5.740381,25981568.000000,195.300003,74.690002,32.200001,0.000000,0.000000
26003072.000000,-14.699109,3.862016,6.520442,26002432.000000,199.220001,49.209999,37.380001,0.000000,0.000000
26023168.000000,-15.412170,3.826123,5.197211,26021504.000000,187.389999,23.379999,49.840000,0.000000,0.000000
26043136.000000,-15.117853,3.457629,3.309274,26041600.000000,171.779999,-15.330000,60.410000,0.000000,0.000000
26063104.000000,-13.258631,2.880959,2.045863,26061568.000000,140.770004,-58.520000,84.070000,0.000000,0.000000
26083968.000000,-11.873186,3.177669,1.225125,26081536.000000,102.760002,-111.720001,105.699997,0.000000,0.000000
26103040.000000,-12.258430,3.165704,1.146162,26102400.000000,65.870003,-148.680008,114.309998,0.000000,0.000000
26123008.000000,-14.912071,2.132005,1.045663,26121472.000000,21.700001,-152.320007,115.989998,0.000000,0.000000
26143104.000000,-18.307486,0.988236,0.468993,26141440.000000,0.910000,-147.839996,113.050003,0.000000,0.000000
26163072.000000,-19.781466,0.897308,0.150748,26161536.000000,-15.400000,-145.320007,113.120003,0.000000,0.000000
26183936.000000,-18.463020,2.076970,-0.875773,26181504.000000,-7.000000,-162.820007,121.800003,0.000000,0.000000
26203008.000000,-17.570496,2.218147,-1.203590,26202368.000000,-8.050000,-192.500000,137.899994,1431599872.000000,1009.023560
26222976.000000,-16.496119,1.414158,-1.445265,26221440.000000,-45.920002,-217.279999,135.240005,0.000000,0.000000
26242944.000000,-15.385850,0.937986,-0.885344,26241408.000000,-107.449997,-238.559998,107.660004,0.000000,0.000000
26263040.000000,-14.816358,1.246661,-0.356531,26261376.000000,-156.449997,-262.500000,67.970001,0.000000,0.000000
26283904.000000,-15.431314,0.361316,0.055035,26281472.000000,-181.229996,-277.339996,28.070000,0.000000,0.000000
26302976.000000,-16.120445,-0.464208,0.366102,26302336.000000,-190.259995,-279.720001,-9.590000,0.000000,0.000000
26322944.000000,-16.005590,-1.038485,0.038285,26321408.000000,-176.119995,-276.079987,-26.040001,0.000000,0.000000
26342912.000000,-14.746965,-0.586242,-0.009571,26341376.000000,-125.440002,-273.140015,-18.830000,0.000000,0.000000
26362880.000000,-12.892529,-0.227318,-0.179462,26361344.000000,-68.529999,-261.940002,4.830000,0.000000,0.000000
26384000.000000,-11.243874,0.026321,-1.012164,26381312.000000,-10.500000,-245.419998,26.320000,0.000000,0.000000
26402944.000000,-9.829715,0.928415,-2.318645,26402432.000000,28.420000,-228.899994,41.860001,0.000000,0.000000
26422912.000000,-8.367701,1.758725,-3.347559,26421376.000000,27.790001,-214.059998,49.000000,0.000000,0.000000
26442880.000000,-6.506085,1.940579,-4.206582,26441344.000000,-15.050000,-200.830002,49.070000,0.000000,0.000000
26462848.000000,-4.967500,1.328017,-3.321238,26461312.000000,-87.779999,-185.430008,35.209999,0.000000,0.000000
26483840.000000,-4.115655,0.239282,-1.866402,26481280.000000,-149.380005,-165.339996,11.690000,0.000000,0.000000
26502912.000000,-3.943372,-0.246461,-1.227518,26502272.000000,-159.180008,-132.020004,-5.320000,0.000000,0.000000
26522880.000000,-5.285746,0.026321,-1.974079,26521344.000000,-110.809998,-90.930000,-10.290000,0.000000,0.000000
26542848.000000,-7.977671,0.746561,-3.428915,26541312.000000,-43.189999,-42.070000,-2.660000,0.000000,0.000000
26562816.000000,-8.106883,1.241875,-3.625126,26561280.000000,-13.370000,24.850000,8.400000,0.000000,0.000000
26583680.000000,-6.821937,1.368695,-2.517249,26581248.000000,-18.549999,45.080002,14.000000,0.000000,0.000000
26602752.000000,-7.731210,1.095913,-1.378266,26602112.000000,-35.700001,66.500000,7.350000,0.000000,0.000000
26622720.000000,-9.992428,0.803988,-0.875773,26621184.000000,-45.779999,118.860001,-1.400000,0.000000,0.000000
26642816.000000,-10.939985,0.098106,-0.674776,26641152.000000,-58.380001,172.550003,-2.870000,0.000000,0.000000
26662784.000000,-11.138590,-0.442672,-0.387637,26661248.000000,-59.150002,198.449997,7.000000,0.000000,0.000000
26683648.000000,-11.636297,-0.863809,0.198604,26681216.000000,-40.040001,210.139999,19.460001,0.000000,0.000000
26702720.000000,-12.638889,-0.945165,0.715454,26702080.000000,-4.620000,220.779999,33.810001,0.000000,0.000000
26722816.000000,-13.404593,-1.016950,1.550549,26721152.000000,33.320000,236.110001,40.250000,0.000000,0.000000
26742656.000000,-14.213367,1.122234,0.516850,26741248.000000,87.430000,241.149994,39.900002,0.000000,0.000000
26762752.000000,-14.234902,2.969493,-0.995414,26761088.000000,150.850006,241.710007,38.639999,0.000000,0.000000
26783616.000000,-13.519447,4.622933,-0.612563,26781184.000000,187.600006,228.339996,32.200001,0.000000,0.000000
26802688.000000,-13.033704,6.046663,0.435494,26802048.000000,155.050003,205.240005,16.730000,0.000000,0.000000
26822656.000000,-13.957335,5.460421,0.476172,26821120.000000,65.660004,201.180008,-0.420000,0.000000,0.000000
26842624.000000,-14.802001,3.053242,0.222532,26841088.000000,-36.470001,212.869995,-25.200001,0.000000,0.000000
26862592.000000,-15.988840,1.842474,0.713061,26861056.000000,-119.209999,214.479996,-37.660000,0.000000,0.000000
26885504.000000,-16.146767,1.390230,1.658226,26881024.000000,-156.309998,209.509995,-24.570000,0.000000,0.000000
26902656.000000,-15.751952,1.112662,2.038685,26903936.000000,-146.509995,197.399994,-4.900000,0.000000,0.000000
26922624.000000,-14.983855,0.890130,2.062613,26921088.000000,-125.510002,196.000000,14.770000,0.000000,0.000000
26942592.000000,-14.591432,0.423530,2.490928,26941056.000000,-106.680000,202.440002,35.209999,0.000000,0.000000
26962560.000000,-14.328221,0.165105,3.416951,26961024.000000,-85.680000,208.180008,48.439999,0.000000,0.000000
26983552.000000,-14.474185,0.031107,4.680361,26980992.000000,-54.740002,209.300003,62.580002,0.000000,0.000000
27002624.000000,-14.876178,0.224925,6.123233,27001984.000000,-7.980000,204.820007,72.029999,0.000000,0.000000
27022592.000000,-14.983855,0.540778,6.606583,27021056.000000,48.580002,195.369995,81.199997,0.000000,0.000000
27042560.000000,-13.940585,0.894916,5.967700,27041024.000000,103.599998,174.649994,83.370003,0.000000,0.000000
27062528.000000,-13.093525,1.500300,5.637490,27060992.000000,141.470001,133.770004,82.529999,0.000000,0.000000
27083392.000000,-13.746766,2.890530,7.324430,27080960.000000,149.309998,80.150002,66.080002,0.000000,0.000000
27102464.000000,-14.639289,3.570091,6.836295,27101824.000000,126.349998,39.270000,40.740002,0.000000,0.000000
27122560.000000,-14.651253,3.110669,5.175675,27120896.000000,89.389999,0.210000,11.900000,0.000000,0.000000
27142528.000000,-13.277774,2.251646,4.077370,27140992.000000,40.950001,-44.029999,-0.140000,0.000000,0.000000
27162496.000000,-10.707881,1.801795,3.632305,27160960.000000,-2.870000,-95.970001,-2.660000,0.000000,0.000000
27183360.000000,-9.631111,1.332802,3.400201,27180928.000000,-34.230000,-143.639999,-9.520000,0.000000,0.000000
27202432.000000,-10.789237,0.658026,2.971886,27201792.000000,-55.790001,-165.690002,-26.880001,1432599296.000000,1009.022949
27222400.000000,-13.531413,0.284746,2.715853,27220864.000000,-63.840000,-167.580002,-38.990002,0.000000,0.000000
27242496.000000,-16.493725,0.239282,2.445465,27240832.000000,-48.090000,-170.800003,-39.830002,0.000000,0.000000
27262464.000000,-17.970098,1.024128,1.830509,27260928.000000,-6.650000,-187.039993,-30.309999,0.000000,0.000000
27283328.000000,-17.101503,2.723032,1.227518,27280896.000000,34.439999,-209.580002,-14.490000,0.000000,0.000000
27302400.000000,-16.326229,3.723232,-0.217747,27301760.000000,47.389999,-229.110001,3.220000,0.000000,0.000000
27322368.000000,-15.498313,4.756931,-0.267996,27320832.000000,19.809999,-245.699997,5.110000,0.000000,0.000000
27342336.000000,-13.428520,5.623133,0.937986,27340800.000000,-61.320000,-264.040009,0.070000,0.000000,0.000000
27362432.000000,-14.622539,4.120440,1.153341,27360768.000000,-161.979996,-287.070007,-17.290001,0.000000,0.000000
27383296.000000,-16.438692,2.347359,1.438086,27380864.000000,-238.770004,-284.899994,-54.740002,0.000000,0.000000
27402368.000000,-16.029520,1.234696,1.631905,27401728.000000,-276.920013,-279.019989,-74.129997,0.000000,0.000000
27422336.000000,-15.318851,0.256032,1.318445,27420800.000000,-240.589996,-282.309998,-86.169998,0.000000,0.000000
27442304.000000,-13.976478,-0.299103,0.904487,27440768.000000,-162.539993,-274.049988,-90.300003,0.000000,0.000000
27462272.000000,-12.141183,0.617348,-0.526421,27460736.000000,-73.779999,-264.250000,-85.260002,0.000000,0.000000
27483264.000000,-9.860823,2.306681,-1.753939,27480704.000000,9.100000,-250.529999,-75.389999,0.000000,0.000000
27502336.000000,-7.630712,2.921637,-2.699104,27501696.000000,54.250000,-235.690002,-60.480000,0.000000,0.000000
27522304.000000,-5.682954,2.880959,-2.402394,27520768.000000,47.950001,-212.240005,-49.279999,0.000000,0.000000
27542272.000000,-4.773681,2.297110,-1.636691,27540736.000000,10.570000,-181.860001,-35.420002,0.000000,0.000000
27562240.000000,-5.273781,1.330409,-0.945165,27560704.000000,-17.920000,-139.160004,-23.170000,0.000000,0.000000
27583232.000000,-6.142376,0.507278,-0.550349,27601664.000000,-24.639999,-36.400002,11.620000,0.000000,0.000000
27602304.000000,-6.463014,-0.136391,-0.825524,0.000000,0.000000,0.000000,0.000000,0.000000,0.000000
27622272.000000,-9.190832,-0.260818,-2.081756,27620736.000000,1.680000,-6.370000,24.500000,0.000000,0.000000
27642240.000000,-11.923435,0.325424,-2.871387,27640704.000000,28.490000,37.170002,36.400002,0.000000,0.000000
27662208.000000,-9.978070,0.507278,-2.711068,27660672.000000,41.860001,73.709999,48.439999,0.000000,0.000000
27683072.000000,-8.059027,0.014357,-1.806581,27680640.000000,37.099998,71.820000,41.860001,0.000000,0.000000
27702144.000000,-8.492127,-0.385244,-0.969093,27701504.000000,23.170000,87.849998,26.320000,0.000000,0.000000
27722240.000000,-9.956534,-0.313460,-0.705883,27720576.000000,15.190001,130.759995,23.660000,0.000000,0.000000
27742208.000000,-10.217353,-0.200997,-0.543171,27740672.000000,11.480000,167.020004,20.860001,0.000000,0.000000
27762176.000000,-11.136196,-0.093320,-0.390030,27760640.000000,9.660000,186.270004,19.670000,0.000000,0.000000
27783040.000000,-12.763316,-0.203390,0.133998,27780608.000000,10.360000,210.839996,18.549999,0.000000,0.000000
27802112.000000,-13.806586,-0.368495,1.366302,27801472.000000,15.680000,235.339996,21.070000,0.000000,0.000000
27822080.000000,-14.244473,-0.710668,1.899901,27820544.000000,35.770000,245.350006,21.490000,0.000000,0.000000
27842176.000000,-14.407186,-0.717847,2.431108,27840512.000000,82.529999,251.369995,23.100000,0.000000,0.000000
27862144.000000,-14.364115,2.416751,2.122434,27860608.000000,151.270004,249.550003,20.790001,0.000000,0.000000
27884928.000000,-14.062619,4.843073,-1.497907,27880576.000000,210.139999,230.580002,8.820000,0.000000,0.000000
27902080.000000,-12.480963,6.474977,-2.141576,27903360.000000,214.690002,205.449997,-11.620000,0.000000,0.000000
27922048.000000,-11.722438,6.970293,-0.875773,27920512.000000,90.860001,165.130005,-24.290001,0.000000,0.000000
27942016.000000,-12.964314,5.623133,-0.739382,27940480.000000,-99.120003,154.000000,-31.780001,0.000000,0.000000
27961984.000000,-15.019747,2.167897,-1.844866,27960448.000000,-274.890015,181.369995,-41.020000,0.000000,0.000000
27982976.000000,-14.955141,-0.057428,-1.538585,27980416.000000,-402.570007,200.690002,-52.150002,0.000000,0.000000
28002048.000000,-15.091532,-2.143969,-0.244068,28001408.000000,-472.989990,198.100006,-14.910000,0.000000,0.000000
28022016.000000,-15.771093,-3.897908,1.495514,28020480.000000,-466.410004,186.759995,27.020000,0.000000,0.000000
28041984.000000,-16.175482,-4.883751,3.239882,28040448.000000,-442.260010,182.910004,75.040001,0.000000,0.000000
28061952.000000,-15.694524,-4.948357,4.606184,28060416.000000,-361.410004,170.169998,100.309998,0.000000,0.000000
28082944.000000,-15.326030,-5.175675,6.178268,28080384.000000,-244.509995,153.089996,144.270004,0.000000,0.000000
28102016.000000,-15.256638,-6.367301,6.888937,28101376.000000,-117.529999,137.479996,178.360001,0.000000,0.000000
28121984.000000,-14.294723,-7.659425,5.517848,28120448.000000,-0.910000,125.650002,188.930008,0.000000,0.000000
28141952.000000,-11.657832,-4.149154,3.730411,28140416.000000,83.580002,104.440002,170.309998,0.000000,0.000000
28161920.000000,-11.042876,-0.782453,3.555735,28160384.000000,153.020004,53.060001,139.649994,0.000000,0.000000
28182784.000000,-13.864014,0.909273,6.118448,28180352.000000,171.919998,15.470000,84.699997,0.000000,0.000000
28201856.000000,-15.347565,-2.129612,5.807381,28201216.000000,77.699997,19.600000,25.129999,1433598848.000000,1009.023254
28221952.000000,-13.179667,-4.386044,3.814159,28220288.000000,6.930000,5.740000,-11.550000,0.000000,0.000000
28241920.000000,-11.258230,-3.443272,2.945565,28240384.000000,9.170000,-45.360001,-21.840000,0.000000,0.000000
28261888.000000,-11.006985,-1.464408,2.691926,28260352.000000,44.660000,-87.500000,-17.850000,0.000000,0.000000
28282752.000000,-11.260624,-0.370888,2.297110,28280320.000000,58.380001,-108.220001,-23.450001,0.000000,0.000000
28301824.000000,-12.248858,-0.567099,1.768296,28301184.000000,46.900002,-126.209999,-38.150002,0.000000,0.000000
28321792.000000,-14.584253,-1.411765,1.631905,28320256.000000,26.740000,-137.830002,-59.080002,0.000000,0.000000
28341888.000000,-16.962721,-1.811367,1.428515,28340224.000000,11.760000,-140.630005,-75.879997,0.000000,0.000000
28361856.000000,-16.967505,-1.426122,0.567099,28360320.000000,21.700001,-153.580002,-86.379997,0.000000,0.000000
28382720.000000,-15.543776,-0.373280,0.033500,28380288.000000,49.630001,-183.119995,-90.720001,0.000000,0.000000
28401792.000000,-15.010178,0.715454,-0.162712,28401152.000000,63.700001,-209.860001,-96.529999,0.000000,0.000000
28421760.000000,-15.275781,1.203590,0.052642,28420224.000000,54.459999,-223.580002,-112.770004,0.000000,0.000000
28441728.000000,-15.084354,1.651048,0.547956,28440192.000000,32.689999,-233.520004,-136.009995,0.000000,0.000000
28461824.000000,-15.103497,1.277767,0.648455,28460160.000000,7.840000,-246.610001,-153.720001,0.000000,0.000000
28482688.000000,-15.821342,0.885344,1.304088,28480256.000000,-8.260000,-251.930008,-164.850006,0.000000,0.000000
28501760.000000,-15.582061,1.246661,1.804188,28501120.000000,-14.280000,-250.250000,-165.199997,0.000000,0.000000
28521728.000000,-14.725430,1.631905,1.749153,28520192.000000,3.780000,-248.710007,-150.779999,0.000000,0.000000
28541696.000000,-13.835299,1.804188,0.985843,28540160.000000,31.150000,-246.540009,-134.470001,0.000000,0.000000
28561664.000000,-12.772887,1.741975,0.165105,28560128.000000,43.750000,-243.040009,-116.270004,0.000000,0.000000
28582656.000000,-11.408978,2.517249,-0.861416,28580096.000000,38.080002,-240.660004,-98.349998,0.000000,0.000000
28601728.000000,-9.123833,3.818945,-1.064806,28601088.000000,19.600000,-236.600006,-79.519997,0.000000,0.000000
28621696.000000,-7.006185,3.938586,-1.540978,28620160.000000,-4.340000,-233.240005,-62.790001,0.000000,0.000000
28641664.000000,-5.687739,3.285345,-1.495514,28640128.000000,-44.310001,-215.809998,-51.869999,0.000000,0.000000
28661632.000000,-5.094319,2.239682,-0.725025,28660096.000000,-100.730003,-179.270004,-41.509998,0.000000,0.000000
28682624.000000,-5.371887,1.351945,0.153141,28680064.000000,-135.940002,-138.180008,-24.290001,0.000000,0.000000
28701696.000000,-6.503692,0.454636,-0.997807,28701056.000000,-138.320007,-94.500000,-2.450000,0.000000,0.000000
28721664.000000,-8.602197,0.320638,-2.577070,28720128.000000,-114.870003,-51.170002,23.590000,0.000000,0.000000
28741632.000000,-9.913465,0.210568,-2.701497,28740096.000000,-87.849998,-9.590000,46.480000,0.000000,0.000000
28761728.000000,-9.523434,-0.485743,-1.311267,28760064.000000,-68.110001,19.250000,71.959999,0.000000,0.000000
28782464.000000,-9.193225,-1.536192,0.265603,28780160.000000,-52.920002,35.700001,89.949997,0.000000,0.000000
28801536.000000,-9.425328,-2.282753,-0.344566,28800896.000000,-15.400000,79.449997,105.980003,0.000000,0.000000
28821632.000000,-10.502099,-2.038685,-0.918844,28819968.000000,43.820000,122.220001,119.070000,0.000000,0.000000
28841600.000000,-11.389835,-1.361516,-1.074377,28840064.000000,99.260002,167.229996,129.850006,0.000000,0.000000
28861568.000000,-12.413965,-0.547956,-0.646062,28860032.000000,130.130005,192.430008,132.720001,0.000000,0.000000
28884352.000000,-12.729815,0.157926,0.236889,28880000.000000,135.520004,206.149994,122.989998,0.000000,0.000000
28901504.000000,-12.373285,0.062213,0.691526,28902784.000000,129.639999,209.440002,106.680000,0.000000,0.000000
28921472.000000,-11.983256,0.313460,0.610170,28919936.000000,116.900002,204.050003,82.320000,0.000000,0.000000
28941568.000000,-11.246266,1.143769,0.133998,28939904.000000,99.820000,196.139999,60.480000,0.000000,0.000000
28961536.000000,-10.861022,2.376073,-0.043071,28960000.000000,87.220001,183.750000,47.529999,0.000000,0.000000
28982400.000000,-11.313265,2.737389,-0.765703,28979968.000000,61.180000,173.880005,36.330002,0.000000,0.000000
29001472.000000,-12.756138,1.868794,-1.105484,29000832.000000,14.560000,176.470001,30.309999,0.000000,0.000000
29021440.000000,-14.416756,0.576670,-1.088734,29019904.000000,-56.490002,187.669998,27.440001,0.000000,0.000000
29041408.000000,-15.613168,-0.473779,-0.550349,29039872.000000,-121.029999,198.309998,38.639999,0.000000,0.000000
29061504.000000,-16.204195,-1.308874,0.401994,29059840.000000,-150.080002,202.440002,51.240002,0.000000,0.000000
29082368.000000,-16.110876,-1.569692,1.213161,29079936.000000,-140.979996,203.350006,66.290001,0.000000,0.000000
29101440.000000,-16.034306,-1.378266,1.574477,29100800.000000,-109.900002,206.430008,83.860001,0.000000,0.000000
29121408.000000,-16.151552,-1.203590,1.686940,29119872.000000,-77.209999,215.740005,96.809998,0.000000,0.000000
29141376.000000,-16.922041,-1.342373,2.447858,29139840.000000,-67.269997,222.389999,99.330002,0.000000,0.000000
29161344.000000,-17.292929,-1.926222,4.177868,29159808.000000,-63.139999,223.089996,98.349998,0.000000,0.000000
29182336.000000,-16.405191,-2.263610,5.388636,29179776.000000,-39.130001,210.910004,90.790001,0.000000,0.000000
29201408.000000,-14.574683,-1.926222,5.268995,29200768.000000,-1.260000,191.169998,82.949997,1434598272.000000,1009.024536
29221376.000000,-14.033905,-0.983450,5.091926,29219840.000000,33.880001,161.839996,71.889999,0.000000,0.000000
29241344.000000,-15.579668,-0.234497,6.927221,29239808.000000,41.160000,126.629997,47.180000,0.000000,0.000000
29261312.000000,-15.414563,-0.217747,7.274181,29259776.000000,22.049999,100.590004,20.370001,0.000000,0.000000
29282176.000000,-13.658232,-0.009571,4.855037,29279744.000000,4.200000,57.820000,-2.240000,0.000000,0.000000
29301376.000000,-11.533404,0.416351,3.148954,29300608.000000,-4.060000,5.670000,-17.920000,0.000000,0.000000
29321344.000000,-9.032906,0.141177,3.378666,29319808.000000,-29.400000,-49.840000,-29.820000,0.000000,0.000000
29341312.000000,-7.786245,-0.600598,3.754339,29339776.000000,-63.980000,-102.900002,-41.930000,0.000000,0.000000
29361280.000000,-8.654840,-1.304088,3.914658,29359744.000000,-87.080002,-127.540001,-64.540001,0.000000,0.000000
29382144.000000,-11.334801,-1.758725,3.682554,29379712.000000,-81.620003,-125.370003,-84.489998,0.000000,0.000000
29401216.000000,-14.270795,-2.045863,3.077170,29400576.000000,-44.240002,-118.720001,-94.989998,0.000000,0.000000
29421312.000000,-15.579668,-1.533799,2.395216,29419648.000000,14.700000,-127.120003,-91.559998,0.000000,0.000000
29441280.000000,-14.952748,-0.488136,1.287339,29439744.000000,78.959999,-153.229996,-78.820000,0.000000,0.000000
29461248.000000,-14.313866,0.423530,0.555135,29459712.000000,129.149994,-181.649994,-64.470001,0.000000,0.000000
29482112.000000,-13.962120,0.854238,0.155533,29479680.000000,145.250000,-201.250000,-57.260002,0.000000,0.000000
29501184.000000,-14.191832,1.607977,0.794417,29500544.000000,128.520004,-218.190002,-57.189999,0.000000,0.000000
29521152.000000,-15.029318,2.201397,0.555135,29519616.000000,94.989998,-231.839996,-59.290001,0.000000,0.000000
29541248.000000,-14.998212,1.605584,0.531207,29539584.000000,60.200001,-239.330002,-64.330002,0.000000,0.000000
29561216.000000,-14.498112,0.947558,1.777867,29559680.000000,21.559999,-250.460007,-65.800003,0.000000,0.000000
29582080.000000,-14.292330,0.796810,2.529213,29579648.000000,-6.650000,-255.990005,-55.090000,0.000000,0.000000
29601152.000000,-14.129619,1.064806,2.447858,29600512.000000,-6.580000,-248.430008,-39.200001,0.000000,0.000000
29621120.000000,-13.540984,0.930808,1.478764,29619584.000000,4.410000,-233.169998,-27.160000,0.000000,0.000000
29641088.000000,-12.844672,1.050449,0.880559,29639552.000000,13.510000,-220.990005,-17.570000,0.000000,0.000000
29661184.000000,-11.978470,0.916451,0.299103,29659520.000000,5.390000,-217.630005,-11.900000,0.000000,0.000000
29682048.000000,-10.588240,0.626920,-0.189033,29679616.000000,-17.010000,-215.180008,-11.970000,0.000000,0.000000
29701120.000000,-9.583255,0.313460,-0.490529,29700480.000000,-52.709999,-214.059998,-16.170000,0.000000,0.000000
29721088.000000,-8.702696,0.287139,-1.296910,29719552.000000,-86.660004,-207.199997,-27.020000,0.000000,0.000000
29741056.000000,-7.137790,0.715454,-1.663012,29739520.000000,-109.270004,-192.570007,-35.980000,0.000000,0.000000
29761024.000000,-5.443672,0.624527,-0.947558,29759488.000000,-119.070000,-175.139999,-37.590000,0.000000,0.000000
29782016.000000,-5.661418,0.102891,-0.614955,29779456.000000,-126.910004,-152.250000,-32.130001,0.000000,0.000000
29801088.000000,-9.152546,-0.502493,-0.859023,29800448.000000,-128.309998,-108.709999,-17.780001,0.000000,0.000000
29821056.000000,-9.638289,-0.617348,-1.091127,29819520.000000,-121.660004,-47.459999,-1.890000,0.000000,0.000000
29841024.000000,-8.379664,-0.662812,-0.351745,29839488.000000,-100.519997,-19.460001,22.889999,0.000000,0.000000
29860992.000000,-8.968300,-0.868595,-0.145962,29859456.000000,-66.639999,10.780000,44.730000,0.000000,0.000000
29883904.000000,-8.599805,-1.179662,0.193819,29879424.000000,-32.970001,61.110001,60.060001,0.000000,0.000000
29900928.000000,-8.137990,-0.837488,0.122034,29902336.000000,-2.940000,93.029999,72.940002,0.000000,0.000000
29921024.000000,-8.315059,-0.564706,-0.069392,29919360.000000,25.480000,121.099998,77.769997,0.000000,0.000000
29940992.000000,-9.399008,-0.217747,-0.169890,29939456.000000,38.080002,141.259995,77.139999,0.000000,0.000000
29960960.000000,-10.703095,-0.189033,0.507278,29959424.000000,48.160000,149.869995,76.019997,0.000000,0.000000
29981824.000000,-11.272588,-0.119641,1.495514,29979392.000000,41.160000,165.199997,72.379997,0.000000,0.000000
30000896.000000,-11.413764,0.009571,1.464408,30000256.000000,30.870001,172.199997,69.580002,0.000000,0.000000
30020864.000000,-11.444871,0.655633,1.237089,30019328.000000,37.170002,175.699997,65.099998,0.000000,0.000000
30040960.000000,-11.009377,1.301696,1.016950,30039296.000000,53.130001,180.880005,58.310001,0.000000,0.000000
30060928.000000,-10.741381,1.727618,1.344766,30059392.000000,54.320000,180.320007,54.180000,0.000000,0.000000
30081792.000000,-11.162518,2.055435,2.053042,30079360.000000,34.860001,181.649994,50.189999,0.000000,0.000000
30100864.000000,-12.035898,2.206182,1.191626,30100224.000000,2.100000,189.139999,49.560001,0.000000,0.000000
30120832.000000,-13.014563,1.524228,0.311067,30119296.000000,-32.480000,198.940002,52.290001,0.000000,0.000000
30140800.000000,-14.005190,0.516850,0.244068,30139264.000000,-62.930000,201.669998,58.520000,0.000000,0.000000
30160896.000000,-15.146567,0.002393,0.882952,30159232.000000,-88.340004,189.699997,70.489998,0.000000,0.000000
30181760.000000,-15.428921,-0.107677,1.624727,30200192.000000,-102.199997,178.080002,112.489998,1435597696.000000,1009.025269
30200832.000000,-14.861821,-0.131605,1.859223,0.000000,0.000000,0.000000,0.000000,0.000000,0.000000
30220800.000000,-14.557933,-0.550349,1.993221,30219264.000000,-96.459999,180.389999,131.880005,0.000000,0.000000
30240768.000000,-14.725430,-0.947558,2.763710,30239232.000000,-96.040001,189.070007,142.660004,0.000000,0.000000
30260736.000000,-15.134604,-1.325624,4.034299,30259200.000000,-93.590004,196.139999,148.330002,0.000000,0.000000
30281728.000000,-16.082161,-1.832902,5.474778,30300160.000000,-33.389999,197.680008,142.940002,0.000000,0.000000
30300800.000000,-16.218552,-3.330809,6.417551,0.000000,0.000000,0.000000,0.000000,0.000000,0.000000
30320768.000000,-14.586647,-3.912265,4.979464,30319232.000000,28.420000,185.360001,135.449997,0.000000,0.000000
30340736.000000,-12.387643,-1.442872,3.601198,30339200.000000,95.480003,148.889999,118.930000,0.000000,0.000000
30360704.000000,-12.600604,0.933201,4.905287,30359168.000000,138.669998,98.279999,95.620003,0.000000,0.000000
30381568.000000,-14.646468,1.103091,6.233303,30379136.000000,125.090004,71.470001,57.540001,0.000000,0.000000
30400768.000000,-14.782858,-0.669990,5.781059,30400000.000000,71.400002,65.590004,22.469999,0.000000,0.000000
30420736.000000,-13.153346,-1.454836,3.859623,30419200.000000,38.990002,32.759998,0.350000,0.000000,0.000000
30440704.000000,-11.093125,-1.012164,2.916851,30439168.000000,46.130001,-15.050000,-3.080000,0.000000,0.000000
30460672.000000,-9.477970,-0.133998,2.804388,30459136.000000,63.490002,-66.849998,-6.580000,0.000000,0.000000
30481536.000000,-9.121440,0.435494,2.878566,30479104.000000,68.110001,-108.779999,-14.560000,0.000000,0.000000
30500608.000000,-10.399208,0.145962,2.524428,30499968.000000,60.270000,-129.149994,-27.510000,0.000000,0.000000
30520704.000000,-13.004992,-0.516850,2.321038,30519040.000000,47.180000,-132.580002,-40.810001,0.000000,0.000000
30540672.000000,-16.019949,-1.016950,1.890330,30539136.000000,41.439999,-135.100006,-48.860001,0.000000,0.000000
30560640.000000,-17.213966,-0.897308,0.497707,30559104.000000,61.670002,-150.639999,-48.439999,0.000000,0.000000
30581504.000000,-15.747166,-0.186640,-0.490529,30579072.000000,100.029999,-185.080002,-41.860001,0.000000,0.000000
30600576.000000,-14.254045,1.014557,-0.703490,30599936.000000,119.419998,-221.690002,-32.060001,0.000000,0.000000
30620544.000000,-13.703696,1.615155,-0.966700,30619008.000000,104.580002,-241.500000,-27.230000,0.000000,0.000000
30640512.000000,-13.708481,1.550549,-1.174876,30638976.000000,69.019997,-251.649994,-40.599998,0.000000,0.000000
30660608.000000,-13.629518,0.870987,-0.947558,30658944.000000,19.809999,-257.320007,-60.830002,0.000000,0.000000
30681472.000000,-13.854443,0.940379,0.141177,30679040.000000,-28.139999,-261.869995,-76.860001,0.000000,0.000000
30700544.000000,-14.165509,0.868595,-0.442672,30699904.000000,-62.090000,-260.959991,-87.010002,0.000000,0.000000
30720512.000000,-13.543377,-0.026321,-1.261017,30718976.000000,-71.959999,-255.149994,-91.000000,0.000000,0.000000
30740480.000000,-12.246466,-0.454636,-1.100698,30738944.000000,-81.620003,-252.630005,-91.489998,0.000000,0.000000
30760576.000000,-11.282159,-0.078963,-0.110070,30758912.000000,-90.160004,-249.970001,-83.440002,0.000000,0.000000
30781440.000000,-10.516455,0.055035,-0.308674,30779008.000000,-86.940002,-239.610001,-82.529999,0.000000,0.000000
30800512.000000,-10.262815,0.717847,-2.328217,30799872.000000,-75.389999,-222.600006,-88.340004,0.000000,0.000000
30820480.000000,-8.511270,2.230111,-3.199204,30818944.000000,-71.190002,-200.410004,-99.540001,0.000000,0.000000
30840448.000000,-6.431907,2.524428,-2.435893,30838912.000000,-76.019997,-185.990005,-97.510002,0.000000,0.000000
30860416.000000,-5.941379,2.074577,-0.100499,30858880.000000,-103.040001,-170.240005,-93.029999,0.000000,0.000000
30883328.000000,-6.022735,1.201197,1.048056,30878848.000000,-135.380005,-124.389999,-82.669998,0.000000,0.000000
30900480.000000,-7.293324,0.289532,0.538385,30901760.000000,-126.910004,-77.419998,-58.939999,0.000000,0.000000
30920448.000000,-10.470992,0.193819,-0.679562,30918912.000000,-77.000000,-30.240000,-22.680000,0.000000,0.000000
30940416.000000,-12.289536,0.593420,-0.873380,30938880.000000,-32.619999,28.910000,18.900000,0.000000,0.000000
30960384.000000,-11.318050,0.423530,0.129212,30958848.000000,-15.050000,66.639999,61.459999,0.000000,0.000000
30981248.000000,-10.258030,-0.370888,0.708275,30978816.000000,-3.500000,100.379997,97.790001,0.000000,0.000000
31000448.000000,-10.358529,-0.827917,0.550349,30999680.000000,6.720000,137.270004,121.239998,0.000000,0.000000
31020416.000000,-10.482956,-1.083949,0.330210,31018880.000000,13.230000,174.860001,134.750000,0.000000,0.000000
31040384.000000,-10.478169,-0.866202,0.327817,31038848.000000,22.889999,198.100006,142.309998,0.000000,0.000000
31060352.000000,-11.547763,-1.021735,0.729811,31058816.000000,36.049999,207.690002,144.479996,0.000000,0.000000
31081216.000000,-13.002598,-1.653440,1.038485,31078784.000000,60.760002,216.440002,139.160004,0.000000,0.000000
31100288.000000,-13.165311,-1.988436,0.870987,31099648.000000,99.050003,219.380005,127.330002,0.000000,0.000000
31120384.000000,-12.337393,-1.220340,0.921237,31118720.000000,148.610001,206.080002,116.620003,0.000000,0.000000
31140352.000000,-11.715261,0.758525,0.200997,31138816.000000,195.089996,185.570007,102.970001,0.000000,0.000000
31160320.000000,-11.160125,2.378466,-1.313660,31158784.000000,219.449997,165.970001,82.669998,0.000000,0.000000
31181184.000000,-10.205389,3.349952,-1.830509,31178752.000000,198.660004,142.029999,51.240002,0.000000,0.000000
31200256.000000,-9.568897,3.421736,-1.509871,31199616.000000,110.739998,116.550003,22.610001,1436597120.000000,1009.021179
31220224.000000,-10.131211,2.160719,-1.076770,31218688.000000,-13.580000,108.919998,-0.700000,0.000000,0.000000
31240192.000000,-11.370694,0.701097,-0.449851,31238656.000000,-130.970001,119.699997,-18.830000,0.000000,0.000000
31260288.000000,-12.327823,-0.732204,0.272782,31258624.000000,-212.869995,131.669998,-30.309999,0.000000,0.000000
31281152.000000,-12.373285,-1.859223,1.258625,31278720.000000,-246.960007,135.589996,-25.059999,0.000000,0.000000
31300224.000000,-11.954542,-2.376073,2.227718,31299584.000000,-243.600006,138.039993,-0.140000,0.000000,0.000000
31320192.000000,-11.576476,-2.529213,2.076970,31318656.000000,-213.360001,143.149994,34.439999,0.000000,0.000000
31340160.000000,-11.511869,-2.586641,2.208575,31338624.000000,-162.820007,150.080002,70.349998,0.000000,0.000000
31360128.000000,-12.007183,-2.136791,3.170490,31358592.000000,-101.779999,150.080002,96.110001,0.000000,0.000000
31381248.000000,-13.177275,-1.686940,4.522435,31378560.000000,-42.980000,150.710007,109.480003,0.000000,0.000000
31400192.000000,-14.053047,-1.835295,5.548956,31399680.000000,10.430000,153.440002,112.980003,0.000000,0.000000
31420160.000000,-13.840086,-2.505285,4.835894,31418624.000000,60.130001,149.169998,106.889999,0.000000,0.000000
31440128.000000,-15.744773,-2.074577,5.525027,31438592.000000,104.650002,124.389999,91.209999,0.000000,0.000000
31460096.000000,-17.503498,0.320638,4.398008,31458560.000000,129.080002,101.150002,63.490002,0.000000,0.000000
31480960.000000,-15.926627,2.660819,2.060220,31478528.000000,147.210007,69.019997,44.660000,0.000000,0.000000
31500160.000000,-13.308880,2.550749,0.768096,31499392.000000,124.040001,-3.290000,14.280000,0.000000,0.000000
31520128.000000,-11.102697,0.957129,1.062413,31518592.000000,39.900002,-65.379997,-19.879999,0.000000,0.000000
31540096.000000,-10.104890,-0.081356,1.655833,31538560.000000,-47.880001,-109.690002,-47.459999,0.000000,0.000000
31560064.000000,-10.219746,-0.710668,2.038685,31558528.000000,-85.400002,-135.520004,-71.540001,0.000000,0.000000
31580928.000000,-11.602797,-1.186840,2.155933,31578496.000000,-78.540001,-145.460007,-90.790001,0.000000,0.000000
31600000.000000,-13.691730,-1.808974,2.239682,31599360.000000,-43.540001,-145.949997,-101.989998,0.000000,0.000000
31620096.000000,-15.440885,-2.371287,2.809174,31618432.000000,9.800000,-143.009995,-99.889999,0.000000,0.000000
31640064.000000,-15.048461,-1.564906,3.294917,31638528.000000,77.699997,-145.600006,-83.440002,0.000000,0.000000
31660032.000000,-13.873586,0.222532,1.844866,31658496.000000,147.979996,-157.360001,-55.020000,0.000000,0.000000
31680896.000000,-12.792030,1.347159,0.004786,31678464.000000,205.800003,-167.229996,-33.810001,0.000000,0.000000
31699968.000000,-12.126825,2.213361,-0.090927,31699328.000000,213.919998,-180.600006,-24.850000,0.000000,0.000000
31720064.000000,-12.550355,2.684747,0.296710,31718400.000000,159.880005,-199.220001,-17.780001,0.000000,0.000000
31740032.000000,-13.634303,1.976472,0.459422,31738496.000000,77.840004,-207.550003,-16.030001,0.000000,0.000000
31760000.000000,-14.127225,0.583849,0.428315,31758464.000000,-0.070000,-211.820007,-17.290001,0.000000,0.000000
31780864.000000,-13.574483,-0.313460,0.423530,31778432.000000,-50.119999,-222.949997,-18.969999,0.000000,0.000000
31799936.000000,-12.725031,-0.827917,0.078963,31799296.000000,-67.550003,-232.610001,-13.580000,0.000000,0.000000
31819904.000000,-12.229716,-1.016950,-0.275175,31818368.000000,-63.700001,-233.240005,-6.650000,0.000000,0.000000
31839872.000000,-11.569297,-0.741775,-0.378066,31838336.000000,-56.630001,-225.259995,-5.740000,0.000000,0.000000
31859968.000000,-10.741381,-0.468993,-1.050449,31858304.000000,-53.970001,-221.339996,-5.880000,0.000000,0.000000
31882752.000000,-10.224532,-0.241675,-2.103291,31878400.000000,-53.619999,-214.830002,-11.480000,0.000000,0.000000
31899904.000000,-9.320045,0.162712,-2.792424,31901184.000000,-66.080002,-206.430008,-25.690001,0.000000,0.000000
31919872.000000,-8.458629,0.344566,-2.849852,31918336.000000,-87.220001,-193.479996,-39.900002,0.000000,0.000000
31939840.000000,-6.853044,1.004985,-2.287539,31938304.000000,-103.809998,-185.850006,-51.520000,0.000000,0.000000
31959808.000000,-5.580062,1.081556,-0.847059,31958272.000000,-113.959999,-169.050003,-60.130001,0.000000,0.000000
31980800.000000,-6.525227,0.210568,-1.208375,31978240.000000,-116.480003,-140.490005,-60.970001,0.000000,0.000000
31999872.000000,-10.171888,-0.533599,-1.873580,31999232.000000,-105.419998,-94.360001,-53.830002,0.000000,0.000000
32019840.000000,-10.368099,-0.349352,-1.648655,32018304.000000,-93.169998,-26.530001,-35.209999,0.000000,0.000000
32039808.000000,-7.721639,-0.011964,-0.490529,32038272.000000,-73.779999,-5.110000,-0.280000,0.000000,0.000000
32059776.000000,-7.235896,-0.105284,0.157926,32058240.000000,-41.299999,24.639999,31.710001,0.000000,0.000000
32080640.000000,-8.906086,-0.567099,0.545564,32078208.000000,-10.500000,74.410004,44.310001,0.000000,0.000000
32099712.000000,-9.820145,-0.753739,0.047856,32099072.000000,7.490000,128.940002,51.240002,0.000000,0.000000
32119808.000000,-10.078569,-0.421137,-0.227318,32118144.000000,28.280001,161.979996,62.299999,0.000000,0.000000
32139776.000000,-10.999805,-0.614955,-0.289532,32138240.000000,50.259998,176.399994,72.449997,0.000000,0.000000
32159744.000000,-12.090932,-0.892523,1.162912,32158208.000000,67.690002,192.710007,80.779999,0.000000,0.000000
32180608.000000,-12.212967,-0.483350,1.349552,32199040.000000,118.720001,190.960007,85.330002,1437596544.000000,1009.018677
32199680.000000,-12.014362,0.514457,0.394816,0.000000,0.000000,0.000000,0.000000,0.000000,0.000000
32219648.000000,-11.258230,1.902294,0.253639,32218112.000000,148.119995,186.690002,72.590004,0.000000,0.000000
32239744.000000,-10.581062,3.000600,-0.083749,32238080.000000,140.070007,178.430008,58.170002,0.000000,0.000000
32259712.000000,-11.222338,3.677768,-0.023928,32258176.000000,94.989998,165.339996,37.590000,0.000000,0.000000
32280576.000000,-12.016755,2.998207,-0.055035,32278144.000000,22.820000,176.889999,17.990000,0.000000,0.000000
32299648.000000,-12.378072,1.371087,-0.198604,32299008.000000,-58.240002,183.750000,2.870000,0.000000,0.000000
32319616.000000,-13.048061,0.014357,-0.119641,32318080.000000,-121.520004,181.930008,1.540000,0.000000,0.000000
32339584.000000,-13.942977,-0.526421,0.768096,32338048.000000,-150.710007,181.369995,16.100000,0.000000,0.000000
32359680.000000,-14.041083,-0.540778,1.440479,32358016.000000,-149.940002,179.410004,39.970001,0.000000,0.000000
32380544.000000,-13.758730,-0.648455,1.342373,32378112.000000,-129.289993,176.330002,68.040001,0.000000,0.000000
32399616.000000,-13.852050,-0.892523,1.409373,32398976.000000,-103.739998,177.800003,88.970001,0.000000,0.000000
32419584.000000,-13.969299,-0.997807,2.179861,32418048.000000,-85.470001,185.360001,106.120003,0.000000,0.000000
32439552.000000,-14.380865,-1.146162,3.426522,32438016.000000,-69.650002,189.070007,119.489998,0.000000,0.000000
32459520.000000,-15.467206,-1.416551,4.838287,32457984.000000,-44.310001,190.820007,123.620003,0.000000,0.000000
32480512.000000,-15.919449,-2.088934,5.816952,32477952.000000,-3.500000,191.240005,121.940002,0.000000,0.000000
32499584.000000,-14.557933,-2.517249,4.733003,32498944.000000,51.380001,178.710007,118.510002,0.000000,0.000000
32519552.000000,-13.098311,-0.662812,3.605984,32518016.000000,103.879997,141.259995,106.470001,0.000000,0.000000
32539520.000000,-14.356936,2.199004,4.345366,32537984.000000,127.820000,88.830002,81.830002,0.000000,0.000000
32559488.000000,-15.349957,3.232704,3.749553,32557952.000000,114.870003,66.989998,51.520000,0.000000,0.000000
32580480.000000,-14.079369,1.538585,2.689533,32577920.000000,55.720001,34.090000,15.260000,0.000000,0.000000
32599552.000000,-12.373285,-0.040678,2.287539,32598912.000000,-20.650000,-17.500000,-16.240000,0.000000,0.000000
32619520.000000,-10.631311,-0.624527,2.490928,32617984.000000,-70.629997,-61.389999,-32.410000,0.000000,0.000000
32639488.000000,-9.324830,-0.574277,2.751746,32637952.000000,-81.690002,-99.540001,-42.000000,0.000000,0.000000
32659456.000000,-9.506684,-1.048056,2.574677,32657920.000000,-68.529999,-124.110001,-52.430000,0.000000,0.000000
32680320.000000,-11.294124,-1.694118,2.136791,32677888.000000,-41.369999,-127.540001,-62.439999,0.000000,0.000000
32699392.000000,-13.868800,-2.146362,2.287539,32698752.000000,-8.260000,-120.260002,-64.330002,0.000000,0.000000
32719488.000000,-15.591633,-2.167897,2.285146,32717824.000000,37.029999,-120.959999,-56.279999,0.000000,0.000000
32739456.000000,-15.170495,-0.978664,0.981057,32737920.000000,94.709999,-142.940002,-41.509998,0.000000,0.000000
32759552.000000,-13.844872,-0.007178,-0.174676,32757888.000000,144.550003,-172.899994,-24.990000,0.000000,0.000000
32780288.000000,-13.045669,0.923629,-0.093320,32777984.000000,163.100006,-196.490005,-18.900000,0.000000,0.000000
32799360.000000,-12.902101,1.825724,0.299103,32798720.000000,134.399994,-213.080002,-24.080000,0.000000,0.000000
32819328.000000,-13.452450,1.741975,0.205783,32817792.000000,76.300003,-221.339996,-40.529999,0.000000,0.000000
32839424.000000,-13.725230,0.935594,0.258425,32837760.000000,6.440000,-222.669998,-65.449997,0.000000,0.000000
32859392.000000,-13.509877,0.112463,0.564706,32857856.000000,-59.220001,-229.740005,-87.709999,0.000000,0.000000
32882176.000000,-13.462020,-0.748954,0.660419,32877824.000000,-97.930000,-236.180008,-97.370003,0.000000,0.000000
32899328.000000,-13.064812,-1.507478,0.665205,32900608.000000,-106.400002,-234.779999,-99.050003,0.000000,0.000000
32919296.000000,-12.248858,-1.624727,1.064806,32917760.000000,-94.290001,-230.089996,-91.139999,0.000000,0.000000
32939264.000000,-11.519048,-1.464408,0.698704,32937728.000000,-62.299999,-224.630005,-77.070000,0.000000,0.000000
32959360.000000,-11.291731,-1.380659,-0.150748,32957696.000000,-18.900000,-215.040009,-61.810001,0.000000,0.000000
32980224.000000,-10.887343,-0.851845,-0.559920,32977792.000000,9.870000,-202.649994,-53.410000,0.000000,0.000000
32999296.000000,-10.454242,0.093320,-0.954736,32998656.000000,16.870001,-192.500000,-43.330002,0.000000,0.000000
33019264.000000,-9.466006,0.918844,-1.986043,33017728.000000,11.760000,-181.649994,-41.369999,0.000000,0.000000
33039232.000000,-7.690532,1.313660,-1.710868,33037696.000000,-1.960000,-168.630005,-45.849998,0.000000,0.000000
33059200.000000,-6.407979,1.134198,-1.064806,33057664.000000,-27.299999,-153.860001,-49.910000,0.000000,0.000000
33080192.000000,-8.169096,0.540778,-1.251446,33077632.000000,-54.250000,-130.270004,-49.490002,0.000000,0.000000
33099264.000000,-10.834702,0.320638,-1.284946,33098624.000000,-66.779999,-77.000000,-45.990002,0.000000,0.000000
33119232.000000,-9.511470,0.203390,0.112463,33117696.000000,-63.840000,-24.430000,-29.469999,0.000000,0.000000
33139200.000000,-7.415358,0.263210,1.574477,33137664.000000,-41.090000,-7.630000,-1.540000,0.000000,0.000000
33159168.000000,-7.695317,0.413958,1.354338,33157632.000000,-7.490000,30.030001,23.520000,0.000000,0.000000
33180032.000000,-8.712267,0.028714,0.478565,33177600.000000,19.809999,85.540001,37.380001,0.000000,0.000000
33199232.000000,-8.638089,-0.016750,-0.009571,33198464.000000,34.439999,127.190002,48.580002,1438596096.000000,1009.018188
33219200.000000,-8.595018,0.119641,-0.002393,33217664.000000,41.230000,140.139999,58.310001,0.000000,0.000000
33239168.000000,-9.607183,-0.021535,0.502493,33237632.000000,45.220001,145.880005,61.110001,0.000000,0.000000
33259136.000000,-10.403993,-0.258425,1.246661,33257600.000000,46.340000,156.940002,56.070000,0.000000,0.000000
33280000.000000,-10.523634,-0.069392,1.103091,33277568.000000,58.240002,160.930008,49.980000,0.000000,0.000000
33299072.000000,-10.205389,0.641276,0.552742,33298432.000000,94.779999,156.520004,43.049999,0.000000,0.000000
33319040.000000,-9.844072,1.904687,0.686740,33317504.000000,132.860001,151.410004,35.910000,0.000000,0.000000
33339136.000000,-9.690931,3.043670,0.227318,33337472.000000,146.369995,144.479996,29.820000,0.000000,0.000000
33359104.000000,-9.674182,3.481557,-0.251246,33357568.000000,128.869995,142.449997,21.770000,0.000000,0.000000
33379968.000000,-10.121639,3.026921,-0.272782,33377536.000000,70.000000,146.089996,11.830000,0.000000,0.000000
33399040.000000,-11.090734,1.837688,-0.016750,33398400.000000,-13.300000,155.889999,10.920000,0.000000,0.000000
33419008.000000,-12.090932,0.775275,0.337388,33417472.000000,-83.440002,169.190002,17.850000,0.000000,0.000000
33439104.000000,-13.304093,0.026321,0.827917,33437440.000000,-118.230003,178.919998,29.960001,0.000000,0.000000
33459072.000000,-13.660624,-0.184247,0.863809,33457536.000000,-118.720001,184.660004,46.130001,0.000000,0.000000
33479936.000000,-14.301902,-0.232104,0.878166,33477504.000000,-105.980003,188.509995,65.870003,0.000000,0.000000
33499008.000000,-14.656039,-0.416351,1.311267,33498368.000000,-94.010002,201.949997,80.989998,0.000000,0.000000
33518976.000000,-15.060425,-0.404387,1.895115,33517440.000000,-79.169998,208.460007,93.099998,0.000000,0.000000
33538944.000000,-15.756737,-0.734596,3.048456,33537408.000000,-54.810001,210.699997,98.419998,0.000000,0.000000
33558912.000000,-16.685152,-1.055235,4.675575,33557376.000000,-18.760000,204.539993,99.540001,0.000000,0.000000
33579904.000000,-15.955342,-0.937986,5.754738,33577344.000000,11.690000,194.880005,94.779999,0.000000,0.000000
33598976.000000,-14.632111,-0.720240,4.737789,33598336.000000,46.689999,179.199997,96.250000,0.000000,0.000000
33618944.000000,-14.146368,0.466600,4.469792,33617408.000000,83.160004,154.770004,78.750000,0.000000,0.000000
33638912.000000,-15.031711,1.734797,6.472585,33637376.000000,86.730003,118.650002,47.880001,0.000000,0.000000
33658880.000000,-14.880964,1.713261,6.195018,33657344.000000,62.510002,86.449997,14.490000,0.000000,0.000000
33679872.000000,-14.467006,0.887737,4.957928,33677312.000000,33.110001,51.099998,-9.660000,0.000000,0.000000
33698944.000000,-12.882957,0.526421,4.823930,33698304.000000,10.920000,13.650000,-16.590000,0.000000,0.000000
33718912.000000,-9.961320,0.732204,4.926822,33717376.000000,-0.700000,-29.190001,-12.390000,0.000000,0.000000
33738880.000000,-8.106883,0.662812,4.532006,33737344.000000,2.870000,-72.379997,-12.040000,0.000000,0.000000
33758848.000000,-8.650054,0.200997,4.340580,33757312.000000,6.020000,-87.919998,-24.920000,0.000000,0.000000
33779712.000000,-11.729616,-0.227318,4.476971,33777280.000000,7.210000,-100.239998,-30.170000,0.000000,0.000000
33798784.000000,-14.725430,-0.624527,3.998406,33798144.000000,10.150000,-94.290001,-33.880001,0.000000,0.000000
33818880.000000,-15.390635,-0.571885,2.809174,33817216.000000,32.340000,-100.169998,-31.080000,0.000000,0.000000
33838848.000000,-15.259030,0.179462,2.143969,33837312.000000,79.449997,-132.580002,-20.790001,0.000000,0.000000
33858816.000000,-14.400006,1.447658,0.765703,33857280.000000,124.669998,-171.009995,-8.540000,0.000000,0.000000
33881728.000000,-13.689339,2.175076,-0.210568,33877248.000000,131.880005,-199.360001,-2.030000,0.000000,0.000000
33898752.000000,-12.933208,2.306681,-0.014357,33900160.000000,87.500000,-222.809998,-7.840000,0.000000,0.000000
33918720.000000,-12.703495,2.234896,0.576670,33917184.000000,8.960000,-238.350006,-21.910000,0.000000,0.000000
33938816.000000,-12.880564,0.937986,0.614955,33937152.000000,-66.989998,-242.830002,-40.250000,0.000000,0.000000
33958784.000000,-12.758532,-0.014357,1.060020,33957248.000000,-117.389999,-239.399994,-59.639999,0.000000,0.000000
33979648.000000,-12.863814,-0.550349,1.371087,33977216.000000,-133.979996,-235.830002,-63.630001,0.000000,0.000000
33998720.000000,-13.682159,-0.964308,1.572084,33998080.000000,-105.910004,-227.990005,-56.560001,0.000000,0.000000
34018688.000000,-12.605389,-0.835095,2.215754,34017152.000000,-53.270000,-211.960007,-40.180000,0.000000,0.000000
34038656.000000,-11.820543,-0.567099,2.151148,34037120.000000,8.330000,-200.550003,-10.920000,0.000000,0.000000
34058752.000000,-11.657832,-0.198604,1.110270,34057088.000000,67.690002,-184.029999,11.620000,0.000000,0.000000
34079616.000000,-11.643474,0.244068,-0.239282,34077184.000000,100.940002,-167.720001,30.380001,0.000000,0.000000
34098688.000000,-10.894521,1.409373,-1.727618,34098048.000000,101.779999,-163.449997,33.250000,0.000000,0.000000
34118656.000000,-9.317651,2.187040,-2.751746,34117120.000000,66.779999,-165.339996,28.280001,0.000000,0.000000
34138624.000000,-7.582855,2.017149,-2.900101,34137088.000000,0.910000,-166.600006,10.290000,0.000000,0.000000
34158592.000000,-7.159326,1.127020,-1.531406,34157056.000000,-78.820000,-156.869995,-16.450001,0.000000,0.000000
34179584.000000,-9.150154,-0.531207,-1.509871,34177024.000000,-136.009995,-128.660004,-34.580002,0.000000,0.000000
34198656.000000,-11.889936,-0.655633,-2.249253,34198016.000000,-138.809998,-81.620003,-36.119999,1439595520.000000,1009.016418
34218624.000000,-10.068997,0.172283,-2.840281,34217088.000000,-104.580002,-41.369999,-30.870001,0.000000,0.000000
34238592.000000,-7.597212,0.509671,-2.577070,34237056.000000,-55.230000,-24.290001,-10.500000,0.000000,0.000000
34258560.000000,-7.676175,0.404387,-1.363909,34257024.000000,-22.540001,10.290000,1.260000,0.000000,0.000000
34279552.000000,-8.501699,0.071785,-1.182054,34276992.000000,-9.450000,58.029999,2.030000,0.000000,0.000000
34298624.000000,-8.221739,0.538385,-1.450050,34297984.000000,19.950001,104.650002,5.950000,0.000000,0.000000
34318592.000000,-8.396415,1.069592,-1.739582,34317056.000000,45.639999,130.830002,8.610000,0.000000,0.000000
34338560.000000,-10.011569,1.215554,-1.765903,34337024.000000,44.240002,154.139999,14.630000,0.000000,0.000000
34358528.000000,-11.842079,0.873380,-0.859023,34356992.000000,15.680000,178.779999,22.190001,0.000000,0.000000
34379392.000000,-12.401999,0.289532,-0.476172,34376960.000000,-12.600000,186.970001,27.440001,0.000000,0.000000
34398464.000000,-11.892329,0.437887,0.279960,34397824.000000,-15.680000,181.020004,28.280001,0.000000,0.000000
34418560.000000,-11.251052,0.832702,1.462015,34416896.000000,2.170000,170.380005,28.210001,0.000000,0.000000
34438528.000000,-11.353944,1.411765,2.005185,34436992.000000,24.290001,166.180008,27.160000,0.000000,0.000000
34458496.000000,-12.069397,1.816152,1.562513,34456960.000000,37.590000,174.020004,25.549999,0.000000,0.000000
34479360.000000,-12.246466,1.852045,0.995414,34476928.000000,36.959999,185.500000,23.799999,0.000000,0.000000
34498432.000000,-12.918849,1.536192,0.461815,34497792.000000,17.010000,188.369995,26.320000,0.000000,0.000000
34518400.000000,-14.021940,1.234696,0.720240,34516864.000000,-15.540000,184.589996,29.190001,0.000000,0.000000
34538496.000000,-14.371292,0.777667,1.165305,34536832.000000,-52.150002,181.930008,33.810001,0.000000,0.000000
34558464.000000,-13.485948,0.282353,1.150948,34556928.000000,-81.059998,178.990005,38.639999,0.000000,0.000000
34579328.000000,-14.328221,0.131605,1.270589,34576896.000000,-101.290001,182.139999,47.250000,0.000000,0.000000
34598400.000000,-14.402400,-0.363709,1.861616,34597760.000000,-112.840004,191.800003,54.670002,0.000000,0.000000
34618368.000000,-13.842479,-0.612563,2.732604,34616832.000000,-114.449997,191.380005,63.070000,0.000000,0.000000
34638336.000000,-13.773087,-0.801596,3.687340,34636800.000000,-105.349998,184.449997,69.440002,0.000000,0.000000
34658432.000000,-14.000405,-1.036092,5.072784,34656768.000000,-86.519997,178.430008,71.750000,0.000000,0.000000
34679296.000000,-14.423935,-1.404587,6.989435,34676864.000000,-57.959999,170.589996,73.290001,0.000000,0.000000
34698368.000000,-13.849657,-1.751546,7.369894,34697728.000000,-9.730000,158.410004,70.070000,0.000000,0.000000
34718336.000000,-13.261024,-1.521835,6.814759,34716800.000000,52.150002,141.680008,66.639999,0.000000,0.000000
34738304.000000,-14.203795,0.114855,8.049455,34736768.000000,101.570000,110.809998,54.110001,0.000000,0.000000
34758272.000000,-14.467006,0.985843,7.697710,34756736.000000,123.970001,75.739998,36.470001,0.000000,0.000000
34779264.000000,-14.237295,1.103091,5.891129,34776704.000000,131.949997,33.320000,18.200001,0.000000,0.000000
34798336.000000,-13.445271,1.062413,4.910072,34797696.000000,114.239998,-14.070000,1.120000,0.000000,0.000000
34818304.000000,-11.992826,0.923629,5.146961,34816768.000000,71.050003,-59.150002,-0.350000,0.000000,0.000000
34838272.000000,-10.956735,0.686740,4.890929,34836736.000000,36.610001,-101.010002,-2.660000,0.000000,0.000000
34858240.000000,-11.538191,0.382852,4.378866,34856704.000000,25.340000,-127.610001,-11.970000,0.000000,0.000000
34881152.000000,-13.689339,-0.160319,4.156333,34876672.000000,20.510000,-137.690002,-15.540000,0.000000,0.000000
34898304.000000,-15.553347,-0.435494,3.579663,34899584.000000,23.799999,-147.139999,-12.670000,0.000000,0.000000
34918272.000000,-15.692131,-0.241675,2.191825,34916736.000000,42.349998,-166.880005,-3.990000,0.000000,0.000000
34938240.000000,-14.931213,0.404387,1.251446,34936704.000000,60.619999,-193.970001,2.310000,0.000000,0.000000
34958208.000000,-14.646468,0.976272,1.062413,34956672.000000,53.900002,-219.940002,1.470000,0.000000,0.000000
34979072.000000,-14.857035,0.631705,0.631705,34976640.000000,25.620001,-237.720001,-14.770000,0.000000,0.000000
34998144.000000,-15.129817,0.313460,0.174676,34997504.000000,-7.770000,-248.779999,-38.990002,0.000000,0.000000
35018240.000000,-15.270994,0.404387,0.217747,35016576.000000,-31.780001,-259.700012,-59.080002,0.000000,0.000000
35038208.000000,-15.151353,0.133998,0.081356,35036672.000000,-41.160000,-269.079987,-71.680000,0.000000,0.000000
35058176.000000,-14.933606,-0.251246,-0.071785,35056640.000000,-44.520000,-270.829987,-76.440002,0.000000,0.000000
35079040.000000,-14.024333,-0.248854,-0.126820,35076608.000000,-44.520000,-263.480011,-73.010002,0.000000,0.000000
35098112.000000,-12.368500,-0.150748,0.064606,35097472.000000,-34.650002,-252.070007,-62.720001,0.000000,0.000000
35118080.000000,-12.160326,-0.437887,-0.425922,35116544.000000,-19.809999,-241.220001,-51.590000,0.000000,0.000000
35138048.000000,-11.330014,-0.239282,-1.107877,35136512.000000,-10.710000,-223.720001,-47.529999,0.000000,0.000000
35158144.000000,-9.789038,0.763310,-2.115255,35156480.000000,-17.150000,-210.000000,-38.360001,0.000000,0.000000
35179008.000000,-8.023134,1.316052,-2.931208,35176576.000000,-28.420000,-199.220001,-35.910000,0.000000,0.000000
35198080.000000,-6.752545,1.428515,-3.194418,35197440.000000,-56.139999,-185.360001,-40.880001,1440594944.000000,1009.014404
35218048.000000,-6.005985,1.536192,-2.914458,35216512.000000,-111.370003,-158.690002,-47.810001,0.000000,0.000000
35238016.000000,-5.783452,1.138984,-2.017149,35236480.000000,-162.050003,-120.470001,-49.700001,0.000000,0.000000
35257984.000000,-7.116255,0.437887,-1.562513,35256448.000000,-187.320007,-79.800003,-49.139999,0.000000,0.000000
35278976.000000,-9.140583,-0.066999,-2.340181,35276416.000000,-188.089996,-30.660000,-39.060001,0.000000,0.000000
35298048.000000,-9.396614,-0.607777,-2.723032,35297408.000000,-157.149994,24.080000,-18.900000,0.000000,0.000000
35318016.000000,-8.396415,-0.210568,-1.832902,35316480.000000,-104.160004,42.490002,3.780000,0.000000,0.000000
35337984.000000,-9.894321,-0.378066,-0.870987,35336448.000000,-50.540001,62.090000,37.520000,0.000000,0.000000
35357952.000000,-11.935399,-0.648455,-0.875773,35356416.000000,-0.700000,112.840004,62.510002,0.000000,0.000000
35379328.000000,-12.428321,-0.930808,-0.878166,35376384.000000,34.439999,158.059998,83.370003,0.000000,0.000000
35398016.000000,-12.361321,-1.179662,-0.689133,35397760.000000,64.330002,184.589996,102.830002,0.000000,0.000000
35417984.000000,-13.076776,-0.899701,0.296710,35416448.000000,87.220001,201.949997,115.639999,0.000000,0.000000
35437952.000000,-13.208381,-0.143569,0.710668,35436416.000000,98.349998,220.290009,121.730003,0.000000,0.000000
35457920.000000,-14.354543,0.555135,0.454636,35456384.000000,110.669998,226.169998,117.739998,0.000000,0.000000
35478784.000000,-14.007583,1.028914,0.981057,35476352.000000,125.860001,229.600006,93.800003,0.000000,0.000000
35497856.000000,-12.392428,2.036292,1.179662,35497216.000000,126.419998,214.479996,75.949997,0.000000,0.000000
35517952.000000,-11.380265,2.964707,0.918844,35516288.000000,105.629997,193.270004,59.570000,0.000000,0.000000
35537920.000000,-11.227123,2.847459,0.559920,35536384.000000,60.900002,180.180008,44.380001,0.000000,0.000000
35557888.000000,-12.004791,1.545763,0.382852,35556352.000000,-7.210000,175.000000,31.360001,0.000000,0.000000
35578752.000000,-13.253844,0.272782,0.442672,35576320.000000,-78.120003,174.649994,27.090000,0.000000,0.000000
35597824.000000,-14.261222,-0.454636,0.808774,35597184.000000,-119.699997,172.339996,31.570000,0.000000,0.000000
35617792.000000,-14.715858,-0.629312,1.308874,35616256.000000,-124.599998,168.910004,44.099998,0.000000,0.000000
35637888.000000,-14.352149,-0.911665,1.471586,35636224.000000,-111.230003,170.729996,64.959999,0.000000,0.000000
35657856.000000,-13.919049,-1.141376,1.418944,35656320.000000,-100.519997,175.559998,87.639999,0.000000,0.000000
35678720.000000,-13.789837,-1.129412,1.715654,35676288.000000,-77.000000,178.570007,97.160004,0.000000,0.000000
35697792.000000,-13.507483,-1.237089,2.833102,35697152.000000,-61.529999,185.220001,114.029999,0.000000,0.000000
35717760.000000,-13.567304,-1.483550,4.319045,35716224.000000,-51.799999,187.180008,121.800003,0.000000,0.000000
35737728.000000,-14.337792,-1.859223,5.139783,35736192.000000,-37.380001,182.350006,119.070000,0.000000,0.000000
35757824.000000,-14.995820,-2.952743,6.606583,35756160.000000,-6.930000,178.080002,108.779999,0.000000,0.000000
35778688.000000,-13.873586,-2.921637,4.749753,35776256.000000,40.599998,161.839996,95.199997,0.000000,0.000000
35797760.000000,-11.995219,-0.847059,4.115655,35797120.000000,89.040001,123.480003,78.050003,0.000000,0.000000
35817728.000000,-12.057433,1.241875,5.051248,35816192.000000,115.360001,69.160004,51.799999,0.000000,0.000000
35837696.000000,-13.947763,1.222732,6.046663,35836160.000000,91.699997,35.840000,16.940001,0.000000,0.000000
35857664.000000,-14.639289,-0.200997,5.436492,35856128.000000,44.099998,22.680000,-13.160000,0.000000,0.000000
35880576.000000,-14.093725,-0.466600,3.682554,35876096.000000,20.370001,-13.230000,-32.130001,0.000000,0.000000
35897728.000000,-12.760924,-0.131605,2.682354,35899008.000000,31.850000,-56.279999,-28.840000,0.000000,0.000000
35917696.000000,-11.346765,0.198604,2.421536,35916160.000000,49.209999,-103.040001,-26.110001,0.000000,0.000000
35937664.000000,-11.456835,0.265603,1.959722,35936128.000000,52.920002,-143.430008,-28.770000,0.000000,0.000000
35957632.000000,-13.182060,-0.169890,1.517050,35956096.000000,47.459999,-159.809998,-36.119999,0.000000,0.000000
35978496.000000,-15.467206,-0.792024,1.026521,35996928.000000,45.430000,-173.039993,-46.689999,0.000000,0.000000
35997568.000000,-16.871792,-1.012164,0.413958,0.000000,0.000000,0.000000,0.000000,0.000000,0.000000
36017664.000000,-16.481762,-0.236889,-0.669990,36016000.000000,67.900002,-192.990005,-42.840000,0.000000,0.000000
36037632.000000,-15.053247,0.172283,-1.485943,36036096.000000,89.320000,-219.029999,-36.189999,0.000000,0.000000
36057600.000000,-13.844872,0.571885,-1.560120,36056064.000000,82.879997,-239.540009,-34.720001,0.000000,0.000000
36078464.000000,-13.150953,0.717847,-1.636691,36076032.000000,45.290001,-252.770004,-41.020000,0.000000,0.000000
36097536.000000,-13.086348,0.495314,-1.483550,36096896.000000,2.800000,-257.809998,-58.240002,0.000000,0.000000
36117504.000000,-13.150953,0.129212,-1.390230,36115968.000000,-34.439999,-256.899994,-79.239998,0.000000,0.000000
36137600.000000,-13.153346,-0.284746,-1.062413,36135936.000000,-57.820000,-252.699997,-95.199997,0.000000,0.000000
36157568.000000,-12.832708,-0.825524,-1.069592,36156032.000000,-67.970001,-245.630005,-102.410004,0.000000,0.000000
36178432.000000,-12.425928,-1.249053,-0.815953,36176000.000000,-65.660004,-233.100006,-98.489998,0.000000,0.000000
36197504.000000,-11.521441,-1.330409,-0.658026,36196864.000000,-52.849998,-218.680008,-88.760002,1441594368.000000,1009.014038
36217472.000000,-10.497313,-1.177269,-0.815953,36215936.000000,-26.250000,-204.539993,-73.150002,0.000000,0.000000
36237440.000000,-9.387043,-1.177269,-2.203789,36235904.000000,5.880000,-190.889999,-62.369999,0.000000,0.000000
36257536.000000,-8.133204,1.564906,-3.536592,36255872.000000,29.680000,-178.360001,-52.500000,0.000000,0.000000
36278400.000000,-6.769295,2.419144,-3.665804,36275968.000000,31.710001,-167.020004,-44.799999,0.000000,0.000000
36297472.000000,-6.173482,1.835295,-2.589034,36296832.000000,-9.590000,-152.389999,-41.160000,0.000000,0.000000
36317440.000000,-6.719046,0.339781,-1.215554,36315904.000000,-75.250000,-116.480003,-36.680000,0.000000,0.000000
36337408.000000,-8.487342,-0.882952,-0.753739,36335872.000000,-121.029999,-69.370003,-28.490000,0.000000,0.000000
36357376.000000,-11.662617,-0.600598,-1.497907,36355840.000000,-118.230003,-25.480000,-7.490000,0.000000,0.000000
36378496.000000,-11.748759,-0.306281,-2.060220,36375808.000000,-86.870003,31.219999,24.360001,0.000000,0.000000
36397440.000000,-9.348758,-0.330210,-1.220340,36396928.000000,-53.549999,59.290001,58.590000,0.000000,0.000000
36417408.000000,-9.389436,-0.835095,-0.337388,36415872.000000,-32.689999,79.449997,84.489998,0.000000,0.000000
36437376.000000,-10.255639,-1.217947,0.076570,36435840.000000,-17.360001,129.779999,95.199997,0.000000,0.000000
36457344.000000,-10.705488,-1.110270,0.528814,36455808.000000,-3.780000,172.970001,103.949997,0.000000,0.000000
36478336.000000,-11.093125,-1.019342,0.940379,36475776.000000,17.150000,198.800003,112.349998,0.000000,0.000000
36497408.000000,-12.110075,-1.395016,0.923629,36496768.000000,52.430000,215.320007,119.279999,0.000000,0.000000
36517376.000000,-13.055241,-1.567299,0.492921,36515840.000000,92.750000,224.419998,118.160004,0.000000,0.000000
36537344.000000,-13.225130,-1.052842,-0.016750,36535808.000000,126.070000,221.270004,115.570000,0.000000,0.000000
36557312.000000,-12.677175,-0.189033,-0.145962,36555776.000000,152.600006,205.029999,111.090004,0.000000,0.000000
36578176.000000,-11.705689,0.741775,0.222532,36575744.000000,167.789993,181.229996,95.620003,0.000000,0.000000
36597248.000000,-10.710274,1.624727,0.399601,36596608.000000,164.850006,158.690002,70.629997,0.000000,0.000000
36617344.000000,-10.195816,2.132005,0.229711,36615680.000000,137.899994,141.330002,34.930000,0.000000,0.000000
36637312.000000,-10.516455,1.562513,0.102891,36635776.000000,79.029999,135.940002,-0.630000,0.000000,0.000000
36657280.000000,-11.330014,0.378066,0.279960,36655744.000000,4.130000,138.669998,-27.719999,0.000000,0.000000
36678144.000000,-11.851650,0.193819,0.823131,36675712.000000,-51.939999,138.669998,-41.369999,0.000000,0.000000
36697216.000000,-11.954542,0.428315,0.607777,36696576.000000,-73.150002,133.630005,-41.860001,0.000000,0.000000
36717312.000000,-11.325230,0.090927,0.648455,36715648.000000,-72.239998,129.080002,-33.040001,0.000000,0.000000
36737280.000000,-10.679168,-0.425922,0.995414,36735744.000000,-78.050003,125.790001,-19.460001,0.000000,0.000000
36757376.000000,-10.765309,-0.820738,1.586441,36755712.000000,-89.739998,128.800003,-0.770000,0.000000,0.000000
36778112.000000,-11.272588,-0.794417,2.349752,36775808.000000,-97.300003,140.490005,16.870001,0.000000,0.000000
36797184.000000,-12.016755,-1.083949,3.093920,36796544.000000,-91.139999,151.970001,32.900002,0.000000,0.000000
36817152.000000,-13.036098,-1.280160,4.551149,36815616.000000,-62.860001,157.500000,41.720001,0.000000,0.000000
36837120.000000,-14.222939,-1.270589,6.161518,36835584.000000,-20.299999,158.899994,48.720001,0.000000,0.000000
36857216.000000,-14.500504,-1.107877,5.888737,36855552.000000,38.990002,156.240005,56.980000,0.000000,0.000000
36880000.000000,-14.940784,-0.476172,4.716253,36875648.000000,112.349998,136.289993,61.389999,0.000000,0.000000
36897152.000000,-16.409977,1.138984,4.986642,36898432.000000,169.539993,94.150002,51.380001,0.000000,0.000000
36917120.000000,-16.886148,3.347559,3.725625,36915584.000000,192.570007,54.810001,43.680000,0.000000,0.000000
36937088.000000,-15.969698,4.065405,1.483550,36935552.000000,176.889999,-0.700000,34.230000,0.000000,0.000000
36957056.000000,-13.033704,3.029313,0.954736,36955520.000000,116.199997,-59.849998,15.960000,0.000000,0.000000
36978048.000000,-10.760524,2.012364,1.148555,36975488.000000,26.950001,-123.480003,0.770000,0.000000,0.000000
36997120.000000,-10.514063,1.143769,1.485943,36996480.000000,-43.889999,-166.529999,-19.110001,0.000000,0.000000
37017088.000000,-12.083755,0.236889,1.837688,37015552.000000,-83.510002,-179.130005,-43.049999,0.000000,0.000000
37037056.000000,-14.359328,-0.576670,1.933401,37035520.000000,-90.860001,-177.800003,-59.920002,0.000000,0.000000
37057024.000000,-15.692131,-1.143769,1.031307,37055488.000000,-63.980000,-179.059998,-64.470001,0.000000,0.000000
37078016.000000,-15.357137,-1.198804,0.069392,37075456.000000,-11.690000,-188.649994,-52.080002,0.000000,0.000000
37097088.000000,-13.954943,-0.744168,-0.531207,37096448.000000,40.529999,-200.830002,-24.080000,0.000000,0.000000
37117056.000000,-12.736995,-0.208176,-0.856631,37115520.000000,75.250000,-209.649994,6.930000,0.000000,0.000000
37137024.000000,-11.846866,0.057428,-1.184447,37135488.000000,86.519997,-212.800003,26.180000,0.000000,0.000000
37156992.000000,-11.447264,0.299103,-1.237089,37155456.000000,73.709999,-212.380005,33.529999,0.000000,0.000000
37177856.000000,-11.349157,0.459422,-1.366302,37196288.000000,9.310000,-203.910004,22.049999,1442593792.000000,1009.011536
37196928.000000,-11.454442,0.356531,-1.500300,0.000000,0.000000,0.000000,0.000000,0.000000,0.000000
37217024.000000,-11.492726,-0.033500,-1.545763,37215360.000000,-25.760000,-198.940002,9.380000,0.000000,0.000000
37236992.000000,-11.172089,-0.567099,-1.387837,37235456.000000,-57.260002,-194.809998,-0.280000,0.000000,0.000000
37256960.000000,-10.693524,-1.036092,-1.182054,37255424.000000,-79.309998,-191.169998,-6.370000,0.000000,0.000000
37277824.000000,-10.049855,-1.229911,-1.002593,37275392.000000,-90.300003,-185.570007,-9.730000,0.000000,0.000000
37296896.000000,-9.355937,-1.201197,-0.993021,37296256.000000,-92.400002,-177.449997,-13.300000,0.000000,0.000000
37316864.000000,-8.764909,-1.162912,-1.447658,37315328.000000,-88.830002,-169.050003,-18.690001,0.000000,0.000000
37336960.000000,-8.513663,-0.602991,-2.553142,37335296.000000,-84.000000,-160.440002,-26.740000,0.000000,0.000000
37356928.000000,-7.941778,0.339781,-3.538985,37355392.000000,-84.840004,-149.660004,-36.049999,0.000000,0.000000
37377792.000000,-7.085148,0.614955,-3.294917,37375360.000000,-90.930000,-137.970001,-43.330002,0.000000,0.000000
37396864.000000,-6.726225,0.153141,-2.225325,37396224.000000,-110.110001,-123.970001,-49.700001,0.000000,0.000000
37416832.000000,-7.353144,-0.605384,-0.490529,37415296.000000,-128.869995,-92.120003,-48.860001,0.000000,0.000000
37436800.000000,-8.867801,-0.983450,-0.011964,37435264.000000,-130.479996,-51.590000,-44.730000,0.000000,0.000000
37456768.000000,-10.463813,-0.988236,-0.897308,37455232.000000,-109.480003,-2.310000,-24.990000,0.000000,0.000000
37477760.000000,-10.832308,-0.775275,-0.978664,37475200.000000,-80.779999,48.369999,4.970000,0.000000,0.000000
37496832.000000,-10.463813,-0.722632,-0.457029,37496192.000000,-58.660000,90.370003,42.490002,0.000000,0.000000
37516800.000000,-10.387242,-1.064806,0.289532,37515264.000000,-33.110001,130.199997,75.250000,0.000000,0.000000
37536768.000000,-10.669596,-0.981057,1.450050,37535232.000000,-6.790000,172.619995,95.129997,0.000000,0.000000
37556736.000000,-11.547763,-0.646062,1.674976,37555200.000000,21.700001,212.380005,111.300003,0.000000,0.000000
37577728.000000,-12.937992,-0.562313,1.002593,37575168.000000,39.060001,230.720001,117.110001,0.000000,0.000000
37596800.000000,-14.110476,-0.461815,0.212961,37596160.000000,80.080002,261.239990,126.279999,0.000000,0.000000
37616768.000000,-14.553147,-0.399601,0.174676,37615232.000000,118.860001,273.559998,132.649994,0.000000,0.000000
37636736.000000,-14.285151,-0.227318,0.332602,37635200.000000,149.380005,264.529999,132.860001,0.000000,0.000000
37656704.000000,-13.301701,0.634098,0.658026,37655168.000000,160.720001,238.839996,126.279999,0.000000,0.000000
37677568.000000,-12.112469,2.127219,0.760918,37675136.000000,148.119995,207.339996,111.230003,0.000000,0.000000
37696640.000000,-10.734202,3.134598,0.763310,37696000.000000,115.779999,177.940002,86.800003,0.000000,0.000000
37716736.000000,-10.124033,2.761317,0.703490,37715072.000000,60.060001,150.990005,50.820000,0.000000,0.000000
37736704.000000,-10.482956,1.543371,0.713061,37735168.000000,-14.070000,137.899994,11.970000,0.000000,0.000000
37756672.000000,-11.416157,1.007378,0.480957,37755136.000000,-77.279999,134.190002,-15.960000,0.000000,0.000000
37777536.000000,-11.703296,0.468993,0.189033,37775104.000000,-113.540001,126.070000,-31.010000,0.000000,0.000000
37796608.000000,-11.353944,-0.059821,0.291924,37795968.000000,-134.190002,107.099998,-34.230000,0.000000,0.000000
37816576.000000,-11.341980,-0.681954,0.868595,37815040.000000,-153.930008,90.860001,-24.639999,0.000000,0.000000
37836672.000000,-11.193624,-1.481157,1.576870,37835008.000000,-164.080002,89.320000,-8.960000,0.000000,0.000000
37856640.000000,-10.906486,-2.055435,2.206182,37855104.000000,-159.460007,92.540001,9.450000,0.000000,0.000000
37879424.000000,-10.423136,-2.313859,2.816352,37875072.000000,-136.919998,98.139999,29.610001,0.000000,0.000000
37896576.000000,-10.392029,-2.356930,3.538985,37897856.000000,-93.590004,104.790001,49.070000,0.000000,0.000000
37916544.000000,-11.509477,-2.378466,4.414758,37915008.000000,-32.130001,113.889999,63.980000,0.000000,0.000000
37936512.000000,-13.131810,-2.153540,5.149354,37934976.000000,36.959999,124.949997,72.519997,0.000000,0.000000
37956608.000000,-13.856836,-1.756332,4.682754,37975040.000000,172.130005,111.720001,84.910004,0.000000,0.000000
37977472.000000,-12.870994,-0.803988,3.046063,0.000000,0.000000,0.000000,0.000000,0.000000,0.000000
37996544.000000,-12.557532,0.736989,1.945365,37995904.000000,210.000000,65.870003,77.769997,0.000000,0.000000
38016512.000000,-14.505291,2.873780,2.282753,38014976.000000,199.009995,20.930000,58.380001,0.000000,0.000000
38036480.000000,-15.830914,3.811767,1.919044,38034944.000000,153.580002,-0.070000,36.540001,0.000000,0.000000
38056448.000000,-15.364313,2.428715,1.268196,38054912.000000,90.370003,-42.000000,7.700000,0.000000,0.000000
38077440.000000,-13.653446,0.818345,0.837488,38095872.000000,-39.410000,-140.279999,-46.619999,0.000000,0.000000
38096512.000000,-11.978470,0.131605,0.863809,0.000000,0.000000,0.000000,0.000000,0.000000,0.000000
38116480.000000,-11.712867,-0.088534,1.265803,38114944.000000,-67.480003,-172.550003,-63.420002,0.000000,0.000000
38136448.000000,-12.803994,-0.679562,1.258625,38134912.000000,-66.360001,-182.000000,-78.190002,0.000000,0.000000
38156416.000000,-14.323436,-1.476372,1.179662,38154880.000000,-37.450001,-178.710007,-88.129997,0.000000,0.000000
38177408.000000,-15.519848,-1.464408,0.713061,38174848.000000,6.160000,-177.100006,-86.169998,0.000000,0.000000
38196480.000000,-15.869200,-1.237089,0.083749,38195840.000000,57.330002,-179.130005,-68.809998,1443593344.000000,1009.011230
38216448.000000,-14.703895,-0.983450,-0.653241,38214912.000000,104.440002,-185.009995,-42.209999,0.000000,0.000000
38236416.000000,-13.186846,-0.423530,-1.014557,38234880.000000,131.600006,-198.240005,-14.210000,0.000000,0.000000
38256384.000000,-12.610175,0.210568,-1.170090,38254848.000000,133.350006,-204.960007,6.650000,0.000000,0.000000
38277248.000000,-12.064612,0.686740,-1.485943,38274816.000000,116.270004,-205.729996,14.700000,0.000000,0.000000
38296320.000000,-11.595619,0.782453,-1.584049,38295680.000000,86.870003,-207.970001,13.580000,0.000000,0.000000
38316416.000000,-11.217552,0.686740,-1.330409,38314752.000000,48.369999,-211.399994,4.270000,0.000000,0.000000
38336384.000000,-11.050055,0.141177,-0.684347,38334848.000000,1.680000,-208.600006,-3.990000,0.000000,0.000000
38356352.000000,-10.305886,-0.320638,0.540778,38354816.000000,-37.939999,-199.360001,-10.640000,0.000000,0.000000
38377600.000000,-9.071191,-0.418744,1.210768,38374784.000000,-53.340000,-191.029999,-14.210000,0.000000,0.000000
38396288.000000,-8.951550,-0.296710,1.031307,38396032.000000,-41.020000,-183.470001,-14.980000,0.000000,0.000000
38416256.000000,-9.293723,-0.375673,0.279960,38414720.000000,-16.450001,-165.830002,-14.840000,0.000000,0.000000
38436352.000000,-9.119047,-0.308674,-0.385244,38434688.000000,-1.540000,-149.729996,-10.850000,0.000000,0.000000
38456320.000000,-8.688338,0.117248,-0.942772,38454784.000000,-4.830000,-146.229996,-2.800000,0.000000,0.000000
38477184.000000,-8.027920,0.734596,-1.696511,38474752.000000,-14.980000,-140.070007,2.590000,0.000000,0.000000
38496256.000000,-6.939186,0.942772,-2.146362,38495616.000000,-30.030001,-130.199997,3.430000,0.000000,0.000000
38516224.000000,-6.211767,0.543171,-2.258825,38514688.000000,-54.250000,-117.879997,3.570000,0.000000,0.000000
38536192.000000,-7.977671,-0.445065,-2.603391,38534656.000000,-87.989998,-93.870003,3.220000,0.000000,0.000000
38556288.000000,-10.892128,-0.756132,-2.677568,38554624.000000,-119.070000,-46.060001,2.310000,0.000000,0.000000
38577152.000000,-10.159925,-1.067199,-2.622534,38574720.000000,-140.210007,1.260000,7.000000,0.000000,0.000000
38596224.000000,-8.358130,-1.162912,-1.947758,38595584.000000,-136.710007,9.450000,22.820000,0.000000,0.000000
38616192.000000,-9.049655,-0.973879,-0.196211,38614656.000000,-123.550003,35.980000,38.080002,0.000000,0.000000
38636160.000000,-9.822537,-1.292124,-0.287139,38634624.000000,-108.430000,95.970001,46.830002,0.000000,0.000000
38656128.000000,-9.717253,-1.543371,-0.457029,38654592.000000,-74.970001,146.930008,56.279999,0.000000,0.000000
38677120.000000,-10.399208,-1.373480,-0.447458,38674560.000000,-32.830002,178.430008,61.950001,0.000000,0.000000
38696192.000000,-11.928220,-1.146162,0.016750,38695552.000000,-0.560000,211.680008,71.190002,0.000000,0.000000
38716160.000000,-13.366307,-1.002593,0.571885,38714624.000000,16.520000,239.540009,77.279999,0.000000,0.000000
38736128.000000,-14.155938,-1.383051,-0.002393,38734592.000000,38.430000,253.610001,85.470001,0.000000,0.000000
38756096.000000,-13.830515,-1.251446,-0.217747,38754560.000000,82.459999,253.889999,89.879997,0.000000,0.000000
38776960.000000,-12.555140,-0.246461,0.153141,38774528.000000,125.510002,236.809998,89.180000,0.000000,0.000000
38796032.000000,-11.882757,0.957129,0.504886,38795392.000000,151.199997,215.110001,88.340004,0.000000,0.000000
38816128.000000,-12.208181,1.950150,0.796810,38814464.000000,153.860001,203.070007,72.169998,0.000000,0.000000
38836096.000000,-12.583855,2.493321,0.701097,38834560.000000,129.080002,201.669998,46.549999,0.000000,0.000000
38856064.000000,-12.796815,2.421536,-0.217747,38854528.000000,81.970001,196.770004,19.250000,0.000000,0.000000
38878976.000000,-13.272987,1.875973,-0.332602,38874496.000000,21.139999,185.080002,-4.060000,0.000000,0.000000
38896000.000000,-13.100704,1.012164,0.086142,38897408.000000,-45.360001,175.699997,-14.910000,0.000000,0.000000
38915968.000000,-13.488340,0.729811,1.055235,38914432.000000,-100.239998,161.279999,-13.090000,0.000000,0.000000
38936064.000000,-13.301701,0.119641,1.342373,38934400.000000,-134.050003,156.309998,-9.660000,0.000000,0.000000
38956032.000000,-12.626925,-0.579063,1.658226,38954496.000000,-147.770004,152.460007,-0.770000,0.000000,0.000000
38976896.000000,-12.279965,-1.060020,2.452643,38974464.000000,-152.320007,144.410004,8.260000,0.000000,0.000000
38995968.000000,-12.294323,-1.430908,3.634698,38995328.000000,-141.050003,144.199997,22.330000,0.000000,0.000000
39015936.000000,-12.799208,-1.581656,4.716253,39014400.000000,-107.379997,141.680008,31.500000,0.000000,0.000000
39035904.000000,-13.706088,-1.361516,5.386244,39034368.000000,-50.889999,141.050003,41.020000,0.000000,0.000000
39056000.000000,-13.543377,-0.964308,4.845466,39054336.000000,20.020000,136.289993,49.000000,0.000000,0.000000
39076864.000000,-12.057433,-0.241675,3.328416,39074432.000000,83.510002,113.680000,56.070000,0.000000,0.000000
39095936.000000,-12.150753,0.768096,3.359523,39095296.000000,114.379997,68.599998,54.110001,0.000000,0.000000
39115904.000000,-14.715858,1.808974,4.900501,39114368.000000,109.830002,37.869999,42.000000,0.000000,0.000000
39135872.000000,-16.919647,1.670190,4.340580,39134336.000000,94.360001,29.190001,33.950001,0.000000,0.000000
39155840.000000,-16.364515,1.069592,2.103291,39154304.000000,82.809998,-5.950000,18.620001,0.000000,0.000000
39176832.000000,-12.969098,0.808774,1.213161,39195264.000000,31.570000,-135.380005,2.800000,1444592768.000000,1009.009460
39195904.000000,-10.796415,0.669990,1.115055,0.000000,0.000000,0.000000,0.000000,0.000000,0.000000
39215872.000000,-11.155338,0.543171,1.332802,39214336.000000,3.570000,-174.229996,-9.940000,0.000000,0.000000
39235840.000000,-13.335200,-0.100499,1.359123,39234304.000000,-10.570000,-181.089996,-27.299999,0.000000,0.000000
39255808.000000,-16.149158,-0.926022,1.019342,39254272.000000,-3.150000,-178.289993,-39.549999,0.000000,0.000000
39276800.000000,-17.955742,-1.655833,0.157926,39274240.000000,24.850000,-182.770004,-41.860001,0.000000,0.000000
39295872.000000,-17.551353,-1.648655,-0.650848,39295232.000000,64.610001,-199.850006,-31.219999,0.000000,0.000000
39315840.000000,-15.869200,-0.686740,-1.438086,39314304.000000,101.430000,-218.190002,-4.480000,0.000000,0.000000
39335808.000000,-14.256437,-0.136391,-2.141576,39334272.000000,124.040001,-234.290009,20.299999,0.000000,0.000000
39355776.000000,-13.067204,0.220140,-2.294717,39354240.000000,119.139999,-243.600006,31.430000,0.000000,0.000000
39376640.000000,-12.581462,1.069592,-1.976472,39374208.000000,83.230003,-249.270004,30.240000,0.000000,0.000000
39395712.000000,-12.502499,1.519442,-2.213361,39395072.000000,35.420002,-249.759995,18.410000,0.000000,0.000000
39415808.000000,-12.447463,0.935594,-2.263610,39414144.000000,-15.680000,-247.169998,-2.590000,0.000000,0.000000
39435776.000000,-12.232110,0.047856,-2.074577,39434240.000000,-73.639999,-244.229996,-27.860001,0.000000,0.000000
39455744.000000,-11.736795,-0.768096,-1.734797,39454208.000000,-122.639999,-239.610001,-44.170002,0.000000,0.000000
39476608.000000,-10.698310,-1.289732,-1.234696,39474176.000000,-138.250000,-236.389999,-56.420002,0.000000,0.000000
39495680.000000,-9.530612,-1.521835,-1.143769,39495040.000000,-153.160004,-231.070007,-59.709999,0.000000,0.000000
39515648.000000,-8.786445,-1.555335,-1.469193,39514112.000000,-145.740005,-223.369995,-64.540001,0.000000,0.000000
39535744.000000,-8.695518,-1.095913,-2.012364,39534080.000000,-121.730003,-212.729996,-68.879997,0.000000,0.000000
39555712.000000,-7.939385,0.528814,-3.529413,39554176.000000,-92.260002,-196.910004,-70.559998,0.000000,0.000000
39576576.000000,-5.532206,1.272982,-3.352344,39574144.000000,-61.180000,-179.550003,-64.820000,0.000000,0.000000
39595648.000000,-4.828716,0.789631,-2.897708,39595008.000000,-54.110001,-171.220001,-59.639999,0.000000,0.000000
39615616.000000,-5.156533,-0.138784,-1.182054,39614080.000000,-72.660004,-142.729996,-47.599998,0.000000,0.000000
39635584.000000,-7.592427,-0.844666,-0.595813,39634048.000000,-92.959999,-89.809998,-40.529999,0.000000,0.000000
39655680.000000,-10.803595,-0.710668,-1.179662,39654016.000000,-90.230003,-17.570000,-20.860001,0.000000,0.000000
39676544.000000,-10.214959,-0.765703,-1.493121,39674112.000000,-68.459999,44.380001,8.330000,0.000000,0.000000
39695616.000000,-9.224331,-0.658026,-1.026521,39694976.000000,-39.270000,78.470001,48.650002,0.000000,0.000000
39715584.000000,-9.903893,-0.741775,-0.748954,39714048.000000,-13.160000,119.139999,80.010002,0.000000,0.000000
39735552.000000,-10.542776,-0.665205,-0.026321,39734016.000000,2.590000,174.580002,93.239998,0.000000,0.000000
39755520.000000,-11.186446,-0.708275,0.854238,39753984.000000,7.910000,214.199997,107.169998,0.000000,0.000000
39776512.000000,-12.215360,-0.914058,1.316052,39773952.000000,19.320000,247.800003,116.830002,0.000000,0.000000
39795584.000000,-13.651052,-1.452443,1.134198,39794944.000000,45.570000,275.309998,124.459999,0.000000,0.000000
39815552.000000,-14.641682,-1.861616,0.342174,39814016.000000,84.419998,294.350006,130.410004,0.000000,0.000000
39835520.000000,-14.703895,-1.892723,-0.370888,39833984.000000,130.550003,294.420013,136.360001,0.000000,0.000000
39855488.000000,-13.892728,-0.902094,-0.445065,39853952.000000,176.330002,271.880005,134.050003,0.000000,0.000000
39878400.000000,-12.827922,1.091127,0.035892,39896832.000000,234.779999,193.339996,92.610001,0.000000,0.000000
39895552.000000,-11.966506,3.845266,-0.526421,0.000000,0.000000,0.000000,0.000000,0.000000,0.000000
39915520.000000,-11.229517,5.247460,-1.375873,39913984.000000,215.180008,153.789993,48.580002,0.000000,0.000000
39935488.000000,-10.676775,4.833502,-1.495514,39933952.000000,129.919998,122.290001,-4.130000,0.000000,0.000000
39955456.000000,-11.026128,3.254239,-1.646262,39953920.000000,-8.470000,104.160004,-47.810001,0.000000,0.000000
39976320.000000,-11.990433,1.596013,-1.277767,39973888.000000,-140.630005,101.430000,-74.970001,0.000000,0.000000
39995392.000000,-12.437892,-0.136391,-0.074178,39994752.000000,-238.070007,103.669998,-91.209999,0.000000,0.000000
40015488.000000,-12.220145,-1.797010,1.313660,40013824.000000,-293.790009,101.919998,-88.690002,0.000000,0.000000
40035456.000000,-11.629118,-3.170490,2.206182,40033920.000000,-307.369995,104.720001,-63.840000,0.000000,0.000000
40055424.000000,-11.289338,-3.919443,2.928815,40053888.000000,-282.100006,115.639999,-22.190001,0.000000,0.000000
40076288.000000,-11.169697,-4.175476,3.739982,40073856.000000,-223.509995,129.360001,26.880001,0.000000,0.000000
40095360.000000,-11.464014,-3.948158,4.558327,40094720.000000,-128.449997,140.139999,74.690002,0.000000,0.000000
40115328.000000,-12.100503,-3.570091,5.335995,40113792.000000,-6.160000,147.279999,108.709999,0.000000,0.000000
40135424.000000,-13.222737,-2.885744,5.828916,40133760.000000,117.459999,154.839996,128.169998,0.000000,0.000000
40155392.000000,-13.775480,-1.519442,4.649254,40153856.000000,227.570007,159.110001,138.880005,0.000000,0.000000
40176256.000000,-14.289936,0.509671,2.663212,40173824.000000,310.029999,140.910004,134.539993,0.000000,0.000000
40195328.000000,-16.264015,3.230310,2.069792,40194688.000000,333.480011,97.930000,115.360001,1445592192.000000,1009.009521
40215296.000000,-16.919647,5.204390,1.124627,40213760.000000,287.839996,61.599998,92.820000,0.000000,0.000000
40235264.000000,-15.785451,4.912465,-0.265603,40233728.000000,190.820007,-1.330000,73.639999,0.000000,0.000000
40255360.000000,-13.548162,2.907279,-0.547956,40253696.000000,78.540001,-77.489998,38.709999,0.000000,0.000000
40276224.000000,-11.636297,1.694118,-0.112463,40273792.000000,-17.710001,-148.399994,6.510000,0.000000,0.000000
40295296.000000,-11.107484,1.026521,0.789631,40294656.000000,-83.230003,-199.850006,-22.540001,0.000000,0.000000
40315264.000000,-12.090932,0.148355,1.397408,40313728.000000,-120.680000,-220.639999,-47.880001,0.000000,0.000000
40335232.000000,-14.100904,-1.198804,1.466800,40333696.000000,-136.220001,-218.259995,-68.459999,0.000000,0.000000
40355200.000000,-15.517454,-2.158326,1.170090,40353664.000000,-127.680000,-208.949997,-84.279999,0.000000,0.000000
40376192.000000,-15.345171,-2.457429,0.461815,40373632.000000,-90.720001,-207.199997,-81.760002,0.000000,0.000000
40395264.000000,-14.325829,-2.333002,0.066999,40394624.000000,-31.360001,-212.100006,-59.920002,0.000000,0.000000
40415232.000000,-13.490734,-1.868794,-0.497707,40413696.000000,26.809999,-215.740005,-32.619999,0.000000,0.000000
40435200.000000,-12.679568,-1.399801,-1.227518,40433664.000000,70.910004,-215.389999,-9.100000,0.000000,0.000000
40455168.000000,-12.059827,-0.918844,-1.610370,40453632.000000,90.370003,-215.389999,5.110000,0.000000,0.000000
40476032.000000,-11.643474,-0.693919,-1.782653,40473600.000000,86.800003,-213.570007,10.920000,0.000000,0.000000
40495232.000000,-11.351551,-0.614955,-1.596013,40494464.000000,71.330002,-209.720001,7.910000,0.000000,0.000000
40515200.000000,-11.164910,-0.591027,-1.631905,40513664.000000,49.840000,-204.820007,0.840000,0.000000,0.000000
40535168.000000,-11.059627,-0.820738,-1.789831,40533632.000000,27.650000,-197.610001,-8.260000,0.000000,0.000000
40555136.000000,-10.497313,-1.014557,-1.641476,40553600.000000,4.550000,-189.279999,-16.660000,0.000000,0.000000
40576000.000000,-9.611969,-1.091127,-1.368695,40573568.000000,-19.600000,-183.960007,-21.490000,0.000000,0.000000
40595072.000000,-8.872586,-1.048056,-1.653440,40594432.000000,-38.220001,-178.850006,-26.180000,0.000000,0.000000
40615040.000000,-8.047063,0.007178,-3.103491,40613504.000000,-50.680000,-169.050003,-31.990000,0.000000,0.000000
40635136.000000,-6.824330,1.268196,-4.173083,40633472.000000,-59.290001,-159.529999,-38.150002,0.000000,0.000000
40655104.000000,-5.989235,1.414158,-3.895515,40653568.000000,-70.840004,-155.750000,-40.389999,0.000000,0.000000
40675968.000000,-6.506085,0.284746,-2.737389,40673536.000000,-106.050003,-137.270004,-40.670002,0.000000,0.000000
40695040.000000,-8.386844,-0.949951,-1.301696,40694400.000000,-147.139999,-97.790001,-40.810001,0.000000,0.000000
40715136.000000,-9.621540,-1.512264,-0.856631,40713472.000000,-163.869995,-52.500000,-37.099998,0.000000,0.000000
40734976.000000,-11.487941,-0.909273,-1.909473,40733568.000000,-133.279999,-17.780001,-14.490000,0.000000,0.000000
40755200.000000,-13.201202,-0.186640,-2.419144,40773632.000000,-52.990002,73.709999,28.070000,0.000000,0.000000
40775936.000000,-12.978670,-0.107677,-1.579263,0.000000,0.000000,0.000000,0.000000,0.000000,0.000000
40795008.000000,-11.978470,-0.394816,-0.820738,40794368.000000,-32.830002,110.459999,41.299999,0.000000,0.000000
40814976.000000,-11.320443,-0.380459,-0.236889,40813440.000000,-10.430000,154.699997,49.910000,0.000000,0.000000
40834944.000000,-11.219944,-0.559920,0.655633,40833408.000000,11.970000,192.220001,50.330002,0.000000,0.000000
40854912.000000,-12.323036,-0.679562,1.739582,40853376.000000,33.529999,223.860001,52.990002,0.000000,0.000000
40877824.000000,-13.607983,-1.004985,1.395016,40873344.000000,59.990002,247.729996,61.040001,0.000000,0.000000
40894976.000000,-13.514663,-0.741775,0.143569,40896256.000000,98.419998,259.489990,71.959999,0.000000,0.000000
40914944.000000,-12.823137,0.239282,-1.055235,40913408.000000,138.949997,242.899994,85.959999,0.000000,0.000000
40934912.000000,-12.062220,1.416551,-0.897308,40933376.000000,158.479996,213.779999,97.650002,0.000000,0.000000
40954880.000000,-11.241481,2.431108,0.088534,40953344.000000,143.570007,186.059998,100.660004,0.000000,0.000000
40975872.000000,-10.597812,3.014957,0.882952,40973312.000000,98.629997,166.389999,89.669998,0.000000,0.000000
40994944.000000,-10.758131,2.493321,1.368695,40994304.000000,28.420000,163.589996,63.910000,0.000000,0.000000
41014912.000000,-11.557333,0.940379,1.203590,41013376.000000,-56.209999,177.449997,34.509998,0.000000,0.000000
41034880.000000,-12.631711,-0.390030,1.280160,41033344.000000,-122.080002,190.190002,14.770000,0.000000,0.000000
41054848.000000,-13.143774,-1.028914,1.555335,41053312.000000,-147.979996,190.399994,8.400000,0.000000,0.000000
41075712.000000,-13.031311,-1.131805,1.679761,41073280.000000,-133.139999,178.220001,19.670000,0.000000,0.000000
41094784.000000,-12.792030,-1.294517,1.904687,41094144.000000,-98.000000,160.020004,34.650002,0.000000,0.000000
41114880.000000,-12.275180,-1.406980,2.433501,41113216.000000,-59.290001,148.610001,49.139999,0.000000,0.000000
41134848.000000,-11.576476,-1.170090,3.218346,41133312.000000,-23.240000,135.940002,59.290001,0.000000,0.000000
41154816.000000,-10.992627,-0.842274,3.763910,41153280.000000,12.390000,126.980003,61.950001,0.000000,0.000000
41175680.000000,-10.997414,-0.540778,4.266403,41173248.000000,42.420002,119.419998,55.790001,0.000000,0.000000
41194752.000000,-12.002398,-0.248854,4.831109,41194112.000000,66.919998,113.190002,43.400002,1446591616.000000,1009.005493
41214720.000000,-13.203594,-0.114855,4.981857,41213184.000000,93.800003,107.730003,32.619999,0.000000,0.000000
41234816.000000,-13.232309,-0.023928,4.029513,41233152.000000,125.930000,91.419998,26.950001,0.000000,0.000000
41254784.000000,-12.538391,0.593420,2.493321,41253248.000000,150.919998,53.060001,23.100000,0.000000,0.000000
41275648.000000,-13.782660,1.581656,2.935993,41273216.000000,152.180008,3.360000,18.480000,0.000000,0.000000
41294720.000000,-15.531813,2.447858,3.122634,41294080.000000,130.550003,-24.080000,12.950000,0.000000,0.000000
41314688.000000,-15.972091,2.127219,2.318645,41313152.000000,104.300003,-50.540001,14.140000,0.000000,0.000000
41334656.000000,-15.637095,1.304088,1.071985,41333120.000000,75.320000,-93.449997,5.320000,0.000000,0.000000
41354624.000000,-13.940585,0.746561,0.241675,41353088.000000,42.209999,-129.430008,2.800000,0.000000,0.000000
41375744.000000,-13.026526,0.653241,0.066999,41373056.000000,25.059999,-169.399994,1.540000,0.000000,0.000000
41394688.000000,-13.574483,0.552742,0.210568,41394176.000000,-3.640000,-184.940002,-1.610000,0.000000,0.000000
41414656.000000,-15.158531,0.440279,0.519243,41413120.000000,-20.860001,-199.360001,-10.150000,0.000000,0.000000
41434624.000000,-16.077375,0.198604,0.045464,41433088.000000,-25.549999,-203.979996,-18.200001,0.000000,0.000000
41454592.000000,-17.051254,-0.550349,-0.337388,41473024.000000,-0.630000,-211.750000,-18.900000,0.000000,0.000000
41475584.000000,-15.481563,-1.038485,-0.399601,0.000000,0.000000,0.000000,0.000000,0.000000,0.000000
41494656.000000,-15.220744,-0.794417,-0.354138,41494016.000000,10.710000,-222.669998,-1.820000,0.000000,0.000000
41514624.000000,-14.258829,-0.356531,-0.933201,41513088.000000,26.180000,-218.889999,13.370000,0.000000,0.000000
41534592.000000,-12.866207,-0.208176,-1.550549,41533056.000000,42.000000,-221.550003,20.020000,0.000000,0.000000
41554560.000000,-11.873186,-0.174676,-1.808974,41553024.000000,39.689999,-226.729996,18.690001,0.000000,0.000000
41575424.000000,-11.310873,0.210568,-1.416551,41572992.000000,22.820000,-228.619995,11.130000,0.000000,0.000000
41594496.000000,-11.126624,0.246461,-1.397408,41593856.000000,0.700000,-226.029999,2.100000,0.000000,0.000000
41614592.000000,-11.045268,-0.215354,-1.296910,41612928.000000,-16.309999,-219.449997,-9.100000,0.000000,0.000000
41634560.000000,-10.705488,-0.547956,-1.081556,41633024.000000,-35.490002,-210.979996,-17.500000,0.000000,0.000000
41654528.000000,-10.057034,-0.720240,-0.885344,41652992.000000,-50.959999,-201.880005,-17.430000,0.000000,0.000000
41675392.000000,-9.272188,-0.847059,-1.081556,41672960.000000,-60.480000,-192.220001,-15.820000,0.000000,0.000000
41694464.000000,-8.671589,-0.952343,-1.426122,41693824.000000,-66.849998,-182.210007,-15.680000,0.000000,0.000000