time,seconds_elapsed,z,y,x
1633780627941676800,0.0236767578125,0.02206277872622013,0.08808861781954765,0.0533617339618504
1633780627961556000,0.043555908203125,-0.014013327783346175,0.17597557558715343,0.00933452231734991
1633780627981435000,0.063434814453125,-0.04193184680044651,0.1428717628866434,-0.05087459332123399
1633780628001314800,0.083314697265625,-0.006550152295827865,0.08920914628207684,0.00699358521439135
1633780628021194000,0.103194091796875,-0.02327741521298885,0.03296352744698524,0.009421104622259735
1633780628041073000,0.123072998046875,-0.0894154825091362,0.0992623382627964,0.026343159459158775
1633780628060952800,0.142952880859375,-0.06650631608664989,0.04392039026916027,-0.06673004183992744
1633780628080832000,0.16283203125,0.03543488599658012,-0.052505263262987135,-0.043178778121620416
1633780628100711000,0.1827109375,0.11055004047453403,-0.046342064458131785,-0.06234802736341953
1633780628120590800,0.2025908203125,0.06328443143069744,-0.047049920466542244,-0.02147350759617984
1633780628140469800,0.2224697265625,0.07526946825683116,-0.08601824128627776,-0.01791544978842139
1633780628160350000,0.242349853515625,0.10424304928481579,-0.06311316651701927,-0.045704351076483726
1633780628180228400,0.262228271484375,0.10800152503550052,-0.04203296908736229,-0.03586078325845301
1633780628200107300,0.282107177734375,0.05727379283905029,-0.0032400048345327375,-0.04679492279216647
1633780628219987500,0.301987548828125,-0.034520693761110305,0.01226677637696266,-0.03397898809984326
1633780628239866400,0.321866455078125,-0.0636170243859291,0.04899988549053669,-0.05451558017209172
1633780628259745300,0.341745361328125,-0.07579670700132847,0.06480769547522068,-0.04479220466762781
1633780628279625200,0.361625244140625,0.0038099136769771573,0.04373334326446056,-0.006542334315553307
1633780628299504400,0.38150439453125,-0.019845687198638915,0.016505144599080084,0.016927753925323485
1633780628319383300,0.40138330078125,-0.026627310162782667,0.04080196598768234,0.04262669719681143
1633780628339263200,0.42126318359375,0.05292027380466461,0.04506196151971817,0.07304945411980152
1633780628359142400,0.441142333984375,0.0974760393679142,0.04028992481231689,0.038794279427081343
1633780628379021000,0.46102099609375,0.0226391173094511,0.020013444980978963,0.014302081596851347
1633780628398901200,0.4809013671875,0.03809855224788189,0.060466451400518414,0.08358436520285904
1633780628418780400,0.500780517578125,0.12465572271645069,0.005765139397978783,-0.018379852429777382
1633780628438659000,0.5206591796875,-0.010960954475402832,-0.07511690804362296,-0.05251753822267055
1633780628458539300,0.540539306640625,-0.0042144028246402735,-0.019735797083377835,0.10771540157049894
1633780628478418400,0.56041845703125,0.07527882060706614,0.011376549538969993,0.06625204906463622
1633780628498297000,0.580297119140625,-0.05763678093254566,-0.021679916888475415,-0.11335881428495048
1633780628518177300,0.60017724609375,-0.05146189168989658,0.001720247921347618,-0.08556932847499847
1633780628538056400,0.620056396484375,0.03974456588923931,-0.00682487758398056,0.013389496796578169
1633780628557936000,0.63993603515625,-0.08999649726748465,0.002409399229288101,-0.027474063185229897
1633780628577815300,0.659815185546875,0.05509995593130588,0.0173977095246315,-0.027979163163155317
1633780628597694200,0.679694091796875,0.046404608300328255,0.030512042641639706,-0.02833440634161234
1633780628617574100,0.69957421875,0.021102993783354757,0.033146482798457146,0.03826835585683584
1633780628637453300,0.719453369140625,0.04025368445515633,0.029810616374015806,0.07245894088074564
1633780628657332200,0.739332275390625,0.08609656721949577,0.004994155025482177,0.05578128925897181
1633780628677212200,0.759212158203125,0.14937398438751698,0.04036941978931427,0.0318567352488637
1633780628697091300,0.77909130859375,0.08249415881335735,0.04976268655657768,0.03825432733148336
1633780628716970200,0.79897021484375,0.09802841255366801,-0.015853402692079542,0.11428659665435552
1633780628736850200,0.81885009765625,0.12531798601746558,0.02564648243188858,0.07595861956477165
1633780628756729300,0.838729248046875,0.08472118721306324,0.031181904727220534,0.032376302143558855
1633780628776608300,0.858608154296875,0.08501637076735497,0.013173369827866554,0.09774199682772158
1633780628796488200,0.87848828125,0.037434535381197925,-0.0146919576972723,0.10552030267901719
1633780628816367400,0.898367431640625,0.028294951114058494,0.012317629781365394,0.10220467532500624
1633780628836247300,0.918247314453125,0.05958791500031948,0.013115502160787582,0.021010493194311856
1633780628856126200,0.938126220703125,-0.10565291608273983,-0.013883563923835754,0.011659896524995566
1633780628876005000,0.958005126953125,-0.1774444790959358,-0.02165361340343952,0.018289397667348384
1633780628895885300,0.97788525390625,-0.10590718310475349,-0.0036935938209295273,-0.04200746931992471
1633780628915764200,0.99776416015625,-0.013695347875356673,-0.012290157252550124,-0.12034735799804329
1633780628935643100,1.01764306640625,-0.013692425265908241,-0.010953355690836906,-0.08832038074880838
1633780628955523300,1.0375234375,0.03129997814893722,-0.035444822868704796,-0.04324599813893437
1633780628975402200,1.05740234375,0.101950554433465,-0.035711949372291565,-0.11053645034059882
1633780628995281200,1.07728125,0.1290390523672104,-0.025732407149672506,-0.1260019496936351
1633780629015161300,1.097161376953125,0.1424094060719013,-0.015680384212732313,-0.07917875065505504
1633780629035040300,1.117040283203125,0.20111352397501467,-0.03893324950635433,-0.060036024094000454
1633780629054919200,1.136919189453125,0.16889876906871795,-0.03200374250411987,-0.01673734591975808
1633780629074799400,1.15679931640625,0.09745265849232673,-0.009747487032413482,0.025468641646951437
1633780629094678300,1.17667822265625,0.0905436097562313,0.021560674422979355,0.011622925515472888
1633780629114557200,1.19655712890625,0.020519640937447545,0.04036941978931427,-0.0225776694457978
1633780629134437400,1.216437255859375,-0.004521861338615417,0.00604103372991085,0.014632994051650165
1633780629154316300,1.23631640625,-0.1064163016706705,0.03401858945786953,0.08232070194259286
1633780629174196000,1.256196044921875,-0.050531917363405225,0.03569032206237316,0.08246639402359723
1633780629194076000,1.276075927734375,-0.04777005143463611,0.026131051078438758,0.07140475565269588
1633780629213954800,1.295954833984375,-0.04946750300228595,0.004201543343067169,0.09515928685814141
1633780629233835000,1.3158349609375,-0.04325637340247631,0.036495793226361276,0.09090630558878182
1633780629253714000,1.3357138671875,-0.03551905714869499,0.03021569004356861,0.061885816679149865
1633780629273592800,1.3555927734375,0.029369886869192122,0.07911796037852764,0.020699089157581327
1633780629293473000,1.37547314453125,0.08957914863824844,0.05823533134758472,-0.0324677067540586
1633780629313352000,1.39535205078125,0.08823825542330742,0.08112287046015262,-0.05837181720882654
1633780629333230800,1.41523095703125,0.048969490352272986,0.05663374136984348,-0.04106142064146697
1633780629353111000,1.435111083984375,0.11903729831278323,-0.03218611333370208,-0.046188919723033905
1633780629372990000,1.454989990234375,0.11031798528432846,0.008198504024744034,-0.06915536929070949
1633780629392869000,1.474869140625,0.11790449489057063,-0.00811199478507042,-0.05011603003889322
1633780629412749000,1.4947490234375,0.07356091077327728,-0.029562779092788694,-0.03618519290722906
1633780629432628000,1.5146279296875,0.04927110364735126,-0.01808043109178543,-0.0276023657400161
1633780629452507100,1.534507080078125,0.048103228911757466,0.03198737589120865,-0.05745645592957735
1633780629472386800,1.55438671875,-0.00952361514866352,0.060139119142293924,-0.06804397398270666
1633780629492266000,1.574265869140625,-0.02458323711454868,0.08843816190958023,-0.05801080187670886
1633780629512145200,1.594145263671875,-0.01238835693001747,0.08253332177996635,-0.057432052140682935
1633780629532024800,1.61402490234375,-0.037078561550378794,0.06587269435822964,-0.03778444479741156
1633780629551904000,1.633904052734375,-0.07055062304139137,0.058790627142786975,-0.006118994336947799
1633780629571784000,1.653783935546875,-0.09805705412626266,0.013799392771720886,0.024991598719730973
1633780629591662800,1.673662841796875,-0.031273674663901324,-0.01842763709425926,0.04971870128437876
1633780629611542000,1.6935419921875,-0.030598551881313323,-0.040194063222408295,0.07862192048989236
1633780629631422000,1.713421875,-0.033058804515004155,-0.053451604202389716,0.0770762254178524
1633780629651300900,1.73330078125,-0.0413876569211483,-0.025482816302776334,0.04565970821715891
1633780629671180000,1.753179931640625,-0.023278584256768226,-0.0133107324719429,0.03562733982875943
1633780629691059700,1.773059814453125,-0.05324877510666847,0.00677343965768814,0.021483955924957988
1633780629710939000,1.79293896484375,-0.038082185634970664,0.013656769430637358,-0.002450754152983427
1633780629730818000,1.812818115234375,-0.017005495336651803,0.020229133558273313,0.013599486285448074
1633780629750697700,1.83269775390625,0.006259644916653633,0.054503743603825566,-0.0027205110050737857
1633780629770577000,1.852576904296875,0.04378711927831173,0.053609425112605094,0.009475099831819534
1633780629790456000,1.8724560546875,0.12260872705876827,0.06362520769238472,0.014259411498904227
1633780629810336000,1.8923359375,0.10360942755639553,0.0701437958061695,0.002942629323154688
1633780629830215000,1.91221484375,0.14087328254580497,0.04568038567900658,0.03347498410046101
1633780629850093800,1.93209375,0.06896598419845104,0.02792027258276939,0.05978643324710428
1633780629869974000,1.95197412109375,0.06901742212474346,0.021405776122212408,0.01777078062072396
1633780629889853000,1.97185302734375,0.04715981058180332,0.024859715968370437,-0.015814531986415387
1633780629909733000,1.991733154296875,0.006740706431865692,-0.000702010789513588,0.014983487989753484
1633780629929612000,2.011612060546875,-0.008705284503102302,-0.04675882856547832,0.04929477678388357
1633780629949491000,2.031490966796875,-0.022193711629509925,0.012566051584482192,-0.013548925141990183
1633780629969371000,2.051370849609375,-0.00921907924413681,0.006539630901813507,-0.005136924497038126
1633780629989250000,2.07125,0.027785832548141477,-0.05402502017617225,0.037967838540300725
1633780630009129000,2.09112890625,0.01384498547911644,-0.0013888240098953247,0.023362170886993407
1633780630029009000,2.1110087890625,0.007294833183288574,0.036595746469497675,0.007088204695284366
1633780630048888000,2.13088818359375,0.017090251010656355,0.07690086885094642,0.02325856438204646
1633780630068766700,2.1507666015625,0.049802434045076366,0.08139993383586407,-0.02007233556136489
1633780630088647000,2.17064697265625,0.08101122677922248,0.07032558211386203,-0.017298925325274467
1633780630108526000,2.190526123046875,0.0912538038522005,0.032819735062122345,0.039874695074930785
1633780630128404700,2.21040478515625,0.054801849767565726,-0.01418050104379654,0.05912278170660138
1633780630148285000,2.230284912109375,-0.01310731885433197,-0.047478375011682505,0.018895985258370638
1633780630168164400,2.250164306640625,-0.025440730726718902,-0.036846506360173226,-0.010541998410969972
1633780630188043300,2.270043212890625,-0.01226677637696266,-0.05748071358799934,-0.04237717941515148
1633780630207923200,2.289923095703125,0.03957154740989208,-0.06031506023108959,-0.022398221225664018
1633780630227802400,2.30980224609375,-0.025334347742795943,-0.043998131680488585,0.02104300722442567
1633780630247681300,2.329681396484375,-0.006997896063327789,0.004015665382146835,-0.004052928652614355
1633780630267561200,2.349561279296875,-0.012447393640875815,0.052154550129175185,-0.07605470035038887
1633780630287440400,2.3694404296875,0.012317629781365394,0.07427110486924648,-0.059101154396682974
1633780630307320300,2.3893203125,0.07313596335947513,0.053307811817526814,-0.045712972774356604
1633780630327199200,2.40919921875,0.018455694144964216,0.043811669197678565,-0.043531098690629
1633780630347078400,2.429078369140625,0.08979717530310154,0.03593523673415184,-0.056663259725272655
1633780630366958300,2.448958251953125,0.042971126720309255,0.04600362628400326,-0.05086735986284911
1633780630386837200,2.468837158203125,0.03607844459712505,0.037760698595643044,-0.05990311842933297
1633780630406716400,2.48871630859375,0.017210077998042105,0.04361351627707481,-0.05918342585265636
1633780630426596000,2.50859619140625,0.019079379001259802,0.03704524380266666,-0.07280746205747127
1633780630446475300,2.528475341796875,0.047802200138568875,0.03224047386944294,-0.07283113519400358
1633780630466354400,2.5483544921875,0.08125497240722179,0.02931026563644409,-0.04966609431430697
1633780630486234000,2.568234130859375,-0.03953296896517276,0.0018219547301530836,-0.03528130287006497
1633780630506113300,2.58811328125,0.005894903257489204,-0.0165524908721447,-0.011594283942878246
1633780630525992400,2.607992431640625,-0.003277414235472679,0.034573885253071784,-0.02293203584142029
1633780630545872100,2.6278720703125,0.0041489363729953765,0.0001017068088054657,-0.02631312964707613
1633780630565751300,2.647751220703125,0.017267945665121076,-0.02574234402179718,-0.027167408388853072
1633780630585630200,2.667630126953125,-0.036112931388616556,0.015241992795467375,0.005777706618607044
1633780630605510100,2.68751025390625,-0.010929974815249443,-0.007956511962413787,0.029283231499046086
1633780630625389300,2.707389404296875,0.03012099749743938,-0.014756255105137825,0.03410305287092924
1633780630645269200,2.727269287109375,0.053635728597640986,0.03728197516798973,0.045726562908291815
1633780630665148200,2.747148193359375,0.04328969115018844,0.057664837983250616,0.09027407209984957
1633780630685027300,2.76702734375,0.046647184884548186,0.08430909928083419,0.0884278597112745
1633780630704907300,2.7869072265625,0.058171618461608884,0.10708207210302352,0.11911072887517511
1633780630724786200,2.8067861328125,-0.008211363506317139,0.1398836869865656,0.13399594412222504
1633780630744665300,2.826665283203125,-0.04386719877719879,0.17292320227921007,0.0673582567408681
1633780630764545300,2.846545166015625,-0.07637187654078006,0.14685995573997496,0.05769990929663181
1633780630784424200,2.866424072265625,-0.10431260738968849,0.12218319512307643,-0.005527677380293607
1633780630804303000,2.88630322265625,-0.11529694274067878,0.12572832038402557,-0.09093224374763667
1633780630824183300,2.906183349609375,-0.0465507387727499,0.03447685461938381,-0.0878188609674573
1633780630844062200,2.926062255859375,0.03528174126148224,-0.023492519268393516,-0.10855893972255289
1633780630863941000,2.945941162109375,0.062090253210067746,-0.08890168776810169,-0.08497633101791142
1633780630883821300,2.9658212890625,0.04919394675791263,-0.1068698906570673,-0.07920395816154778
1633780630903700200,2.9857001953125,0.09785656311810016,-0.15514730709195135,-0.07324614573568106
1633780630923579100,3.0055791015625,0.08520283325016498,-0.13876082043647767,-0.05782784652523696
1633780630943459300,3.025459228515625,0.060576926037669176,-0.09474223048985003,-0.019877616706863045
1633780630963338500,3.04533837890625,0.05640460878908634,-0.09089724549949169,-0.00048537236414849757
1633780630983218200,3.06521826171875,0.07735562688112259,-0.032032384076714514,0.016212518328055738
1633780631003097300,3.085097412109375,-0.03273322582244873,0.03726093237996101,0.03978241368159652
1633780631022976300,3.104976318359375,0.05226327120065689,0.08849719862043857,0.08696363237760961
1633780631042856200,3.124856201171875,0.06987257764935494,0.1360661745250225,0.11444047204181551
1633780631062735400,3.1447353515625,0.06952011094987393,0.14031506414115427,0.14125307564362882
1633780631082614300,3.1646142578125,0.04481529328227043,0.1478770238280296,0.177502419828251
1633780631102494200,3.184494140625,0.04627250635325909,0.16170856530368327,0.1401390499871224
1633780631122373400,3.204373291015625,0.06096914022564888,0.15076806909441948,0.06705087129212915
1633780631142252300,3.224252197265625,-0.03380231635868549,0.09879530527293681,0.06681465138345956
1633780631162132200,3.24413232421875,-0.02542553315758705,0.028445173239707945,0.025173896484076974
1633780631182010400,3.26401025390625,0.0033241759866476056,0.03331774771213531,-0.06695457131080329
1633780631201889500,3.2838896484375,-0.017469021195173264,0.007222352468967437,-0.1280257836714387
1633780631221769200,3.303769287109375,-0.02235854680240154,-0.054395022532343865,-0.11272921114452182
1633780631241648400,3.3236484375,0.04453121564388275,-0.14131401205062866,-0.12082315881624817
1633780631261527300,3.34352734375,0.046987376624345774,-0.10580313820838927,-0.146298522464931
1633780631281407200,3.3634072265625,0.03829319803714752,-0.12016542555987834,-0.10568521091714501
1633780631301286400,3.383286376953125,0.04527706557512283,-0.11751286522448062,-0.05175934026651084
1633780631321166600,3.40316650390625,0.07084872920513152,-0.07705167549848556,-0.06054864979125559
1633780631341045500,3.42304541015625,0.02954641247987747,-0.025261867028474806,-0.04912658061012625
1633780631360924400,3.44292431640625,-0.037303017956018446,0.011405775633454322,0.010980243697762489
1633780631380804400,3.462804443359375,-0.08787585185170173,0.05934650745987892,0.056151218549907206
1633780631400683500,3.48268359375,-0.07924304806292057,0.10364742147922515,0.02428863808214664
1633780631420562400,3.5025625,-0.04646890570819378,0.11773439902067184,0.009320128465816377
1633780631440442400,3.5224423828125,-0.021616788524389266,0.10749766716659069,0.07144413781501352
1633780631460321500,3.542321533203125,-0.032628011882305144,0.08865969570577144,0.1136552399482578
1633780631480200200,3.5622001953125,0.006442600268125534,0.03977788363695144,0.10057992366738616
1633780631500080400,3.582080322265625,0.05896130753457546,0.032306524842977524,0.07949877638965845
1633780631519959600,3.60195947265625,0.12111059745550155,0.03625204759836197,0.03702902332022786
1633780631539838200,3.621838134765625,0.12740122203230858,0.021930676779150962,0.021643530400842426
1633780631559718400,3.641718505859375,0.08912789773941039,-0.0030611411362886426,0.006930968306958675
1633780631579597600,3.66159765625,0.09391980819106101,-0.04765957679748535,-0.017891776651889086
1633780631599476200,3.681476318359375,0.0642617520302534,-0.025241408762335774,-0.06438808182366192
1633780631619356400,3.7013564453125,0.0027870003700256347,-0.016655951246619224,-0.07040273900330066
1633780631639235600,3.721235595703125,0.013189736440777778,-0.0789367585927248,-0.04909282447099685
1633780631659115300,3.741115234375,0.005639467191696166,-0.025289339557290076,-0.06491159424111247
1633780631678994400,3.760994384765625,-0.0500841735959053,-0.003121346890926361,-0.04523176512867212
1633780631698873300,3.780873291015625,-0.05191957232952118,-0.009589666122198104,-0.04744337676353752
1633780631718753300,3.800753173828125,0.008683657193183899,-0.020822423276305197,-0.017862696687877176
1633780631738632400,3.820632568359375,0.05776011505126953,-0.0075087681949138636,0.049583238336443895
1633780631758511400,3.840511474609375,0.031955227187275885,0.021854688933491705,0.07025733918324112
1633780631778391300,3.860391357421875,0.022588848426938056,0.04618599711358547,0.049920361336320634
1633780631798270500,3.8802705078125,0.035543607068061825,0.03963350673019886,0.049420448990166184
1633780631818149400,3.9001494140625,0.050935237467288966,0.05809504609405994,0.03146495945230126
1633780631838029300,3.920029296875,0.04382803581058979,0.10694880111217499,0.020380232466757298
1633780631857908500,3.939908447265625,0.09343056336939334,0.05362170007228851,0.06293824834153056
1633780631877787400,3.959787353515625,0.08630699509978294,0.008540449330210685,0.04974164376854896
1633780631897667300,3.979667236328125,0.10297288321852684,0.026668226695060727,0.007530176309123635
1633780631917546500,3.99954638671875,-0.017955927929282186,-0.03467033136487007,0.04062434439845383
1633780631937426400,4.019426513671875,0.00407996279001236,-0.03501929093301296,0.006771686092019081
1633780631957305300,4.039305419921875,0.09365560429692268,-0.03685001349151134,-0.08925583496801555
1633780631977184300,4.059184326171875,0.0600227992862463,-0.0511082559466362,-0.08201748121231794
1633780631997064400,4.079064453125,0.04519873964190483,-0.0730675742983818,-0.06818345551863313
1633780632016943400,4.098943359375,-0.023829788398742675,-0.05465396572947502,-0.09140344145596027
1633780632036822300,4.118822265625,0.02154781494140625,-0.049832244661450385,-0.10247530895993114
1633780632056702500,4.138702392578125,0.07027706679701805,-0.020350129589438437,-0.08490238899886608
1633780632076581400,4.158581298828125,0.1271855334550142,-0.020530162331461904,-0.06375562913902104
1633780632096460300,4.178460205078125,0.07265022566914558,0.044758010137081146,-0.06161898243650794
1633780632116340500,4.198340576171875,0.07159750174582004,0.08006897749304771,-0.05052344179600477
1633780632136219400,4.218219482421875,0.08608370773792266,0.1088783078700304,-0.07468231601864099
1633780632156098300,4.238098388671875,0.12204407891333102,0.117504681918025,-0.07898052466921508
1633780632175978500,4.257978515625,0.074296239310503,0.08689736220836639,0.002655629075318575
1633780632195857400,4.277857421875,0.0646539662182331,0.04017711208760738,0.042607188778743144
1633780632215736600,4.297736572265625,0.024750994896888732,0.058873629251122474,0.01781754237189889
1633780632235616500,4.317616455078125,-0.0036409868508577347,0.030003508597612378,0.026122794706746933
1633780632255495400,4.337495361328125,-0.022597616255283354,0.00903086319565773,0.04399710876718163
1633780632275374300,4.357374267578125,-0.03524316281676292,0.008070493730902671,0.048265506801381704
1633780632295254500,4.377254638671875,-0.008887655332684517,0.028704700958728787,0.041045565485209226
1633780632315133700,4.3971337890625,-0.041339726126194,0.011596914291381835,0.03428330480866134
1633780632335013600,4.417013671875,0.020138532665371894,0.011762918508052824,0.04763458848670125
1633780632354892500,4.436892578125,-0.010997779354453086,0.021227496945858,0.05452522478327155
1633780632374771700,4.456771728515625,0.006920154651999473,0.027962942680716512,0.05339366347007453
1633780632394651400,4.4766513671875,-0.014147183296084402,0.04666647410690784,0.0323651231624186
1633780632414530600,4.496530517578125,0.005149053326249122,0.014851532173156738,0.02403101005926728
1633780632434409700,4.51640966796875,0.06125906308293342,0.00772328772842884,0.014023045459762214
1633780632454289400,4.536289306640625,0.03963058412075043,0.036459552869200704,-0.010573416462540626
1633780632474168600,4.55616845703125,0.04406944335103035,0.014143091642856598,-0.019602453027293083
1633780632494047700,4.5760478515625,0.06633797378242015,-0.05127835181653499,0.011012246271222829
1633780632513927400,4.595927490234375,0.03145663001537323,-0.011786299383640288,-0.04084982371740043
1633780632533806600,4.615806640625,0.041027591437101364,-0.024835750570893288,-0.032402532563358545
1633780632553685500,4.635685546875,0.0301420402854681,-0.033359833288192746,-0.010796923020109534
1633780632573565400,4.6555654296875,0.05650631559789181,-0.02608078219592571,-0.07062354214712976
1633780632593444600,4.675444580078125,0.029790742629766463,-0.025137363865971565,-0.05847396240904927
1633780632613324500,4.695324462890625,0.02073123786151409,-0.009824643921852111,-0.03120981564745307
1633780632633203500,4.715203369140625,-0.005317980152368545,0.011779869642853736,-0.03552366025857627
1633780632653082600,4.73508251953125,0.008051204508543014,0.012827917391061781,-0.040250250389054415
1633780632672962300,4.75496240234375,0.020275310787558554,0.011999065351486206,-0.04987878721691668
1633780632692841500,4.774841552734375,0.058500119763612746,0.0176198278427124,-0.036733401374518866
1633780632712720600,4.794720703125,0.10145312630534171,0.034378070420026774,-0.04134747104123235
1633780632732600600,4.8146005859375,0.04532382732629776,0.014245967495441436,0.026404899583756924
1633780632752479500,4.8344794921875,0.03388941012024879,0.006449030008912086,0.07297901923209428
1633780632772358400,4.8543583984375,0.06443009433448314,0.010020458754897116,0.031460575538128616
1633780632792238600,4.874238525390625,0.03863514334261417,0.016867548170685767,0.021542335048690436
1633780632812117500,4.894117431640625,0.03943652285337448,0.03183949185311794,0.03825067406967282
1633780632831996400,4.913996337890625,-0.047608723393082614,0.03158931648433208,0.08921601441428065
1633780632851876600,4.933876708984375,-0.07418985632658004,0.02826806310713291,0.0274558699414134
1633780632871755500,4.953755615234375,-0.054795420026779174,0.0419803621172905,0.003417480293288827
1633780632891635500,4.973635498046875,-0.012099603116512299,0.04448679198026657,0.0425785472061485
1633780632911514600,4.9935146484375,-0.014029694396257399,0.0741349112689495,0.05456365709751844
1633780632931393500,5.0133935546875,-0.008792378264665604,0.05080781169533729,0.04651376776322722
1633780632951273500,5.0332734375,0.009021510845422744,0.05244038133323192,0.045468934885412454
1633780632971152600,5.053152587890625,0.006066168171167373,0.03907528832554817,0.036786008344590664
1633780632991031300,5.07303125,0.05987491524815559,0.07797989625930786,0.0035369419544935225
1633780633010911500,5.092911376953125,0.1101239240169525,0.0518967759758234,-0.02315291205048561
1633780633030790700,5.112790771484375,0.07731354130506515,0.021803251007199285,0.0028247020319104193
1633780633050669300,5.13266943359375,0.021760580909252165,-0.01780629032552242,0.006097878483682871
1633780633070549500,5.152549560546875,0.017605214795470236,-0.005776829835772514,-0.03745090199410915
1633780633090428700,5.1724287109375,0.03905307649374008,-0.01084638818502426,-0.021520926934480666
1633780633110307300,5.192307373046875,0.022838439273834228,-0.06739537388086318,-0.03389642438292503
1633780633130187500,5.2121875,0.04974339733421802,-0.05573650026917457,0.005177694898843765
1633780633150066700,5.232066650390625,-0.08600538180470466,-0.017167992421984673,0.01667626338228583
1633780633169945600,5.251945556640625,-0.09556231470108031,-0.019648703321814537,-0.01095452473461628
1633780633189826000,5.271825927734375,-0.048936172604560846,0.019464578926563263,-0.041702933415398
1633780633209705000,5.291705078125,-0.009479776006937026,0.03652852645218372,-0.04757694001533091
1633780633229585000,5.3115849609375,-0.01577156962752342,0.07467033331990242,-0.005934796876460313
1633780633249464000,5.331464111328125,-0.05027765034139156,0.09609949031770229,0.014440905545651911
1633780633269343000,5.351343017578125,-0.0075707275152206415,0.12152560799717903,-0.04142492019161582
1633780633289223000,5.371222900390625,0.06492810698449611,0.10978723940849304,-0.047620486896112556
1633780633309102000,5.39110205078125,0.08961246638596057,0.11994973698258399,-0.044971141431108114
1633780633328981000,5.41098095703125,0.13483224881589412,0.07781096943318844,-0.04153502950258553
1633780633348861000,5.43086083984375,0.12734978410601616,0.04677987135350704,-0.02242518229782581
1633780633368739800,5.45073974609375,0.10608078610599041,0.01699731203019619,-0.007819806905463337
1633780633388619000,5.470618896484375,0.08008300601840018,-0.01814180589020252,-0.011645429608225821
1633780633408499000,5.4904990234375,0.0698608872115612,-0.030574001961946484,-0.04540492973849177
1633780633428377900,5.5103779296875,0.05619476543068885,-0.02871171522140503,-0.009367547804117202
1633780633448257000,5.530257080078125,-0.003437573233246803,-0.020396891340613364,0.00403035149462521
1633780633468137000,5.550136962890625,-0.08776654625833034,0.00043079263269901275,-0.004183642360195517
1633780633488016000,5.570015869140625,-0.0627852497369051,-0.014835165560245512,0.023708500106632707
1633780633507895000,5.58989501953125,-0.07950842100083827,0.0008224222987890243,0.017922171790152788
1633780633527775000,5.60977490234375,-0.09513853633105754,0.05243102898299694,0.023315189940109848
1633780633547654000,5.62965380859375,-0.0828442874252796,0.05664192467629909,0.04404577021449804
1633780633567534000,5.6495341796875,0.016675824990868567,0.04730477201044559,0.050546092019230125
1633780633587412700,5.669412841796875,0.05696750336885452,0.06815934399068355,0.04434672592245042
1633780633607292000,5.6892919921875,0.09148702808618545,0.062330491706728934,0.0896706993792206
1633780633627172000,5.709172119140625,0.09742460144162178,0.05913140340447425,0.07683584079071878
1633780633647050800,5.72905078125,0.07947218064367771,0.04319850573539734,0.027767566239088774
1633780633666930000,5.748929931640625,0.05476502488851547,0.04342062405347824,0.011832768873870372
1633780633686810000,5.76881005859375,0.03431669562160969,-0.01265548343360424,-0.004664630810171365
1633780633706688800,5.788688720703125,0.0538140077739954,0.02675824306607246,-0.05160663392283022
1633780633726568000,5.80856787109375,-0.002347439908981323,0.02631342190802097,-0.06119403502270579
1633780633746448100,5.8284482421875,-0.02152151145637035,-0.06061199735105037,-0.02163059785403311
1633780633766326800,5.848326904296875,-0.0027747254103422164,-0.04547171136438846,-0.017828502157330513
1633780633786206000,5.8682060546875,0.04266308368444442,-0.026122867771983145,-0.01750511542186141
1633780633806086000,5.8880859375,0.07638415150046349,-0.02355330954492092,0.03916019013002515
1633780633825964800,5.90796484375,0.07698737809062003,-0.02428571547269821,0.03377959307022393
1633780633845845000,5.927844970703125,0.06807926449179649,0.001917231798171997,0.01379705468416214
1633780633865724000,5.947723876953125,0.051956981730461115,0.044286885493993754,0.023232772353664038
1633780633885603000,5.96760302734375,-0.02933247746825218,0.05848258410692215,0.028201646807417272
1633780633905483000,5.98748291015625,-0.01120586914718151,0.04433949246406555,0.043975919848680496
1633780633925362000,6.00736181640625,-0.002364391043782234,0.06891629983782768,0.02665419816970825
1633780633945241000,6.027240966796875,-0.03188391551673412,0.08984276801049709,-0.0319627529066056
1633780633965121000,6.04712109375,0.008521160107851028,0.0456271941870451,-0.011458967125415801
1633780633985000000,6.067,0.005088263049721717,0.017968202888965605,0.022279636347293852
1633780634004879000,6.086879150390625,0.03471826215982437,0.0027776480197906493,0.008200257590413092
1633780634024759000,6.106759033203125,0.06124561907947063,-0.0006558335602283477,-0.020162059671431778
1633780634044638000,6.126637939453125,0.09886018720269203,-0.003201426389813423,-0.0316933613806963
1633780634064517000,6.14651708984375,0.07788695727884769,-0.02182955449223518,-0.041860827390849585
1633780634084396800,6.166396728515625,0.040434301719069476,-0.041027591437101364,-0.03897613880001008
1633780634104276000,6.18627587890625,-0.007744330516457557,-0.04965571905076503,-0.0355393692843616
1633780634124156000,6.206156005859375,-0.03623392741978168,-0.04748480475246906,-0.08016060129925608
1633780634144034800,6.226034912109375,-0.07053367190659046,-0.016799743631482122,-0.06772884361892938
1633780634163914000,6.2459140625,-0.054554012486338614,-0.0266477684289217,-0.04944492584429681
1633780634183793700,6.265793701171875,-0.004433014011383057,0.00474222609102726,-0.037692163404077286
1633780634203672800,6.2856728515625,-0.003099135059118271,0.026357261049747466,-0.00048697979934513567
1633780634223552000,6.305552001953125,0.03193886057436466,0.03337035468220711,0.011986644261330365
1633780634243431700,6.325431640625,0.08355448152124881,0.05298340216875076,0.013588234239071607
1633780634263310800,6.345310791015625,0.06115151105523109,0.0733551590681076,0.01372968853637576
1633780634283190000,6.36518994140625,0.05518354256153107,0.07365326523184776,0.023101181863248346
1633780634303070000,6.385070068359375,0.05925006134808063,0.08773498207628727,0.009026187020540238
1633780634322948900,6.404948974609375,0.07296528296768665,0.03625672377347946,0.0007313830144703388
1633780634342827800,6.424827880859375,0.07109189031124115,0.03701660223007202,-0.04969510121308267
1633780634362708000,6.4447080078125,0.030249592313170433,0.04865618661940097,-0.027829963950812817
1633780634382587000,6.4645869140625,0.022161562925577163,-0.028161095601320265,0.0431773168168962
1633780634402467000,6.484467041015625,0.06952244903743267,-0.0899684402167797,0.059255979632213705
1633780634422346000,6.504345947265625,0.01507014335989952,-0.05588438430726528,0.0429984531186521
1633780634442225000,6.524224853515625,-0.0356406377017498,-0.04838321489691734,0.09644012044891714
1633780634462104800,6.544104736328125,-0.04665244558155537,-0.023410686203837395,0.08322203469648956
1633780634481984000,6.56398388671875,-0.0811065038472414,0.007948913177847862,0.04607428036741912
1633780634501863000,6.58386279296875,-0.10620645831227302,0.03474807277619839,0.06334200683683157
1633780634521742800,6.603742919921875,-0.11832710421681403,0.082561963352561,0.07054404717013239
1633780634541622000,6.6236220703125,-0.06733224551677704,0.11839432423412799,0.024829466960579156
1633780634561502000,6.643501953125,0.01227203707396984,0.1305155546605587,-0.015708587393909693
1633780634581380900,6.663380859375,0.06381459278464317,0.13086626779437063,-0.04231953094378114
1633780634601260000,6.683260009765625,0.0673556263923645,0.0728016168385744,-0.021385902377963065
1633780634621140000,6.703139892578125,0.10190554624795913,0.032629765447974204,-0.01895560649111867
1633780634641019000,6.723018798828125,0.09169219526946544,0.0237590612500906,-0.06896788389459252
1633780634660898000,6.74289794921875,0.14324001167714595,0.018777765706181525,-0.10359196496494114
1633780634680777700,6.76277783203125,0.11542319946885109,-0.004012158250808716,-0.14738850965872405
1633780634700657000,6.782656982421875,0.08334346911907195,-0.03509820138812065,-0.15943214480429888
1633780634720536000,6.8025361328125,0.02446516369283199,-0.08528641988039017,-0.09329531961716711
1633780634740415700,6.822415771484375,-0.030260698229074477,-0.06309446181654929,-0.06594751316010952
1633780634760295000,6.842294921875,-0.08390753274261951,-0.044295653322339056,-0.046464667924493545
1633780634780174800,6.8621748046875,-0.07682371196150779,-0.03715513391792774,-0.0021394962467253206
1633780634800053800,6.8820537109375,-0.09103694623112678,0.017515198424458502,0.04426540431454778
1633780634819933000,6.901932861328125,-0.07475216638445854,0.0755944624274969,0.046644846796989436
1633780634839813000,6.921813232421875,-0.03574468259811401,0.08828560169637202,0.09942965765371918
1633780634859691800,6.94169189453125,0.017203063735365866,0.11189677890837192,0.14210421258024872
1633780634879571000,6.961571044921875,0.014537643918395042,0.13171908523142337,0.16037103308960796
1633780634899451100,6.981451171875,0.047646717315912246,0.1372556765705347,0.16951456287950276
1633780634919329800,7.001329833984375,0.06688333270549773,0.13062602929770945,0.13366378955841063
1633780634939209000,7.021208984375,0.0628150603532791,0.11402326954305171,0.08784370314776897
1633780634959089000,7.0410888671875,0.08175240053534508,0.07612345473766327,0.08102635128311812
1633780634978967800,7.0609677734375,0.04713701422810554,0.09571136778295039,0.025633038428425788
1633780634998848000,7.080847900390625,-0.016718495088815687,0.07568330975472927,-0.01889817721545696
1633780635018727000,7.100726806640625,-0.022658991053700447,-0.0076589903205633155,-0.020079495954513547
1633780635038605800,7.120605712890625,-0.002742576706409454,0.0011807342171669005,-0.11109291517958045
1633780635058486000,7.140486083984375,0.02930675850510597,0.001014145478606224,-0.14472930038683116
1633780635078365000,7.160364990234375,0.04260346245169639,-0.0189139593064785,-0.12006897944808005
1633780635098243800,7.180243896484375,0.014530045133829116,-0.013188567396998405,-0.16888590958714483
1633780635118124000,7.2001240234375,0.10687105970084666,0.018759061005711553,-0.1950824271172285
1633780635138003000,7.2200029296875,0.09923778834342956,0.019677929416298864,-0.1697058476679027
1633780635157883000,7.2398828125,0.100473467618227,0.015102292063832281,-0.13051964631378649
1633780635177762000,7.259761962890625,0.07527998965084552,0.014883096355199812,-0.06750570238754153
1633780635197641200,7.27964111328125,0.055090603581070895,0.0025327333480119705,-0.06883388225138187
1633780635217521000,7.29952099609375,0.04582768519520759,0.014092238238453864,-0.03519946980550885
1633780635237400000,7.319400146484375,-0.013595979154109953,-0.015843465819954872,0.02864800233542919
1633780635257279200,7.339279296875,-0.02121229937672615,-0.011404022067785262,0.0898158069383353
1633780635277159000,7.359158935546875,-0.01735094777345657,0.01231821430325508,0.08226254201456903
1633780635297038000,7.3790380859375,0.02257774251103401,0.03467208493053913,0.07636756569184362
1633780635316917200,7.398917236328125,-0.014302081596851347,0.052657238954305643,0.08909085366465151
1633780635336797000,7.418796875,0.001079027408361435,0.06820201408863068,0.12838263428509233
1633780635356676000,7.438676025390625,0.04079436720311642,0.06397825891375541,0.10600940137021243
1633780635376556000,7.45855615234375,0.060630702051520345,0.07699673044085502,0.07574950685873627
1633780635396435000,7.47843505859375,0.05545125358700752,0.06772095257341862,0.08098105083666741
1633780635416314000,7.498314208984375,0.04452244781553745,0.06359364351034164,0.06168707923665642
1633780635436194300,7.5181943359375,0.08941314442157745,0.045212768167257306,0.03877272518239915
1633780635456073000,7.538072998046875,0.0860036282390356,-0.04709551317393779,0.05521934452727437
1633780635475952000,7.5579521484375,0.0561883356899023,-0.12220248434543608,0.028966128373891113
1633780635495832000,7.57783203125,-0.012448562684655188,-0.1414250712096691,-0.0038523645792156455
1633780635515711000,7.5977109375,-0.10409574976861476,-0.1266109484374523,-0.04913585989512503
1633780635535591200,7.617591064453125,-0.07416238379776477,-0.1105383500367403,-0.13759038841761648
1633780635555470000,7.637469970703125,-0.033223055166006085,-0.051202948492765424,-0.17254077883288263
1633780635575349000,7.657348876953125,-0.03512275130748749,-0.05608078366219997,-0.16153350099772215
1633780635595229200,7.677229248046875,-0.036327450922131535,-0.0059486792713403696,-0.1953462656851858
1633780635615108000,7.697108154296875,0.04787351180911064,0.07220423546731472,-0.22647242163717746
1633780635634987000,7.716987060546875,0.17515139972269533,0.0712421124368906,-0.17399799190387127
1633780635654867200,7.7368671875,0.24004911156892775,0.03809270702898502,-0.09013765930384397
1633780635674746000,7.75674609375,0.2180529683381319,0.09774316587150096,-0.055064592356979844
1633780635694626000,7.7766259765625,0.16743804886639116,0.06490472610890866,-0.0033267332699149846
1633780635714505000,7.7965048828125,0.15570903262794017,0.05817044941782951,0.02693827580809593
1633780635734384000,7.816384033203125,0.1283715283691883,0.06153554193675518,0.018553309300541877
1633780635754264000,7.83626416015625,0.0645540129750967,0.08246025654375552,0.06678403704948722
1633780635774143000,7.85614306640625,-0.01236789866387844,0.06192132638394832,0.09525938623175025
1633780635794022100,7.876022216796875,-0.1322322954505682,0.041969840723276135,0.09289879458025098
1633780635813902000,7.895902099609375,-0.2435638416916132,-0.0032177930027246474,0.11682407924272119
1633780635833781000,7.915781005859375,-0.21270400852560994,-0.02511047585904598,0.12801745423451066
1633780635853660200,7.93566015625,-0.1603483828663826,-0.04104161996245384,0.11213972081877291
1633780635873540000,7.9555400390625,-0.1327332307100296,-0.04914660048484802,0.14686843130737542
1633780635893419000,7.9754189453125,-0.11843933241963386,-0.0368517670571804,0.16032061807662248
1633780635913299200,7.99529931640625,-0.0456616809785366,-0.04233867403566837,0.07850961922183633
1633780635933177900,8.015177734375,-0.007907412123680114,0.02483984222412109,0.029305370265617966
1633780635953057000,8.03505712890625,0.05991875438988208,0.05151859031319618,-0.00893587838858366
1633780635972937200,8.054937255859375,0.15647534082531928,0.07482932327389717,-0.03805179049670696
1633780635992815900,8.07481591796875,0.22475275823771954,0.05640402426719665,-0.08218655416890978
1633780636012695000,8.094695068359375,0.2159311538785696,0.054829322296380996,-0.0803963097512722
1633780636032575200,8.1145751953125,0.21405074695944784,0.024627076256275176,-0.06582549421563744
1633780636052454000,8.134453857421875,0.167540924718976,-0.0035889644026756286,-0.06914470176622271
1633780636072334000,8.154333984375,0.17066402517557144,-0.049582069292664524,-0.05449219929650426
1633780636092213200,8.174213134765624,0.07480243526697158,-0.04696984096765518,0.0029456249978393315
1633780636112092000,8.194091796875,0.005111059403419494,-0.050802550998330115,0.014835165560245512
1633780636131972000,8.21397216796875,0.0031616789013147353,-0.047720367074012754,0.013081819086894392
1633780636151851300,8.233851318359376,-0.03601823884248733,-0.029261165797710417,0.05490889033861458
1633780636171730000,8.25372998046875,-0.10899287416040897,0.03148351802229881,0.05327120613418519
1633780636191609600,8.273609619140625,-0.1591238095074892,0.059010407373309134,0.06484547020234167
1633780636211488500,8.293488525390625,-0.11197101318836211,0.04412205032110214,0.06338321563005447
1633780636231367700,8.31336767578125,-0.04681669623255729,0.06619008974432945,0.00845116361156106
1633780636251247600,8.33324755859375,-0.01582651468515396,0.10503566096723078,0.044483577109873294
1633780636271126500,8.35312646484375,0.00939677389860153,0.0223299052298069,0.07807590397968887
1633780636291006500,8.37300634765625,0.05543313340842723,-0.016491116073727607,0.05841054178401828
1633780636310885600,8.3928857421875,0.1219797815054655,0.013171031740307808,0.000036313422396779056
1633780636330764500,8.4127646484375,0.12724983086287975,-0.00844224965274334,0.07097527819424868
1633780636350644500,8.43264453125,0.06040332303643226,0.007412322083115578,0.05056304315403103
1633780636370523400,8.4525234375,0.1626701038122177,-0.025751111850142477,-0.03428308561295271
1633780636390403600,8.472403564453124,0.08017769856452941,0.01980360162258148,-0.06173493696637451
1633780636410282500,8.492282470703126,0.005654664760828018,0.002302431723475456,-0.040073870908841486
1633780636430161400,8.512161376953125,-0.049722939068078995,0.017080314138531685,-0.006716156512498855
1633780636450041600,8.53204150390625,-0.028085692277550697,0.03029401597678661,-0.07102635079436004
1633780636469920500,8.55192041015625,-0.03717266957461834,0.049077042379975316,-0.09599266894236207
1633780636489799400,8.57179931640625,-0.04320201286673546,0.013536357921361923,-0.051517275138944385
1633780636509679600,8.5916796875,-0.010929974815249443,-0.0329173502177,-0.02334025131613016
1633780636529558800,8.611558837890625,0.008648585879802703,-0.011646014130115508,-0.005694558379799128
1633780636549438500,8.6314384765625,0.011497545570135116,0.004525368469953537,0.012376520361751317
1633780636569317600,8.651317626953125,0.06595978811979293,0.016917817053198815,0.009232596312835812
1633780636589196800,8.67119677734375,0.035432547909021374,0.02239128002822399,0.021618395959585902
1633780636609076500,8.691076416015624,0.01630932976603508,0.012223521757125854,0.042852030385285615
1633780636628955600,8.71095556640625,0.06854746652543545,0.043483167895674704,0.05109291224703193
1633780636648834600,8.73083447265625,0.05292027380466461,0.08112053237259388,0.006569879909604787
1633780636668714500,8.750714599609376,-0.03361234674453735,0.0909141966342926,-0.004013619555532932
1633780636688593700,8.77059375,0.04128010489344597,0.05961772561669349,0.0032555677298456427
1633780636708472600,8.79047265625,0.04854395841658115,0.08554536307752132,-0.04072846236005425
1633780636728352500,8.8103525390625,0.05879939497113228,0.06255670167803765,-0.04603248705230653
1633780636748231700,8.830231689453125,0.06753799722194671,0.020419103172421453,-0.0017220014870166778
1633780636768111400,8.850111328125,0.03468903606534004,0.0060632455617189406,0.0018419746048748491
1633780636787990500,8.869990478515625,0.03695522743165493,-0.025578677892684934,0.008682195888459683
1633780636807869700,8.88986962890625,-0.014628829333186148,-0.00660918900668621,0.023485651136189698
1633780636827749400,8.909749267578125,-0.07181085223555564,0.00634907676577568,-0.02025353734716773
1633780636847628500,8.929628662109375,-0.06827566384673119,-0.008716390419006348,-0.0725261608980596
1633780636867508700,8.9495087890625,-0.08807517381608486,0.054010991650819774,-0.10955584180541336
1633780636887387400,8.969387451171874,-0.03336743207275867,0.02974281183481216,-0.0952496685553342
1633780636907266600,8.9892666015625,0.03658054890036583,-0.013016133439540863,-0.07295636900886893
1633780636927146800,9.009146728515624,0.06460077472627163,-0.00800035110414028,-0.03915193375833332
1633780636947025700,9.029025634765626,0.11244564496278762,0.003477320721745491,-0.019940672005712985
1633780636966904600,9.048904541015625,0.11743687737882137,0.007145195579528808,0.011117752472311258
1633780636986784500,9.068784423828125,0.15334639514982698,-0.019201544076204297,0.025261867028474806
1633780637006663700,9.08866357421875,0.09704173960387706,-0.0029039047479629517,0.05207607806548476
1633780637026542600,9.10854248046875,0.0713116705417633,0.027454993158578873,0.06535992253050207
1633780637046422500,9.128422607421875,-0.08018880448043346,0.04416939659416675,0.08647394916452467
1633780637066301700,9.1483017578125,-0.06362871482372283,0.010922960552573203,0.06763385881185531
1633780637086181600,9.168181640625,-0.06583528495728969,0.07127543018460274,0.0398869700346142
1633780637106060500,9.188060546875,-0.03798749308884144,0.02829202850461006,0.026393136080726978
1633780637125939700,9.207939697265624,0.0002934299886226654,0.0008235913425683975,0.05766089246049523
1633780637145819600,9.227819580078124,-0.005613748228549957,-0.020566402688622473,0.11507518974877894
1633780637165698600,9.247698486328124,0.047286651831865305,-0.009714169284701347,0.07069215040393173
1633780637185578800,9.267578857421874,0.056093643143773075,0.008974164572358131,0.019776494419947267
1633780637205457700,9.287457763671876,0.06222878489792347,0.0009200374543666839,0.015337123733013868
1633780637225336800,9.3073369140625,0.0774812990874052,0.00008475567400455475,0.011440408555418252
1633780637245216800,9.327216796875,0.0689069474875927,0.002895136919617653,-0.013358736332133412
1633780637265095700,9.347095703125,0.03563362343907356,0.009778466692566871,0.005732406172156333
1633780637284974800,9.366974853515625,-0.010528992798924445,0.027480712121725082,0.004041092084348202
1633780637304854800,9.386854736328125,0.062336921447515486,0.007229951253533363,-0.013172712240740656
1633780637324733700,9.406733642578125,0.03185761203169823,0.0005500350981950759,0.00395838223695755
1633780637344614000,9.42661376953125,-0.011619710645079611,0.031159108373522756,0.01236789866387844
1633780637364492800,9.446492919921875,-0.03934183030724525,0.053175709870457645,-0.0011969546996057033
1633780637384371700,9.466371826171875,-0.01633329516351223,0.04428162479698658,-0.02772036609649658
1633780637404252000,9.486251953125,0.02503039636015892,0.06013035131394863,-0.018848638985306025
1633780637424130600,9.506130615234374,-0.02503331896960735,0.033360417810082435,-0.0059157268498092885
1633780637444009700,9.526009765625,-0.043969490107893944,0.03673603172302246,-0.018014964640140532
1633780637463890000,9.545889892578124,-0.024590835899114608,0.004942717099189758,-0.062169748187065124
1633780637483768600,9.5657685546875,0.03825111246109009,0.029975451546907422,-0.09888225290402769
1633780637503648800,9.585648681640626,0.06041618251800537,0.02712298472523689,-0.07156929856464267
1633780637523528000,9.60552783203125,0.07001753907799721,-0.05656126065552234,-0.010266250209510325
1633780637543406800,9.62540673828125,0.09793839618265628,-0.050341947749257085,-0.02903656326159835
1633780637563286800,9.645286865234375,-0.022704583761096,-0.010748773029446601,-0.0584950782623142
1633780637583166000,9.665166015625,-0.05364040477275848,0.010604396122694015,-0.04492810600697994
1633780637603045600,9.685045654296875,0.051259062594175335,0.022104279780387877,-0.08557926534712314
1633780637622924800,9.7049248046875,0.10601882678568363,0.03866670752465725,-0.08294650569073855
1633780637642803700,9.7248037109375,0.06363572908639907,0.04165712151229381,0.012569120324403047
1633780637662683600,9.74468359375,0.0800473501831293,0.025820669955015182,0.0833329477250576
1633780637682562800,9.764562744140624,0.02975157966315746,0.03863748143017292,0.05257975327130407
1633780637702441700,9.784441650390624,0.05768120459616184,0.009977788656949996,0.03177066440060734
1633780637722321700,9.80432177734375,0.07792612024545668,0.03980243355631828,0.03942870487309992
1633780637742200800,9.824200927734376,0.08416238428652285,0.05459726710617542,0.008946107521653176
1633780637762080800,9.844080810546876,0.0039221418797969814,0.0580880318313837,0.008194923828169703
1633780637781959700,9.863959716796876,0.0007218845337629318,0.05562719467580318,0.008422850832529366
1633780637801838800,9.8838388671875,0.07248071432113647,0.059309098058938976,-0.02734886590298265
1633780637821718800,9.90371875,0.10257599285542965,0.06246785435080528,0.015734671683236955
1633780637841597700,9.92359765625,0.12609598465263844,0.04330722680687904,0.06502868128214032
1633780637861476600,9.9434765625,0.07650807014107704,0.01603518899977207,0.07558675404507667
1633780637881356800,9.963356689453125,0.002865326303243637,0.015173603734374045,0.06066098759192973
1633780637901235700,9.983235595703125,-0.0011275427252054214,0.03767126674652099,-0.003422996718622744
1633780637921116000,10.003115966796875,0.021582301732897758,0.06488485236465931,-0.022234482031315565
1633780637940994800,10.022994873046875,-0.008720482072234153,0.07812135055661201,-0.045765506679192186
1633780637960873700,10.042873779296874,-0.02909808419048786,0.04075929588973522,-0.04114975651204586
1633780637980753700,10.062753662109374,-0.04720598781108856,0.0168880064368248,-0.02601224700435996
1633780638000632800,10.0826328125,-0.05374971036612987,0.024895371803641316,-0.06209010707959532
1633780638020512800,10.1025126953125,0.004364040428400039,0.013542203140258788,-0.10535349474474787
1633780638040391700,10.1223916015625,0.0012310030996799469,0.011067921981215477,-0.09715995915606618
1633780638060270800,10.142270751953125,0.040588615497946734,-0.028169863429665563,-0.07329429572634398
1633780638080150800,10.16215087890625,0.05812076505720615,-0.025120412731170653,-0.07631846585310995
1633780638100029700,10.18202978515625,0.029423662883043288,0.0002969371199607849,-0.08923519403878599
1633780638119908900,10.201908935546875,0.05858312187194824,-0.008366261807084083,-0.03871321354750543
1633780638139788800,10.221788818359375,0.09494564410746097,-0.08815057713985443,0.018390118095465004
1633780638159667700,10.241667724609375,0.09519231234490871,-0.015356559085845947,0.048188824835978444
1633780638179547400,10.26154736328125,0.009164718708395957,0.013445757028460502,0.06072594258692115
1633780638199426000,10.281426025390624,-0.026358430093526838,0.014964344897866248,0.030932606141269206
1633780638219305200,10.30130517578125,-0.029172318470478055,0.029925767186284064,0.016328326727449893
1633780638239185400,10.321185302734374,-0.09500818794965743,0.07073065578341484,0.011098097923770546
1633780638259064300,10.341064208984376,-0.058629299101233476,0.06279752469658852,0.014319763384014366
1633780638278943200,10.360943115234376,-0.028269232150912284,0.07714169186949729,0.016692556929960845
1633780638298823400,10.380823486328126,-0.01516775851547718,0.0707405926555395,0.02880976876839995
1633780638318702300,10.400702392578125,-0.0164478614538908,0.0831803875118494,0.017050065130740404
1633780638338582300,10.420582275390625,0.0248351660490036,0.0473959574252367,-0.022196122782304883
1633780638358461400,10.44046142578125,0.07992167797684668,0.019737550649046896,0.029517149852775034
1633780638378340400,10.46034033203125,0.11488310124278067,-0.024536475363373753,0.052482174648344516
1633780638398220300,10.48022021484375,0.08777180695533753,-0.02876782932281494,0.032028219358250495
1633780638418099200,10.50009912109375,0.07151917581260205,-0.01593114410340786,0.030841603389568626
1633780638437979100,10.519979248046875,0.07532558235824108,-0.023953122517466542,-0.011826521796174346
1633780638457858300,10.5398583984375,0.05491115536093712,-0.06070201372206211,-0.02330265925209969
1633780638477737200,10.5597373046875,0.03272504251599312,-0.07495324191451072,-0.0056701545909047125
1633780638497617200,10.5796171875,0.013962474378943442,-0.07818915509581566,-0.0028718656418845055
1633780638517496300,10.599496337890624,0.03300269041359424,-0.0480278255879879,-0.03409070484600961
1633780638537376300,10.619376220703124,0.030882044997811317,-0.059797173836827276,0.0012859481573104857
1633780638557255200,10.639255126953126,-0.018551555734872816,-0.039521278527379036,0.029004414557665583
1633780638577134300,10.65913427734375,0.024279870253801343,0.013076923716068268,0.011858049445599317
1633780638597014300,10.67901416015625,0.09258066854178905,0.04419511555731296,-0.006111212889291346
1633780638616893200,10.69889306640625,0.08095160554647446,0.07256839260458946,0.028308723911084233
1633780638636772000,10.718772216796875,0.04203881430625915,0.07360825704634189,0.08391571604907512
1633780638656652300,10.73865234375,0.017165654334425927,0.08178571828305721,0.04898797585703432
1633780638676531200,10.75853125,0.08952595714628696,0.0735077192813158,-0.018344708051159977
1633780638696411400,10.778411376953125,0.15871990488171578,0.054337739387154575,-0.023053360666148364
1633780638716290300,10.798290283203125,0.0952706382781267,0.03309855200350285,-0.003671491586975753
1633780638736169200,10.818169189453124,0.05113631299734115,-0.044264673662185665,0.023682598480395972
1633780638756049200,10.838049072265624,0.08149754899144172,-0.08793079690933227,-0.03348075625412166
1633780638775928300,10.85792822265625,0.07932488112747668,-0.057412909048795695,-0.09278382643107325
1633780638795807500,10.877807373046876,0.02713525968492031,-0.06954582991302014,-0.05332615119181573
1633780638815687200,10.897687255859376,-0.05171265158057212,-0.07460135973691939,-0.009489676346443593
1633780638835566300,10.91756640625,-0.03386427567899227,-0.06886603095531463,-0.040999242125451564
1633780638855446300,10.9374462890625,-0.04373568135201931,-0.04094400480687618,-0.08467175858076662
1633780638875325200,10.9573251953125,-0.08336392738521099,-0.005441898792982101,-0.0152570077015087
1633780638895204400,10.977204345703125,-0.08451952716112136,-0.01099368770122528,0.05353548309355974
1633780638915084300,10.997084228515625,-0.04414367763102054,0.0037321722656488416,0.039524749126099046
1633780638934963200,11.016963134765625,0.021029928547143934,0.07438917829096317,0.022962175251357256
1633780638954843400,11.036843505859375,0.058615270575881,0.10217325727343558,0.02766224270109087
1633780638974722300,11.056722412109375,0.15401450366973876,0.10591419736742973,0.04895487730503082
1633780638994601200,11.076601318359375,0.0899158332467079,0.10081132127046584,0.11176551721151917
1633780639014481400,11.0964814453125,0.09504793543815612,0.10755553483366966,0.07783179302550852
1633780639034360000,11.116360107421874,0.10095862078666687,0.15588672728240488,-0.009684541331417858
1633780639054239200,11.1362392578125,0.0910053820490837,0.11488602385222911,-0.03571063419803977
1633780639074119400,11.156119384765624,0.08907119911611079,0.10153729745745659,-0.0477705994239077
1633780639093998000,11.175998046875,0.039243630629777905,0.06254267315268516,-0.08337970947623252
1633780639113878300,11.195878173828126,-0.01290858141183853,0.031100071662664413,-0.11810644720345735
1633780639133757400,11.21575732421875,0.008900514814257621,-0.0030658173114061354,-0.15747249863650647
1633780639153636000,11.235635986328125,0.02512625795006752,-0.057580666831135746,-0.16441077346708624
1633780639173516300,11.255516357421875,0.020184709894657135,-0.11428805795907973,-0.12370803007017821
1633780639193396700,11.275396728515625,-0.03583703705668449,-0.1604144338399172,-0.08461776337120681
1633780639213277000,11.29527685546875,-0.05391805267035961,-0.1522135917276144,-0.026691351842321454
1633780639233155800,11.31515576171875,-0.07982464734315872,-0.12252981660366058,0.001194799275137484
1633780639253034800,11.33503466796875,-0.03576981703937054,-0.08022387579381465,0.028906434075906873
1633780639272915000,11.3549150390625,-0.07289981651604176,0.024642273825407027,0.0524193020125851
1633780639292793900,11.3747939453125,-0.059303837361931795,0.08521335464417934,0.0499957646600902
1633780639312673800,11.394673828125,0.004538227951526642,0.11843056459128856,0.030093999892659484
1633780639332552700,11.414552734375,0.0204214412599802,0.2027291424781084,0.02462766077816486
1633780639352431900,11.434431884765624,0.07683540239930152,0.20290391452312467,0.09344130395911633
1633780639372311800,11.454311767578124,0.0985825393050909,0.11864859125614166,0.14062124401349574
1633780639392190700,11.474190673828126,0.14997779549956322,0.1522878260076046,0.08824501395765691
1633780639412070000,11.49406982421875,0.11752046400904655,0.11933248186707496,0.07416428349390626
1633780639431949800,11.51394970703125,0.045128597015142435,0.049992403659224506,0.08379212620202452
1633780639451828700,11.533828857421875,0.057365562775731085,-0.0025847557961940766,0.048326187480054794
1633780639471708700,11.553708740234375,-0.04186988748013973,-0.04322480922043323,0.00178344935066998
1633780639491587800,11.573587890625,-0.08776187008321285,-0.050526656666398044,-0.023907274081744253
1633780639511466800,11.593466796875,-0.17100246334969996,-0.054979544422030444,0.004149045970849693
1633780639531346700,11.6133466796875,-0.22005787841975688,-0.08424830900430678,-0.008435746846720577
1633780639551225600,11.6332255859375,-0.12147358554899691,-0.05862053127288818,0.001405811677314341
1633780639571105800,11.653105712890625,-0.14510171389579773,-0.020959785920381543,0.005668912481889128
1633780639590984700,11.672984619140625,-0.09302958135306835,0.06313947000205516,0.04319094348344952
1633780639610863600,11.692863525390624,-0.028094460105895995,0.08184943116903305,0.06201046597212553
1633780639630743800,11.712743896484374,0.027492987081408498,0.15904139192104338,0.010053776502609251
1633780639650622700,11.732622802734374,0.1016542018353939,0.201661220985651,-0.00630114597082138
1633780639670502700,11.752502685546874,0.16471008520722388,0.15773089384436606,0.013625022585503755
1633780639690381800,11.7723818359375,0.18081015613675117,0.10645604915916919,0.002857508322969079
1633780639710261000,11.792260986328126,0.1609066012710333,0.07981880212426185,-0.01985335904844105
1633780639730140700,11.812140625,0.14241291320323943,0.008651508489251137,-0.023606683699972927
1633780639750019800,11.832019775390625,0.12724164755642414,-0.05534954677820205,-0.012687997463718056
1633780639769899000,11.85189892578125,0.08938567189276218,-0.07716507274508476,-0.01650982077419758
1633780639789778700,11.87177880859375,0.04025368445515633,-0.10137889202535152,-0.04211304858624935
1633780639809657900,11.891657958984375,0.0002969371199607849,-0.12498480854034423,-0.03541037260983139
1633780639829537800,11.911537841796875,-0.11795008759796619,-0.10483283187150955,-0.011740487480536103
1633780639849416700,11.931416748046875,-0.14104396293759344,-0.080038582354784,-0.01413574858661741
1633780639869295900,11.9512958984375,-0.14524433723688124,-0.022767127603292463,-0.003378719185478985
1633780639889175800,11.97117578125,-0.10634966617524623,0.020201076507568357,-0.0035393531072884796
1633780639909054700,11.9910546875,-0.05844575922787189,0.030908933004736898,0.0324447642698884
1633780639928935000,12.010934814453124,-0.012921440893411636,0.02188274598419666,0.059806160860881204
1633780639948813600,12.0308134765625,-0.01621171461045742,0.08564414727687836,0.0841296145280823
1633780639968692700,12.050692626953126,0.08866729449033736,0.0994628292709589,0.10112846092823892
1633780639988573000,12.070572998046876,0.16851882984042166,0.052039983838796613,0.059752604042738675
1633780640008451600,12.09045166015625,0.1856359688580036,0.0599661006629467,0.04505019801668823
1633780640028331800,12.110331787109375,0.09091127402484417,0.045078328132629394,0.0545174433356151
1633780640048211000,12.1302109375,0.11843933241963386,0.023847908577322958,0.01111406267788261
1633780640068089600,12.150089599609375,0.09749065241515636,0.0039747488498687745,-0.014329627190902828
1633780640087969800,12.1699697265625,0.028519992041587828,-0.013354571613669394,-0.006567980213463306
1633780640107849000,12.189848876953125,0.002964695024490356,-0.019366379249095917,-0.030204839855991303
1633780640127728600,12.209728759765625,-0.07460837399959563,0.07987024005055426,-0.11120901583991945
1633780640147607800,12.22960791015625,-0.07089256834685802,0.058685413202643394,-0.1552109834453091
1633780640167486700,12.24948681640625,-0.04913841717839241,0.09030103317201137,-0.18400792926475404
1633780640187365400,12.269365478515626,-0.0008276829957962036,0.03262859640419483,-0.15172168002482503
1633780640207244000,12.289244140625,0.036544308543205256,0.02459434303045273,-0.06569741085655986
1633780640227123200,12.309123291015625,0.04308803109824657,0.049233109724521634,-0.05000522660817951
1633780640247003400,12.32900341796875,0.10149754996895789,0.04937982471883297,-0.10984832194596528
1633780640266882300,12.34888232421875,0.2073819367200136,0.06887304521799087,-0.11176986459307373
1633780640286762200,12.36876220703125,0.20417758772075176,0.03366495371460915,-0.03903879224006086
1633780640306641400,12.388641357421875,0.14921382538974284,0.02609481072127819,-0.005715929961390793
1633780640326520300,12.408520263671875,0.13119243100881575,0.025290508601069447,0.011361717296019196
1633780640346400300,12.428400146484375,0.019188100072741507,0.0334229616522789,0.02291062772721052
1633780640366279400,12.448279541015625,-0.04898059626817703,0.04878185882568359,0.017093831207230688
1633780640386159000,12.4681591796875,-0.07787117518782616,0.060548284465074535,0.012900178909674286
1633780640406038300,12.488038330078124,-0.09419979417622089,0.07288344990313053,-0.003561236145533621
1633780640425917400,12.50791748046875,-0.1561959393620491,0.05380816255509853,0.03099946083240211
1633780640445797000,12.527797119140626,-0.1714712499052286,0.04593231461346149,0.050380854987539345
1633780640465676300,12.54767626953125,-0.06598433803915978,0.0632733255147934,0.012378273927420377
1633780640485556500,12.567556396484376,0.005996025544404983,0.05291852023899555,0.01965911511797458
1633780640505435100,12.58743505859375,0.017612229058146477,0.019703063857555388,0.047331879213079804
1633780640525314300,12.607314208984375,0.10814005672335623,-0.02563771460354328,0.0023512758338823914
1633780640545194500,12.627194580078125,0.11634791309833525,0.019809446841478347,-0.04360708653628826
1633780640565073200,12.6470732421875,0.10023615173101424,-0.008679565539956092,-0.010426226544193923
1633780640584953300,12.666953369140625,0.0936935982197523,-0.07192775661349296,-0.0030977833522483704
1633780640604832300,12.686832275390625,0.09935703080892562,-0.025792028382420538,-0.043335137727111575
1633780640624711200,12.706711181640625,0.045461189970374107,-0.016681085687875748,-0.03633399026077241
1633780640644591400,12.72659130859375,-0.0013099135547876358,-0.02991933744549751,-0.03330697058979422
1633780640664470300,12.74647021484375,-0.06112111591696739,-0.010861585754156113,-0.024430530770868063
1633780640684350200,12.76635009765625,-0.05745674819052219,-0.014746318233013152,-0.05013922825139015
1633780640704229400,12.7862294921875,-0.048991117662191386,0.03007891192138195,-0.05648015824332833
1633780640724108300,12.8061083984375,-0.05697451763153076,0.03715571843981743,-0.004654438209719955
1633780640743988200,12.82598828125,-0.09178221164047717,0.057502340897917746,0.021566811902821063
1633780640763867400,12.845867431640626,-0.05079962838888168,0.09233400030434132,-0.05677355169933289
1633780640783747000,12.8657470703125,0.0627460867702961,0.09585632921159266,-0.07197915800716728
1633780640803626200,12.885626220703125,0.1242892274916172,0.07375497204065322,0.0018896496715024112
1633780640823505200,12.905505126953125,0.09648878189623356,0.05922843403816223,0.05755118500832468
1633780640843385300,12.92538525390625,0.10060732313096522,0.029767946276068685,0.05358966096621007
1633780640863264300,12.94526416015625,0.17615794641673563,-0.00281856455206871,0.00912997618857771
1633780640883144400,12.96514453125,0.10831307520270347,0.010184124884009362,-0.00417231724858284
1633780640903023400,12.9850234375,0.10161328530311584,-0.017122984236478806,0.031081440027430653
1633780640922902300,13.00490234375,0.054767362976074214,-0.03053717708289623,0.043831542941927905
1633780640942782200,13.0247822265625,-0.041021746218204494,-0.05205284332036972,0.02098418970927596
1633780640962661400,13.044661376953124,-0.07939502375423908,-0.024418401941657064,0.016514058557897806
1633780640982540300,13.064540283203126,-0.10475801306962966,-0.020771569871902464,0.024709311179630458
1633780641002420200,13.084420166015626,-0.09947393518686294,-0.023218963024020194,0.0483674328058958
1633780641022299400,13.10429931640625,-0.07295709966123104,-0.0205740014731884,0.04910520902853459
1633780641042179300,13.124179443359376,-0.06971417221724986,0.02712999898791313,0.052717371643707156
1633780641062058200,13.144058349609375,-0.05950315932631492,0.03329085970520973,0.055324448869563635
1633780641081937400,13.1639375,-0.020547697988152504,0.035136195310950274,0.04121599014867097
1633780641101817300,13.1838173828125,0.044929859572649,0.06163315709233284,0.04186645341403782
1633780641121696300,13.2036962890625,0.08149696446955204,0.03671615797877312,0.0526036090709269
1633780641141576200,13.223576171875,0.07748363717496394,0.07306991238594054,0.0028639380637556313
1633780641161455400,13.243455322265625,0.07445815187394618,0.0449473952293396,-0.00333919089268893
1633780641181335300,13.263335205078125,0.1039414359897375,0.002119476372003555,0.03239036720152944
1633780641201215200,13.28321533203125,0.1344365274965763,-0.015780921977758405,-0.001452427298016846
1633780641221094400,13.303094482421875,0.08357493978738784,-0.001744213318824768,-0.01590604619476944
1633780641240974300,13.322974365234375,0.025783845075964925,-0.026731939581036566,0.01885002722479403
1633780641260853200,13.342853271484374,0.02124620164632797,-0.020929975304007527,-0.006128821611218154
1633780641280732400,13.362732421875,0.008756722429394721,0.002852466821670532,-0.03436864500455558
1633780641300612000,13.382612060546874,-0.01521218217909336,0.03415653662383556,-0.023178996339812873
1633780641320491300,13.4024912109375,-0.028589550146460533,0.0339718277066946,-0.0344956689177081
1633780641340371500,13.422371337890626,-0.03099719581007957,0.05789104795455932,-0.03957092635538429
1633780641360250000,13.44225,0.016137480330467222,0.041697453522682185,-0.018517178541235624
1633780641380129300,13.46212939453125,0.04420680599510669,0.05513152011334896,-0.01272211892902851
1633780641400009500,13.482009521484375,0.07813654812574386,0.02922960161566734,-0.014223536467924713
1633780641419888400,13.501888427734375,0.06951251216530799,0.02528349433839321,0.00380081705506891
1633780641439768300,13.521768310546875,0.06612871494591235,-0.00895019917488098,0.018135668410360812
1633780641459647500,13.5416474609375,0.09502981525957584,0.004559855261445045,-0.0014559344293549655
1633780641479526400,13.5615263671875,0.10510463455021381,-0.006504559588432312,0.018735826260596514
1633780641499406300,13.58140625,0.05713116949796676,0.003610591712594032,0.04251289809141308
1633780641519285200,13.60128515625,0.023821020570397377,-0.0006324526846408844,0.041917160687968136
1633780641539165200,13.621165283203124,-0.03696457978188991,0.021505729365348815,0.05206877154186368
1633780641559044400,13.64104443359375,-0.06892623670995235,0.029287469282746312,0.020663360257074236
1633780641578923300,13.66092333984375,-0.04155658374726772,0.052477206212282176,-0.014234277057647704
1633780641598803200,13.68080322265625,-0.04072130196690559,0.05223930580317974,0.012597177375108003
1633780641618682400,13.700682373046876,-0.019965514186024665,0.0367997446089983,0.007956877288594842
1633780641638562300,13.720562255859376,0.006663549542427063,0.03178337775170803,0.0238630330812186
1633780641658441200,13.740441162109375,0.02737783626914024,0.01205810206234455,0.00834463449716568
1633780641678320400,13.7603203125,0.08336451190710067,-0.0059235448300838465,0.008279460306465626
1633780641698200300,13.780200439453125,0.07415595405697822,-0.013948445853590964,0.012446736053749918
1633780641718079200,13.800079345703125,0.03447860818505287,-0.005191138902306556,0.012377470209822057
1633780641737959400,13.81995947265625,0.01569675082564354,0.0021568857729434964,-0.03435264371782541
1633780641757838300,13.83983837890625,0.006248539000749588,0.03215454915165901,-0.0737216908255592
1633780641777717200,13.85971728515625,-0.04001169239282608,0.05173194080293178,-0.05638652514312416
1633780641797597400,13.879597412109375,-0.057277884492278094,-0.0033095629394054413,0.001613097752444446
1633780641817476400,13.899476318359374,0.012427519896626472,0.010495090529322624,-0.026624679814279077
1633780641837356300,13.919356201171874,0.010578092637658118,0.04390928435325622,-0.050767698880657554
1633780641857235500,13.9392353515625,-0.03433949197530746,0.03000526216328144,0.0026161738477647302
1633780641877114400,13.9591142578125,0.008104396000504494,-0.02550561265647411,0.08677987330853938
1633780641896994300,13.978994384765626,0.10692775832414626,-0.03142506583333015,-0.032239158695191145
1633780641916873200,13.998873291015625,-0.01505319222509861,0.009301496830582618,0.023914836333692072
1633780641936753200,14.018753173828125,0.13427870658636093,-0.018452771535515784,-0.0004636719889938831
1633780641956632300,14.03863232421875,0.05975158112943172,0.014521861827373504,-0.12999869117960333
1633780641976511200,14.05851123046875,0.09546119241416454,-0.003765490013360977,-0.1214424597583711
1633780641996391400,14.078391357421875,0.1397656135648489,0.014646949511766432,-0.011251388789340852
1633780642016270300,14.098270263671875,0.0735685095578432,-0.017797522497177122,0.042437823561206456
1633780642036150300,14.118150390625,0.08086977248191833,-0.010366495713591575,0.05487162706814706
1633780642056029400,14.138029541015625,0.041617374023795124,0.005468786799907684,0.034013109565153715
1633780642075908400,14.157908447265624,0.010883213064074516,0.04792787234485149,0.051467590778321026
1633780642095788300,14.177788330078124,-0.01768003359735012,0.022227613899111747,0.07505757907181977
1633780642115667500,14.19766748046875,-0.023389643415808677,0.0025917700588703155,0.0665657911889255
1633780642135547400,14.21754736328125,-0.07021919912993907,-0.014165887996554374,0.04884206458032131
1633780642155426300,14.23742626953125,-0.048342882886528965,-0.017857143729925154,-0.09848638545423745
1633780642175305500,14.257305419921876,-0.10877250940799713,-0.01499649360179901,-0.07269391868039965
1633780642195185000,14.277184814453125,-0.19939795222878454,0.0027209493964910503,0.0898131035245955
1633780642215063800,14.297063720703125,0.008580196818709373,0.054580900493264195,0.07036569492854178
1633780642234943700,14.31694384765625,-0.1266203007876873,0.065277066552639,-0.013005612045526504
1633780642254823000,14.336822998046875,-0.002272036585211754,0.05875614035129547,0.04361095899380743
1633780642274701800,14.356701904296875,0.06918284181952476,0.023686580535769462,0.08392346096411347
1633780642294582000,14.37658203125,0.11749123791456222,-0.0020230302602052687,0.07117182367965579
1633780642314461000,14.3964609375,0.2465478259384632,0.002668342426419258,-0.00683642189130187
1633780642334340900,14.4163408203125,0.22589432948827742,-0.024020927056670187,0.020578020061179994
1633780642354220000,14.436219970703124,0.18267945713996886,-0.053117257681488984,0.043483533221855754
1633780642374099000,14.456098876953124,0.17696750923395155,-0.030049101305007934,0.026869594486057757
1633780642393979000,14.475978759765624,0.07458031694889068,0.012537410011887549,0.050277796471863985
1633780642413858000,14.495858154296876,0.12519757450819013,-0.028263386932015418,0.01611760658621788
1633780642433738000,14.515738037109376,0.06001052432656288,-0.02618891874551773,-0.0349108621224761
1633780642453617000,14.535616943359376,-0.016651859593391417,0.009629998132586479,0.04497121449634432
1633780642473496000,14.55549609375,-0.06751403182446956,0.02460077277123928,0.05973156125470996
1633780642493376000,14.5753759765625,-0.052198389270901674,0.04134615586698055,0.017214096586033702
1633780642513255000,14.5952548828125,-0.0016886837393045423,0.0655909548074007,0.029714754784107206
1633780642533134800,14.615134765625,-0.09769231246709822,0.015275895065069198,0.03145195384025574
1633780642553013800,14.635013671875,-0.0962736778408289,0.06193243229985237,0.009056436028331517
1633780642572893000,14.654892822265625,-0.03141337539553642,0.057280807101726526,0.018204203601926563
1633780642592772900,14.67477294921875,0.014816460859775542,0.02241524542570114,0.05232530358619988
1633780642612651800,14.69465185546875,0.07163491114675999,0.06182078861892223,0.05794570075124502
1633780642632532000,14.714531982421875,0.04296235889196395,0.03384732454419136,0.04267959642782807
1633780642652411000,14.734410888671874,0.08973053980767727,0.03957739262878895,0.01273636665008962
1633780642672289800,14.754289794921876,0.08459843761622905,0.04493044409453869,-0.011081877441331744
1633780642692170000,14.774169921875,0.0574561636686325,0.015623101067543029,-0.05722717721834778
1633780642712049000,14.794048828125,0.11751520331203937,-0.014400865796208381,-0.09847060336321592
1633780642731928800,14.8139287109375,0.08414835576117038,-0.006701543465256691,-0.0648079146709293
1633780642751808000,14.83380810546875,0.03944119902849197,0.0017658406287431715,-0.09076236707344651
1633780642771687000,14.85368701171875,0.07007248413562774,0.023346973317861557,-0.12188618493787944
1633780642791566800,14.87356689453125,0.09916296954154968,0.006707973206043243,-0.12940467080920934
1633780642811446000,14.893446044921875,0.06559037028551101,0.018773089531064033,-0.08739592284765094
1633780642831326000,14.913325927734375,0.08080021437704563,-0.0003372691303491592,-0.05681994812432676
1633780642851204900,14.933204833984375,0.11154840386211871,0.013884732967615127,-0.05583623431660235
1633780642871084000,14.953083984375,0.10305939245820045,-0.016852350601553916,-0.04131239972785115
1633780642890963700,14.972963623046875,0.04975917942523956,-0.008283844220638275,-0.03621558804549277
1633780642910843000,14.9928427734375,0.07345686587691307,0.010316811352968216,-0.0398417426533997
1633780642930723000,15.01272314453125,0.04739186577200889,0.006653612670302391,-0.03226911544203758
1633780642950601700,15.032601806640624,0.0010877952367067335,0.02425882746577263,0.0033403964690864084
1633780642970481000,15.05248095703125,-0.012971125254034994,0.02303308506309986,0.03044321518912911
1633780642990361000,15.072361083984376,0.004751578441262245,0.05009001881480217,-0.06675020784512162
1633780643010239700,15.09223974609375,0.005520224726200103,0.06874620396792888,-0.04797258826941252
1633780643030120000,15.112119873046876,0.003375613912940025,-0.00009235445857048034,0.017703706733882427
1633780643049999000,15.1319990234375,0.04167290360331535,0.004102759143710136,0.0005544920776039362
1633780643069877800,15.151877685546875,0.03743219729363918,-0.006450199052691459,0.006462400947138667
1633780643089758000,15.171758056640625,0.07591887207627296,-0.03055295917391777,0.007588409302383661
1633780643109636900,15.191636962890625,0.08319090890586375,-0.024457564908266068,0.003494710247963667
1633780643129516800,15.211516845703125,0.04927928695380687,-0.04179974485337734,0.017124080215021965
1633780643149396000,15.23139599609375,0.03925590558946133,-0.04816051205694675,0.04256473787650466
1633780643169275000,15.25127490234375,0.00566635519862175,-0.0002922609448432922,0.05738697088994085
1633780643189154600,15.271154541015624,-0.06651976009011268,0.006167874979972839,0.03719173960126936
1633780643209033500,15.291033447265624,-0.01116144548356533,0.036682255709171295,0.02684139130488038
1633780643228913700,15.31091357421875,-0.05708265418112277,0.032583588218688966,0.045237610347568985
1633780643248792600,15.33079248046875,-0.08010930950343609,0.05506196200847625,0.028375395939126608
1633780643268671500,15.35067138671875,-0.03231704623699188,0.021596914780139923,0.06530095888487994
1633780643288551700,15.3705517578125,-0.009970774394273758,0.011672902137041091,0.0498424737945199
1633780643308430600,15.3904306640625,-0.010299275696277617,0.0141734867811203,0.03843099907264113
1633780643328310500,15.410310546875,0.0671112962424755,-0.01569149012863636,0.0632342356134206
1633780643348189700,15.430189697265625,0.05431845016479492,-0.026620880421996115,0.050802550998330115
1633780643368068400,15.450068359375,0.07202770985662937,-0.043322424376010894,0.04840623044632375
1633780643387948500,15.469948486328125,0.09965747506022453,-0.009428338080644607,0.030362039711698888
1633780643407827700,15.48982763671875,0.07106558682620524,-0.00912321765422821,0.004734700371697545
1633780643427707600,15.509707763671875,0.005125087928771972,0.009441782084107399,0.011326865178346633
1633780643447586600,15.529586669921875,-0.015319734206795691,0.04530103097259998,0.0027663959734141826
1633780643467465700,15.5494658203125,0.010047346761822699,0.04616203171610832,-0.014979907793179153
1633780643487345400,15.569345458984374,0.007889876466989517,0.0549947419911623,0.015364669327065348
1633780643507224600,15.589224609375,0.021233342164754865,0.054199207699298854,0.029800752567127345
1633780643527104500,15.6091044921875,0.028034838873147963,0.044333062723279,0.012780132726579903
1633780643546983400,15.6289833984375,0.02902268086671829,0.04473579830527305,0.007553630249947309
1633780643566862600,15.648862548828125,0.023874212062358856,0.049662148791551584,-0.008977233312278985
1633780643586742500,15.668742431640625,0.024141338565945625,-0.022017186018824575,0.010182371318340301
1633780643606621400,15.688621337890625,0.039295068556070324,0.0257195476680994,-0.04530293066874146
1633780643626501600,15.708501708984375,0.06410451564192772,0.04196224193871021,-0.0742199592038989
1633780643646380500,15.728380615234375,0.05759352631270885,-0.016260229927301407,-0.05222732310444116
1633780643666259500,15.748259521484375,0.06315291400551795,-0.031926001092791555,-0.04036123648285866
1633780643686139600,15.7681396484375,0.06547989564836025,0.019411387434601784,-0.0247710147716105
1633780643706018600,15.7880185546875,0.03612053017318249,0.0017915595918893813,-0.020993761255219578
1633780643725898500,15.8078984375,0.03538753972351551,-0.01372165136039257,0.019378800339251757
1633780643745777700,15.827777587890624,0.006216974818706512,-0.008939093258976936,0.017062705416604877
1633780643765656600,15.847656494140624,-0.0007078560084104537,0.04074994353950023,0.010526070189476013
1633780643785536500,15.86753662109375,-0.04138590335547924,0.05510287854075432,-0.0007858896806836128
1633780643805415700,15.887415771484376,-0.07297989601492881,0.0560837062716484,0.009573518704995513
1633780643825295400,15.90729541015625,-0.07734744357466697,0.036358430582284926,0.007606602546200156
1633780643845174500,15.927174560546876,-0.010504442879557608,0.051014732444286344,-0.01659150770828128
1633780643865053700,15.9470537109375,0.033656770408153534,0.012593524113297462,-0.011527940708398817
1633780643884933400,15.966933349609375,0.06263152047991752,-0.004501403072476387,0.029421032534539697
1633780643904812500,15.9868125,0.08344400688409805,-0.01320142687857151,0.027657749189063906
1633780643924692700,16.006692626953125,0.0827443341821432,-0.014368717092275619,-0.011539338885247706
1633780643944571400,16.0265712890625,0.10128946017622947,-0.014034955093264578,-0.03733428987711668
1633780643964450600,16.046450439453125,0.10347031134665012,-0.03116729167997837,0.0026847090393304824
1633780643984330800,16.066330810546877,0.046963995748758314,-0.023196166670322416,0.05339782818853855
1633780644004209400,16.08620947265625,-0.030559388914704323,0.015391045877337455,0.03412197676710784
1633780644024089600,16.106089599609376,-0.03733458213806152,0.043263972187042234,-0.020621055485308168
1633780644043968800,16.12596875,-0.07046411380171776,0.04690086738467216,0.002499123339354992
1633780644063847400,16.145847412109376,-0.09488543835282325,0.0859814164072275,0.005338730679452419
1633780644083727600,16.1657275390625,-0.08136720061004162,0.08808452616631984,0.021025983024388552
1633780644103606500,16.1856064453125,-0.023482582396268843,0.07101239533424376,0.020090894131362436
1633780644123486500,16.205486572265624,0.011230419066548347,0.062246320554614064,0.009305442353338002
1633780644143365600,16.22536572265625,0.038481998607516284,0.047805707269906995,0.008159633319079875
1633780644163245600,16.24524560546875,0.07925766111016273,0.042837271207571026,-0.008481412619352341
1633780644183124700,16.265124755859375,0.10832008946537972,0.016238602617383004,-0.02681296892799437
1633780644203004000,16.28500390625,0.12423603599965571,0.000990180081129074,-0.020731895448639986
1633780644222883600,16.304883544921875,0.14001461988985536,-0.03364624901413917,-0.03569558275938034
1633780644242762800,16.3247626953125,0.08936638267040252,-0.007784078004956245,-0.08350764670483768
1633780644262643000,16.344642822265627,0.04390285461246967,-0.0015898995399475098,-0.06134169986508786
1633780644282521600,16.364521484375,0.03278524827063083,-0.07453530876338481,-0.0041552199833095075
1633780644302400800,16.38440087890625,0.07363339148759841,-0.042514615124464035,-0.03973813614845276
1633780644322281000,16.404281005859374,0.04133797256052494,-0.0007663081973791122,-0.01919182639978826
1633780644342160000,16.424159912109374,-0.01473462779521942,-0.013215455403923987,0.05333148495405912
1633780644362039800,16.444039794921874,-0.054909986317157745,-0.006914893954992294,0.061085167820751664
1633780644381919000,16.4639189453125,-0.00027647885382175443,0.004569792133569717,0.04590075043141842
1633780644401798000,16.4837978515625,0.0009510171145200729,0.020401567515730856,0.043777474667131895
1633780644421677800,16.503677734375,-0.029189854127168655,0.03810147485733032,0.07970854668281972
1633780644441557000,16.523556884765625,-0.0983691888153553,0.044833413460850714,0.06333265448659658
1633780644461436700,16.543436767578125,-0.051364861056208605,0.028855507606267927,0.026029855726286768
1633780644481315800,16.56331591796875,-0.011745382851362228,0.03508241929709911,0.004112111493945122
1633780644501194800,16.58319482421875,0.060300447183847423,0.012326397609710693,0.055825347596406935
1633780644521074700,16.60307470703125,0.1195966857612133,-0.0035790275305509567,0.04829276013448834
1633780644540953900,16.622953857421876,0.06533961039483546,-0.02973988922536373,0.07530300520025193
1633780644560834000,16.642833984375,0.06565349864959716,0.01730710863173008,0.041585152254626154
1633780644580712700,16.662712646484376,0.10621522614061832,0.03636076866984367,-0.004450622733309865
1633780644600593000,16.682593017578125,0.10087737224400042,0.024895371803641316,-0.0019818945322185753
1633780644620471800,16.702471923828124,0.030233225700259207,0.002547346395254135,0.0056469929110258815
1633780644640350700,16.722350830078124,-0.06744856537282466,-0.015132102680206297,0.0070392144544050095
1633780644660231000,16.74223095703125,-0.053154082560539245,0.02648819395303726,-0.04444974790550768
1633780644680109800,16.76210986328125,-0.03630933074355125,0.011695698490738869,-0.06281454889662563
1633780644699989800,16.78198974609375,0.02325052720606327,0.014784896677732466,-0.004584880104847252
1633780644719869000,16.801868896484375,0.0346603944927454,0.01728138966858387,-0.028854009768925607
1633780644739747800,16.821747802734375,0.03651157531738281,0.03177460992336273,-0.03965834891051054
1633780644759627800,16.841627685546875,0.05108370602726936,0.05167115052640438,-0.04110383501108736
1633780644779507000,16.8615068359375,0.08417758185565472,0.049499651706218714,-0.05407222031876444
1633780644799386600,16.88138671875,0.11478899321854114,0.06968903777599335,-0.0514809251839295
1633780644819265800,16.901265869140627,0.09498188446462154,0.08029869459569454,-0.05912347582634538
1633780644839144700,16.921144775390626,0.053548634836077684,0.04902735801935196,-0.026678784621693194
1633780644859024600,16.941024658203126,0.00547112488746643,0.04398761028647422,-0.10470584449097514
1633780644878903800,16.96090380859375,0.023744448202848434,0.05114566534757614,-0.09802103296481073
1633780644898784000,16.980783935546874,0.048474984833598134,-0.030875615257024765,0.0014383622400462627
1633780644918663000,17.000662841796874,0.005121580797433853,-0.09866261880397796,0.02937222495675087
1633780644938542800,17.02054296875,-0.011024667361378668,-0.06775836197435856,0.005107223478518426
1633780644958421800,17.040421875,-0.018852584508061408,-0.06700374421477318,0.015907690162584184
1633780644978301000,17.060301025390626,-0.043889410609006876,-0.04970774149894714,0.013490107626840471
1633780644998180900,17.080180908203126,-0.020033903247117995,-0.021827800926566124,0.02291643641348928
1633780645018059800,17.100059814453125,0.0004296235889196396,0.005465279668569564,0.053229705080017446
1633780645037939700,17.119939697265625,-0.011851765835285187,0.06286591375768184,0.04255231678634882
1633780645057819000,17.13981884765625,-0.021882161462306975,0.13176818507015706,0.048543154698982835
1633780645077697800,17.15969775390625,0.028567922836542126,0.1463274562984705,0.021025690763443707
1633780645097577700,17.17957763671875,0.10749766716659069,0.16383914759159088,-0.004412848006188869
1633780645117457000,17.199456787109376,0.1429758077830076,0.15140110630095005,0.04036689903866499
1633780645137336800,17.2193369140625,0.14645020589530466,0.13258651571571825,0.05494330406486988
1633780645157215700,17.2392158203125,0.18917641794383525,0.06734919665157794,0.006462400947138667
1633780645177094700,17.2590947265625,0.12812895178496836,0.03134615537822246,-0.025855595137923956
1633780645196974600,17.278974609375,0.0696387688934803,-0.016209376522898673,-0.04860887687895447
1633780645216853500,17.298853515625,0.06528758794665336,-0.033494273322820664,-0.05854903693925589
1633780645236733700,17.318733642578124,0.03237316033840179,-0.055874447435140605,-0.1236540348606184
1633780645256612600,17.338612548828124,-0.006555997514724731,-0.09235504309237003,-0.12379775418024509
1633780645276491500,17.358491455078124,-0.08716331966817378,-0.08607260182201862,-0.0747863243823871
1633780645296371500,17.378371337890623,-0.09642916066348552,-0.0793891785353422,-0.053922473117150364
1633780645316250600,17.398250732421875,-0.09792612122297287,-0.0359586176097393,-0.0330023616200313
1633780645336130600,17.418130615234375,-0.0233668470621109,-0.019613047486543654,-0.008042436680197716
1633780645356009500,17.438009521484375,0.044480946761369704,0.029829905596375463,0.05023793938551098
1633780645375888600,17.457888671875,0.03959025211036205,0.057950084665417664,0.07399491827636957
1633780645395768600,17.4777685546875,0.005290507623553276,0.11525076551139354,0.07961966282296926
1633780645415647500,17.4976474609375,0.057923196658492083,0.12861352043151855,0.05276391419917345
1633780645435527700,17.517527587890626,0.04437923995256424,0.13834931702613829,0.07002422454711049
1633780645455406600,17.537406494140626,-0.00003857844471931457,0.1304541798621416,0.0753101290607825
1633780645475285500,17.557285400390626,0.027480712121725082,0.08146481576561927,0.024762210410647092
1633780645495165700,17.577165771484374,-0.023670213922858237,0.06228489899933338,0.002708199512772262
1633780645515044400,17.59704443359375,-0.03389467081725597,0.03920563670694828,0.010989705645851791
1633780645534924500,17.616924560546874,-0.023280922344326972,-0.03606383154988289,0.018676935680210588
1633780645554803700,17.6368037109375,-0.004516016119718551,-0.033386136773228645,-0.032747437010891736
1633780645574682400,17.656682373046873,-0.08058101866841316,-0.020215689554810522,-0.022604301724396644
1633780645594562600,17.6765625,-0.03330781084001064,-0.03350187210738659,0.007512494521960616
1633780645614441700,17.696441650390625,-0.01730652410984039,0.027776480197906493,-0.05208053504489362
1633780645634321400,17.7163212890625,-0.015942250019311904,0.05694938319027423,-0.07627594188563525
1633780645654200600,17.73620068359375,-0.03194353674948215,0.07799684739410877,-0.02752276116516441
1633780645674080500,17.75608056640625,-0.003251110750436783,0.05789806221723556,-0.015134294637292623
1633780645693959400,17.77595947265625,0.039806525209546084,0.050887891194224356,-0.012851553994975983
1633780645713838600,17.795838623046876,0.033276246657967565,0.051125207081437106,-0.011200096993520856
1633780645733718500,17.815718505859376,0.05013619604408741,0.04816869536340236,0.00048639527745544906
1633780645753597400,17.835597412109376,0.07159633270204067,0.045806642407178876,0.027176395412907003
1633780645773477600,17.8554775390625,0.03481412374973297,0.03663023326098919,0.03766078188512474
1633780645793356500,17.8753564453125,0.02396422843337059,0.014169395127892493,0.020060937384516
1633780645813235500,17.8952353515625,0.026736031234264372,0.035496260794997216,0.015450776707939803
1633780645833115600,17.91511572265625,0.04290039957165718,0.029232524225115776,-0.024993425350636242
1633780645852994600,17.93499462890625,0.053398412710428236,0.006500467935204505,-0.042507893122732635
1633780645872874500,17.95487451171875,0.012114216163754462,-0.032441549399495125,-0.006647402125224471
1633780645892753700,17.974753662109375,-0.026066753670573234,-0.0188484928548336,-0.005241846176236868
1633780645912632600,17.994632568359375,-0.01844283466339111,-0.015086509972810745,-0.04950681209936738
1633780645932512500,18.014512451171875,-0.01843640492260456,-0.01452069278359413,-0.05761573814451694
1633780645952391700,18.0343916015625,-0.020687398719787597,-0.03819792096912861,-0.015599574061483145
1633780645972271600,18.054271728515626,0.02557107910811901,-0.05251052395999431,-0.034907135795429346
1633780645992150500,18.074150634765626,-0.013344634741544723,-0.042484804508090016,-0.00017104571796953678
1633780646012029700,18.09402978515625,-0.030433132186532017,-0.0509860908716917,0.04421192056164145
1633780646031909400,18.113909423828126,0.0023538696497678755,-0.035808980005979534,0.010398279091343283
1633780646051788500,18.13378857421875,0.05108779768049717,-0.028683073648810384,-0.02266732049062848
1633780646071668700,18.153668701171874,0.024447628036141394,-0.00015080664753913878,0.02410714403539896
1633780646091547400,18.17354736328125,0.04495324044823646,-0.03823533037006855,0.01851348874680698
1633780646111426600,18.193426513671874,-0.008882979157567023,0.034145430707931516,-0.08393741642422974
1633780646131306800,18.213306640625,0.07756137858629227,0.043860769036412235,-0.01635828347429633
1633780646151185400,18.233185302734373,0.07136720012128353,-0.021471242573857307,0.07229505555592478
1633780646171065600,18.253065673828125,0.12101590490937232,0.00869534763097763,-0.005046396669372916
1633780646190944800,18.27294482421875,0.10827040510475634,0.02336860062777996,0.019208996730297804
1633780646210823700,18.29282373046875,0.06970481986701488,0.010080664509534836,0.03609532266668975
1633780646230703900,18.312703857421877,0.07407645907998085,0.007766542348265648,0.028180092562735078
1633780646250582800,18.332582763671876,0.11088380247354507,0.010850479838252066,0.03599756138063967
1633780646270462700,18.352462646484376,0.03566635666489601,0.041914895665645595,0.04638049677237868
1633780646290342000,18.372341796875,0.0335404505521059,0.05561550423800945,0.01558496101424098
1633780646310220800,18.392220703125,-0.02316343344449997,0.04134615586698055,0.04446297271326184
1633780646330100700,18.412100830078124,-0.02586684718430042,0.0697732089281082,0.024931612160801885
1633780646349980000,18.43197998046875,0.013093874850869177,0.05480418785512447,-0.03465827560089528
1633780646369859600,18.451859619140624,0.04728957444131374,0.03742459850907325,-0.0253171774122864
1633780646389738800,18.47173876953125,0.0018628712624311446,0.013021394136548042,0.024129063606262206
1633780646409617700,18.49161767578125,0.036574703681468965,0.00419803621172905,-0.02744337578602135
1633780646429497600,18.51149755859375,0.07743862898945808,0.04583820658922195,-0.037193785427883264
1633780646449376800,18.531376708984375,0.0809492674589157,0.06126899995505809,-0.04686769576743245
1633780646469257000,18.551257080078123,0.07400631645321845,0.066675827434659,-0.04098346003443003
1633780646489135600,18.571135498046875,0.05337035565972328,0.11376432634592056,0.00028795009590685367
1633780646509014800,18.591014892578126,0.05215864178240299,0.11856909627914428,-0.06702259504571556
1633780646528894700,18.610894775390626,-0.036812019568681714,0.17216799999773502,-0.03421571946516633
1633780646548774000,18.63077392578125,0.021182488760352135,0.13392507084310054,-0.0032147242628037926
1633780646568653800,18.65065380859375,0.03159691526889801,0.13837152885794637,0.00525178304836154
1633780646588532700,18.67053271484375,-0.00509644635617733,0.06215805774927139,-0.04449943226613104
1633780646608412000,18.690411865234374,-0.05404840105175972,0.0015600889235734938,-0.03035254123099148
1633780646628291800,18.710291748046874,-0.009177578189969062,-0.05593406866788864,0.037157691201195116
1633780646648170800,18.730170654296874,-0.04314531424343586,-0.08629705822765826,0.0430720298115164
1633780646668050700,18.75005078125,-0.034714170506596566,-0.103671971398592,-0.02039868143890053
1633780646687929900,18.769929931640625,-0.09752981538176536,-0.10498188495337962,0.001887859573215246
1633780646707808800,18.789808837890625,-0.15337386767864225,-0.09360124376118183,0.0058820437759161
1633780646727688700,18.809688720703125,-0.11826631394028662,-0.0720043289810419,-0.0531477258849889
1633780646747567900,18.82956787109375,-0.13012977021336555,0.03369184172153473,-0.03575593464449048
1633780646767447800,18.84944775390625,-0.05788695630133152,0.017831424766778944,0.04107267268784344
1633780646787326700,18.86932666015625,-0.023711130455136297,-0.038974166038632393,0.0908642200127244
1633780646807205600,18.88920556640625,-0.023632220000028608,0.05324935962855815,0.0802200764015317
1633780646827085800,18.9090859375,0.0039010990917682647,0.08709434608519077,0.07765446369722485
1633780646846964700,18.92896484375,0.0579179359614849,0.09434066395163536,0.10237915510907769
1633780646866845000,18.948844970703124,0.1372983466684818,0.08822831855118274,0.10726268936693668
1633780646886723800,18.968723876953124,0.07488835998475551,0.10296002373695373,0.12030322659537196
1633780646906602800,18.988602783203124,0.01801145750880241,0.08867664684057235,0.11434022653773426
1633780646926482700,19.008482666015624,-0.0012409399718046187,0.07149228780567646,0.04539104734361171
1633780646946361900,19.02836181640625,0.032660160586237906,0.06351005688011646,-0.04355542941428721
1633780646966241800,19.04824169921875,0.0025707272708415984,0.05288461796939373,-0.08089132672660053
1633780646986120700,19.06812060546875,-0.02642272750139236,0.01708089866042137,-0.07197846388742327
1633780647005999900,19.087999755859375,0.03528291030526161,-0.039331308913230896,-0.0747040163937956
1633780647025879800,19.1078798828125,0.04531155236661434,-0.022072131076455115,-0.10531955594252794
1633780647045758700,19.1277587890625,0.061498132535815236,-0.06452537140250206,-0.09939378262273967
1633780647065638700,19.147638671875,0.06553250261843205,-0.03726443951129913,-0.09300214535687118
1633780647085517800,19.167517822265626,0.029721184524893758,-0.043294951847195624,-0.05651343945842236
1633780647105396700,19.187396728515626,0.1017459717720747,-0.042375498914718625,-0.029211591034941375
1633780647125277000,19.20727685546875,0.0897071589320898,-0.0010053776502609252,-0.026679588339291512
1633780647145155600,19.227155517578126,0.0625192922770977,0.0114198041588068,0.0066962097030133
1633780647165035800,19.247035888671874,-0.01897708767056465,0.06955752035081386,0.03826579857356846
1633780647184914700,19.266914794921874,-0.003621697628498077,0.0783487295717001,0.018239238382689652
1633780647204793300,19.28679345703125,0.03739887954592704,0.09412146824300288,0.04309394938237965
1633780647224673500,19.306673583984374,0.000831190127134323,0.0919686741232872,0.08029485867079347
1633780647244552700,19.326552734375,-0.00348608855009079,0.07852817779183387,0.08201879638656974
1633780647264431400,19.346431396484373,-0.01879413231909275,0.08604454477131367,0.07204177491459995
1633780647284311600,19.3663115234375,0.010944587862491606,0.046744215518236154,0.011266330630145966
1633780647304190700,19.386190673828125,0.0390957465916872,0.013538696008920669,0.023252098108641803
1633780647324070400,19.4060703125,0.04470248055756092,-0.0012894552886486053,0.018072028589621186
1633780647343949600,19.425949462890625,0.023700024539232253,-0.04444003022909164,-0.057999221036769445
1633780647363828700,19.445828857421876,0.023712299498915672,-0.01213350538611412,-0.030990071949549017
1633780647383708400,19.46570849609375,0.07402502115368842,-0.04722060085833072,-0.03878777662105858
1633780647403587600,19.485587646484376,0.04817395606040954,-0.0998901147723198,-0.06479129232969134
1633780647423467500,19.505467529296876,0.08682897314727306,-0.11849778460860251,-0.040541561485826966
1633780647443346400,19.525346435546876,-0.016007131949067114,-0.04175006049275398,-0.02405640022885054
1633780647463225600,19.5452255859375,-0.01610708519220352,-0.018745617002248763,-0.02423811347130686
1633780647483105500,19.56510546875,0.03445230470001697,0.037433366337418554,-0.0477314729899168
1633780647502984400,19.584984375,0.06745908676683902,0.07187631868720054,-0.0221247015139088
1633780647522864600,19.60486474609375,0.07145897005796432,0.12693009738922117,0.025287220665439963
1633780647542743800,19.624743896484375,0.06640519379973411,0.11331892066597937,0.02037851543370634
1633780647562622500,19.64462255859375,0.0873719939827919,0.11431962214112282,0.029748949314653873
1633780647582502700,19.664502685546875,0.12295301045179366,0.12046060911417007,0.007212744390405714
1633780647602381600,19.684381591796875,0.0744096365571022,0.0795031603038311,-0.007172631575725973
1633780647622261500,19.704261474609375,0.08647241479456425,0.023353987580537795,-0.00579509614482522
1633780647642140700,19.724140625,0.12834288679659367,0.005514964029192924,-0.033460297987982626
1633780647662019600,19.74401953125,0.0707715723156929,-0.03350713280439377,-0.060536922820843754
1633780647681899500,19.7638994140625,0.06719780548214913,-0.061494625404477116,-0.076083853379637
1633780647701778700,19.78377880859375,0.052530982226133345,-0.0498708231061697,-0.03637757367417216
1633780647721658400,19.803658447265626,0.01803250029683113,-0.08296119180321693,-0.03781885852366686
1633780647741537500,19.82353759765625,-0.012144611302018165,-0.05914426288604736,-0.034783655546233055
1633780647761416700,19.843416748046874,-0.023483166918158528,-0.05402209756672382,-0.04060721060056239
1633780647781296400,19.86329638671875,-0.023495441877841947,0.0007446808874607086,-0.05282075895294547
1633780647801175600,19.883175537109373,0.004310264414548874,0.0009282207608222961,-0.053397243666648865
1633780647821055700,19.9030556640625,-0.115029816237092,-0.0032832594543695448,0.020920221094973383
1633780647840934400,19.922934326171877,0.07097440141141415,-0.008148235142230988,0.024957075395621357
1633780647860813600,19.9428134765625,0.029859131690859794,-0.008217793247103691,0.04433364724516868
1633780647880693800,19.96269384765625,0.0018394903868436813,-0.009660977792739868,0.08262761246729641
1633780647900572400,19.982572509765625,0.06347206295728683,-0.010440729993581772,0.03750168233327567
1633780647920452600,20.00245263671875,0.028710546177625654,0.0002601122409105301,0.04191778174247592
1633780647940331500,20.02233154296875,0.016255553752183915,-0.005316811108589172,0.04857154054325074
1633780647960210700,20.042210693359376,0.05813420906066894,-0.004288052582740783,0.007802892303280532
1633780647980090600,20.062090576171876,0.08116554055809974,-0.024103929165005682,-0.025861221161112186
1633780647999969500,20.081969482421876,0.00457096117734909,0.041180736172199243,-0.024595694737322628
1633780648019849500,20.101849365234376,0.015954524978995323,0.03929565307796001,-0.04535524537786841
1633780648039728600,20.121728759765624,0.11849953817427157,-0.019583821392059324,-0.035153000315278765
1633780648059607600,20.141607666015624,0.1411725577533245,0.012569558715820313,-0.015150880445912479
1633780648079487500,20.161487548828124,0.1147732111275196,0.013235913670063017,-0.0007666004583239555
1633780648099366700,20.18136669921875,0.12062602880895137,-0.011578209590911865,0.02840896941516548
1633780648119246600,20.20124658203125,0.1589361779808998,-0.03975625632703304,0.029194128443486986
1633780648139125500,20.22112548828125,0.10472995601892471,-0.04149053277373314,0.03565521421637386
1633780648159004400,20.24100439453125,0.014749825364351273,0.001880406919121742,0.08539886727891861
1633780648178884600,20.260884521484375,-0.004640519282221794,0.04538111047148704,0.050456185246072704
1633780648198764000,20.280763916015626,0.002382511222362518,0.033950784918665884,0.005961794481240213
1633780648218643200,20.300643310546874,0.041431496062874794,0.027181436914205548,0.04939644706007093
1633780648238523100,20.320523193359374,0.03183540019989013,0.05017068283557891,0.128257400470227
1633780648258402000,20.340402099609374,-0.042057519006729126,0.025085341417789456,0.053738933243788777
1633780648278282200,20.3602822265625,-0.11829729360044001,0.03891337576210498,0.07586586324740201
1633780648298161200,20.3801611328125,0.09317220469415187,0.01772328821718693,-0.05238656878676265
1633780648318040000,20.4000400390625,0.4753367078244686,0.00011398176848888397,0.2001712016236037
1633780648337920300,20.419920166015626,-0.16754326280653475,-0.06401216118335723,0.09423873794712126
1633780648357799200,20.439799072265625,-0.08735328928232193,0.10900105746686457,-0.09584157003387808
1633780648377679000,20.45967919921875,-0.2797317181378603,-0.06597557021081447,-0.16946228470299393
