time,seconds_elapsed,z,y,x
1633780627941676800,0.0236767578125,-8.017948135629295,-5.60238395397067,0.7044030914776027
1633780627961556000,0.043555908203125,-8.0203283087641,-5.599440301734209,0.7006959075227379
1633780627981435000,0.063434814453125,-8.022188257417083,-5.59701278232634,0.6988054176010191
1633780628001314800,0.083314697265625,-8.022405699560046,-5.5969204278677696,0.6970513404753059
1633780628021194000,0.103194091796875,-8.0216884912014,-5.598434339562058,0.6931273719646036
1633780628041073000,0.123072998046875,-8.022737707993388,-5.597246591082215,0.6905706001538783
1633780628060952800,0.142952880859375,-8.023950006392598,-5.595176799070835,0.6932626887820661
1633780628080832000,0.16283203125,-8.020397282347083,-5.59915680861771,0.702182712014392
1633780628100711000,0.1827109375,-8.012312760090827,-5.609509860327839,0.7117751546155661
1633780628120590800,0.2025908203125,-8.006646404892205,-5.616434106633067,0.7208796675693243
1633780628140469800,0.2224697265625,-8.006212105128169,-5.615772427853941,0.7307889210347086
1633780628160350000,0.242349853515625,-8.008400555083155,-5.611144768053293,0.7422674696434288
1633780628180228400,0.262228271484375,-8.011261205211282,-5.605739109617471,0.7521759924564511
1633780628200107300,0.282107177734375,-8.014104319682717,-5.600987531176209,0.7572743385087698
1633780628219987500,0.301987548828125,-8.01598238851428,-5.598088887125253,0.7588235407121479
1633780628239866400,0.321866455078125,-8.016215028226375,-5.5972629576951265,0.762451156624779
1633780628259745300,0.341745361328125,-8.0136121522516,-5.59990324307084,0.7703849452987312
1633780628279625200,0.361625244140625,-8.0073267883718,-5.607409088656306,0.7810665713761001
1633780628299504400,0.38150439453125,-8.001028565010428,-5.615196089270711,0.7896189303398132
1633780628319383300,0.40138330078125,-7.997240278643369,-5.6197401624411345,0.7956432321306317
1633780628339263200,0.42126318359375,-7.993140442109108,-5.624449655306339,0.8035276287049055
1633780628359142400,0.441142333984375,-7.987118113079666,-5.6317982645034785,0.8118955710124224
1633780628379021000,0.46102099609375,-7.983808550140261,-5.6359127140849825,0.8158872709970921
1633780628398901200,0.4809013671875,-7.983256761476397,-5.6364130648225546,0.817832559845969
1633780628418780400,0.500780517578125,-7.982275933745503,-5.63632889367044,0.8279193618353455
1633780628438659000,0.5206591796875,-7.985822228050232,-5.6310138361275195,0.8298848897546529
1633780628458539300,0.540539306640625,-7.990323631122708,-5.62519316715002,0.8260231728252023
1633780628478418400,0.56041845703125,-7.991706609913706,-5.622188140115141,0.8330698034010827
1633780628498297000,0.580297119140625,-7.992267750927805,-5.619957020062208,0.8426924219448119
1633780628518177300,0.60017724609375,-7.992906048831343,-5.61836770504415,0.8472246585469693
1633780628538056400,0.620056396484375,-7.989990453645587,-5.621045984342694,0.8569027336049825
1633780628557936000,0.63993603515625,-7.986094030728935,-5.625341051188111,0.8649957314286381
1633780628577815300,0.659815185546875,-7.9811045518785715,-5.631950240194797,0.8680445976052433
1633780628597694200,0.679694091796875,-7.974953043511509,-5.639677619576454,0.8743854179993271
1633780628617574100,0.69957421875,-7.970301418313384,-5.645903362223506,0.876615880465135
1633780628637453300,0.719453369140625,-7.969100810351967,-5.647655174326896,0.8762433938909322
1633780628657332200,0.739332275390625,-7.969155170887708,-5.647080004787445,0.8794537342395633
1633780628677212200,0.759212158203125,-7.967789143231511,-5.64863717110157,0.8818304733082651
1633780628697091300,0.77909130859375,-7.9671987761229275,-5.649650732058286,0.8806701242920011
1633780628716970200,0.79897021484375,-7.967469994279742,-5.649875188463926,0.8767631799813359
1633780628736850200,0.81885009765625,-7.966926973444223,-5.6508232829689975,0.8755868296783417
1633780628756729300,0.838729248046875,-7.968377756774425,-5.6490264626801014,0.8739785907641052
1633780628776608300,0.858608154296875,-7.972115189737081,-5.644186621433496,0.871161560581997
1633780628796488200,0.87848828125,-7.977504481559992,-5.637419611516594,0.8656277457218616
1633780628816367400,0.898367431640625,-7.98213214136064,-5.632257114186882,0.8565233788985759
1633780628836247300,0.918247314453125,-7.984844322928786,-5.629463684076071,0.8495810124147682
1633780628856126200,0.938126220703125,-7.986898332849145,-5.627304460215568,0.8445664721883833
1633780628876005000,0.958005126953125,-7.990075209319591,-5.623873316723108,0.8373383475657552
1633780628895885300,0.97788525390625,-7.991282831543684,-5.622979582753777,0.8317948150292038
1633780628915764200,0.99776416015625,-7.98802587557435,-5.628299316471815,0.8270856874901801
1633780628935643100,1.01764306640625,-7.981593796700238,-5.6383145145297044,0.8209459426261484
1633780628955523300,1.0375234375,-7.973914932635426,-5.649586434650421,0.8180695104070007
1633780628975402200,1.05740234375,-7.966903008046746,-5.6591959745168685,0.8199684028308838
1633780628995281200,1.07728125,-7.962417387065291,-5.665583629727363,0.8194225324511527
1633780629015161300,1.097161376953125,-7.961423115330934,-5.666957840690016,0.8195855409931391
1633780629035040300,1.117040283203125,-7.962516755786537,-5.664354380193353,0.826928670297563
1633780629054919200,1.136919189453125,-7.965466837763786,-5.659312294372916,0.8330104744292796
1633780629074799400,1.15679931640625,-7.971233730727434,-5.651342338407039,0.8319548278965055
1633780629094678300,1.17667822265625,-7.978240979140996,-5.641500158828497,0.8315849716708064
1633780629114557200,1.19655712890625,-7.983933637824654,-5.6330742757886645,0.8340623946350068
1633780629134437400,1.216437255859375,-7.987472333344817,-5.627625947254896,0.8369545358799397
1633780629154316300,1.23631640625,-7.990025524958968,-5.624031137633323,0.8367535334151238
1633780629174196000,1.256196044921875,-7.9902447206676,-5.623607359263301,0.8375056669566779
1633780629194076000,1.276075927734375,-7.988067961150407,-5.626767284598946,0.8370451367728412
1633780629213954800,1.295954833984375,-7.98457544285953,-5.632071820747852,0.8346888559702783
1633780629233835000,1.3158349609375,-7.982257229045033,-5.635635650709271,0.8328065493550151
1633780629253714000,1.3357138671875,-7.981914114695787,-5.636388514903188,0.8310017649553716
1633780629273592800,1.3555927734375,-7.981561063474416,-5.637257114431262,0.8284943121790885
1633780629293473000,1.37547314453125,-7.979221806871891,-5.641065274542569,0.825098093869537
1633780629313352000,1.39535205078125,-7.97713331016004,-5.644648978248238,0.8207754083648323
1633780629333230800,1.41523095703125,-7.977218065834045,-5.64499910686016,0.8175308004204184
1633780629353111000,1.435111083984375,-7.978153885379434,-5.644017694607377,0.8151766385097056
1633780629372990000,1.454989990234375,-7.979161016595363,-5.643251386409998,0.8106096959203482
1633780629392869000,1.474869140625,-7.9816598476737735,-5.640408271938562,0.8057859290257096
1633780629412749000,1.4947490234375,-7.986995363482833,-5.632873200258612,0.8056216783747077
1633780629432628000,1.5146279296875,-7.993231627523898,-5.623706143462657,0.8078127586781978
1633780629452507100,1.534507080078125,-7.999995130309462,-5.613918908941746,0.8089365750763565
1633780629472386800,1.55438671875,-8.00716136867702,-5.603763425630331,0.808450837386027
1633780629492266000,1.574265869140625,-8.01364956165254,-5.594503429853916,0.8082937471281737
1633780629512145200,1.594145263671875,-8.018362561649084,-5.5877007641017435,0.8086127499494701
1633780629532024800,1.61402490234375,-8.02105662303865,-5.584357883414626,0.8049764392737299
1633780629551904000,1.633904052734375,-8.02379569261372,-5.581764359790086,0.795606918708235
1633780629571784000,1.653783935546875,-8.02696555482149,-5.578223326182365,0.7884383422531187
1633780629591662800,1.673662841796875,-8.028656576648354,-5.575624541860819,0.7895986182041466
1633780629611542000,1.6935419921875,-8.029182061827182,-5.574807964780926,0.7900243693355471
1633780629631422000,1.713421875,-8.029265648457407,-5.575167445743084,0.7866319504182785
1633780629651300900,1.73330078125,-8.02946672398746,-5.575153417217731,0.7846793550457805
1633780629671180000,1.753179931640625,-8.02872087405622,-5.575803990080952,0.787678756057471
1633780629691059700,1.773059814453125,-8.026732915109395,-5.578230924966931,0.7907488842178135
1633780629710939000,1.79293896484375,-8.023494079318642,-5.582719468557834,0.7919387515895068
1633780629730818000,1.812818115234375,-8.018833101770282,-5.589142195081711,0.7938450236022472
1633780629750697700,1.83269775390625,-8.01411601012051,-5.595434573224186,0.7971464763004332
1633780629770577000,1.852576904296875,-8.009744955429435,-5.601273946902156,0.8000643365085125
1633780629790456000,1.8724560546875,-8.00611624353826,-5.606202050954103,0.8018640063416212
1633780629810336000,1.8923359375,-8.00372671805322,-5.6097284715145825,0.801060215678066
1633780629830215000,1.91221484375,-8.00298320620954,-5.611151782315969,0.7985101658690721
1633780629850093800,1.93209375,-8.00514593720138,-5.608953980010748,0.7922500825610012
1633780629869974000,1.95197412109375,-8.008639040014147,-5.604833685210346,0.7860824267767369
1633780629889853000,1.97185302734375,-8.012519096317886,-5.5997576971203085,0.7827072512552141
1633780629909733000,1.991733154296875,-8.015045399925112,-5.5964925578445195,0.780190738389641
1633780629929612000,2.011612060546875,-8.016209767529368,-5.595476074278355,0.7755076220747082
1633780629949491000,2.031490966796875,-8.016936912760139,-5.595096135050058,0.770715127101168
1633780629969371000,2.051370849609375,-8.01719293334782,-5.594755358788371,0.7705332677282393
1633780629989250000,2.07125,-8.01574039645195,-5.596590173000097,0.7723197858188301
1633780630009129000,2.09112890625,-8.013171422746778,-5.600294872736931,0.7721113306999207
1633780630029009000,2.1110087890625,-8.012008224186301,-5.60206714310646,0.7713266100630164
1633780630048888000,2.13088818359375,-8.012976192435621,-5.600622789517045,0.7717660243935882
1633780630068766700,2.1507666015625,-8.013515706139803,-5.59973606981039,0.7725998448692262
1633780630088647000,2.17064697265625,-8.013300602084398,-5.600033591452241,0.7726695491045713
1633780630108526000,2.190526123046875,-8.012320358875394,-5.60158257445991,0.7716099570490419
1633780630128404700,2.21040478515625,-8.012379980108141,-5.602167680871486,0.7667272265087812
1633780630148285000,2.230284912109375,-8.014650847649573,-5.600144066089391,0.757723178254813
1633780630168164400,2.250164306640625,-8.018179021775723,-5.595662536761164,0.7534927741434425
1633780630188043300,2.270043212890625,-8.019830880635975,-5.5928352043807505,0.7568966643027961
1633780630207923200,2.289923095703125,-8.017200532132387,-5.595985777366161,0.7614582731299102
1633780630227802400,2.30980224609375,-8.012748228898644,-5.602426624068618,0.760962963893637
1633780630247681300,2.329681396484375,-8.008639624536038,-5.608243201392889,0.7613689143460244
1633780630267561200,2.349561279296875,-8.006482154241203,-5.610892254596949,0.7645373152490704
1633780630287440400,2.3694404296875,-8.004761321797966,-5.612658095225691,0.7695804239828139
1633780630307320300,2.3893203125,-8.002582224193215,-5.614888630756735,0.7759444791220128
1633780630327199200,2.40919921875,-8.000574391502141,-5.617513134041428,0.7776532558012753
1633780630347078400,2.429078369140625,-7.998443809214234,-5.620260971444845,0.7797122341576963
1633780630366958300,2.448958251953125,-7.99770614258945,-5.621201467165351,0.7805003157954663
1633780630386837200,2.468837158203125,-7.998594615861773,-5.619991506853699,0.7801089053250849
1633780630406716400,2.48871630859375,-8.001722977015376,-5.615220054668188,0.7823820378888398
1633780630426596000,2.50859619140625,-8.004639741244912,-5.610746708646416,0.7846336162079125
1633780630446475300,2.528475341796875,-8.005380330479145,-5.609832516410947,0.7836096799876541
1633780630466354400,2.5483544921875,-8.003668265864253,-5.612438899517059,0.7824414399258792
1633780630486234000,2.568234130859375,-8.00333859551847,-5.613680424010753,0.7768852671034634
1633780630506113300,2.58811328125,-8.004623374632,-5.612514887362718,0.7720525862500071
1633780630525992400,2.607992431640625,-8.006075327005982,-5.6108186048388475,0.769324330329895
1633780630545872100,2.6278720703125,-8.00646871023774,-5.610613437655568,0.7667199930503964
1633780630565751300,2.647751220703125,-8.005522369298339,-5.612153652834892,0.7653297077357769
1633780630585630200,2.667630126953125,-8.0046631221205,-5.613484024655818,0.7645566044714301
1633780630605510100,2.68751025390625,-8.004557908180356,-5.6133297108769415,0.766788820502907
1633780630625389300,2.707389404296875,-8.003560713836551,-5.614161485525965,0.7710968198951333
1633780630645269200,2.727269287109375,-8.00163705229759,-5.616071118539572,0.7771306201666593
1633780630665148200,2.747148193359375,-8.001466371905803,-5.615205441620946,0.7851059098947792
1633780630685027300,2.76702734375,-8.003177851998805,-5.611622906959057,0.7932369016412645
1633780630704907300,2.7869072265625,-8.005724029350281,-5.606862560689449,0.8011605342473834
1633780630724786200,2.8067861328125,-8.009970580878853,-5.600010210576653,0.8066261061768978
1633780630744665300,2.826665283203125,-8.015314864516258,-5.592048437917232,0.8087699863377958
1633780630764545300,2.846545166015625,-8.01902248686254,-5.586935040426254,0.807355004973337
1633780630784424200,2.866424072265625,-8.019961813539267,-5.586200296410918,0.8030961054198443
1633780630804303000,2.88630322265625,-8.01870392243266,-5.5888470115274185,0.7972218065589666
1633780630824183300,2.906183349609375,-8.015175163784622,-5.594561297520995,0.7926120477411895
1633780630844062200,2.926062255859375,-8.009319423493743,-5.603330294910073,0.7898588765755296
1633780630863941000,2.945941162109375,-8.003208247137069,-5.612739928290248,0.7849811144713312
1633780630883821300,2.9658212890625,-7.99943983451426,-5.6191620702922345,0.7774128711741417
1633780630903700200,2.9857001953125,-7.997824216011166,-5.621911661261319,0.7741486817464232
1633780630923579100,3.0055791015625,-7.996991272318363,-5.623034527811408,0.7745918954692781
1633780630943459300,3.025459228515625,-7.9969065166443585,-5.623209884378314,0.7742007041946053
1633780630963338500,3.04533837890625,-7.997222742986678,-5.622565156733989,0.7756081598397344
1633780630983218200,3.06521826171875,-7.996476893055439,-5.622623024401069,0.7828522857490926
1633780631003097300,3.085097412109375,-7.996521316719055,-5.621586082568764,0.7898083884973078
1633780631022976300,3.104976318359375,-7.996523654806613,-5.620150496807694,0.7999384451065212
1633780631042856200,3.124856201171875,-7.995128401055932,-5.620583043006063,0.8107689050700515
1633780631062735400,3.1447353515625,-7.993429780444503,-5.622288677880167,0.8156794734653084
1633780631082614300,3.1646142578125,-7.994162770894169,-5.621619984838366,0.8130985170613974
1633780631102494200,3.184494140625,-7.996967306920886,-5.618543061611056,0.8067677066046745
1633780631122373400,3.204373291015625,-8.000441120511294,-5.614635532778501,0.7995004920806735
1633780631142252300,3.224252197265625,-8.004580120012164,-5.610097889348864,0.7898606301411986
1633780631162132200,3.24413232421875,-8.00801886228919,-5.606336490988731,0.7816720629885793
1633780631182010400,3.26401025390625,-8.008636701926589,-5.606271024537087,0.775787900320813
1633780631201889500,3.2838896484375,-8.007745306044816,-5.608756411612034,0.7669782786604017
1633780631221769200,3.303769287109375,-8.006746358135342,-5.611184515541791,0.7596125721979886
1633780631241648400,3.3236484375,-8.004802822852135,-5.614197141361236,0.7578304380215704
1633780631261527300,3.34352734375,-8.002918908801675,-5.616937379980087,0.7574184231545775
1633780631281407200,3.3634072265625,-8.003652483773232,-5.616042476966977,0.756309512064606
1633780631301286400,3.383286376953125,-8.006446498405932,-5.611661485403776,0.7592458577774465
1633780631321166600,3.40316650390625,-8.008225783038139,-5.60812980414629,0.7665388643298298
1633780631341045500,3.42304541015625,-8.009570183384419,-5.605601162451506,0.7709783811472356
1633780631360924400,3.44292431640625,-8.011853325885534,-5.602166511827707,0.7722229013156146
1633780631380804400,3.462804443359375,-8.014401256802678,-5.598331463709473,0.773589221232757
1633780631400683500,3.48268359375,-8.015253489717841,-5.596843270978331,0.7755242078833281
1633780631420562400,3.5025625,-8.013162070396541,-5.599857650363445,0.7753793925851583
1633780631440442400,3.5224423828125,-8.008385942035913,-5.606978880545497,0.7732602084740996
1633780631460321500,3.542321533203125,-8.003210585224627,-5.6147764025539155,0.7702540854606778
1633780631480200200,3.5622001953125,-7.999484258177876,-5.620362678253651,0.7682159306965768
1633780631500080400,3.582080322265625,-7.996787274178862,-5.624263777345418,0.7677492630328983
1633780631519959600,3.60195947265625,-7.994592394483089,-5.627610749685764,0.7660759960584342
1633780631539838200,3.621838134765625,-7.993700414079427,-5.629450240072607,0.7618590359505265
1633780631559718400,3.641718505859375,-7.994482504367828,-5.62899898917377,0.7569689988866448
1633780631579597600,3.66159765625,-7.996281662744283,-5.627047270584106,0.7524628465738147
1633780631599476200,3.681476318359375,-7.9983467785805455,-5.624775233998895,0.7474837429869919
1633780631619356400,3.7013564453125,-8.000467423996328,-5.622586784043908,0.7412281166583299
1633780631639235600,3.721235595703125,-8.000694803011417,-5.622704272943735,0.7378746415119618
1633780631659115300,3.741115234375,-7.9985314874976865,-5.625924404034018,0.7367845081876963
1633780631678994400,3.760994384765625,-7.996079418170452,-5.629537333834171,0.7358093795452266
1633780631698873300,3.780873291015625,-7.994992207455635,-5.630850169998407,0.7375720053035766
1633780631718753300,3.800753173828125,-7.992598005795478,-5.633533709993958,0.7430065245077013
1633780631738632400,3.820632568359375,-7.989301302337646,-5.637569833642244,0.7478354790341109
1633780631758511400,3.840511474609375,-7.986989518263935,-5.64104598532021,0.7463149914685636
1633780631778391300,3.860391357421875,-7.987050308540463,-5.641435276898742,0.7427099527139216
1633780631798270500,3.8802705078125,-7.988333334088325,-5.639671189835667,0.7423121125027536
1633780631818149400,3.9001494140625,-7.9880130160927765,-5.640025994622707,0.7430592776082455
1633780631838029300,3.920029296875,-7.986442405775189,-5.642642314600944,0.7400780698403716
1633780631857908500,3.939908447265625,-7.982923583999276,-5.648271844920516,0.7350790925092995
1633780631877787400,3.959787353515625,-7.978493492597341,-5.655414702412486,0.7282241851132363
1633780631897667300,3.979667236328125,-7.9763050426423545,-5.659476545023918,0.7206063305206596
1633780631917546500,3.99954638671875,-7.97987471782267,-5.655299551600217,0.7138484537582844
1633780631937426400,4.019426513671875,-7.985150612398981,-5.647917624655365,0.7132844631999731
1633780631957305300,4.039305419921875,-7.986140792480111,-5.646086902096867,0.7166862344674766
1633780631977184300,4.059184326171875,-7.982285870617628,-5.651580238816142,0.7163312104847281
1633780631997064400,4.079064453125,-7.97733847734332,-5.65909952840507,0.7120740644969046
1633780632016943400,4.098943359375,-7.974450354686379,-5.663597424346208,0.7086586300302297
1633780632036822300,4.118822265625,-7.973589353942871,-5.664827842923999,0.7085076772522181
1633780632056702500,4.138702392578125,-7.9724886992245905,-5.666178088489175,0.7100882975071668
1633780632076581400,4.158581298828125,-7.96984198410809,-5.669888633444905,0.7101900773812085
1633780632096460300,4.178460205078125,-7.967829475241899,-5.672927562749385,0.7085023434899747
1633780632116340500,4.198340576171875,-7.968273127356171,-5.672175867599249,0.7095273756887763
1633780632136219400,4.218219482421875,-7.970339412236213,-5.668662891042232,0.714383072091639
1633780632156098300,4.238098388671875,-7.972780960169434,-5.664570653292537,0.7195790332995354
1633780632175978500,4.257978515625,-7.976508456259966,-5.659102451014518,0.7212910979144275
1633780632195857400,4.277857421875,-7.981530083814262,-5.652036165890097,0.7211430677458643
1633780632215736600,4.297736572265625,-7.987416219243407,-5.643797329854965,0.7204943215135484
1633780632235616500,4.317616455078125,-7.9935905239641665,-5.6348290105015035,0.7222147886306047
1633780632255495400,4.337495361328125,-7.999025408494472,-5.626426508337259,0.7275343762181699
1633780632275374300,4.357374267578125,-8.003138689032196,-5.620079185137152,0.7313464818522334
1633780632295254500,4.377254638671875,-8.005552764436603,-5.616322462952136,0.7337778737176209
1633780632315133700,4.3971337890625,-8.006469294759631,-5.614776987075805,0.7356020934700965
1633780632335013600,4.417013671875,-8.005848532512784,-5.615391904103755,0.7376635560445487
1633780632354892500,4.436892578125,-8.005088654056191,-5.616476776731014,0.7376562495209277
1633780632374771700,4.456771728515625,-8.005498988422751,-5.615879979881644,0.7377403476078063
1633780632394651400,4.4766513671875,-8.007326203849912,-5.613185333970189,0.7384182468693703
1633780632414530600,4.496530517578125,-8.008815565624833,-5.610848999977112,0.7400187408685683
1633780632434409700,4.51640966796875,-8.008361976638437,-5.611202051198482,0.742245330876857
1633780632454289400,4.536289306640625,-8.007234433913231,-5.612704856976866,0.7430494868665933
1633780632474168600,4.55616845703125,-8.007034527426958,-5.612983673918247,0.7431001941405236
1633780632494047700,4.5760478515625,-8.007007054898143,-5.613252553987503,0.7413656984981148
1633780632513927400,4.595927490234375,-8.00773887630403,-5.61249209100902,0.7392084473989904
1633780632533806600,4.615806640625,-8.00952926685214,-5.609768219003081,0.7404876735545695
1633780632553685500,4.635685546875,-8.011362912020086,-5.606781312146783,0.7432730664893984
1633780632573565400,4.6555654296875,-8.010642781051994,-5.607475724151731,0.7457884103111923
1633780632593444600,4.675444580078125,-8.009964151138067,-5.608568780085444,0.7448617239203303
1633780632613324500,4.695324462890625,-8.0098829025954,-5.608768102049828,0.7442329975627362
1633780632633203500,4.715203369140625,-8.011067728465795,-5.606880096346139,0.7457037277024239
1633780632653082600,4.73508251953125,-8.012614957907795,-5.6049353920191525,0.7436965525984763
1633780632672962300,4.75496240234375,-8.013167915615439,-5.604554283747077,0.7406059661719948
1633780632692841500,4.774841552734375,-8.012038034802675,-5.606285053062439,0.739730936903134
1633780632712720600,4.794720703125,-8.009799900487065,-5.609425689175724,0.7401550075341016
1633780632732600600,4.8146005859375,-8.010234200251102,-5.609195972073078,0.737195792402327
1633780632752479500,4.8344794921875,-8.014661369043589,-5.603344323435425,0.7335675919678062
1633780632772358400,4.8543583984375,-8.020362211033701,-5.5950943814843885,0.734235042900592
1633780632792238600,4.874238525390625,-8.024794056001305,-5.588474671083689,0.7362224903907626
1633780632812117500,4.894117431640625,-8.027540724360943,-5.584442054566741,0.7368720403406769
1633780632831996400,4.913996337890625,-8.029829127559065,-5.581498402330279,0.7342397190757095
1633780632851876600,4.933876708984375,-8.031978414547442,-5.578626061764359,0.7325535195544361
1633780632871755500,4.953755615234375,-8.032967425584793,-5.5767760499835015,0.7357922822799533
1633780632891635500,4.973635498046875,-8.031669202467798,-5.57808479449451,0.7400259743269533
1633780632911514600,4.9935146484375,-8.029140560773014,-5.581546917647123,0.7413587573006749
1633780632931393500,5.0133935546875,-8.027495131653547,-5.58395748592019,0.7410290138896555
1633780632951273500,5.0332734375,-8.027352508312463,-5.583944041916728,0.742672324117273
1633780632971152600,5.053152587890625,-8.028287743335962,-5.582400319606066,0.7441726456776261
1633780632991031300,5.07303125,-8.029124778681993,-5.581351687335967,0.7430050632029771
1633780633010911500,5.092911376953125,-8.02834736456871,-5.582502026414871,0.7427601485311984
1633780633030790700,5.112790771484375,-8.027110516250133,-5.584431533172726,0.7416223766729235
1633780633050669300,5.13266943359375,-8.02871912049055,-5.5828299431949855,0.7362542737685144
1633780633070549500,5.152549560546875,-8.032943460187315,-5.577202166441083,0.73281684666574
1633780633090428700,5.1724287109375,-8.037332635056972,-5.570785869657993,0.7334966456234455
1633780633110307300,5.192307373046875,-8.039522838577629,-5.56780714610815,0.7321054835259914
1633780633130187500,5.2121875,-8.038895062068104,-5.568991387456655,0.7299918523728847
1633780633150066700,5.232066650390625,-8.039316502350568,-5.568654118326306,0.7279205259915441
1633780633169945600,5.251945556640625,-8.042329128170014,-5.56377920576632,0.731908499649167
1633780633189826000,5.271825927734375,-8.043764129409194,-5.5605450461506845,0.7406601805772632
1633780633209705000,5.291705078125,-8.041022721746563,-5.563543058922886,0.7478808525457978
1633780633229585000,5.3115849609375,-8.036227304163575,-5.570110746875405,0.7505315131850541
1633780633249464000,5.331464111328125,-8.032098241534829,-5.576127815207839,0.7500577581934631
1633780633269343000,5.351343017578125,-8.029315332818031,-5.580006117945909,0.7510065102856606
1633780633289223000,5.371222900390625,-8.026994780915976,-5.58293223452568,0.7540595411807298
1633780633309102000,5.39110205078125,-8.02519328445196,-5.585313576704263,0.7555999755557626
1633780633328981000,5.41098095703125,-8.023876356634497,-5.587467539867759,0.7536603127300738
1633780633348861000,5.43086083984375,-8.024025409716367,-5.587710116451978,0.750262560050562
1633780633368739800,5.45073974609375,-8.026697843796015,-5.5842637753903865,0.747328844686225
1633780633388619000,5.470618896484375,-8.032274182623624,-5.576508923479914,0.7453185277771204
1633780633408499000,5.4904990234375,-8.038811475437878,-5.567069479483366,0.7454096401266753
1633780633428377900,5.5103779296875,-8.043999691730738,-5.5592053219795226,0.7481284706313163
1633780633448257000,5.530257080078125,-8.047364784249663,-5.554201814603805,0.7490957812935114
1633780633468137000,5.550136962890625,-8.050423587298393,-5.549890965667367,0.7481817351885139
1633780633488016000,5.570015869140625,-8.053109465381503,-5.545697605630755,0.7503668241426348
1633780633507895000,5.58989501953125,-8.054043531361222,-5.543697956246137,0.7551056161675602
1633780633527775000,5.60977490234375,-8.053826089218258,-5.543831227236986,0.7564462901867925
1633780633547654000,5.62965380859375,-8.052952228993178,-5.5450499553769825,0.7568146120425313
1633780633567534000,5.6495341796875,-8.049671307626365,-5.549329824653268,0.7603400096897035
1633780633587412700,5.669412841796875,-8.044622792065143,-5.556268099483847,0.7630977839652449
1633780633607292000,5.6892919921875,-8.041284003031253,-5.561362792274355,0.7611687155988067
1633780633627172000,5.709172119140625,-8.041834622651338,-5.561306093651056,0.7557477865286171
1633780633647050800,5.72905078125,-8.04602856720984,-5.555847243723273,0.7512458719994872
1633780633666930000,5.748929931640625,-8.052146757829188,-5.547390965545177,0.7481766206219792
1633780633686810000,5.76881005859375,-8.056837545993924,-5.540994542506337,0.7450714942134916
1633780633706688800,5.788688720703125,-8.058078485965728,-5.539556618657707,0.7423337398126721
1633780633726568000,5.80856787109375,-8.057732449007034,-5.540459120455384,0.7393517283271998
1633780633746448100,5.8284482421875,-8.057412715533376,-5.541071699395776,0.7382451553247869
1633780633766326800,5.848326904296875,-8.057454801109433,-5.5407993121951815,0.7398299402981996
1633780633786206000,5.8682060546875,-8.058001329076289,-5.539647219550609,0.7424993787031621
1633780633806086000,5.8880859375,-8.05910081475079,-5.537578596583009,0.7459882437322288
1633780633825964800,5.90796484375,-8.059554988259077,-5.536696553051471,0.7476279737632722
1633780633845845000,5.927844970703125,-8.060522371986508,-5.535216543626785,0.7481575505953282
1633780633865724000,5.947723876953125,-8.062656461405753,-5.531946728175878,0.7493461758580059
1633780633885603000,5.96760302734375,-8.066510798746346,-5.526390263092518,0.7488665025822818
1633780633905483000,5.98748291015625,-8.0698232842952,-5.521823978090286,0.7468588160216808
1633780633925362000,6.00736181640625,-8.070883607003092,-5.520663117617368,0.7439795342583209
1633780633945241000,6.027240966796875,-8.070244140055776,-5.522285750383138,0.7388507930677384
1633780633965121000,6.04712109375,-8.068601049023867,-5.525206606265902,0.7349567813038825
1633780633985000000,6.067,-8.066814165607095,-5.527923464009166,0.7341383775930851
1633780634004879000,6.086879150390625,-8.066666866090893,-5.528295804452895,0.7329547207664698
1633780634024759000,6.106759033203125,-8.068503433868289,-5.5260594237029546,0.7295939390964805
1633780634044638000,6.126637939453125,-8.070503667774796,-5.5232145556658505,0.7290045218359679
1633780634064517000,6.14651708984375,-8.072575213351845,-5.520148738354444,0.7292959790632129
1633780634084396800,6.166396728515625,-8.075075797995925,-5.516811702886224,0.7268602032836526
1633780634104276000,6.18627587890625,-8.078073226246238,-5.512972563114762,0.7226752457492053
1633780634124156000,6.206156005859375,-8.080708250924944,-5.509457248470187,0.7200109949760138
1633780634144034800,6.226034912109375,-8.08232153134048,-5.507072399160266,0.7201488690767437
1633780634163914000,6.2459140625,-8.081541194617747,-5.507848644229769,0.7229637803670018
1633780634183793700,6.265793701171875,-8.077344327449799,-5.513500386381149,0.7267734017830342
1633780634203672800,6.2856728515625,-8.071943929710983,-5.521199124190211,0.7283242114216089
1633780634223552000,6.305552001953125,-8.067927095285057,-5.5270157015144825,0.7287194943495094
1633780634243431700,6.325431640625,-8.065673178878425,-5.530318250191211,0.7286142804093658
1633780634263310800,6.345310791015625,-8.065566795894503,-5.530788205790519,0.7262282620556653
1633780634283190000,6.36518994140625,-8.067529620400071,-5.528093559879064,0.72493719933182
1633780634303070000,6.385070068359375,-8.069500628212094,-5.525116005373,0.725694447439909
1633780634322948900,6.404948974609375,-8.069898103097081,-5.524664754474163,0.7247116469476371
1633780634342827800,6.424827880859375,-8.069071589145064,-5.526321874031424,0.7212685938216745
1633780634362708000,6.4447080078125,-8.070128404721617,-5.525093209019303,0.7188564181134104
1633780634382587000,6.4645869140625,-8.073861746031046,-5.51980270139575,0.7175802606977522
1633780634402467000,6.484467041015625,-8.077827727052568,-5.514258511272073,0.7155674595706164
1633780634422346000,6.504345947265625,-8.081135536426306,-5.5100359251409765,0.7107262300845235
1633780634442225000,6.524224853515625,-8.084892843133211,-5.504967535835505,0.707263449344784
1633780634462104800,6.544104736328125,-8.087049144384265,-5.501658557417988,0.7083608891926706
1633780634481984000,6.56398388671875,-8.086413184568286,-5.5024920856326816,0.7091467058081179
1633780634501863000,6.58386279296875,-8.084656696289777,-5.50534922862947,0.7069923773184418
1633780634521742800,6.603742919921875,-8.08226249462962,-5.509020610618591,0.7057757680702954
1633780634541622000,6.6236220703125,-8.078340352749825,-5.514626175540685,0.7068984154246747
1633780634561502000,6.643501953125,-8.072052650782465,-5.52390370697379,0.706286128745228
1633780634581380900,6.663380859375,-8.06538617863059,-5.534130501955747,0.702370928062871
1633780634601260000,6.683260009765625,-8.061295694446564,-5.54070929582417,0.6974485961645841
1633780634621140000,6.703139892578125,-8.061129690229892,-5.541388510259986,0.6939707639861852
1633780634641019000,6.723018798828125,-8.06363553557098,-5.5382040350049735,0.6902632877703756
1633780634660898000,6.74289794921875,-8.066251855549217,-5.535018390706181,0.68523333077915
1633780634680777700,6.76277783203125,-8.067613791552185,-5.5337762816905975,0.6792005534209311
1633780634700657000,6.782656982421875,-8.068904415884614,-5.532617174783349,0.673287676115334
1633780634720536000,6.8025361328125,-8.071676218685507,-5.529116473186016,0.6688015436772257
1633780634740415700,6.822415771484375,-8.07545865983367,-5.52407380284369,0.6647972764719278
1633780634760295000,6.842294921875,-8.079721577975153,-5.518182991239428,0.6619241321884095
1633780634780174800,6.8621748046875,-8.082016995435954,-5.514698656255007,0.6629390813846141
1633780634800053800,6.8820537109375,-8.080971870297192,-5.515799310973287,0.6665131404791027
1633780634819933000,6.901932861328125,-8.077354848843813,-5.521056500849127,0.666827247929573
1633780634839813000,6.921813232421875,-8.072518514728547,-5.528211048778891,0.6661163231812417
1633780634859691800,6.94169189453125,-8.066957373470068,-5.536110277596116,0.6678841365713626
1633780634879571000,6.961571044921875,-8.063095437344908,-5.54171701156199,0.6680227413244545
1633780634899451100,6.981451171875,-8.06223735921085,-5.543363025203347,0.6647150050159544
1633780634919329800,7.001329833984375,-8.063367240023613,-5.542120331665873,0.6613608722824603
1633780634939209000,7.021208984375,-8.065134834218025,-5.539882197350264,0.6585485913407058
1633780634959089000,7.0410888671875,-8.06626529955268,-5.5387938175916664,0.6538439207810908
1633780634978967800,7.0609677734375,-8.066665112525223,-5.538928842148184,0.6477362515557556
1633780634998848000,7.080847900390625,-8.067901960843802,-5.537606069111824,0.6436351729124784
1633780635018727000,7.100726806640625,-8.069143485337495,-5.535815678563714,0.6434696801524609
1633780635038605800,7.120605712890625,-8.068560132491589,-5.536574972498417,0.6442516243103891
1633780635058486000,7.140486083984375,-8.066641731649637,-5.539251498231291,0.6452670849632471
1633780635078365000,7.160364990234375,-8.064076849597692,-5.54266685963273,0.647990372447297
1633780635098243800,7.180243896484375,-8.062190012937783,-5.545249277341365,0.6493723283249885
1633780635118124000,7.2001240234375,-8.061157162758708,-5.546521781495213,0.6513274809807539
1633780635138003000,7.2200029296875,-8.061603737482429,-5.545494776535034,0.6545316107843071
1633780635157883000,7.2398828125,-8.063288914090394,-5.542865597075224,0.6560469837833196
1633780635177762000,7.259761962890625,-8.066526580837369,-5.538455963939428,0.6534864856455475
1633780635197641200,7.27964111328125,-8.070279211369156,-5.533288790434598,0.6509240878116339
1633780635217521000,7.29952099609375,-8.073585851699113,-5.528387574389576,0.6515566866267473
1633780635237400000,7.319400146484375,-8.07611157078445,-5.524638450989126,0.6520534571677445
1633780635257279200,7.339279296875,-8.078820829743146,-5.52054855132699,0.653134895728901
1633780635277159000,7.359158935546875,-8.080587254893778,-5.517635294228792,0.6558997573323547
1633780635297038000,7.3790380859375,-8.080712342578172,-5.516944973877072,0.6601487200137227
1633780635316917200,7.398917236328125,-8.08019445618391,-5.517272890657186,0.6637359308507293
1633780635336797000,7.418796875,-8.079564341586828,-5.517554630208015,0.6690360830854624
1633780635356676000,7.438676025390625,-8.078877528366446,-5.517969056227803,0.673901789425686
1633780635376556000,7.45855615234375,-8.078212926977873,-5.518717244246602,0.6757304661575705
1633780635396435000,7.47843505859375,-8.078570069852471,-5.518120447397232,0.6763347887262702
1633780635416314000,7.498314208984375,-8.08051068252623,-5.515041186082363,0.6782709444206207
1633780635436194300,7.5181943359375,-8.082754662060736,-5.511325380429625,0.6817323369208723
1633780635456073000,7.538072998046875,-8.084283186802267,-5.509247989633679,0.6803991155557334
1633780635475952000,7.5579521484375,-8.085442878231406,-5.508510907530784,0.6725349580518901
1633780635495832000,7.57783203125,-8.087434928831458,-5.506795920306444,0.6625570232644676
1633780635515711000,7.5977109375,-8.09020906971991,-5.5033542554199695,0.6572631546400487
1633780635535591200,7.617591064453125,-8.090214914938807,-5.502966717407107,0.6604241759542375
1633780635555470000,7.637469970703125,-8.08446731119752,-5.510677145653963,0.6664944357786328
1633780635575349000,7.657348876953125,-8.075534647679328,-5.52360618533194,0.6677575145170093
1633780635595229200,7.677229248046875,-8.067147343084216,-5.536029613575339,0.6662558047171682
1633780635615108000,7.697108154296875,-8.06096719314456,-5.544301767358183,0.6722428432375193
1633780635634987000,7.716987060546875,-8.056264714542031,-5.549773476767539,0.6833644681673496
1633780635654867200,7.7368671875,-8.052927679073811,-5.5538838346958155,0.6892866247579454
1633780635674746000,7.75674609375,-8.054723914840817,-5.551285634896159,0.6892287570908665
1633780635694626000,7.7766259765625,-8.063814399269223,-5.537900083622336,0.6906122473385184
1633780635714505000,7.7965048828125,-8.076476312443614,-5.518745885819197,0.6959609879553318
1633780635734384000,7.816384033203125,-8.08759567235112,-5.502209177038073,0.6977618998974561
1633780635754264000,7.83626416015625,-8.095903481969238,-5.490363256421685,0.69472172848396
1633780635774143000,7.85614306640625,-8.101132614794373,-5.483142072996497,0.6907870193835347
1633780635794022100,7.876022216796875,-8.106065979543327,-5.476508334070444,0.685516093243286
1633780635813902000,7.895902099609375,-8.112499227461218,-5.467682638058066,0.679846523174271
1633780635833781000,7.915781005859375,-8.116873204761744,-5.461052990785241,0.6809234316907823
1633780635853660200,7.93566015625,-8.115508346149324,-5.462479808717966,0.6857280554935336
1633780635873540000,7.9555400390625,-8.10885707156658,-5.472181118521094,0.6870618613805621
1633780635893419000,7.9754189453125,-8.100406054085493,-5.48492544928193,0.685131770100817
1633780635913299200,7.99529931640625,-8.092828312307596,-5.496048316320777,0.6855399855755269
1633780635933177900,8.015177734375,-8.08703803846836,-5.504269616699219,0.6879076645549387
1633780635953057000,8.03505712890625,-8.082439604762197,-5.510747288280725,0.6900861776378006
1633780635972937200,8.054937255859375,-8.077092398515344,-5.51849571045041,0.6907710180968045
1633780635992815900,8.07481591796875,-8.06995304815471,-5.529100106573105,0.6894159502260386
1633780636012695000,8.094695068359375,-8.064872383889556,-5.537101626721024,0.6846329537332058
1633780636032575200,8.1145751953125,-8.065236541026831,-5.537425451847911,0.6776937290545553
1633780636052454000,8.134453857421875,-8.071398570787906,-5.529111212489009,0.672184171852842
1633780636072334000,8.154333984375,-8.079758987376094,-5.517085843652486,0.6705502870406955
1633780636092213200,8.174213134765624,-8.088643720099329,-5.50428539879024,0.6686278676107525
1633780636112092000,8.194091796875,-8.095866657090186,-5.493720165634155,0.6681108579993248
1633780636131972000,8.21397216796875,-8.099753143134713,-5.487224958395958,0.6743533325854688
1633780636151851300,8.233851318359376,-8.100376827991008,-5.485333445560932,0.6822059457819909
1633780636171730000,8.25372998046875,-8.101472222012282,-5.4833793888837095,0.6848910201475024
1633780636191609600,8.273609619140625,-8.104163360792398,-5.47918310623765,0.686634502813965
1633780636211488500,8.293488525390625,-8.105527050361037,-5.476416564133763,0.6925859585642814
1633780636231367700,8.31336767578125,-8.103195392543077,-5.479180768150091,0.6979879637382924
1633780636251247600,8.33324755859375,-8.098421602270006,-5.486153529772162,0.6986166900958866
1633780636271126500,8.35312646484375,-8.09341867941618,-5.493978524309396,0.69510159464702
1633780636291006500,8.37300634765625,-8.089176219540834,-5.500497112423181,0.6929197936285286
1633780636310885600,8.3928857421875,-8.08703920751214,-5.503523766767978,0.6938331090811639
1633780636330764500,8.4127646484375,-8.087820713278651,-5.5021127309262745,0.6959175141397863
1633780636350644500,8.43264453125,-8.090555691200494,-5.498214554443955,0.6949315718423574
1633780636370523400,8.4525234375,-8.091966142520308,-5.496175742092729,0.6946338310047984
1633780636390403600,8.472403564453124,-8.092373554277419,-5.495492436003684,0.6953005512852222
1633780636410282500,8.492282470703126,-8.094016060787439,-5.492954441958665,0.6962347633954137
1633780636430161400,8.512161376953125,-8.0971467600286,-5.488280020406842,0.6966951474487781
1633780636450041600,8.53204150390625,-8.09903184312284,-5.485482498642802,0.6968108097176998
1633780636469920500,8.55192041015625,-8.099222397258877,-5.4852615493685,0.6963387352265418
1633780636489799400,8.57179931640625,-8.097682182079554,-5.487728816264868,0.6948092606369406
1633780636509679600,8.5916796875,-8.094789383247495,-5.492151893404126,0.6935670785561203
1633780636529558800,8.611558837890625,-8.091473390567302,-5.497412005889416,0.6905858707882464
1633780636549438500,8.6314384765625,-8.089683584541081,-5.500714554566144,0.685233988366276
1633780636569317600,8.651317626953125,-8.088480638492108,-5.502632370886206,0.6840384219061583
1633780636589196800,8.67119677734375,-8.088329831844568,-5.5027188801258795,0.6851200065977872
1633780636609076500,8.691076416015624,-8.08955732781291,-5.500930243143439,0.6849852743022143
1633780636628955600,8.71095556640625,-8.089721578463912,-5.5004673018068075,0.6867701118923724
1633780636648834600,8.73083447265625,-8.08816032049656,-5.502490916588902,0.6889456293005496
1633780636668714500,8.750714599609376,-8.087519684505462,-5.503605599832534,0.687558120464906
1633780636688593700,8.77059375,-8.086994783848523,-5.5041819384157655,0.6891176979318261
1633780636708472600,8.79047265625,-8.086177622246742,-5.504969873923063,0.6924001536685973
1633780636728352500,8.8103525390625,-8.086108648663759,-5.505176210150123,0.6915691096719354
1633780636748231700,8.830231689453125,-8.087814283537865,-5.502991267326474,0.6890075155556201
1633780636768111400,8.850111328125,-8.090579072076082,-5.499109457457065,0.6875384659163654
1633780636787990500,8.869990478515625,-8.094192001876234,-5.49395338986814,0.6862348359718918
1633780636807869700,8.88986962890625,-8.097524945691227,-5.489430359485745,0.6831030407521873
1633780636827749400,8.909749267578125,-8.099599413877725,-5.486976536592841,0.6782100810788572
1633780636847628500,8.929628662109375,-8.099992212587594,-5.486574970054626,0.6767628048799932
1633780636867508700,8.9495087890625,-8.098448490276931,-5.488548900476098,0.6792261262536049
1633780636887387400,8.969387451171874,-8.09479756655395,-5.493460637915134,0.6830262491889297
1633780636907266600,8.9892666015625,-8.089028920024633,-5.5017281155228615,0.6848246038477868
1633780636927146800,9.009146728515624,-8.083829597815871,-5.5094373747259375,0.6842396435666829
1633780636947025700,9.029025634765626,-8.082742971622944,-5.511038964703679,0.6841819220300763
1633780636966904600,9.048904541015625,-8.085489639982582,-5.506925684165954,0.6848467426143586
1633780636986784500,9.068784423828125,-8.088927797737718,-5.501977121847868,0.6840204478580504
1633780637006663700,9.08866357421875,-8.092927096506953,-5.496726946234703,0.6789036163009703
1633780637026542600,9.10854248046875,-8.096675635385512,-5.49177136965394,0.6742987528540194
1633780637046422500,9.128422607421875,-8.100947905877232,-5.4858904949218035,0.6708420365288853
1633780637066301700,9.1483017578125,-8.104040611195563,-5.481524116405844,0.6691817021012306
1633780637086181600,9.168181640625,-8.104826793137192,-5.480225893288851,0.6702930974092334
1633780637106060500,9.188060546875,-8.103195392543077,-5.482432463422417,0.6719654876008629
1633780637125939700,9.207939697265624,-8.100924525001645,-5.485640319553017,0.6731690181717276
1633780637145819600,9.227819580078124,-8.099506474897264,-5.487893066915869,0.6718689684238285
1633780637165698600,9.247698486328124,-8.099285525622964,-5.488719580867886,0.6677693510852754
1633780637185578800,9.267578857421874,-8.099413535916804,-5.488852267336845,0.6651148179884999
1633780637205457700,9.287457763671876,-8.099713395646214,-5.4885798801362515,0.6637183221288026
1633780637225336800,9.3073369140625,-8.09955323664844,-5.488941699185967,0.6626770694475621
1633780637245216800,9.327216796875,-8.098609818318486,-5.490554395079612,0.6608406478006392
1633780637265095700,9.347095703125,-8.098556626826523,-5.4910033078908915,0.6577607288986445
1633780637284974800,9.366974853515625,-8.10027804379165,-5.488654698938131,0.6561600157037377
1633780637304854800,9.386854736328125,-8.101617183440924,-5.4862102283954615,0.6600561463594437
1633780637324733700,9.406733642578125,-8.102112858003377,-5.485217125704884,0.662228229701519
1633780637344614000,9.42661376953125,-8.10322754124701,-5.483952804857492,0.6590559563409537
1633780637364492800,9.446492919921875,-8.105282720211148,-5.481279786255955,0.6560111818175762
1633780637384371700,9.466371826171875,-8.105995836916565,-5.480167441099882,0.6564975770950316
1633780637404252000,9.486251953125,-8.104263898557424,-5.482697836360335,0.6567536707479507
1633780637424130600,9.506130615234374,-8.102233269512652,-5.486453974023461,0.6504048862431198
1633780637444009700,9.526009765625,-8.101403832951188,-5.488632487106323,0.6423030475258826
1633780637463890000,9.545889892578124,-8.101329598671198,-5.48916031037271,0.638723435473442
1633780637483768600,9.5657685546875,-8.099977015018462,-5.491149438363314,0.638774727269262
1633780637503648800,9.585648681640626,-8.097152605247498,-5.495479576522111,0.6373490783803165
1633780637523528000,9.60552783203125,-8.09358526815474,-5.501278618189692,0.6326089711811393
1633780637543406800,9.62540673828125,-8.091130276218056,-5.505702279850841,0.6254919787827878
1633780637563286800,9.645286865234375,-8.093489406564832,-5.503097650310397,0.6178404411163181
1633780637583166000,9.665166015625,-8.099514073681831,-5.494523298710584,0.6151970870006829
1633780637603045600,9.685045654296875,-8.101761560347676,-5.490760146784782,0.6191869603544473
1633780637622924800,9.7049248046875,-8.096666867557168,-5.498045043095946,0.6211929664146155
1633780637642803700,9.7248037109375,-8.089598244345188,-5.50896566556096,0.6165073658816516
1633780637662683600,9.74468359375,-8.08565915133059,-5.515425801485777,0.6103869833052158
1633780637682562800,9.764562744140624,-8.087736542126535,-5.513129214981198,0.6035811392152681
1633780637702441700,9.784441650390624,-8.093669439306854,-5.504969873923063,0.5985028861029074
1633780637722321700,9.80432177734375,-8.098202406561374,-5.498432581108808,0.5972792625920846
1633780637742200800,9.824200927734376,-8.09860280405581,-5.49781474147141,0.5975351005166769
1633780637762080800,9.844080810546876,-8.09722157883048,-5.500108405366539,0.5951438945312053
1633780637781959700,9.863959716796876,-8.096415523144602,-5.501238870701194,0.5956641555456444
1633780637801838800,9.8838388671875,-8.096498525252938,-5.500432230493426,0.6019572643404826
1633780637821718800,9.90371875,-8.096964973720908,-5.49910068962872,0.6078052231837063
1633780637841597700,9.92359765625,-8.098487653243541,-5.496699473705887,0.6092383612593636
1633780637861476600,9.9434765625,-8.101722397381067,-5.4920232985883946,0.6084066962081939
1633780637881356800,9.963356689453125,-8.1078359118253,-5.48308069819808,0.6076205142665654
1633780637901235700,9.983235595703125,-8.114916809996963,-5.472358813175559,0.609754567153193
1633780637921116000,10.003115966796875,-8.119669557482004,-5.464857059243321,0.6137518566284328
1633780637940994800,10.022994873046875,-8.121240167799591,-5.462231971436738,0.6163336898151784
1633780637960873700,10.042873779296874,-8.121362917396425,-5.461979457980394,0.616955255779624
1633780637980753700,10.062753662109374,-8.121810076642037,-5.4614522192358965,0.6157340434215962
1633780638000632800,10.0826328125,-8.123346784690021,-5.459433280628919,0.6133550393305719
1633780638020512800,10.1025126953125,-8.12489752126336,-5.4573582279205315,0.6112782330565154
1633780638040391700,10.1223916015625,-8.125206148821116,-5.456978873214125,0.610566577655822
1633780638060270800,10.142270751953125,-8.124161608204245,-5.45859215362966,0.6100444169452414
1633780638080150800,10.16215087890625,-8.123138694897294,-5.460444503498077,0.6070830098563805
1633780638100029700,10.18202978515625,-8.124668388682604,-5.458478171861171,0.6042878627125173
1633780638119908900,10.201908935546875,-8.127790904617308,-5.45355649755001,0.6067375574195757
1633780638139788800,10.221788818359375,-8.129287865176796,-5.4509840167135,0.609788542488031
1633780638159667700,10.241667724609375,-8.129085620602964,-5.4512037969440215,0.6105159069145097
1633780638179547400,10.26154736328125,-8.130595440644026,-5.449031129080057,0.6098001598605886
1633780638199426000,10.281426025390624,-8.134128290945291,-5.4433682810127735,0.613257351109758
1633780638219305200,10.30130517578125,-8.13745012884438,-5.437678544938564,0.619631489251554
1633780638239185400,10.321185302734374,-8.140447557094692,-5.432694911307096,0.6239638924326747
1633780638259064300,10.341064208984376,-8.141511386933923,-5.430747284370661,0.627027006330341
1633780638278943200,10.360943115234376,-8.139100234138965,-5.434167321947217,0.6286943550206721
1633780638298823400,10.380823486328126,-8.134096142241358,-5.441981795090436,0.6258548207458108
1633780638318702300,10.400702392578125,-8.130271615517138,-5.448436670318245,0.6193585905943065
1633780638338582300,10.420582275390625,-8.12890851047039,-5.451109104397893,0.6137135704446584
1633780638358461400,10.44046142578125,-8.12803055859208,-5.452630030354857,0.6118296198615804
1633780638378340400,10.46034033203125,-8.126630044144392,-5.455042936715484,0.6089159974372014
1633780638398220300,10.48022021484375,-8.126303880929946,-5.456198536491394,0.602884133394435
1633780638418099200,10.50009912109375,-8.127708487030864,-5.4545197896242135,0.5991326719064265
1633780638437979100,10.519979248046875,-8.130467430350183,-5.450238751304149,0.600650456058234
1633780638457858300,10.5398583984375,-8.132947556728125,-5.446410132926702,0.6018016353873535
1633780638477737200,10.5597373046875,-8.134404185277223,-5.444429772764444,0.6000307532573118
1633780638497617200,10.5796171875,-8.134495955213904,-5.444485886865854,0.5982798910019919
1633780638517496300,10.599496337890624,-8.133185457137227,-5.446514762344956,0.5976258840726688
1633780638537376300,10.619376220703124,-8.131663362136482,-5.448662295767664,0.5987608794519678
1633780638557255200,10.639255126953126,-8.131460533040762,-5.448886752173304,0.5994734847007319
1633780638577134300,10.65913427734375,-8.131794295039773,-5.448213382956386,0.6010575390217825
1633780638597014300,10.67901416015625,-8.130963104912638,-5.449105363360047,0.6042127151170745
1633780638616893200,10.69889306640625,-8.128761210954188,-5.4520402477681635,0.6073518533930182
1633780638636772000,10.718772216796875,-8.128305283880234,-5.452780837002396,0.6068114994386211
1633780638656652300,10.73865234375,-8.130666167792677,-5.44973489343524,0.6025341143803671
1633780638676531200,10.75853125,-8.132547159233688,-5.446994070294499,0.6019313627142459
1633780638696411400,10.778411376953125,-8.132609118553995,-5.446678428474068,0.6039465384615584
1633780638716290300,10.798290283203125,-8.133353799441457,-5.445939592805504,0.6005758929846808
1633780638736169200,10.818169189453124,-8.137402782571316,-5.440851329755783,0.59177686578352
1633780638756049200,10.838049072265624,-8.142325625926256,-5.434145694637298,0.5856435506602748
1633780638775928300,10.85792822265625,-8.1464377374202,-5.428152007180452,0.5840441161070019
1633780638795807500,10.877807373046876,-8.151110405406355,-5.42125640244782,0.5828936308976262
1633780638815687200,10.897687255859376,-8.156209189850092,-5.413806670963764,0.5808060109686106
1633780638835566300,10.91756640625,-8.158793945646286,-5.409965193104743,0.5802930930104107
1633780638855446300,10.9374462890625,-8.158948843947053,-5.409605712142587,0.5814686030631885
1633780638875325200,10.9573251953125,-8.15762782447636,-5.411289719706773,0.5843288513325154
1633780638895204400,10.977204345703125,-8.156472224700451,-5.41262126057148,0.5881105618283152
1633780638915084300,10.997084228515625,-8.154949545177816,-5.414627924218774,0.5907488013774156
1633780638934963200,11.016963134765625,-8.152187094727157,-5.418545974445343,0.5929461287586019
1633780638954843400,11.036843505859375,-8.148921370929479,-5.422986587241292,0.5972243540670722
1633780638974722300,11.056722412109375,-8.145859645271301,-5.426878333982825,0.6036147126913071
1633780638994601200,11.076601318359375,-8.14595550686121,-5.426712914288044,0.60380150396768
1633780639014481400,11.0964814453125,-8.150189783430099,-5.420737931531668,0.6003258272137493
1633780639034360000,11.116360107421874,-8.15639974398613,-5.411458646532893,0.5997056129561736
1633780639054239200,11.1362392578125,-8.162008816039561,-5.4029293031185865,0.6002933131836354
1633780639074119400,11.156119384765624,-8.166509050068258,-5.396314853414893,0.598586655396223
1633780639093998000,11.175998046875,-8.17099993174672,-5.39023991741538,0.591997961188294
1633780639113878300,11.195878173828126,-8.177505660378932,-5.381392594093084,0.5825815692737698
1633780639133757400,11.21575732421875,-8.184949546644091,-5.370869446513057,0.5751110872626304
1633780639153636000,11.235635986328125,-8.191149570327998,-5.361993481618166,0.5696294044485315
1633780639173516300,11.255516357421875,-8.195335331580042,-5.356462735497951,0.5613980210674926
1633780639193396700,11.275396728515625,-8.198271385031939,-5.352983076688647,0.5516366881728172
1633780639213277000,11.29527685546875,-8.2012886870265,-5.34891305077076,0.5462331120962277
1633780639233155800,11.31515576171875,-8.204562009608745,-5.343881486344337,0.5463291928818449
1633780639253034800,11.33503466796875,-8.20626939804852,-5.340847233214974,0.5503407300781459
1633780639272915000,11.3549150390625,-8.206848074719309,-5.3396197372466325,0.5536129566818475
1633780639292793900,11.3747939453125,-8.206378119120002,-5.339887448272108,0.5579818559484556
1633780639312673800,11.394673828125,-8.203781088364124,-5.3430274998635054,0.5660622500188648
1633780639332552700,11.414552734375,-8.200211413183808,-5.34756923494637,0.5748205798834563
1633780639352431900,11.434431884765624,-8.19781721152365,-5.3507367590665815,0.5794789636159315
1633780639372311800,11.454311767578124,-8.197717842802405,-5.350877628841996,0.5795845794148743
1633780639392190700,11.474190673828126,-8.199882327359914,-5.347705428546667,0.578240836655721
1633780639412070000,11.49406982421875,-8.206181135243177,-5.3382431881964205,0.5763103435171768
1633780639431949800,11.51394970703125,-8.215491399902104,-5.324119385775924,0.5743140916660427
1633780639451828700,11.533828857421875,-8.22353851275742,-5.311794741731882,0.5732683820053934
1633780639471708700,11.553708740234375,-8.229946626234055,-5.302278725367784,0.5693832476677373
1633780639491587800,11.573587890625,-8.234632738223672,-5.295276737651228,0.5667925005221739
1633780639511466800,11.593466796875,-8.23773304232657,-5.290524574688076,0.566119825424999
1633780639531346700,11.6133466796875,-8.238955862119793,-5.288489853990078,0.5673321968894451
1633780639551225600,11.6332255859375,-8.236534772452712,-5.291821628761292,0.5714068989824503
1633780639571105800,11.653105712890625,-8.230863156557083,-5.300453263506293,0.5731293388608842
1633780639590984700,11.672984619140625,-8.224127710822223,-5.3107805962532755,0.5742137365641072
1633780639610863600,11.692863525390624,-8.217835332679748,-5.320362663590908,0.5755954001808539
1633780639630743800,11.712743896484374,-8.213118825551867,-5.327524225783348,0.5766753043720498
1633780639650622700,11.732622802734374,-8.210366311973333,-5.331986465889215,0.5746247650504112
1633780639670502700,11.752502685546874,-8.208778165999055,-5.335042930850387,0.5689141323186457
1633780639690381800,11.7723818359375,-8.208118825307489,-5.3370384885817765,0.5596302442099899
1633780639710261000,11.792260986328126,-8.209912722986935,-5.3355397744566195,0.5474755499053746
1633780639730140700,11.812140625,-8.214014897608756,-5.3303632486015555,0.5362651507135481
1633780639750019800,11.832019775390625,-8.21919434607327,-5.3232244827628135,0.5277406296048313
1633780639769899000,11.85189892578125,-8.224882913103698,-5.315175616341829,0.5201899584969505
1633780639789778700,11.87177880859375,-8.230667926245927,-5.3068239675819875,0.5139203767081723
1633780639809657900,11.891657958984375,-8.235153547227382,-5.300276153373718,0.5096119754571468
1633780639829537800,11.911537841796875,-8.238561894366145,-5.295438065692782,0.5047963918689639
1633780639849416700,11.931416748046875,-8.240307861250638,-5.29284863372147,0.5034507128810509
1633780639869295900,11.9512958984375,-8.239100239026547,-5.294455484396219,0.5063107054220513
1633780639889175800,11.97117578125,-8.23400145458281,-5.302109214019775,0.5091648162115365
1633780639909054700,11.9910546875,-8.22624017293155,-5.314163808950782,0.5089440861329436
1633780639928935000,12.010934814453124,-8.218343866723776,-5.326535799267888,0.5071707197848707
1633780639948813600,12.0308134765625,-8.21370685457289,-5.333734186339378,0.5066396451154723
1633780639968692700,12.050692626953126,-8.210697151362895,-5.338275336900353,0.5075973476991057
1633780639988573000,12.070572998046876,-8.206900681689381,-5.344272531488538,0.5058775381691754
1633780640008451600,12.09045166015625,-8.202470590287447,-5.351600682419538,0.5002292300838976
1633780640028331800,12.110331787109375,-8.20246649863422,-5.352125583076477,0.4946525259301066
1633780640048211000,12.1302109375,-8.205603627616167,-5.347355299934745,0.4942121252188459
1633780640068089600,12.150089599609375,-8.20889623942077,-5.342146040853858,0.4958634360898286
1633780640087969800,12.1699697265625,-8.21100344083309,-5.339182514873147,0.49289019243270155
1633780640107849000,12.189848876953125,-8.211933999681472,-5.338108748161792,0.4889937329834327
1633780640127728600,12.209728759765625,-8.212471759819984,-5.337537085753679,0.4862008508618921
1633780640147607800,12.22960791015625,-8.212296987774968,-5.337900073847174,0.48516189973559226
1633780640167486700,12.24948681640625,-8.21040839754939,-5.340785858416557,0.485378063236922
1633780640187365400,12.269365478515626,-8.206345970416068,-5.347008093932271,0.485563137480244
1633780640207244000,12.289244140625,-8.202118708109856,-5.353638325726986,0.4839345133651048
1633780640227123200,12.309123291015625,-8.199384899231791,-5.358225653517246,0.4794651493987068
1633780640247003400,12.32900341796875,-8.199286115032434,-5.358672228240967,0.4761611759498715
1633780640266882300,12.34888232421875,-8.199975266340374,-5.357365237295627,0.47898058075215666
1633780640286762200,12.36876220703125,-8.201260045453905,-5.355077418619394,0.48256461325138805
1633780640306641400,12.388641357421875,-8.205103861400485,-5.3493029268711805,0.4812642347099259
1633780640326520300,12.408520263671875,-8.211623034036158,-5.339520368525386,0.4787014350172132
1633780640346400300,12.428400146484375,-8.220525886937976,-5.325805731427669,0.4786746200755238
1633780640366279400,12.448279541015625,-8.229868884822725,-5.311087470245361,0.4816483021240681
1633780640386159000,12.4681591796875,-8.23674169320166,-5.300108395591378,0.4850938029354438
1633780640406038300,12.488038330078124,-8.239417634412646,-5.29553451180458,0.48958417315725233
1633780640425917400,12.50791748046875,-8.239221819579601,-5.295463200134039,0.49363001448195426
1633780640445797000,12.527797119140626,-8.23786280618608,-5.297164743354916,0.49804096279200166
1633780640465676300,12.54767626953125,-8.235012092930077,-5.30088814779222,0.5055174361525103
1633780640485556500,12.567556396484376,-8.230976553803682,-5.3065451506406065,0.511853689969331
1633780640505435100,12.58743505859375,-8.227928272148967,-5.311038370406627,0.5142580111647025
1633780640525314300,12.607314208984375,-8.225830423086881,-5.314030537959933,0.5168912457451224
1633780640545194500,12.627194580078125,-8.225658573651314,-5.313987867861986,0.5200532169073819
1633780640565073200,12.6470732421875,-8.227802599942684,-5.310488335308432,0.5218875927276909
1633780640584953300,12.666953369140625,-8.230387940260767,-5.306346997720003,0.5232380574885755
1633780640604832300,12.686832275390625,-8.231412022611499,-5.304448470622301,0.526365322663635
1633780640624711200,12.706711181640625,-8.23273304208219,-5.302037317827343,0.5299884085316211
1633780640644591400,12.72659130859375,-8.234743797382713,-5.298376457232236,0.5353410946711897
1633780640664470300,12.74647021484375,-8.236583872291446,-5.294987983837723,0.5405306626709178
1633780640684350200,12.76635009765625,-8.237254903420805,-5.293348399937153,0.546337522318773
1633780640704229400,12.7862294921875,-8.235994089704752,-5.2944794497936964,0.5543244294194505
1633780640724108300,12.8061083984375,-8.233846556282042,-5.2970671281993384,0.5614559252671897
1633780640743988200,12.82598828125,-8.232557100993395,-5.2987084656655785,0.5648629206990823
1633780640763867400,12.845867431640626,-8.231342464506625,-5.300171523955464,0.5688334317652508
1633780640783747000,12.8657470703125,-8.228619761544465,-5.303693268340826,0.575360093587637
1633780640803626200,12.885626220703125,-8.223723806196451,-5.310771243903041,0.5800509913502261
1633780640823505200,12.905505126953125,-8.220912840428948,-5.315398903703689,0.5775108418807388
1633780640843385300,12.92538525390625,-8.222187682670354,-5.313920063322782,0.5729429859759285
1633780640863264300,12.94526416015625,-8.225763203069567,-5.308268905693292,0.5740077656632289
1633780640883144400,12.96514453125,-8.230342932075262,-5.301069934099912,0.5748901379883289
1633780640903023400,12.9850234375,-8.235314875268935,-5.293514988675713,0.5733048415582627
1633780640922902300,13.00490234375,-8.239944288635254,-5.2865357973128555,0.5711789719780906
1633780640942782200,13.0247822265625,-8.243963461148738,-5.280432804262638,0.5696354323305189
1633780640962661400,13.044661376953124,-8.247637765747308,-5.274547837877273,0.5709631372703239
1633780640982540300,13.064540283203126,-8.249209545108675,-5.2717602529853576,0.5739907049305737
1633780641002420200,13.084420166015626,-8.247760515344142,-5.273653519386053,0.577417026117444
1633780641022299400,13.10429931640625,-8.243900917306542,-5.27914159540832,0.5823654788376763
1633780641042179300,13.124179443359376,-8.239511742436886,-5.285544448187947,0.5863847609490156
1633780641062058200,13.144058349609375,-8.236105733385681,-5.290658430200815,0.5881172107648104
1633780641081937400,13.1639375,-8.23361216300428,-5.294149779447912,0.5916014361513778
1633780641101817300,13.1838173828125,-8.230106785231829,-5.298949288684129,0.5973853898476809
1633780641121696300,13.2036962890625,-8.225373911491037,-5.306204374378919,0.5981702931476757
1633780641141576200,13.223576171875,-8.220911671385169,-5.313528433656693,0.5944893761452287
1633780641161455400,13.243455322265625,-8.218933649310468,-5.316679591163992,0.5936595377249643
1633780641181335300,13.263335205078125,-8.218788687881826,-5.316648611503839,0.5959379309857263
1633780641201215200,13.28321533203125,-8.218159157806635,-5.317602551227807,0.5961122281067073
1633780641221094400,13.303094482421875,-8.218323992979526,-5.317722962737083,0.5927589721560478
1633780641240974300,13.322974365234375,-8.22008866456449,-5.314881601831317,0.5937663225676864
1633780641260853200,13.342853271484374,-8.221686162889004,-5.311705309882759,0.6000404709337279
1633780641280732400,13.362732421875,-8.22191587999165,-5.310947184991837,0.6035901262393221
1633780641300612000,13.382612060546874,-8.221140803965925,-5.312024458834529,0.604670724550262
1633780641320491300,13.4024912109375,-8.21958480669558,-5.314233951577544,0.6064105904875323
1633780641340371500,13.422371337890626,-8.217326798635721,-5.317503182506561,0.6083434582462534
1633780641360250000,13.44225,-8.214632152724265,-5.321660302186012,0.6083886490948498
1633780641380129300,13.46212939453125,-8.212175407221913,-5.325667199739813,0.6064840941151604
1633780641400009500,13.482009521484375,-8.210042486846447,-5.329243889182806,0.6039453694177791
1633780641419888400,13.501888427734375,-8.209049384155868,-5.330984010848403,0.602081804035604
1633780641439768300,13.521768310546875,-8.209556749156118,-5.330418778181076,0.6001668737923727
1633780641459647500,13.5416474609375,-8.211074167981744,-5.328216884222626,0.598958886242099
1633780641479526400,13.5615263671875,-8.212619643858075,-5.325681812787056,0.6003149404935538
1633780641499406300,13.58140625,-8.214325278732181,-5.322777908039093,0.6027244493206962
1633780641519285200,13.60128515625,-8.216628879499435,-5.318983776453137,0.6048164896965027
1633780641539165200,13.621165283203124,-8.219589482870697,-5.314337411952018,0.6054388959111645
1633780641559044400,13.64104443359375,-8.221894837203621,-5.310446834254265,0.6082634883452207
1633780641578923300,13.66092333984375,-8.22188080867827,-5.309844776707887,0.6136824446540325
1633780641598803200,13.68080322265625,-8.219124787968397,-5.3136470916002985,0.6176764096610248
1633780641618682400,13.700682373046876,-8.215190371128916,-5.319605707743763,0.6187254072573035
1633780641638562300,13.720562255859376,-8.211891914105415,-5.324614475816488,0.61942909854725
1633780641658441200,13.740441162109375,-8.210159975746274,-5.32718578760922,0.6202828658323735
1633780641678320400,13.7603203125,-8.209434584081173,-5.328208116394281,0.6210963011071086
1633780641698200300,13.780200439453125,-8.209652610746026,-5.328113423848152,0.6190238787472248
1633780641718079200,13.800079345703125,-8.210527640014886,-5.327294508680701,0.614454451939836
1633780641737959400,13.81995947265625,-8.211946859163046,-5.325515224048495,0.6109063675368205
1633780641757838300,13.83983837890625,-8.212374729186296,-5.324836594134569,0.6110703259268775
1633780641777717200,13.85971728515625,-8.212202879750729,-5.324961097297072,0.6122901865780354
1633780641797597400,13.879597412109375,-8.210498413920401,-5.327530071002244,0.612798866752535
1633780641817476400,13.899476318359374,-8.205984151366353,-5.334451394698023,0.6130543758835643
1633780641837356300,13.919356201171874,-8.2003931994915,-5.342725886568426,0.6157992176122963
1633780641857235500,13.9392353515625,-8.19677617803812,-5.3479760621815915,0.6183798817552626
1633780641877114400,13.9591142578125,-8.194478422489762,-5.351123128035664,0.6216044698249549
1633780641896994300,13.978994384765626,-8.191398576653004,-5.355079756706953,0.6280960968665779
1633780641916873200,13.998873291015625,-8.188678796300291,-5.358696193638444,0.6326950420293956
1633780641936753200,14.018753173828125,-8.183734325635433,-5.365358574137091,0.6401644280619919
1633780641956632300,14.03863232421875,-8.178489410719274,-5.372296264445781,0.6489418279532343
1633780641976511200,14.05851123046875,-8.175592520233987,-5.376453968647122,0.6510098663989454
1633780641996391400,14.078391357421875,-8.17635239869058,-5.37541410420537,0.6500543192397803
1633780642016270300,14.098270263671875,-8.180484383928775,-5.3691556283324955,0.649785658366233
1633780642036150300,14.118150390625,-8.186887821230291,-5.359678190413117,0.6473775743111968
1633780642056029400,14.138029541015625,-8.192976201233268,-5.350972905910015,0.6423488594289869
1633780642075908400,14.157908447265624,-8.198603977987169,-5.342555790698528,0.6406063266105949
1633780642095788300,14.177788330078124,-8.204158104982971,-5.333763996955752,0.6427540061637759
1633780642115667500,14.19766748046875,-8.208174939408899,-5.32729626224637,0.6451107253577559
1633780642135547400,14.21754736328125,-8.210127242520452,-5.324005988529324,0.6474217057138681
1633780642155426300,14.23742626953125,-8.208660092577338,-5.325103136116266,0.6569339957509189
1633780642175305500,14.257305419921876,-8.204942533358931,-5.329609799885749,0.6667552786719053
1633780642195185000,14.277184814453125,-8.198114148643612,-5.339845362696051,0.6688495475374162
1633780642215063800,14.297063720703125,-8.184778866252303,-5.359682866588234,0.673482760296017
1633780642234943700,14.31694384765625,-8.1689891764462,-5.383696779382229,0.6736556326448917
1633780642254823000,14.336822998046875,-8.154623381963372,-5.405158085083961,0.6758467129483818
1633780642274701800,14.356701904296875,-8.143927215903997,-5.420216538006067,0.6841663591347634
1633780642294582000,14.37658203125,-8.13746824902296,-5.429222851282358,0.6895857538349927
1633780642314461000,14.3964609375,-8.133945335593818,-5.434512774384022,0.6894830971781164
1633780642334340900,14.4163408203125,-8.131547626802325,-5.438350160589814,0.6875071209300309
1633780642354220000,14.436219970703124,-8.13008223042488,-5.441126055043935,0.6828573954280466
1633780642374099000,14.456098876953124,-8.130804699480533,-5.440552054548263,0.6788213448449969
1633780642393979000,14.475978759765624,-8.133612742638588,-5.4369005463033915,0.6744171916019172
1633780642413858000,14.495858154296876,-8.136943932887911,-5.432610740154981,0.6687737058222294
1633780642433738000,14.515738037109376,-8.139992214542627,-5.428849926316738,0.6621916970834135
1633780642453617000,14.535616943359376,-8.143834861445427,-5.423518502160906,0.6586247983820736
1633780642473496000,14.55549609375,-8.14863787781298,-5.416492549046874,0.6570325607545674
1633780642493376000,14.5753759765625,-8.14988700109124,-5.414682284754514,0.6564543955404311
1633780642513255000,14.5952548828125,-8.146228478583692,-5.419923108017445,0.6586182955760509
1633780642533134800,14.615134765625,-8.142401029250026,-5.425573096603155,0.6594247896533459
1633780642553013800,14.635013671875,-8.141276409134269,-5.4279369031250475,0.6538381486274302
1633780642572893000,14.654892822265625,-8.140296165925264,-5.430018970096111,0.6487305963553488
1633780642592772900,14.67477294921875,-8.136995370814203,-5.435106648623943,0.6475297691982239
1633780642612651800,14.69465185546875,-8.130517699232698,-5.44503416839838,0.6455006014581769
1633780642632532000,14.714531982421875,-8.124290787541867,-5.455217708760499,0.6378721524063498
1633780642652411000,14.734410888671874,-8.1200325455755,-5.462593790486455,0.6289096782717853
1633780642672289800,14.754289794921876,-8.117593920251727,-5.466899378725886,0.6229500392150134
1633780642692170000,14.774169921875,-8.117685690188408,-5.467519556450844,0.6162732648648321
1633780642712049000,14.794048828125,-8.11759041312039,-5.468171298357844,0.6117276207918301
1633780642731928800,14.8139287109375,-8.11624601277411,-5.470483666953444,0.608890205408819
1633780642751808000,14.83380810546875,-8.114185573112964,-5.474013010123372,0.6046178983844817
1633780642771687000,14.85368701171875,-8.111896000871061,-5.477487408235668,0.6038688335828483
1633780642791566800,14.87356689453125,-8.109263898801803,-5.480900431549549,0.6082450028404593
1633780642811446000,14.893446044921875,-8.108162659561634,-5.482191640403866,0.6112771736105903
1633780642831326000,14.913325927734375,-8.10975548171103,-5.479691055759787,0.6125740084880963
1633780642851204900,14.933204833984375,-8.111922888877988,-5.476256405135989,0.6145830467555672
1633780642871084000,14.953083984375,-8.113758872133493,-5.473351331344246,0.6162200003076345
1633780642890963700,14.972963623046875,-8.115974210095406,-5.469948829424381,0.6172584034446627
1633780642910843000,14.9928427734375,-8.118422772291302,-5.465954206830263,0.6204357183065266
1633780642930723000,15.01272314453125,-8.120639863818884,-5.462140786021948,0.6249836639344691
1633780642950601700,15.032601806640624,-8.122818376901746,-5.45879790533483,0.6258858004059642
1633780642970481000,15.05248095703125,-8.12432176720202,-5.456973027995229,0.6222760124109685
1633780642990361000,15.072361083984376,-8.125284474754332,-5.4555982325106855,0.6217560071248561
1633780643010239700,15.09223974609375,-8.125305517542362,-5.455250441986322,0.6245262755557894
1633780643030120000,15.112119873046876,-8.124806920370458,-5.455545041018724,0.6284313932355493
1633780643049999000,15.1319990234375,-8.124348070687056,-5.45614885213077,0.6291205445434898
1633780643069877800,15.151877685546875,-8.125194458383321,-5.454723203241825,0.6305448051929473
1633780643089758000,15.171758056640625,-8.12836724320054,-5.449325728112459,0.6363021266106516
1633780643109636900,15.191636962890625,-8.131599064728617,-5.443899026888609,0.6414432158261537
1633780643129516800,15.211516845703125,-8.135545756527781,-5.43792930482924,0.6420295643467455
1633780643149396000,15.23139599609375,-8.139588309916853,-5.431717590707541,0.643374037758261
1633780643169275000,15.25127490234375,-8.143257938340305,-5.425716888988018,0.6475557073570788
1633780643189154600,15.271154541015624,-8.147537223094702,-5.419307606467604,0.6474002245344221
1633780643209033500,15.291033447265624,-8.15052237638533,-5.414957010042667,0.6462285504065454
1633780643228913700,15.31091357421875,-8.151737012872099,-5.413252544212341,0.6451902933999896
1633780643248792600,15.33079248046875,-8.15175454852879,-5.413285277438163,0.6446944727070629
1633780643268671500,15.35067138671875,-8.149867127346992,-5.416032530319691,0.6454776589740068
1633780643288551700,15.3705517578125,-8.14572754332423,-5.422269378882646,0.6453738332733512
1633780643308430600,15.3904306640625,-8.142107014739512,-5.427912353205681,0.6436171988643705
1633780643328310500,15.410310546875,-8.140060019081831,-5.430818011519313,0.6450005429815501
1633780643348189700,15.430189697265625,-8.13953745651245,-5.431261079111695,0.6478554940212518
1633780643368068400,15.450068359375,-8.140337666979432,-5.429972208344936,0.6486057278666645
1633780643387948500,15.469948486328125,-8.141481576317549,-5.428102907341718,0.6498905069801956
1633780643407827700,15.48982763671875,-8.142069020816683,-5.426912236252427,0.6524736553411931
1633780643427707600,15.509707763671875,-8.142716671070456,-5.425724487772584,0.6542611963450908
1633780643447586600,15.529586669921875,-8.142772785171866,-5.425221798947454,0.657733913956955
1633780643467465700,15.5494658203125,-8.141803063356877,-5.426082215169072,0.6626113107349724
1633780643487345400,15.569345458984374,-8.139945452791451,-5.428480508482456,0.6657857029873877
1633780643507224600,15.589224609375,-8.137875660780072,-5.431425914284587,0.667061495076865
1633780643527104500,15.6091044921875,-8.135998760992289,-5.434278965628147,0.6667242259465158
1633780643546983400,15.6289833984375,-8.13489226105511,-5.436028439643978,0.6659651512075215
1633780643566862600,15.648862548828125,-8.135579658797383,-5.435119508105516,0.6649884881950915
1633780643586742500,15.668742431640625,-8.136893664005399,-5.4331707121253014,0.6648327861767261
1633780643606621400,15.688621337890625,-8.137831821638345,-5.431677258697152,0.6655507982529699
1633780643626501600,15.708501708984375,-8.137651788896322,-5.431759091761708,0.6670842183653265
1633780643646380500,15.728380615234375,-8.137125719195604,-5.432343613651395,0.6687341775294393
1633780643666259500,15.748259521484375,-8.135951999241113,-5.433886751440167,0.6704851128499955
1633780643686139600,15.7681396484375,-8.1358847792238,-5.433898441877961,0.6712054630137979
1633780643706018600,15.7880185546875,-8.138398223349451,-5.430044689059257,0.6719172645449638
1633780643725898500,15.8078984375,-8.141705448201298,-5.425006694892049,0.6725454063806683
1633780643745777700,15.827777587890624,-8.14380914248228,-5.421858459994197,0.6724673727083951
1633780643765656600,15.847656494140624,-8.14481510465443,-5.420371436306834,0.6722702427010983
1633780643785536500,15.86753662109375,-8.144838485530018,-5.42065902107656,0.6696659054215998
1633780643805415700,15.887415771484376,-8.1443691144526,-5.421938539493084,0.6649927990440279
1633780643825295400,15.90729541015625,-8.144041782194375,-5.423012890726327,0.6602260230336338
1633780643845174500,15.927174560546876,-8.142051485159993,-5.4262967347025866,0.6577887128841131
1633780643865053700,15.9470537109375,-8.138777578055858,-5.431420069065689,0.6560171731669455
1633780643884933400,15.966933349609375,-8.135280968111752,-5.436920420047641,0.6538242662325501
1633780643904812500,15.9868125,-8.134096726763248,-5.439143941316008,0.6500508851736784
1633780643924692700,16.006692626953125,-8.136240168532728,-5.436330637460947,0.6467508937802166
1633780643944571400,16.0265712890625,-8.139821534150839,-5.430978170517086,0.6466585393216461
1633780643964450600,16.046450439453125,-8.142451298132539,-5.426864305457473,0.6480893027771264
1633780643984330800,16.066330810546877,-8.144154010397195,-5.424360798203945,0.6476543454259633
1633780644004209400,16.08620947265625,-8.146386884015799,-5.4213481723845005,0.6447836853604764
1633780644024089600,16.106089599609376,-8.148141618728637,-5.4186956120491026,0.6449092114362865
1633780644043968800,16.12596875,-8.148680547910928,-5.41739446632266,0.6490230034306645
1633780644063847400,16.145847412109376,-8.148201239961386,-5.4177188759714365,0.6523185378447175
1633780644083727600,16.1657275390625,-8.146306804516911,-5.420420536145568,0.6535404077898711
1633780644103606500,16.1856064453125,-8.142091817170382,-5.426691286978126,0.6540265108063816
1633780644123486500,16.205486572265624,-8.136701356303691,-5.434983899027109,0.6522423308033496
1633780644143365600,16.22536572265625,-8.132529623576998,-5.4416427723944185,0.6487494471862911
1633780644163245600,16.24524560546875,-8.130657984486222,-5.44475418241322,0.6460872422397136
1633780644183124700,16.265124755859375,-8.130392611548304,-5.445390142229199,0.6440680844370276
1633780644203004000,16.28500390625,-8.131493850788473,-5.444058016842603,0.6414286758441478
1633780644222883600,16.304883544921875,-8.132907224717735,-5.4424909136563535,0.6367898370623588
1633780644242762800,16.3247626953125,-8.135529974436759,-5.438875061246752,0.6341740285407751
1633780644262643000,16.344642822265627,-8.13899735828638,-5.433546559700369,0.6353514748223126
1633780644282521600,16.364521484375,-8.14149735840857,-5.429435032728314,0.6384690953861921
1633780644302400800,16.38440087890625,-8.141493851277232,-5.428984366351366,0.6423287664890289
1633780644322281000,16.404281005859374,-8.140921604347229,-5.429581747722626,0.6445272994466126
1633780644342160000,16.424159912109374,-8.142459481438994,-5.4268596292823545,0.6480199638679623
1633780644362039800,16.444039794921874,-8.145978887736797,-5.4208899072229855,0.6537335922744125
1633780644381919000,16.4639189453125,-8.148688146695495,-5.416064094501733,0.659939826503396
1633780644401798000,16.4837978515625,-8.149317092248797,-5.414986820659041,0.6610156390413642
1633780644421677800,16.503677734375,-8.148654828947782,-5.416675504398346,0.655311362985149
1633780644441557000,16.523556884765625,-8.148158569863439,-5.418170126870274,0.6490920500788837
1633780644461436700,16.543436767578125,-8.1471292268157,-5.419999095863104,0.6467407377123833
1633780644481315800,16.56331591796875,-8.144850760489701,-5.423682168290019,0.6445669008046389
1633780644501194800,16.58319482421875,-8.14103032541871,-5.4299552572101355,0.6399895098865032
1633780644521074700,16.60307470703125,-8.136880804523825,-5.437094607570767,0.6321094241611659
1633780644540953900,16.622953857421876,-8.135295581158996,-5.440561991420388,0.6226067787352949
1633780644560834000,16.642833984375,-8.137405120658874,-5.43792930482924,0.6180173320531844
1633780644580712700,16.662712646484376,-8.139958312273025,-5.433788551762699,0.6208078395545482
1633780644600593000,16.682593017578125,-8.140756184652448,-5.432499096474051,0.621631211701408
1633780644620471800,16.702471923828124,-8.141488590580224,-5.4319975766927,0.6163963797878473
1633780644640350700,16.722350830078124,-8.144064578548074,-5.428834144225716,0.6102159375872462
1633780644660231000,16.74223095703125,-8.146387468537688,-5.425412937605381,0.6096309407735243
1633780644680109800,16.76210986328125,-8.145875427362322,-5.425883477726578,0.6122837933698668
1633780644699989800,16.78198974609375,-8.141689081588387,-5.432115065592527,0.6127121383171529
1633780644719869000,16.801868896484375,-8.136189899650216,-5.440597062733769,0.6104953755831346
1633780644739747800,16.821747802734375,-8.132654126739501,-5.446112026762962,0.6084308808013796
1633780644759627800,16.841627685546875,-8.132561772280932,-5.446406041273474,0.6070332524305209
1633780644779507000,16.8615068359375,-8.134531026527284,-5.44348635443449,0.6068335651399568
1633780644799386600,16.88138671875,-8.136711293175816,-5.440481911921501,0.6045415086800232
1633780644819265800,16.901265869140627,-8.138152724155784,-5.438821285232901,0.6000634499505162
1633780644839144700,16.921144775390626,-8.14026401722133,-5.436430006182193,0.5930571148524061
1633780644859024600,16.941024658203126,-8.14306329255104,-5.433185325172543,0.5842943645410239
1633780644878903800,16.96090380859375,-8.146073580282927,-5.428970922347903,0.5815000941799954
1633780644898784000,16.980783935546874,-8.147610288330911,-5.426707069069146,0.5811008657293394
1633780644918663000,17.000662841796874,-8.148399977403878,-5.426107349610328,0.5756126435765996
1633780644938542800,17.02054296875,-8.150359879299998,-5.4237920584052794,0.5696507760301232
1633780644958421800,17.040421875,-8.153605144831538,-5.418709640574455,0.5715695056656375
1633780644978301000,17.060301025390626,-8.15580236261487,-5.4149084947258235,0.5762316887903958
1633780644998180900,17.080180908203126,-8.154668390148878,-5.416152357307076,0.5805720195496454
1633780645018059800,17.100059814453125,-8.150890040653943,-5.421298488023877,0.5855731523051858
1633780645037939700,17.119939697265625,-8.145942062857747,-5.4282718341678375,0.5898161967024207
1633780645057819000,17.13981884765625,-8.142495137274265,-5.433278848674893,0.5913072389777749
1633780645077697800,17.15969775390625,-8.140272785049676,-5.4363160244137045,0.5939848241565748
1633780645097577700,17.17957763671875,-8.138098948141932,-5.438714317727088,0.6017661622151732
1633780645117457000,17.199456787109376,-8.135868412610888,-5.441539312019944,0.6063668609436601
1633780645137336800,17.2193369140625,-8.135601870629191,-5.442327247527241,0.6028635655304416
1633780645157215700,17.2392158203125,-8.138075567266345,-5.439189534023404,0.5977741699695587
1633780645177094700,17.2590947265625,-8.143916109988092,-5.430719811841845,0.5952266774438322
1633780645196974600,17.278974609375,-8.152912486392259,-5.41758092880547,0.5917933419942856
1633780645216853500,17.298853515625,-8.161879052180051,-5.404186609703302,0.5906603193763643
1633780645236733700,17.318733642578124,-8.16816967675686,-5.394525631910562,0.5920197346286847
1633780645256612600,17.338612548828124,-8.171438323163986,-5.389917845854163,0.5888714266655967
1633780645276491500,17.358491455078124,-8.173730233493448,-5.386922755691409,0.5844519662555306
1633780645296371500,17.378371337890623,-8.176135541069508,-5.383130962193012,0.5857344803467393
1633780645316250600,17.398250732421875,-8.177931192314624,-5.380024812871217,0.5892053347950801
1633780645336130600,17.418130615234375,-8.177372389388085,-5.380508796995878,0.5925269534984603
1633780645356009500,17.438009521484375,-8.174591234236955,-5.384312280932068,0.5963461464604363
1633780645375888600,17.457888671875,-8.172394016453623,-5.38744298017323,0.5981771978124976
1633780645395768600,17.4777685546875,-8.174007296869158,-5.385187894722819,0.5964429944310337
1633780645415647500,17.4976474609375,-8.177858127078414,-5.379247398757935,0.5972618000006303
1633780645435527700,17.517527587890626,-8.181821185490488,-5.372822334146499,0.6008011531079188
1633780645455406600,17.537406494140626,-8.184988125088811,-5.368219224265218,0.5988073124095797
1633780645475285500,17.557285400390626,-8.187219245141744,-5.365468464252352,0.5929418179096654
1633780645495165700,17.577165771484374,-8.189189083909987,-5.36304737458527,0.587612110786885
1633780645515044400,17.59704443359375,-8.19183404546082,-5.359421000781655,0.5838197692992165
1633780645534924500,17.616924560546874,-8.194217725726961,-5.355977582329511,0.5819683692788705
1633780645554803700,17.6368037109375,-8.195774307519198,-5.3535675985783335,0.5822167180167511
1633780645574682400,17.656682373046873,-8.19826846242249,-5.349678774446248,0.582847453668341
1633780645594562600,17.6765625,-8.200501336041093,-5.345670707848668,0.5881948425782844
1633780645614441700,17.696441650390625,-8.200341761565207,-5.344999092197418,0.5964621375229209
1633780645634321400,17.7163212890625,-8.1988629211843,-5.346937951305509,0.5994090046297759
1633780645654200600,17.73620068359375,-8.198124085515737,-5.3480830296874045,0.5992880085986108
1633780645674080500,17.75608056640625,-8.197637763303518,-5.348185905539989,0.6050057286582887
1633780645693959400,17.77595947265625,-8.197150856569408,-5.348357754975557,0.6100551940675825
1633780645713838600,17.795838623046876,-8.1963068069607,-5.349941809296608,0.6075058749109506
1633780645733718500,17.815718505859376,-8.19565915670693,-5.351325372609495,0.6040495239119976
1633780645753597400,17.835597412109376,-8.195271618694067,-5.351806434124708,0.6050424804721027
1633780645773477600,17.8554775390625,-8.19589939520359,-5.350710455581545,0.6062298636257648
1633780645793356500,17.8753564453125,-8.197768696206808,-5.347852728062867,0.6061724708827212
1633780645813235500,17.8952353515625,-8.200241223800182,-5.3437406165689225,0.6089869437815622
1633780645833115600,17.91511572265625,-8.201741691491007,-5.340919129407405,0.6135181940030306
1633780645852994600,17.93499462890625,-8.202063763052225,-5.34018321634829,0.615619915522635
1633780645872874500,17.95487451171875,-8.202528457954525,-5.3395484255760906,0.6149242614086717
1633780645892753700,17.974753662109375,-8.203851815512776,-5.337279896122217,0.6169604434113949
1633780645912632600,17.994632568359375,-8.205041317558289,-5.3350557903319595,0.6203742704428732
1633780645932512500,18.014512451171875,-8.204299559280276,-5.336071104854345,0.6214501560460776
1633780645952391700,18.0343916015625,-8.201599652671813,-5.340076833364368,0.6226793325148523
1633780645972271600,18.054271728515626,-8.19728062042892,-5.3465638572961085,0.6238807441938669
1633780645992150500,18.074150634765626,-8.19338010585904,-5.35269899905026,0.6225138397548348
1633780646012029700,18.09402978515625,-8.19125536879003,-5.356168720987439,0.620627879877761
1633780646031909400,18.113909423828126,-8.189176808950304,-5.35922518594861,0.6216709591899067
1633780646051788500,18.13378857421875,-8.184938440728187,-5.365453266683221,0.6237615017283707
1633780646071668700,18.153668701171874,-8.179697032943368,-5.373485181969404,0.623374840498343
1633780646091547400,18.17354736328125,-8.174614615112542,-5.381189764997362,0.6235815420515834
1633780646111426600,18.193426513671874,-8.17150495865941,-5.385933744654059,0.6233809049129486
1633780646131306800,18.213306640625,-8.168914942166209,-5.3896641633540385,0.6250840555690229
1633780646151185400,18.233185302734373,-8.165414825090766,-5.394661240988969,0.6277095817670225
1633780646171065600,18.253065673828125,-8.16044521998465,-5.40193386234045,0.6297833193011582
1633780646190944800,18.27294482421875,-8.156528338801861,-5.407777912193536,0.6303677681256086
1633780646210823700,18.29282373046875,-8.155970704919099,-5.408406857746839,0.6321861426591873
1633780646230703900,18.312703857421877,-8.158247417679428,-5.404745412629842,0.6341158686127514
1633780646250582800,18.332582763671876,-8.160638112208247,-5.4009466048687695,0.6357255688317119
1633780646270462700,18.352462646484376,-8.163232804876566,-5.396995821416378,0.6359669763721525
1633780646290342000,18.372341796875,-8.16469820125401,-5.394834843990206,0.6354882529444992
1633780646310220800,18.392220703125,-8.166053707516193,-5.393134469813108,0.6324975466959178
1633780646330100700,18.412100830078124,-8.166791958662866,-5.392532412266731,0.6280868906468152
1633780646349980000,18.43197998046875,-8.167295816531777,-5.392078238758445,0.6254275352444499
1633780646369859600,18.451859619140624,-8.166775007528067,-5.392804214945436,0.6259624458387494
1633780646389738800,18.47173876953125,-8.166838135892153,-5.392941577589512,0.6239513252120464
1633780646409617700,18.49161767578125,-8.168779917609692,-5.390403583544493,0.6204571994859724
1633780646429497600,18.51149755859375,-8.17133661635518,-5.386403700253367,0.6215286281097679
1633780646449376800,18.531376708984375,-8.174099066805839,-5.381783639237284,0.6252170342989266
1633780646469257000,18.551257080078123,-8.178079660874605,-5.375668371227383,0.6257671424623579
1633780646489135600,18.571135498046875,-8.18303114580214,-5.36843783545196,0.6231022341020405
1633780646509014800,18.591014892578126,-8.188404071012139,-5.360224718379974,0.6232254951555282
1633780646528894700,18.610894775390626,-8.195051838463545,-5.350077418375015,0.6230396902598441
1633780646548774000,18.63077392578125,-8.200074635061622,-5.342361144909263,0.6231632435742765
1633780646568653800,18.65065380859375,-8.20240863096714,-5.338576950195431,0.6248720933187752
1633780646588532700,18.67053271484375,-8.204620461797713,-5.335536267325282,0.6218012345060706
1633780646608412000,18.690411865234374,-8.209688266581296,-5.3285091451674695,0.6151362967241555
1633780646628291800,18.710291748046874,-8.215054762050508,-5.32054503442049,0.6124191101873293
1633780646648170800,18.730170654296874,-8.218795702144503,-5.314722611877322,0.6127895874675363
1633780646668050700,18.75005078125,-8.220642791315912,-5.311862546271086,0.6128139547238126
1633780646687929900,18.769929931640625,-8.221722403246163,-5.310103719905018,0.6135716046907007
1633780646707808800,18.789808837890625,-8.222441365170479,-5.308914802381396,0.6142161131393165
1633780646727688700,18.809688720703125,-8.22148567188084,-5.310161003050208,0.616234028832987
1633780646747567900,18.82956787109375,-8.218301781147717,-5.314552516007423,0.620838965345174
1633780646767447800,18.84944775390625,-8.211535355752707,-5.3241299071699375,0.628256255864352
1633780646787326700,18.86932666015625,-8.20261555171609,-5.337504352527857,0.6312867826666683
1633780646807205600,18.88920556640625,-8.194913891297578,-5.3493730694979424,0.6308578166648745
1633780646827085800,18.9090859375,-8.191622448536753,-5.354038723221421,0.6340220528494567
1633780646846964700,18.92896484375,-8.190123149889708,-5.355748449748754,0.6389255339168012
1633780646866845000,18.948844970703124,-8.186305052906274,-5.361308421963453,0.6412246046394109
1633780646886723800,18.968723876953124,-8.181655181273818,-5.368707300043106,0.638658626608923
1633780646906602800,18.988602783203124,-8.17879686923325,-5.373577536427974,0.6342967050723731
1633780646926482700,19.008482666015624,-8.177950481536984,-5.375397153070569,0.6297738208204507
1633780646946361900,19.02836181640625,-8.176986020419001,-5.377589694678783,0.6235507085219025
1633780646966241800,19.04824169921875,-8.17547736942172,-5.380581862232089,0.61749177380912
1633780646986120700,19.06812060546875,-8.173418683326243,-5.384282470315695,0.6124695252003148
1633780647005999900,19.087999755859375,-8.169583050686121,-5.390418781113624,0.6096584498349576
1633780647025879800,19.1078798828125,-8.164199019560217,-5.3991486155360935,0.604510602085106
1633780647045758700,19.1277587890625,-8.159884663492441,-5.406524697262048,0.5967891409875825
1633780647065638700,19.147638671875,-8.157634838739037,-5.410292525362968,0.5933902557969093
1633780647085517800,19.167517822265626,-8.157586907944083,-5.410247517177463,0.5944606249747797
1633780647105396700,19.187396728515626,-8.157336732575297,-5.410418197569251,0.5963380362192169
1633780647125277000,19.20727685546875,-8.155622914394735,-5.4130327639818185,0.5960506706451997
1633780647145155600,19.227155517578126,-8.154172131064534,-5.415432226338982,0.5940987693924457
1633780647165035800,19.247035888671874,-8.154228829687833,-5.415510552272201,0.5926063754102214
1633780647184914700,19.266914794921874,-8.154620459353923,-5.414874592456221,0.5930303364433348
1633780647204793300,19.28679345703125,-8.153741922953724,-5.416133068084717,0.593614054615423
1633780647224673500,19.306673583984374,-8.151142554110288,-5.420414106404781,0.5902312072440982
1633780647244552700,19.326552734375,-8.148321651470662,-5.425229397732019,0.5849159670380875
1633780647264431400,19.346431396484373,-8.146032079228759,-5.429153877699375,0.58037814094536
1633780647284311600,19.3663115234375,-8.144945453035831,-5.431004474002123,0.5783057916507125
1633780647304190700,19.386190673828125,-8.144366191843151,-5.4320665502756835,0.5764953812278807
1633780647324070400,19.4060703125,-8.143986837136746,-5.43309881593287,0.5720986075736582
1633780647343949600,19.425949462890625,-8.143934230166673,-5.433643005812168,0.5676648994425312
1633780647363828700,19.445828857421876,-8.143048679503798,-5.4352744064062835,0.5647473680280148
1633780647383708400,19.46570849609375,-8.140389104905724,-5.438942865785956,0.5677567424444482
1633780647403587600,19.485587646484376,-8.13713390250206,-5.444033466923236,0.5656283521136268
1633780647423467500,19.505467529296876,-8.13299256491363,-5.450714552122355,0.5608315462911502
1633780647443346400,19.525346435546876,-8.130862567147613,-5.454139850395918,0.5584122832549736
1633780647463225600,19.5452255859375,-8.130912251508235,-5.453801412221789,0.5609882346902042
1633780647483105500,19.56510546875,-8.130145943310856,-5.454464260044694,0.5656271830698475
1633780647502984400,19.584984375,-8.125294411626458,-5.461224255698919,0.5700976430147886
1633780647522864600,19.60486474609375,-8.1188196626544,-5.470638565254211,0.5720660935435444
1633780647542743800,19.624743896484375,-8.11361624879241,-5.478575203472375,0.5699418679311872
1633780647562622500,19.64462255859375,-8.111389220392704,-5.482269381815195,0.5661079523241147
1633780647582502700,19.664502685546875,-8.11195503758192,-5.4819759518265725,0.5608116360142826
1633780647602381600,19.684381591796875,-8.115185690066218,-5.477829353541136,0.5545469495963304
1633780647622261500,19.704261474609375,-8.119018984618782,-5.472407328492403,0.5519723498679697
1633780647642140700,19.724140625,-8.120936216416954,-5.469382427713275,0.5537502097280695
1633780647662019600,19.74401953125,-8.121873205006121,-5.468218644630909,0.5514978642240166
1633780647681899500,19.7638994140625,-8.123087841492891,-5.466866060978174,0.5469933924116194
1633780647701778700,19.78377880859375,-8.12443224183917,-5.464873425856232,0.5469410777024925
1633780647721658400,19.803658447265626,-8.12689424803853,-5.460962389892339,0.5494298257783055
1633780647741537500,19.82353759765625,-8.130086322078109,-5.456348174095154,0.5480406729748473
1633780647761416700,19.843416748046874,-8.132664063611626,-5.452791358396411,0.545185210478492
1633780647781296400,19.86329638671875,-8.133249754545092,-5.451743310648203,0.5469241631003097
1633780647801175600,19.883175537109373,-8.132624900645018,-5.452226125729084,0.5513911524465307
1633780647821055700,19.9030556640625,-8.132845265397428,-5.451755585607886,0.5527903882525861
1633780647840934400,19.922934326171877,-8.13075501511991,-5.454522127711773,0.5562353776073083
1633780647860813600,19.9428134765625,-8.127049146339298,-5.459989160946011,0.5567606070578098
1633780647880693800,19.96269384765625,-8.124018984863161,-5.464980393362045,0.5519854285452515
1633780647900572400,19.982572509765625,-8.122354266521334,-5.467641721525788,0.5501251876313239
1633780647920452600,20.00245263671875,-8.12141143271327,-5.469065616849065,0.5498989776600152
1633780647940331500,20.02233154296875,-8.121675636607408,-5.4688750627130265,0.547883948043175
1633780647960210700,20.042210693359376,-8.12090757484436,-5.470203680968284,0.546005879211612
1633780647980090600,20.062090576171876,-8.117752325683831,-5.47507800900638,0.5440562795137986
1633780647999969500,20.081969482421876,-8.114929084956646,-5.479609807217121,0.5405461525009945
1633780648019849500,20.101849365234376,-8.11419200285375,-5.480867113801836,0.5388600260449573
1633780648039728600,20.121728759765624,-8.11273888143599,-5.482740506458282,0.5416763255747035
1633780648059607600,20.141607666015624,-8.110422421187161,-5.486013829040527,0.5432219841141254
1633780648079487500,20.161487548828124,-8.110508930426835,-5.485931995975971,0.542754001276195
1633780648099366700,20.18136669921875,-8.113668271240591,-5.4810196740150445,0.5451519292633981
1633780648119246600,20.20124658203125,-8.116813583528995,-5.475885818257928,0.5499033615741878
1633780648139125500,20.22112548828125,-8.120666751825809,-5.469961688905954,0.5519716192156076
1633780648159004400,20.24100439453125,-8.126305049973725,-5.46155860221982,0.5522069623414426
1633780648178884600,20.260884521484375,-8.131904185155033,-5.453134472745656,0.5530323072496801
1633780648198764000,20.280763916015626,-8.134737362754345,-5.448886752173304,0.5532339307690038
1633780648218643200,20.300643310546874,-8.13383252286911,-5.450346887853741,0.5521466469889507
1633780648238523100,20.320523193359374,-8.130970119175315,-5.454632017827033,0.5519951096890494
1633780648258402000,20.340402099609374,-8.129951297521592,-5.4563318074822424,0.5501984355306252
1633780648278282200,20.3602822265625,-8.130924526467918,-5.455345719054341,0.5455791051669046
1633780648298161200,20.3801611328125,-8.129758989819884,-5.456750909677147,0.5488841015290469
1633780648318040000,20.4000400390625,-8.118975145477057,-5.472959701678157,0.5471189915526657
1633780648337920300,20.419920166015626,-8.114149917277693,-5.482904172587395,0.5183776483779773
1633780648357799200,20.439799072265625,-8.12191529058218,-5.472760964235663,0.5037536778829992
1633780648377679000,20.45967919921875,-8.138730231782793,-5.446673752298951,0.5149755117842927
