time,seconds_elapsed,z,y,x
1633781605240678000,0.022677978515625,-12.018951416015625,29.33202362060547,38.0218620300293
1633781605260556800,0.042556884765625,-11.78643798828125,29.35418128967285,38.245906829833984
1633781605280435700,0.062435791015625,-12.0552978515625,29.217708587646484,38.23054504394531
1633781605300314600,0.082314697265625,-11.57421875,29.26874351501465,38.09983825683594
1633781605320193800,0.10219384765625,-11.912567138671875,29.243953704833984,38.042510986328125
1633781605340073000,0.122072998046875,-11.845977783203125,29.314476013183594,37.97337341308594
1633781605359951600,0.14195166015625,-11.698028564453125,29.130023956298828,38.102569580078125
1633781605379830800,0.161830810546875,-11.456695556640625,29.413894653320312,38.22608947753906
1633781605399709700,0.181709716796875,-11.3763427734375,29.328947067260742,38.2718505859375
1633781605419588900,0.2015888671875,-11.176483154296875,29.48367691040039,38.21186065673828
1633781605439467800,0.2214677734375,-10.934539794921875,29.469175338745117,38.19798278808594
1633781605459347700,0.24134765625,-10.815704345703125,29.06861686706543,38.575584411621094
1633781605479225900,0.261225830078125,-10.9307861328125,29.484912872314453,38.66798400878906
1633781605499105800,0.281105712890625,-11.01324462890625,29.408367156982422,38.44692611694336
1633781605518984700,0.300984619140625,-11.07757568359375,29.420207977294922,38.60455322265625
1633781605538863600,0.320863525390625,-11.4705810546875,29.483779907226562,38.39790344238281
1633781605558742800,0.34074267578125,-12.074920654296875,29.456798553466797,38.24481964111328
1633781605578622000,0.3606220703125,-12.4989013671875,29.64887046813965,37.97874450683594
1633781605598500600,0.38050048828125,-12.353546142578125,29.9074764251709,37.915550231933594
1633781605618379800,0.4003798828125,-13.123077392578125,30.123943328857422,37.64894104003906
1633781605638258700,0.4202587890625,-13.359710693359375,29.94856071472168,37.535736083984375
1633781605658137900,0.440137939453125,-13.200164794921875,29.877548217773438,37.55763244628906
1633781605678016800,0.460016845703125,-13.3890380859375,30.012561798095703,37.10688018798828
1633781605697895700,0.479895751953125,-13.356475830078125,30.230083465576172,37.377445220947266
1633781605717774800,0.49977490234375,-13.09820556640625,30.341510772705078,37.65121841430664
1633781605737653800,0.51965380859375,-13.084014892578125,30.42294692993164,37.43809509277344
1633781605757533000,0.539532958984375,-12.99993896484375,30.085735321044922,37.50642395019531
1633781605777412900,0.559412841796875,-13.24298095703125,30.106807708740234,37.58699035644531
1633781605797291800,0.579291748046875,-12.8834228515625,29.919940948486328,37.46236038208008
1633781605817171000,0.5991708984375,-13.16796875,30.245769500732422,37.28180694580078
1633781605837049600,0.619049560546875,-12.946044921875,30.2115535736084,37.57000732421875
1633781605856928800,0.6389287109375,-12.899688720703125,30.186697006225586,37.50693130493164
1633781605876808000,0.658807861328125,-13.04718017578125,29.992769241333008,37.31364822387695
1633781605896686800,0.678686767578125,-12.997222900390625,30.383068084716797,37.4671630859375
1633781605916566000,0.69856591796875,-13.08416748046875,30.361347198486328,37.37274932861328
1633781605936444700,0.718444580078125,-12.84722900390625,30.430648803710938,37.516231536865234
1633781605956323800,0.73832373046875,-13.00225830078125,30.321308135986328,37.23567199707031
1633781605976202800,0.75820263671875,-13.061767578125,30.39516258239746,37.29225540161133
1633781605996082000,0.77808203125,-12.867340087890625,30.580955505371094,37.019142150878906
1633781606015960600,0.797960693359375,-12.6033935546875,30.530452728271484,37.04711151123047
1633781606035839700,0.81783984375,-12.499053955078125,30.71109390258789,37.07283020019531
1633781606055719000,0.837718994140625,-12.935333251953125,31.101768493652344,37.141151428222656
1633781606075597800,0.857597900390625,-13.208587646484375,30.915769577026367,36.82524108886719
1633781606095477000,0.87747705078125,-12.843780517578125,31.07286834716797,36.49169921875
1633781606115355600,0.897355712890625,-13.107635498046875,30.93128776550293,36.62255096435547
1633781606135235800,0.91723583984375,-12.791595458984375,31.030467987060547,36.550045013427734
1633781606155115000,0.937114990234375,-13.027496337890625,31.402481079101562,36.67166519165039
1633781606174993700,0.95699365234375,-12.94384765625,31.26861572265625,36.558441162109375
1633781606194872800,0.976872802734375,-13.044952392578125,31.10625648498535,36.67169952392578
1633781606214751700,0.996751708984375,-13.06243896484375,31.265201568603516,36.68183898925781
1633781606234631000,1.016630859375,-13.207672119140625,31.155258178710938,36.56878662109375
1633781606254509800,1.036509765625,-12.891693115234375,30.93389892578125,36.727996826171875
1633781606274388700,1.056388671875,-13.11883544921875,30.697093963623047,36.52292251586914
1633781606294268000,1.076267822265625,-13.02923583984375,30.985179901123047,36.82113265991211
1633781606314146800,1.096146728515625,-12.83892822265625,30.684589385986328,37.09239196777344
1633781606334026000,1.11602587890625,-13.291595458984375,30.64120864868164,37.11724853515625
1633781606353904600,1.135904541015625,-13.089080810546875,30.528724670410156,36.935882568359375
1633781606373783800,1.15578369140625,-12.7216796875,30.581138610839844,36.96076202392578
1633781606393663000,1.1756630859375,-13.087921142578125,30.83224868774414,37.29411697387695
1633781606413542000,1.1955419921875,-12.640594482421875,30.78704833984375,37.11074447631836
1633781606433420800,1.2154208984375,-12.732391357421875,30.74181365966797,37.135520935058594
1633781606453299700,1.2352998046875,-12.70416259765625,30.850770950317383,37.10661315917969
1633781606473179000,1.255178955078125,-12.40399169921875,31.01553726196289,37.04191589355469
1633781606493057800,1.275057861328125,-12.62359619140625,30.972389221191406,36.99522399902344
1633781606512936700,1.294936767578125,-12.591339111328125,30.79358673095703,36.77522277832031
1633781606532815600,1.314815673828125,-12.596923828125,31.108972549438477,37.02496337890625
1633781606552694800,1.33469482421875,-12.44439697265625,31.10842514038086,36.899444580078125
1633781606572574000,1.354573974609375,-12.050048828125,31.110097885131836,36.934165954589844
1633781606592452900,1.374452880859375,-12.428863525390625,30.993186950683594,37.034446716308594
1633781606612331800,1.394331787109375,-12.84405517578125,31.37945556640625,36.87913131713867
1633781606632210700,1.414210693359375,-12.969818115234375,31.115169525146484,36.875396728515625
1633781606652089900,1.43408984375,-12.8251953125,31.306095123291016,36.91398620605469
1633781606671968800,1.45396875,-12.902557373046875,31.262985229492188,36.70481872558594
1633781606691847700,1.47384765625,-12.460601806640625,31.0460205078125,36.745445251464844
1633781606711726800,1.493726806640625,-12.851318359375,31.170246124267578,36.9141845703125
1633781606731605800,1.513605712890625,-13.264251708984375,31.114185333251953,36.6351318359375
1633781606751486000,1.53348583984375,-13.095001220703125,31.315507888793945,36.67234802246094
1633781606771363800,1.55336376953125,-12.908843994140625,31.381641387939453,36.61051940917969
1633781606791242800,1.57324267578125,-12.76171875,31.521778106689453,36.535621643066406
1633781606811121700,1.59312158203125,-12.779327392578125,31.395553588867188,36.4738655090332
1633781606831000800,1.613000732421875,-12.61541748046875,31.509380340576172,36.227325439453125
1633781606850880000,1.6328798828125,-13.17041015625,31.43512725830078,36.14541244506836
1633781606870758700,1.652758544921875,-12.640167236328125,31.878162384033203,36.05474090576172
1633781606890637800,1.672637939453125,-12.66363525390625,31.859725952148438,36.029754638671875
1633781606910516700,1.692516845703125,-12.994140625,32.085609436035156,36.10466766357422
1633781606930396000,1.71239599609375,-12.33489990234375,31.96499252319336,36.326438903808594
1633781606950274800,1.73227490234375,-12.593505859375,32.20692825317383,36.001380920410156
1633781606970153700,1.75215380859375,-12.97027587890625,32.1228141784668,36.09181213378906
1633781606990033000,1.772032958984375,-13.12591552734375,32.22920608520508,36.185447692871094
1633781607009911800,1.791911865234375,-12.746368408203125,32.123329162597656,36.16717529296875
1633781607029791000,1.811791015625,-12.64306640625,31.9532527923584,36.15167999267578
1633781607049669600,1.831669677734375,-12.759552001953125,31.954837799072266,36.08366394042969
1633781607069548800,1.851548828125,-12.9984130859375,31.9614315032959,36.06373977661133
1633781607089427700,1.871427734375,-13.193817138671875,31.955005645751953,36.22075271606445
1633781607109307000,1.891306884765625,-13.05584716796875,31.788827896118164,35.944175720214844
1633781607129185800,1.911185791015625,-13.1727294921875,31.757320404052734,35.88500213623047
1633781607149064700,1.931064697265625,-13.002960205078125,31.92551612854004,35.833091735839844
1633781607168943900,1.95094384765625,-12.92620849609375,31.993186950683594,35.947975158691406
1633781607188822800,1.97082275390625,-12.962432861328125,32.15190505981445,35.918827056884766
1633781607208702000,1.990701904296875,-12.75103759765625,32.077857971191406,35.90654373168945
1633781607228580600,2.01058056640625,-13.02850341796875,32.04513931274414,35.48688507080078
1633781607248459800,2.030459716796875,-13.066925048828125,32.17463302612305,35.47651672363281
1633781607268339000,2.0503388671875,-13.14166259765625,32.217037200927734,35.57209777832031
1633781607288217900,2.0702177734375,-13.011199951171875,32.31787872314453,35.38787841796875
1633781607308096800,2.0900966796875,-13.063690185546875,32.21851348876953,35.363853454589844
1633781607327975700,2.1099755859375,-12.827423095703125,32.19202423095703,35.803245544433594
1633781607347856000,2.12985595703125,-12.923492431640625,32.11965560913086,35.64630889892578
1633781607367734800,2.14973486328125,-13.4710693359375,32.1656379699707,35.48365783691406
1633781607387613700,2.16961376953125,-13.1375732421875,31.935495376586914,35.75538635253906
1633781607407492900,2.189492919921875,-13.019256591796875,32.023719787597656,35.54737091064453
1633781607427371800,2.209371826171875,-12.943603515625,31.906099319458008,35.66563415527344
1633781607447251000,2.2292509765625,-13.069610595703125,32.15837097167969,35.665069580078125
1633781607467129600,2.249129638671875,-12.79156494140625,32.33797073364258,35.88703918457031
1633781607487008800,2.2690087890625,-13.245574951171875,32.406959533691406,35.47395324707031
1633781607506888000,2.288887939453125,-12.55987548828125,32.3232307434082,35.849525451660156
1633781607526766800,2.308766845703125,-12.88177490234375,32.400901794433594,35.81624221801758
1633781607546645800,2.328645751953125,-12.884552001953125,32.59229278564453,35.88201904296875
1633781607566524700,2.348524658203125,-12.956268310546875,32.11277770996094,35.643165588378906
1633781607586403800,2.36840380859375,-12.378143310546875,32.22553253173828,35.70777130126953
1633781607606282800,2.38828271484375,-12.59814453125,32.21161651611328,35.80718994140625
1633781607626162000,2.408161865234375,-12.75726318359375,32.205623626708984,35.86558532714844
1633781607646040800,2.428040771484375,-12.680511474609375,32.297691345214844,35.84278106689453
1633781607665919700,2.447919677734375,-12.600860595703125,31.986007690429688,35.539306640625
1633781607685799000,2.467798828125,-12.58465576171875,31.904560089111328,35.62371063232422
1633781607705677800,2.487677734375,-12.527984619140625,31.705204010009766,35.80793762207031
1633781607725556700,2.507556640625,-12.42974853515625,31.951383590698242,36.117530822753906
1633781607745435600,2.527435546875,-12.43218994140625,32.09532165527344,36.152713775634766
1633781607765314800,2.547314697265625,-12.375946044921875,32.03947448730469,36.39686584472656
1633781607785193500,2.567193359375,-12.5594482421875,31.87704849243164,36.3658332824707
1633781607805072600,2.58707275390625,-12.53955078125,31.87903594970703,36.30432891845703
1633781607824951300,2.606951416015625,-12.220367431640625,31.73056411743164,36.17591857910156
1633781607844830500,2.62683056640625,-12.495361328125,31.560205459594727,36.27595520019531
1633781607864709400,2.64670947265625,-12.4027099609375,31.822418212890625,36.128353118896484
1633781607884588500,2.666588623046875,-12.19268798828125,31.794334411621094,36.018287658691406
1633781607904467500,2.686467529296875,-12.33502197265625,31.942270278930664,36.099769592285156
1633781607924346400,2.706346435546875,-12.2724609375,31.818082809448242,36.07293701171875
1633781607944225500,2.7262255859375,-12.46875,31.745080947875977,36.096435546875
1633781607964104400,2.7461044921875,-12.848846435546875,31.945070266723633,36.12534713745117
1633781607983983600,2.765983642578125,-12.59521484375,31.92709732055664,35.852699279785156
1633781608003863300,2.78586328125,-12.67718505859375,31.969133377075195,36.002689361572266
1633781608023742500,2.805742431640625,-12.34576416015625,32.095802307128906,35.8143196105957
1633781608043621600,2.82562158203125,-12.667083740234375,32.07392120361328,35.76344299316406
1633781608063500300,2.845500244140625,-12.89373779296875,32.19768524169922,35.930519104003906
1633781608083379500,2.86537939453125,-12.629730224609375,31.937559127807617,35.739524841308594
1633781608103258400,2.88525830078125,-12.800079345703125,31.976749420166016,35.890602111816406
1633781608123137500,2.905137451171875,-12.93707275390625,31.99372673034668,35.96781921386719
1633781608143016400,2.925016357421875,-12.818359375,32.1319580078125,35.63233184814453
1633781608162895400,2.944895263671875,-12.384674072265625,31.996417999267578,35.684898376464844
1633781608182774500,2.9647744140625,-12.547607421875,31.793577194213867,35.83503723144531
1633781608202653400,2.9846533203125,-12.431915283203125,32.2158317565918,35.66655731201172
1633781608222532600,3.00453271484375,-12.75518798828125,32.07485580444336,35.71028137207031
1633781608242411300,3.024411376953125,-12.741363525390625,31.934921264648438,35.59241485595703
1633781608262290400,3.04429052734375,-12.316009521484375,31.8392333984375,35.675811767578125
1633781608282169300,3.06416943359375,-12.557098388671875,32.060760498046875,35.86818313598633
1633781608302048500,3.084048583984375,-12.92388916015625,31.90372085571289,36.083770751953125
1633781608321927400,3.103927490234375,-12.92645263671875,31.920215606689453,35.99299240112305
1633781608341806300,3.123806396484375,-12.657318115234375,31.763219833374023,35.81382751464844
1633781608361685500,3.143685546875,-12.900665283203125,31.88071632385254,35.949546813964844
1633781608381564400,3.163564453125,-12.9814453125,31.924083709716797,35.9550666809082
1633781608401443600,3.183443603515625,-12.816375732421875,31.890352249145508,36.004478454589844
1633781608421322200,3.203322265625,-12.890655517578125,31.93590545654297,35.88287353515625
1633781608441201400,3.223201416015625,-13.17657470703125,31.93640899658203,35.90283966064453
1633781608461080600,3.24308056640625,-13.1134033203125,31.91659164428711,35.93818283081055
1633781608480959500,3.26295947265625,-12.92340087890625,31.998882293701172,35.809051513671875
1633781608500838400,3.28283837890625,-13.05255126953125,31.640138626098633,36.068138122558594
1633781608520717300,3.30271728515625,-12.988128662109375,31.420682907104492,35.94978332519531
1633781608540597500,3.322597412109375,-12.948699951171875,31.495656967163086,35.93996047973633
1633781608560476400,3.342476318359375,-12.631072998046875,31.539501190185547,36.153167724609375
1633781608580355300,3.362355224609375,-13.257232666015625,31.49042320251465,36.20433044433594
1633781608600234500,3.382234375,-13.5986328125,31.5595703125,36.133056640625
1633781608620113400,3.402113525390625,-14.153228759765625,30.89068603515625,36.247703552246094
1633781608639992600,3.42199267578125,-14.3873291015625,30.69232749938965,36.20637130737305
1633781608659871200,3.441871337890625,-14.634979248046875,30.96536636352539,35.905364990234375
1633781608679750400,3.46175048828125,-15.5052490234375,31.29474639892578,35.5008430480957
1633781608699629600,3.481629638671875,-16.466888427734375,31.49990463256836,35.065704345703125
1633781608719508500,3.501508544921875,-16.8240966796875,31.737804412841797,34.59154510498047
1633781608739387400,3.521387451171875,-17.66015625,31.742630004882812,34.38240051269531
1633781608759266300,3.541266357421875,-18.742523193359375,31.612661361694336,34.24123764038086
1633781608779145500,3.5611455078125,-18.56304931640625,31.34307289123535,34.240638732910156
1633781608799024400,3.5810244140625,-18.936370849609375,31.041759490966797,34.484840393066406
1633781608818903600,3.600903564453125,-17.9305419921875,30.857345581054688,34.54840850830078
1633781608838782500,3.620782470703125,-17.393585205078125,30.960704803466797,34.90247344970703
1633781608858661400,3.640661376953125,-16.95166015625,31.24734878540039,34.69845199584961
1633781608878540500,3.66054052734375,-16.737548828125,31.723581314086914,34.566139221191406
1633781608898419500,3.68041943359375,-17.217498779296875,31.88570213317871,34.5282096862793
1633781608918298400,3.70029833984375,-16.55810546875,31.960201263427734,34.665985107421875
1633781608938177300,3.72017724609375,-16.656005859375,32.125762939453125,34.809715270996094
1633781608958056400,3.740056396484375,-16.575836181640625,32.0588493347168,35.029056549072266
1633781608977935600,3.759935546875,-16.083038330078125,31.918128967285156,35.17332077026367
1633781608997814500,3.779814453125,-15.398834228515625,31.67847442626953,35.54070281982422
1633781609017693400,3.799693359375,-15.829925537109375,31.689434051513672,35.36006164550781
1633781609037572400,3.819572265625,-15.241363525390625,31.487537384033203,35.58635711669922
1633781609057451500,3.839451416015625,-15.210052490234375,31.296266555786133,35.91819381713867
1633781609077330400,3.859330322265625,-15.182891845703125,31.05238151550293,35.92108917236328
1633781609097209300,3.879209228515625,-14.988372802734375,31.148025512695312,36.2352294921875
1633781609117089500,3.899089599609375,-14.96087646484375,30.494956970214844,36.53815460205078
1633781609136968400,3.918968505859375,-14.77947998046875,30.375951766967773,36.35576629638672
1633781609156847400,3.938847412109375,-14.6622314453125,30.29581069946289,37.02667999267578
1633781609176726300,3.958726318359375,-14.751708984375,30.230051040649414,36.770751953125
1633781609196605400,3.97860546875,-15.35772705078125,30.021806716918945,36.95097351074219
1633781609216484600,3.998484619140625,-15.042236328125,30.1046142578125,36.827056884765625
1633781609236363500,4.018363525390625,-14.8271484375,29.96413230895996,37.01039123535156
1633781609256242400,4.038242431640625,-15.376922607421875,30.079662322998047,36.75320053100586
1633781609276121300,4.058121337890625,-15.181640625,29.970556259155273,36.56903076171875
1633781609296000500,4.07800048828125,-15.827850341796875,29.990619659423828,36.48190689086914
1633781609315879400,4.09787939453125,-15.777099609375,29.799470901489258,36.69364929199219
1633781609335758300,4.11775830078125,-15.878997802734375,29.770095825195312,36.64804458618164
1633781609355637500,4.137637451171875,-15.599700927734375,29.93840980529785,36.926300048828125
1633781609375516400,4.157516357421875,-15.175079345703125,29.704153060913086,36.9609375
1633781609395395600,4.1773955078125,-15.26324462890625,29.693206787109375,36.93931579589844
1633781609415274500,4.1972744140625,-14.70159912109375,29.603422164916992,36.96664047241211
1633781609435153400,4.2171533203125,-15.102813720703125,29.66492462158203,37.234493255615234
1633781609455032300,4.2370322265625,-14.990509033203125,29.329879760742188,37.20368957519531
1633781609474911500,4.256911376953125,-14.798675537109375,29.345273971557617,37.34905242919922
1633781609494790700,4.276790771484375,-14.858856201171875,29.107526779174805,37.369667053222656
1633781609514669300,4.29666943359375,-14.99298095703125,29.10693359375,37.43545150756836
1633781609534548500,4.316548583984375,-15.230682373046875,29.04637908935547,37.66960525512695
1633781609554427400,4.336427490234375,-15.204620361328125,28.809246063232422,37.287025451660156
1633781609574306600,4.356306640625,-15.501800537109375,28.83404541015625,37.4254150390625
1633781609594185500,4.376185546875,-15.645721435546875,28.84998893737793,37.435035705566406
1633781609614065400,4.3960654296875,-15.99102783203125,28.672687530517578,37.53265380859375
1633781609633944600,4.415944580078125,-15.992279052734375,28.532514572143555,37.47441864013672
1633781609653823500,4.435823486328125,-15.9093017578125,28.380319595336914,37.693843841552734
1633781609673702400,4.455702392578125,-16.2060546875,28.407310485839844,37.7777099609375
1633781609693581300,4.475581298828125,-16.093505859375,27.723770141601562,37.91025924682617
1633781609713460500,4.49546044921875,-16.36236572265625,27.791091918945312,38.10467529296875
1633781609733339600,4.515339599609375,-16.60382080078125,27.498550415039062,38.21135330200195
1633781609753218300,4.53521826171875,-16.244720458984375,27.16724395751953,38.1239128112793
1633781609773097500,4.555097412109375,-16.11614990234375,27.159475326538086,38.273170471191406
1633781609792976400,4.574976318359375,-15.928192138671875,26.919084548950195,38.44185256958008
1633781609812855300,4.594855224609375,-15.566375732421875,26.8236026763916,38.52775955200195
1633781609832734500,4.614734375,-15.0865478515625,26.737712860107422,38.622798919677734
1633781609852613000,4.634613037109375,-14.768218994140625,26.950672149658203,39.10013198852539
1633781609872492300,4.6544921875,-14.04736328125,27.063589096069336,39.2554817199707
1633781609892371200,4.67437109375,-13.3521728515625,26.808591842651367,39.446739196777344
1633781609912250400,4.69425048828125,-12.97955322265625,26.827098846435547,39.815948486328125
1633781609932129300,4.71412939453125,-12.648223876953125,26.83660316467285,39.84272766113281
1633781609952008200,4.73400830078125,-11.92694091796875,27.179954528808594,40.110111236572266
1633781609971887400,4.753887451171875,-11.52728271484375,26.92245101928711,40.226585388183594
1633781609991766300,4.773766357421875,-11.183502197265625,26.862016677856445,39.925079345703125
1633781610011645400,4.7936455078125,-10.63482666015625,27.18755531311035,40.26700973510742
1633781610031524000,4.813524169921875,-10.142059326171875,27.156635284423828,40.53404998779297
1633781610051403300,4.8334033203125,-10.0374755859375,26.916479110717773,40.47566223144531
1633781610071282400,4.853282470703125,-9.552032470703125,27.24372100830078,40.439979553222656
1633781610091161300,4.873161376953125,-9.383514404296875,27.547765731811523,40.45081329345703
1633781610111040300,4.893040283203125,-8.78668212890625,27.781919479370117,40.34894561767578
1633781610130919200,4.912919189453125,-8.3179931640625,27.720876693725586,40.26806640625
1633781610150799400,4.93279931640625,-8.95794677734375,28.167739868164062,40.23975372314453
1633781610170678300,4.95267822265625,-8.980987548828125,28.165800094604492,39.91985321044922
1633781610190557200,4.97255712890625,-9.34710693359375,28.25739288330078,39.973052978515625
1633781610210436400,4.992436279296875,-9.708740234375,28.11252212524414,39.74485778808594
1633781610230315300,5.012315185546875,-9.676483154296875,27.892549514770508,39.76821517944336
1633781610250194400,5.0321943359375,-9.729827880859375,28.515806198120117,39.47568893432617
1633781610270073000,5.052072998046875,-9.774566650390625,28.401504516601562,39.59026336669922
1633781610289952300,5.0719521484375,-10.595184326171875,28.520977020263672,39.3259162902832
1633781610309831400,5.09183154296875,-11.19781494140625,28.338186264038086,39.37496566772461
1633781610329710300,5.11171044921875,-12,27.830810546875,39.140838623046875
1633781610349589200,5.13158935546875,-13.091705322265625,27.776874542236328,39.13227844238281
1633781610369468200,5.15146826171875,-13.349365234375,27.625030517578125,39.2312126159668
1633781610389347300,5.171347412109375,-13.380340576171875,27.100610733032227,39.14546203613281
1633781610409226200,5.191226318359375,-13.229248046875,26.840965270996094,39.68777084350586
1633781610429105400,5.21110546875,-13.23553466796875,26.509618759155273,40.05487823486328
1633781610448984300,5.230984375,-12.059906005859375,26.15049171447754,40.45018005371094
1633781610468863200,5.25086328125,-11.046478271484375,26.096519470214844,40.57236862182617
1633781610488742400,5.270742431640625,-10.891571044921875,25.89178466796875,41.08277130126953
1633781610508621300,5.290621337890625,-9.987335205078125,26.041015625,41.17771911621094
1633781610528500200,5.310500244140625,-9.30694580078125,26.493669509887695,40.91814422607422
1633781610548379100,5.330379150390625,-9.182525634765625,27.26586151123047,40.49805450439453
1633781610568258300,5.35025830078125,-9.723236083984375,28.071273803710938,40.1028938293457
1633781610588137500,5.370137451171875,-10.0301513671875,28.54298210144043,39.5303955078125
1633781610608016100,5.39001611328125,-10.34136962890625,29.04848289489746,38.90950393676758
1633781610627895300,5.409895263671875,-10.634368896484375,30.010889053344727,38.448143005371094
1633781610647774200,5.429774169921875,-10.779937744140625,30.3848934173584,38.02189636230469
1633781610667654400,5.449654296875,-10.76220703125,30.525083541870117,37.469993591308594
1633781610687533300,5.469533203125,-10.97027587890625,31.11873435974121,37.34309387207031
1633781610707412200,5.489412109375,-11.35321044921875,31.297229766845703,37.40721893310547
1633781610727291400,5.50929150390625,-11.646697998046875,31.308486938476562,37.29548263549805
1633781610747170300,5.52917041015625,-11.44085693359375,31.496307373046875,37.072967529296875
1633781610767049200,5.54904931640625,-10.99786376953125,31.26860237121582,36.96717834472656
1633781610786928600,5.5689287109375,-11.28057861328125,31.028024673461914,37.02045440673828
1633781610806807800,5.588807861328125,-11.07647705078125,31.1484432220459,37.168800354003906
1633781610826686700,5.608686767578125,-11.1890869140625,31.11773109436035,37.142486572265625
1633781610846565600,5.628565673828125,-11.29364013671875,31.17293930053711,37.146995544433594
1633781610866444500,5.648444580078125,-11.00006103515625,31.554569244384766,36.9932861328125
1633781610886323700,5.66832373046875,-11.122467041015625,31.248565673828125,36.640777587890625
1633781610906202600,5.68820263671875,-11.45159912109375,31.54343605041504,36.839786529541016
1633781610926081500,5.70808154296875,-11.3870849609375,31.612070083618164,36.48698425292969
1633781610945960700,5.727960693359375,-11.634307861328125,31.893917083740234,36.99713134765625
1633781610965839600,5.747839599609375,-11.1365966796875,31.86410140991211,36.717491149902344
1633781610985718800,5.76771875,-11.07293701171875,32.12986755371094,36.44575500488281
1633781611005597700,5.78759765625,-11.136199951171875,32.040138244628906,36.46065139770508
1633781611025476600,5.8074765625,-10.69500732421875,31.964214324951172,36.464473724365234
1633781611045355500,5.82735546875,-11.23193359375,32.02424621582031,36.70536804199219
1633781611065234700,5.847234619140625,-11.04083251953125,32.074012756347656,36.816650390625
1633781611085113900,5.86711376953125,-10.980072021484375,31.936710357666016,36.70887756347656
1633781611104992500,5.886992431640625,-11.145172119140625,31.893888473510742,36.78068161010742
1633781611124871700,5.90687158203125,-11.1102294921875,31.960773468017578,37.13966369628906
1633781611144751600,5.926751708984375,-11.132568359375,32.139198303222656,36.80103302001953
1633781611164630500,5.946630615234375,-10.69390869140625,32.283782958984375,37.21220779418945
1633781611184509700,5.966509765625,-10.4171142578125,31.970386505126953,37.19668197631836
1633781611204388600,5.986388671875,-10.70477294921875,32.02898406982422,37.01884460449219
1633781611224267800,6.006267822265625,-10.74505615234375,32.03134536743164,37.13097381591797
1633781611244146700,6.026146728515625,-10.447509765625,32.00397491455078,37.03997039794922
1633781611264025600,6.046025634765625,-10.461700439453125,32.00699996948242,37.04484939575195
1633781611283904500,6.065904541015625,-10.3720703125,31.904296875,36.94725799560547
1633781611303783700,6.08578369140625,-10.46746826171875,31.830394744873047,36.829429626464844
1633781611323662800,6.105662841796875,-10.844818115234375,31.76217269897461,36.74220275878906
1633781611343541500,6.12554150390625,-10.36474609375,31.972808837890625,37.21583557128906
1633781611363420700,6.145420654296875,-10.580474853515625,31.93389129638672,36.83039474487305
1633781611383299600,6.165299560546875,-10.516632080078125,32.048545837402344,36.844017028808594
1633781611403178800,6.1851787109375,-10.7584228515625,32.081851959228516,37.07312774658203
1633781611423057700,6.2050576171875,-10.95318603515625,32.18584442138672,36.939579010009766
1633781611442936600,6.2249365234375,-11.104583740234375,32.12471008300781,37.14700698852539
1633781611462815700,6.244815673828125,-11.367401123046875,32.277889251708984,36.691261291503906
1633781611482694700,6.264694580078125,-11.331024169921875,32.05543518066406,36.796714782714844
1633781611502573800,6.28457373046875,-11.61029052734375,32.25846862792969,36.496482849121094
1633781611522452500,6.304452392578125,-11.60009765625,32.68940734863281,36.25555419921875
1633781611542331600,6.32433154296875,-11.51275634765625,32.643985748291016,36.10264587402344
1633781611562210600,6.34421044921875,-11.78656005859375,32.54981994628906,36.16971969604492
1633781611582089700,6.36408984375,-11.618499755859375,32.44364547729492,35.886016845703125
1633781611601969700,6.3839697265625,-11.859405517578125,32.57931137084961,35.95765686035156
1633781611621848600,6.4038486328125,-12.20330810546875,32.57417297363281,35.70796203613281
1633781611641727700,6.423727783203125,-11.797760009765625,32.33667755126953,35.70171356201172
1633781611661606700,6.443606689453125,-11.870208740234375,32.60315704345703,35.88733673095703
1633781611681485600,6.463485595703125,-12.36309814453125,32.46162414550781,35.79986572265625
1633781611701364700,6.48336474609375,-12.023895263671875,32.45330047607422,35.538368225097656
1633781611721243600,6.50324365234375,-11.758575439453125,32.47291564941406,35.761863708496094
1633781611741122800,6.523122802734375,-11.946258544921875,32.443904876708984,35.902061462402344
1633781611761001500,6.54300146484375,-12.114013671875,32.380191802978516,35.898948669433594
1633781611780880400,6.56288037109375,-11.841522216796875,32.99468231201172,35.78096389770508
1633781611800759600,6.582759521484375,-12.251953125,32.71364974975586,35.490135192871094
1633781611820638500,6.602638427734375,-11.8809814453125,32.838905334472656,35.49708557128906
1633781611840517600,6.622517578125,-12.185791015625,32.98652648925781,35.44225311279297
1633781611860396300,6.642396240234375,-11.903076171875,33.13041687011719,35.191017150878906
1633781611880275500,6.662275390625,-11.9481201171875,32.8769645690918,35.21904754638672
1633781611900154400,6.682154296875,-11.548919677734375,33.11156463623047,35.33782958984375
1633781611920033500,6.702033447265625,-11.718658447265625,32.995582580566406,35.12825012207031
1633781611939912200,6.721912109375,-11.8179931640625,33.07691192626953,34.981407165527344
1633781611959791400,6.741791259765625,-12.055694580078125,33.20004653930664,35.106605529785156
1633781611979670500,6.76167041015625,-11.886077880859375,33.36627960205078,35.206722259521484
1633781611999549400,6.781549560546875,-11.59283447265625,33.25284957885742,35.02692413330078
1633781612019428600,6.8014287109375,-11.410003662109375,33.31654739379883,34.88401794433594
1633781612039308500,6.82130859375,-11.1138916015625,33.461158752441406,35.00096130371094
1633781612059187500,6.8411875,-10.99200439453125,33.598907470703125,34.934059143066406
1633781612079066600,6.861066650390625,-10.960693359375,33.41143798828125,35.194984436035156
1633781612098945300,6.8809453125,-10.887054443359375,33.44973373413086,35.05524444580078
1633781612118824400,6.900824462890625,-11.126739501953125,33.64292526245117,35.04703140258789
1633781612138703400,6.920703369140625,-10.778564453125,33.36284255981445,34.99787902832031
1633781612158582500,6.94058251953125,-10.879730224609375,33.30322265625,35.405174255371094
1633781612178461400,6.96046142578125,-11.22686767578125,33.37697219848633,35.33009719848633
1633781612198340400,6.98034033203125,-10.67218017578125,33.11909484863281,35.34950256347656
1633781612218219500,7.000219482421875,-10.766082763671875,33.021663665771484,35.578433990478516
1633781612238098400,7.020098388671875,-10.922821044921875,32.734405517578125,35.831382751464844
1633781612257977600,7.0399775390625,-10.920684814453125,32.715087890625,35.90406799316406
1633781612277856300,7.059856201171875,-10.872467041015625,32.73520278930664,36.08961868286133
1633781612297735400,7.0797353515625,-11.14654541015625,32.584617614746094,35.92412567138672
1633781612317614600,7.099614501953125,-10.981292724609375,32.548946380615234,36.024078369140625
1633781612337493500,7.119493408203125,-10.8880615234375,32.33250427246094,36.065460205078125
1633781612357372400,7.139372314453125,-10.958770751953125,32.57441329956055,36.00249481201172
1633781612377251300,7.159251220703125,-11.069091796875,32.35527038574219,36.085960388183594
1633781612397130500,7.179130615234375,-10.998199462890625,32.34221649169922,35.97679138183594
1633781612417009400,7.199009521484375,-10.940704345703125,32.34681701660156,36.19293212890625
1633781612436888600,7.218888671875,-10.872406005859375,32.523353576660156,36.298641204833984
1633781612456767200,7.238767333984375,-10.9432373046875,32.21074295043945,36.13140106201172
1633781612476647400,7.2586474609375,-10.981597900390625,32.60506057739258,36.328094482421875
1633781612496526600,7.278526611328125,-10.87322998046875,32.36681365966797,36.542518615722656
1633781612516405200,7.2984052734375,-10.983001708984375,32.35466766357422,36.27434539794922
1633781612536284400,7.318284423828125,-11.118011474609375,32.3231086730957,36.20391845703125
1633781612556163600,7.33816357421875,-11.3634033203125,32.14265823364258,36.196163177490234
1633781612576042500,7.35804248046875,-11.53875732421875,32.26646041870117,36.26055908203125
1633781612595921400,7.37792138671875,-11.086944580078125,32.03179168701172,36.378448486328125
1633781612615800300,7.39780029296875,-10.92535400390625,32.189971923828125,36.14483642578125
1633781612635679500,7.417679443359375,-11.44244384765625,32.036102294921875,36.00476837158203
1633781612655558400,7.437558349609375,-11.59259033203125,32.604736328125,36.098793029785156
1633781612675437600,7.4574375,-11.231170654296875,32.62586212158203,36.298057556152344
1633781612695316500,7.47731640625,-11.41241455078125,32.44047546386719,36.14628601074219
1633781612715195400,7.4971953125,-11.91241455078125,32.71197509765625,35.89927673339844
1633781612735074600,7.517074462890625,-11.41864013671875,32.59318542480469,35.91019821166992
1633781612754953500,7.536953369140625,-11.46929931640625,32.590946197509766,36.064178466796875
1633781612774832400,7.556832275390625,-12.033233642578125,32.460182189941406,36.07205581665039
1633781612794712800,7.576712890625,-11.070068359375,32.487850189208984,35.99974822998047
1633781612814591700,7.596591796875,-11.443145751953125,32.39561462402344,36.26068878173828
1633781612834470700,7.616470703125,-11.379852294921875,32.44157409667969,36.36045455932617
1633781612854349600,7.636349609375,-11.247283935546875,32.40623474121094,36.370933532714844
1633781612874228700,7.656228759765625,-11.3583984375,32.46885299682617,36.08932876586914
1633781612894108700,7.676108642578125,-11.093780517578125,32.536834716796875,36.31440353393555
1633781612913987600,7.695987548828125,-11.093292236328125,32.4498405456543,35.95622253417969
1633781612933866800,7.71586669921875,-11.006591796875,32.425010681152344,36.19095993041992
1633781612953745700,7.73574560546875,-10.945556640625,32.55587387084961,35.850345611572266
1633781612973624800,7.755624755859375,-11.038604736328125,32.566951751708984,36.12321853637695
1633781612993503500,7.77550341796875,-11.27587890625,33.00571060180664,35.56597137451172
1633781613013382700,7.795382568359375,-11.238739013671875,32.826663970947266,35.63106155395508
1633781613033261800,7.81526171875,-11.348114013671875,32.82696533203125,35.73369598388672
1633781613053140700,7.835140625,-11.448974609375,32.9318962097168,35.77885818481445
1633781613073019600,7.85501953125,-11.47149658203125,33.24338150024414,35.56813049316406
1633781613092898600,7.874898681640625,-11.212371826171875,33.27267837524414,35.77783966064453
1633781613112777700,7.89477783203125,-11.449951171875,33.46055221557617,35.60403823852539
1633781613132656600,7.91465673828125,-11.68743896484375,33.02015686035156,35.79442596435547
1633781613152535600,7.93453564453125,-11.607452392578125,33.081817626953125,35.79106903076172
1633781613172414700,7.954414794921875,-11.196044921875,32.842620849609375,35.53769302368164
1633781613192293600,7.974293701171875,-11.6202392578125,33.021446228027344,35.610557556152344
1633781613212172800,7.9941728515625,-11.58343505859375,32.99321746826172,35.52027893066406
1633781613232051700,8.0140517578125,-11.819671630859375,32.79898452758789,35.30495834350586
1633781613251930600,8.0339306640625,-11.637786865234375,32.93596267700195,35.36720275878906
1633781613271809500,8.0538095703125,-11.727386474609375,33.10655975341797,35.315399169921875
1633781613291688700,8.073688720703124,-11.427490234375,33.07488250732422,35.50305938720703
1633781613311568000,8.09356787109375,-11.553375244140625,33.06700897216797,35.3446044921875
1633781613331447600,8.113447509765624,-11.450164794921875,32.92571258544922,35.4514045715332
1633781613351326700,8.13332666015625,-11.732574462890625,33.09577941894531,35.54887390136719
1633781613371205600,8.15320556640625,-11.764404296875,33.081886291503906,35.367767333984375
1633781613391084500,8.17308447265625,-11.517608642578125,33.153175354003906,35.01441192626953
1633781613410963700,8.192963623046875,-11.61907958984375,33.0766487121582,35.13391876220703
1633781613430842600,8.212842529296875,-11.7523193359375,33.03813934326172,35.155364990234375
1633781613450721800,8.2327216796875,-11.45916748046875,33.162750244140625,35.30138397216797
1633781613470600700,8.2526005859375,-11.679412841796875,32.94306945800781,35.126068115234375
1633781613490479600,8.272479736328124,-11.79644775390625,33.19976806640625,34.95311737060547
1633781613510358500,8.292358642578124,-11.815765380859375,33.00916290283203,35.1043701171875
1633781613530237700,8.31223779296875,-11.451263427734375,33.107765197753906,35.19553756713867
1633781613550116900,8.332116943359376,-11.6944580078125,33.061702728271484,34.81653594970703
1633781613569995500,8.35199560546875,-11.797088623046875,33.09921646118164,34.99976348876953
1633781613589874700,8.371874755859375,-11.74639892578125,32.996734619140625,34.99383544921875
1633781613609753600,8.391753662109375,-11.49151611328125,33.08861541748047,35.37071990966797
1633781613629632800,8.4116328125,-11.558990478515625,33.03603744506836,35.12101745605469
1633781613649511700,8.43151171875,-11.607391357421875,33.035301208496094,35.276344299316406
1633781613669390600,8.451390625,-11.484100341796875,32.993927001953125,35.212303161621094
1633781613689269800,8.471269775390626,-11.674591064453125,33.06191635131836,35.0623664855957
1633781613709148700,8.491148681640626,-11.4456787109375,32.84393310546875,35.32715606689453
1633781613729028600,8.511028564453126,-11.49493408203125,32.680660247802734,35.378536224365234
1633781613748907800,8.53090771484375,-11.655731201171875,33.00779724121094,35.164798736572266
1633781613768786700,8.55078662109375,-11.82635498046875,32.922584533691406,35.394989013671875
1633781613788664800,8.570664794921875,-11.371429443359375,33.03661346435547,35.23812484741211
1633781613808544000,8.5905439453125,-11.361083984375,33.113670349121094,35.03748321533203
1633781613828423000,8.6104228515625,-11.664337158203125,32.95796203613281,35.12449645996094
1633781613848301800,8.6303017578125,-11.668670654296875,32.878082275390625,35.0806770324707
1633781613868181000,8.650180908203126,-11.569854736328125,33.211917877197266,35.465370178222656
1633781613888060000,8.670059814453126,-11.877777099609375,33.08189010620117,35.35369110107422
1633781613907939000,8.68993896484375,-11.805267333984375,33.05213165283203,35.36763000488281
1633781613927817700,8.709817626953125,-12.074493408203125,33.04781723022461,35.482666015625
1633781613947697000,8.72969677734375,-12.025634765625,33.121944427490234,35.29655456542969
1633781613967575800,8.749575927734375,-11.957061767578125,33.08831024169922,35.556846618652344
1633781613987455000,8.769455078125,-11.78375244140625,33.07142639160156,35.604923248291016
1633781614007334000,8.789333984375,-11.958251953125,32.947994232177734,35.41985321044922
1633781614027212800,8.809212890625,-11.83331298828125,33.10774612426758,35.637264251708984
1633781614047092000,8.829092041015626,-11.92498779296875,32.79534912109375,35.41582489013672
1633781614066971000,8.848970947265625,-11.95257568359375,33.161354064941406,35.38874435424805
1633781614086850000,8.86885009765625,-11.395233154296875,33.00067138671875,35.45904541015625
1633781614106728700,8.888728759765625,-11.272705078125,32.93836212158203,35.76960754394531
1633781614126609000,8.90860888671875,-11.23016357421875,32.87815856933594,35.505470275878906
1633781614146488000,8.928488037109375,-11.09423828125,32.762386322021484,35.604434967041016
1633781614166366700,8.94836669921875,-11.29754638671875,32.90040969848633,35.91509246826172
1633781614186246000,8.968245849609374,-11.187164306640625,32.81438064575195,35.84644317626953
1633781614206124800,8.988124755859374,-10.66046142578125,32.62245178222656,35.92988586425781
1633781614226004000,9.00800390625,-10.775390625,32.759952545166016,35.92395782470703
1633781614245883000,9.0278828125,-10.942138671875,32.71798324584961,36.05133819580078
1633781614265761800,9.04776171875,-11.016357421875,32.692718505859375,36.25941467285156
1633781614285641000,9.067640869140625,-10.698699951171875,32.3940544128418,35.97859573364258
1633781614305519900,9.087519775390625,-10.45404052734375,32.67351531982422,36.140708923339844
1633781614325399000,9.10739892578125,-10.33575439453125,32.68892288208008,36.06629180908203
1633781614345277700,9.127277587890624,-10.10540771484375,32.37329864501953,36.36494445800781
1633781614365156900,9.147156982421874,-10.00823974609375,32.226654052734375,36.27357864379883
1633781614385036000,9.1670361328125,-10.32647705078125,32.420654296875,36.47992706298828
1633781614404915000,9.1869150390625,-9.76116943359375,32.19331359863281,36.48632049560547
1633781614424793900,9.2067939453125,-9.495391845703125,31.904796600341797,36.50566101074219
1633781614444672800,9.2266728515625,-9.30242919921875,32.086708068847656,36.729591369628906
1633781614464552000,9.246552001953125,-9.265350341796875,32.00659942626953,36.85899353027344
1633781614484430800,9.266430908203125,-9.4014892578125,31.6063289642334,37.087608337402344
1633781614504310000,9.28631005859375,-9.2088623046875,31.572019577026367,37.27284240722656
1633781614524190000,9.30618994140625,-9.058929443359375,31.38079071044922,37.55693817138672
1633781614544068900,9.32606884765625,-8.961517333984375,31.38819694519043,37.33537673950195
1633781614563948000,9.345947998046874,-9.027740478515625,31.42479705810547,37.09423828125
1633781614583826700,9.36582666015625,-8.86322021484375,31.490795135498047,37.489990234375
1633781614603705900,9.385705810546876,-8.683868408203125,31.151714324951172,37.64978790283203
1633781614623585000,9.4055849609375,-8.717071533203125,31.186378479003906,37.69780349731445
1633781614643464000,9.4254638671875,-8.948974609375,31.256698608398438,37.74138641357422
1633781614663342800,9.4453427734375,-8.929351806640625,31.087841033935547,37.55440902709961
1633781614683221800,9.4652216796875,-8.6402587890625,31.15206527709961,37.66484451293945
1633781614703101000,9.485100830078125,-8.601470947265625,31.177745819091797,37.72454833984375
1633781614722979800,9.504979736328124,-8.391937255859375,30.842660903930664,37.6288948059082
1633781614742859000,9.52485888671875,-8.570648193359375,30.791061401367188,38.105804443359375
1633781614762738000,9.544738037109376,-9.050689697265625,30.689960479736328,37.97357940673828
1633781614782616600,9.564616455078125,-8.9698486328125,30.698841094970703,38.03126907348633
1633781614802495500,9.58449560546875,-8.553131103515625,30.664188385009766,38.11252975463867
1633781614822374700,9.604374755859375,-8.7127685546875,30.443965911865234,38.12171173095703
1633781614842253600,9.624253662109375,-8.554473876953125,30.571117401123047,38.2498779296875
1633781614862132500,9.644132568359375,-8.610931396484375,30.39937973022461,38.143104553222656
1633781614882011400,9.664011474609374,-8.70770263671875,30.284381866455078,38.019317626953125
1633781614901890600,9.683890625,-8.8631591796875,30.552684783935547,38.0875244140625
1633781614921770500,9.7037705078125,-8.863006591796875,30.473739624023438,38.39667510986328
1633781614941649400,9.7236494140625,-8.45550537109375,30.29086685180664,37.97999572753906
1633781614961528600,9.743528564453126,-8.687164306640625,30.734935760498047,38.16112518310547
1633781614981407500,9.763407470703125,-9.033203125,30.566991806030273,38.26117706298828
1633781615001286400,9.783286376953125,-8.27630615234375,30.344955444335938,38.19345474243164
1633781615021165600,9.80316552734375,-8.909027099609375,30.663904190063477,38.3642578125
1633781615041044500,9.82304443359375,-8.905029296875,30.543474197387695,38.32921600341797
1633781615060923600,9.842923583984375,-9.129791259765625,30.5194149017334,38.447608947753906
1633781615080802600,9.862802490234374,-9.1759033203125,30.497493743896484,38.084144592285156
1633781615100681500,9.882681396484376,-9.119110107421875,30.565189361572266,37.852577209472656
1633781615120560400,9.902560302734376,-8.901153564453125,30.86248779296875,38.055503845214844
1633781615140439600,9.922439453125,-8.704864501953125,30.72698974609375,37.97400665283203
1633781615160318700,9.942318603515625,-8.60650634765625,30.797386169433594,37.83464431762695
1633781615180197400,9.962197265625,-8.716644287109375,30.717329025268555,37.97261428833008
1633781615200076500,9.98207666015625,-8.69512939453125,31.119461059570312,37.73817825317383
1633781615219955500,10.00195556640625,-8.532562255859375,31.16522216796875,37.92811965942383
1633781615239834600,10.021834716796874,-8.648773193359375,31.1754150390625,37.729408264160156
1633781615259713500,10.041713623046874,-8.261627197265625,31.192167282104492,37.42212677001953
1633781615279593500,10.061593505859374,-8.493560791015625,31.206466674804688,37.46289825439453
1633781615299472600,10.08147265625,-8.635711669921875,30.931215286254883,37.572303771972656
1633781615319351600,10.1013515625,-8.62823486328125,30.85087776184082,37.63371276855469
1633781615339230500,10.12123046875,-8.18121337890625,31.071083068847656,37.78632354736328
1633781615359109400,10.141109375,-8.43377685546875,31.037370681762695,37.687171936035156
1633781615378988500,10.160988525390625,-9.028472900390625,30.92911148071289,37.84905242919922
1633781615398867700,10.18086767578125,-9.086700439453125,31.315187454223633,37.45893096923828
1633781615418746400,10.200746337890624,-8.8453369140625,31.283077239990234,37.374290466308594
1633781615438625500,10.22062548828125,-8.500274658203125,31.014583587646484,37.469642639160156
1633781615458504400,10.24050439453125,-8.928466796875,31.109718322753906,37.656681060791016
1633781615478383600,10.260383544921876,-9.140625,31.01513671875,37.59611129760742
1633781615498262500,10.280262451171875,-8.647796630859375,30.99285125732422,37.33820724487305
1633781615518141400,10.300141357421875,-9.41851806640625,31.02826690673828,37.638423919677734
1633781615538020600,10.3200205078125,-9.318572998046875,31.180782318115234,37.451171875
1633781615557899500,10.3398994140625,-9.346435546875,31.198305130004883,37.35459899902344
1633781615577778700,10.35977880859375,-9.349334716796875,31.41067886352539,37.18315887451172
1633781615597657300,10.3796572265625,-9.3682861328125,31.508407592773438,37.19682312011719
1633781615617536500,10.39953662109375,-9.3970947265625,31.2099609375,37.17717742919922
1633781615637415400,10.41941552734375,-9.05645751953125,31.58757781982422,37.15650939941406
1633781615657294600,10.439294677734376,-9.05084228515625,31.570911407470703,37.05852508544922
1633781615677174500,10.459174560546876,-9.562896728515625,31.492359161376953,37.03105163574219
1633781615697053400,10.479053466796875,-9.936248779296875,31.416088104248047,37.17821502685547
1633781615716932600,10.4989326171875,-9.761383056640625,31.747554779052734,37.38508605957031
1633781615736811500,10.5188115234375,-9.470550537109375,31.67321014404297,37.3544921875
1633781615756690400,10.5386904296875,-9.174102783203125,31.564495086669922,37.07968521118164
1633781615776569600,10.558569580078125,-9.225555419921875,31.438995361328125,37.14743423461914
1633781615796448300,10.5784482421875,-9.058837890625,31.546335220336914,37.05377197265625
1633781615816327400,10.598327392578126,-8.95721435546875,31.770078659057617,36.98831558227539
1633781615836206000,10.6182060546875,-9.16455078125,31.69940185546875,37.196319580078125
1633781615856085200,10.638085205078125,-8.9046630859375,31.768428802490234,37.0167121887207
1633781615875964400,10.65796435546875,-9.292877197265625,31.685321807861328,37.23661422729492
1633781615895843300,10.67784326171875,-9.262969970703125,31.62560272216797,36.893646240234375
1633781615915722500,10.697722412109375,-8.95098876953125,31.51523780822754,36.8675537109375
1633781615935601200,10.71760107421875,-9.339385986328125,31.512826919555664,37.19154357910156
1633781615955480300,10.737480224609374,-9.480194091796875,31.589988708496094,36.84203338623047
1633781615975359200,10.757359130859374,-8.9522705078125,31.564271926879883,37.020751953125
1633781615995238400,10.77723828125,-9.47784423828125,31.712337493896484,37.07606506347656
1633781616015117300,10.797117431640626,-9.1197509765625,31.550548553466797,37.219993591308594
1633781616034996200,10.816996337890625,-9.10125732421875,31.388080596923828,37.092987060546875
1633781616054876400,10.83687646484375,-9.334747314453125,31.58826446533203,36.85601806640625
1633781616074755300,10.85675537109375,-9.63031005859375,31.507457733154297,36.951168060302734
1633781616094634200,10.87663427734375,-9.854705810546875,31.397594451904297,37.09815979003906
1633781616114513400,10.896513427734375,-9.48272705078125,31.436935424804688,37.08531951904297
1633781616134392300,10.916392333984374,-9.67529296875,31.496273040771484,36.83776092529297
1633781616154271500,10.936271484375,-9.7406005859375,31.740095138549805,37.1676025390625
1633781616174150100,10.956150146484376,-9.502685546875,31.577098846435547,36.930992126464844
1633781616194029300,10.976029296875,-9.5379638671875,31.92868423461914,37.220069885253906
1633781616213908200,10.995908203125,-9.81268310546875,31.984554290771484,36.823829650878906
1633781616233787400,11.015787353515625,-9.806732177734375,31.800796508789062,36.880271911621094
1633781616253666300,11.035666259765625,-9.85498046875,31.740894317626953,36.722877502441406
1633781616273545200,11.055545166015625,-9.460662841796875,31.816776275634766,36.866180419921875
1633781616293424400,11.07542431640625,-9.693389892578125,31.926410675048828,37.09434509277344
1633781616313303300,11.09530322265625,-9.49884033203125,31.902297973632812,37.02593994140625
1633781616333182200,11.11518212890625,-9.41259765625,31.761280059814453,37.22590255737305
1633781616353061000,11.13506103515625,-9.68218994140625,31.85049819946289,37.257484436035156
1633781616372940300,11.154940185546875,-9.715972900390625,31.686819076538086,37.30144500732422
1633781616392819500,11.1748193359375,-9.53533935546875,31.590539932250977,37.187652587890625
1633781616412698400,11.194698486328125,-9.866119384765625,31.917423248291016,37.24401092529297
1633781616432578300,11.214578369140625,-9.597015380859375,31.775672912597656,37.15085983276367
1633781616452457500,11.23445751953125,-9.526763916015625,31.787761688232422,36.88501739501953
1633781616472336400,11.25433642578125,-9.579345703125,31.76353645324707,36.96221923828125
1633781616492215300,11.27421533203125,-9.600982666015625,31.919527053833008,36.94804382324219
1633781616512094200,11.29409423828125,-9.69769287109375,31.808439254760742,36.715538024902344
1633781616531973400,11.313973388671876,-9.7860107421875,31.912967681884766,36.69923400878906
1633781616551852300,11.333852294921876,-9.79461669921875,31.918745040893555,36.76911926269531
1633781616571731500,11.3537314453125,-9.95635986328125,31.717605590820312,36.996246337890625
1633781616591610000,11.373610107421875,-10.293609619140625,31.971338272094727,37.176795959472656
1633781616611489300,11.3934892578125,-10.21929931640625,31.979536056518555,37.08881378173828
1633781616631368400,11.413368408203125,-10.032623291015625,31.885631561279297,36.91033935546875
1633781616651247400,11.433247314453125,-10.360992431640625,31.404630661010742,36.780426025390625
1633781616671126300,11.453126220703124,-10.394439697265625,31.66077423095703,36.98056411743164
1633781616691005200,11.473005126953124,-10.713531494140625,31.547100067138672,37.098365783691406
1633781616710884400,11.49288427734375,-10.259002685546875,31.59463119506836,37.24946975708008
1633781616730763300,11.51276318359375,-10.3909912109375,31.50728988647461,37.28876876831055
1633781616750642200,11.53264208984375,-10.33319091796875,31.753747940063477,37.28512954711914
1633781616770521300,11.552521240234375,-10.446990966796875,31.573036193847656,37.09604263305664
1633781616790400800,11.57240087890625,-10.4068603515625,31.450605392456055,37.16981506347656
1633781616810280400,11.592280517578125,-10.026397705078125,31.479331970214844,37.284507751464844
1633781616830159600,11.61215966796875,-10.344024658203125,31.07360076904297,37.122215270996094
1633781616850038500,11.63203857421875,-10.50384521484375,31.18471908569336,37.08851623535156
1633781616869917700,11.651917724609374,-10.1978759765625,31.018266677856445,37.04991912841797
1633781616889796600,11.671796630859374,-10.21551513671875,31.295766830444336,37.2484130859375
1633781616909675500,11.691675537109376,-10.244964599609375,31.23428726196289,37.17329406738281
1633781616929554700,11.7115546875,-10.391998291015625,31.399324417114258,37.2647819519043
1633781616949433600,11.73143359375,-10.42333984375,31.370849609375,37.20203399658203
1633781616969312800,11.751312744140625,-10.2760009765625,31.249311447143555,37.36321258544922
1633781616989191400,11.77119140625,-10.08428955078125,31.355932235717773,37.24974822998047
1633781617009070600,11.791070556640625,-10.18572998046875,31.213354110717773,37.009437561035156
1633781617028949800,11.81094970703125,-10.187469482421875,31.167587280273438,37.19934844970703
1633781617048828700,11.83082861328125,-9.848297119140625,31.23238754272461,37.010093688964844
1633781617068707600,11.85070751953125,-10.122100830078125,31.228544235229492,37.18845748901367
1633781617088586500,11.87058642578125,-10.155792236328125,31.110307693481445,37.06974792480469
1633781617108465700,11.890465576171875,-10.59698486328125,30.946216583251953,37.36164093017578
1633781617128344600,11.910344482421875,-10.327789306640625,31.14293098449707,37.181968688964844
1633781617148224500,11.930224609375,-10.168548583984375,30.814861297607422,37.3554801940918
1633781617168102700,11.9501025390625,-10.436431884765625,30.626306533813477,37.51117706298828
1633781617187982600,11.969982666015625,-10.491485595703125,31.147035598754883,37.39389419555664
1633781617207861800,11.98986181640625,-10.53240966796875,30.978532791137695,37.4168815612793
1633781617227740400,12.009740478515624,-10.3658447265625,31.10494613647461,37.5225830078125
1633781617247619600,12.02961962890625,-10.4765625,30.85295867919922,37.54553985595703
1633781617267498800,12.049498779296876,-9.976287841796875,31.013423919677734,37.37688446044922
1633781617287377700,12.069377685546876,-10.5179443359375,31.277055740356445,37.41144943237305
1633781617307256600,12.089256591796875,-9.955718994140625,31.08301544189453,37.416439056396484
1633781617327135500,12.109135498046875,-10.101837158203125,30.820449829101562,37.53004455566406
1633781617347014700,12.1290146484375,-10.411224365234375,30.886043548583984,37.456695556640625
1633781617366893600,12.1488935546875,-10.4456787109375,30.95842170715332,37.485103607177734
1633781617386772700,12.168772705078124,-10.703338623046875,31.170228958129883,37.34250259399414
1633781617406651600,12.188651611328124,-10.25048828125,31.016096115112305,37.4893684387207
1633781617426530600,12.208530517578126,-10.5062255859375,30.894859313964844,37.651527404785156
1633781617446409700,12.22840966796875,-10.767364501953125,30.958576202392578,37.649505615234375
1633781617466288600,12.24828857421875,-10.53424072265625,30.79962158203125,37.4844970703125
1633781617486167600,12.26816748046875,-10.481048583984375,30.99897575378418,37.56777572631836
1633781617506046500,12.28804638671875,-10.416015625,30.85340118408203,37.50855255126953
1633781617525926700,12.3079267578125,-10.335296630859375,30.89480209350586,37.425025939941406
1633781617545805600,12.3278056640625,-10.376953125,31.067272186279297,37.397926330566406
1633781617565684500,12.3476845703125,-10.49188232421875,30.745708465576172,37.5958251953125
1633781617585563600,12.367563720703124,-10.637786865234375,30.615877151489258,37.69165802001953
1633781617605442800,12.38744287109375,-10.45086669921875,30.74342155456543,37.541351318359375
1633781617625321700,12.40732177734375,-10.52239990234375,30.652687072753906,37.42117691040039
1633781617645200600,12.42720068359375,-10.415771484375,31.017261505126953,37.481998443603516
1633781617665079600,12.44707958984375,-10.149871826171875,31.010534286499023,37.437652587890625
1633781617684958700,12.466958740234375,-10.233642578125,30.810062408447266,37.254737854003906
1633781617704837600,12.486837646484375,-10.244171142578125,31.03696060180664,37.25047302246094
1633781617724716500,12.506716552734375,-10.27569580078125,30.862960815429688,37.101097106933594
1633781617744595500,12.526595458984374,-10.386077880859375,31.181055068969727,37.26446533203125
1633781617764474600,12.546474609375,-10.358154296875,31.076679229736328,37.24937438964844
1633781617784353800,12.566353759765626,-10.745330810546875,31.160083770751953,37.29228210449219
1633781617804233000,12.58623291015625,-9.84515380859375,31.370311737060547,37.72752380371094
1633781617824111600,12.606111572265625,-10.164031982421875,31.16484260559082,37.396785736083984
1633781617843990800,12.62599072265625,-10.26312255859375,31.15871810913086,37.2870979309082
1633781617863869700,12.64586962890625,-10.043548583984375,31.194156646728516,37.56830596923828
1633781617883749600,12.66574951171875,-10.237396240234375,31.272945404052734,37.429283142089844
1633781617903628800,12.68562890625,-10.12432861328125,31.37381362915039,37.575653076171875
1633781617923507700,12.7055078125,-10.251800537109375,31.150535583496094,37.433128356933594
1633781617943387000,12.725386962890624,-10.2008056640625,31.152151107788086,37.47865676879883
1633781617963265500,12.745265625,-10.281158447265625,30.95798683166504,37.442527770996094
1633781617983144700,12.765144775390626,-10.28533935546875,31.08397674560547,37.44483947753906
1633781618003024000,12.78502392578125,-10.14825439453125,30.77489471435547,37.63446044921875
1633781618022902800,12.80490283203125,-10.040985107421875,30.937484741210938,37.27992248535156
1633781618042782000,12.824781982421875,-10.893280029296875,30.881301879882812,37.47395706176758
1633781618062660600,12.84466064453125,-10.390533447265625,30.883068084716797,37.637088775634766
1633781618082539800,12.864539794921875,-10.824066162109375,30.719791412353516,37.65570068359375
1633781618102418700,12.884418701171874,-10.263214111328125,30.915075302124023,37.430484771728516
1633781618122297900,12.9042978515625,-10.40362548828125,30.96033477783203,37.44720458984375
1633781618142176800,12.9241767578125,-10.776947021484375,30.721576690673828,37.29530334472656
1633781618162055700,12.9440556640625,-10.276214599609375,30.564897537231445,37.388938903808594
1633781618181934800,12.963934814453125,-10.2755126953125,30.7067813873291,37.415489196777344
1633781618201813800,12.983813720703125,-10.4820556640625,30.35097312927246,37.55279541015625
1633781618221693000,13.00369287109375,-10.48162841796875,30.59135627746582,37.75120162963867
1633781618241571600,13.023571533203125,-10.547210693359375,30.31405258178711,37.791465759277344
1633781618261451800,13.04345166015625,-10.531585693359375,30.371551513671875,37.59181213378906
1633781618281331000,13.0633310546875,-10.32464599609375,30.302961349487305,37.97939682006836
1633781618301209600,13.083209716796874,-10.17950439453125,30.374305725097656,37.583465576171875
1633781618321088800,13.1030888671875,-10.738128662109375,30.287246704101562,37.5537223815918
1633781618340967700,13.1229677734375,-10.82159423828125,30.31414031982422,37.68891906738281
1633781618360846800,13.142846923828126,-10.608001708984375,30.618499755859375,37.7255859375
1633781618380725800,13.162725830078125,-10.76641845703125,30.443899154663086,37.8708610534668
1633781618400604700,13.182604736328125,-10.61895751953125,30.37325668334961,37.786048889160156
1633781618420483800,13.20248388671875,-10.31939697265625,30.58100128173828,37.63927459716797
1633781618440362800,13.22236279296875,-10.5257568359375,30.528213500976562,37.75635528564453
1633781618460242000,13.242241943359375,-10.287200927734375,30.74623680114746,37.55039978027344
1633781618480120600,13.26212060546875,-10.722442626953125,30.727264404296875,37.60004425048828
1633781618499999700,13.281999755859376,-10.661163330078125,30.643898010253906,37.53021240234375
1633781618519879000,13.30187890625,-10.73486328125,30.46115493774414,37.621192932128906
1633781618539757800,13.3217578125,-10.702667236328125,30.49379539489746,37.458038330078125
1633781618559636700,13.34163671875,-10.490936279296875,30.773998260498047,37.55381393432617
1633781618579515600,13.361515625,-10.4576416015625,30.552080154418945,37.50617218017578
1633781618599394800,13.381394775390625,-10.32666015625,30.75271987915039,37.76637649536133
1633781618619273700,13.401273681640625,-10.350067138671875,30.659618377685547,37.56731414794922
1633781618639153700,13.421153564453125,-10.46368408203125,30.915302276611328,37.79649353027344
1633781618659032800,13.44103271484375,-10.4876708984375,30.68355941772461,37.546409606933594
1633781618678911700,13.460911865234374,-10.825225830078125,30.7257080078125,37.567138671875
1633781618698791000,13.480791015625,-10.6817626953125,30.81498908996582,37.444183349609375
1633781618718669600,13.500669677734376,-10.341094970703125,31.001869201660156,37.43562698364258
1633781618738548700,13.520548828125,-10.638580322265625,30.99616813659668,37.41124725341797
1633781618758428000,13.540427978515625,-10.32916259765625,31.189128875732422,37.322853088378906
1633781618778306800,13.560306884765625,-10.288970947265625,30.946964263916016,37.28364181518555
1633781618798185500,13.580185546875,-10.200897216796875,31.242469787597656,37.319190979003906
1633781618818064400,13.600064453125,-10.300872802734375,31.02218246459961,37.433162689208984
1633781618837943600,13.619943603515624,-10.4984130859375,30.997447967529297,37.130863189697266
1633781618857822500,13.639822509765626,-10.808868408203125,31.065889358520508,37.45441436767578
1633781618877701600,13.65970166015625,-10.3173828125,31.217548370361328,37.48465347290039
1633781618897580500,13.67958056640625,-10.143402099609375,31.238265991210938,37.41699981689453
1633781618917459500,13.69945947265625,-10.383056640625,31.17774200439453,37.20759582519531
1633781618937338600,13.719338623046875,-10.492584228515625,31.275035858154297,37.36354064941406
1633781618957217500,13.739217529296875,-10.504241943359375,31.12240219116211,37.096351623535156
1633781618977097500,13.759097412109375,-10.223114013671875,31.133146286010742,37.1171875
1633781618996976600,13.7789765625,-10.180328369140625,31.063554763793945,37.11273956298828
1633781619016855600,13.79885546875,-10.18487548828125,30.999755859375,37.25334548950195
1633781619036734500,13.818734375,-9.899627685546875,31.061006546020508,37.26044464111328
1633781619056613400,13.83861328125,-10.332977294921875,31.10182762145996,37.12648010253906
1633781619076492500,13.858492431640625,-10.24322509765625,31.368635177612305,37.24747085571289
1633781619096371500,13.878371337890625,-10.55780029296875,31.079959869384766,37.321624755859375
1633781619116250600,13.898250732421875,-10.508514404296875,31.26650619506836,37.0596923828125
1633781619136129500,13.918129638671875,-10.725067138671875,30.889488220214844,37.06387710571289
1633781619156008400,13.938008544921875,-10.474517822265625,31.008283615112305,37.20658874511719
1633781619175887600,13.9578876953125,-10.233062744140625,31.18360137939453,37.260719299316406
1633781619195766500,13.9777666015625,-10.43829345703125,31.08717155456543,36.988059997558594
1633781619215645400,13.9976455078125,-10.232147216796875,31.17351531982422,37.0084342956543
1633781619235524400,14.0175244140625,-10.084136962890625,31.24652671813965,37.23160171508789
1633781619255403500,14.037403564453125,-10.249481201171875,31.24920082092285,37.21018600463867
1633781619275282700,14.05728271484375,-10.330230712890625,31.25800323486328,37.23524475097656
1633781619295161600,14.07716162109375,-10.63714599609375,31.30267906188965,37.10855484008789
1633781619315040500,14.09704052734375,-10.39678955078125,31.36801528930664,37.082828521728516
1633781619334920400,14.11692041015625,-10.57513427734375,31.324905395507812,37.23767852783203
1633781619354799600,14.136799560546875,-10.610107421875,31.340761184692383,37.126243591308594
1633781619374678500,14.156678466796874,-10.725616455078125,31.22161102294922,37.218841552734375
1633781619394557400,14.176557373046874,-10.589447021484375,31.037166595458984,37.15610122680664
1633781619414436600,14.1964365234375,-10.729644775390625,31.289142608642578,37.21295166015625
1633781619434315500,14.2163154296875,-10.493560791015625,31.61553192138672,37.302337646484375
1633781619454194400,14.2361943359375,-10.22314453125,31.510833740234375,37.3175048828125
1633781619474073300,14.2560732421875,-10.267242431640625,31.469928741455078,37.32847213745117
1633781619493952500,14.275952392578125,-10.83111572265625,31.54314422607422,36.90333557128906
1633781619513831700,14.295831787109375,-11.163909912109375,31.44356918334961,37.004539489746094
1633781619533710600,14.315710693359375,-10.72137451171875,31.427230834960938,37.01124572753906
1633781619553589500,14.335589599609374,-11.04656982421875,31.223491668701172,36.84300994873047
1633781619573468400,14.355468505859376,-10.864471435546875,31.032764434814453,37.106624603271484
1633781619593347600,14.37534765625,-10.752532958984375,30.948362350463867,36.99565124511719
1633781619613226500,14.3952265625,-10.69232177734375,31.09757423400879,36.857479095458984
1633781619633105400,14.41510546875,-10.67535400390625,31.377132415771484,37.158870697021484
1633781619652984600,14.434984619140625,-10.662017822265625,31.389833450317383,37.161155700683594
1633781619672863500,14.454863525390625,-10.48187255859375,31.538864135742188,37.206947326660156
1633781619692742700,14.47474267578125,-10.692718505859375,31.200885772705078,37.083824157714844
1633781619712622300,14.494622314453125,-10.65875244140625,31.08315658569336,36.995201110839844
1633781619732501500,14.51450146484375,-10.5574951171875,31.267139434814453,37.284610748291016
1633781619752380700,14.534380615234374,-11.024993896484375,31.529857635498047,37.09040832519531
1633781619772259600,14.554259521484376,-10.4649658203125,31.05072593688965,37.18806457519531
1633781619792139300,14.57413916015625,-10.8294677734375,31.16568946838379,36.74382019042969
1633781619812018400,14.594018310546875,-10.704864501953125,30.984764099121094,37.06782531738281
1633781619831897600,14.613897705078125,-10.8834228515625,31.18252182006836,37.25498962402344
1633781619851776300,14.6337763671875,-10.586395263671875,31.183530807495117,37.109962463378906
1633781619871655400,14.653655517578125,-10.58978271484375,31.065690994262695,37.189308166503906
1633781619891534300,14.673534423828125,-10.850555419921875,31.207332611083984,37.45250701904297
1633781619911413500,14.69341357421875,-10.62017822265625,31.23868179321289,37.581398010253906
1633781619931292400,14.71329248046875,-10.496551513671875,30.888763427734375,37.19017791748047
1633781619951171300,14.73317138671875,-10.456817626953125,30.91720962524414,37.191856384277344
1633781619971050500,14.753050537109376,-10.62188720703125,31.08283233642578,37.292503356933594
1633781619990929400,14.772929443359375,-10.30877685546875,30.971965789794922,37.04569625854492
1633781620010808600,14.79280859375,-10.44512939453125,31.21149444580078,37.18836212158203
1633781620030688300,14.812688232421875,-10.182708740234375,31.06195068359375,37.18164825439453
1633781620050567400,14.8325673828125,-10.84637451171875,31.120044708251953,37.15342712402344
1633781620070446600,14.852446533203125,-10.534576416015625,31.205867767333984,37.031036376953125
1633781620090325200,14.8723251953125,-10.482757568359375,31.194778442382812,37.292015075683594
1633781620110204400,14.892204345703124,-10.34722900390625,31.074451446533203,37.20828628540039
1633781620130083300,14.912083251953124,-10.726287841796875,31.138450622558594,37.24250411987305
1633781620149962500,14.93196240234375,-10.886199951171875,31.176109313964844,37.24823760986328
1633781620169841400,14.95184130859375,-10.747772216796875,31.049182891845703,37.09999465942383
1633781620189720300,14.97172021484375,-11.476043701171875,30.806499481201172,37.09649658203125
1633781620209599500,14.991599609375,-10.94744873046875,31.060272216796875,37.04335021972656
1633781620229478400,15.011478515625,-10.7452392578125,31.077648162841797,37.11164474487305
1633781620249357600,15.031357666015625,-10.786651611328125,31.058664321899414,37.201690673828125
1633781620269236200,15.051236328125,-10.820709228515625,31.069725036621094,37.223121643066406
1633781620289115400,15.071115478515624,-10.69305419921875,31.116230010986328,37.24506378173828
1633781620308994300,15.090994384765626,-10.87457275390625,31.111330032348633,37.259647369384766
1633781620328873500,15.11087353515625,-10.777130126953125,31.365615844726562,37.20886993408203
1633781620348752400,15.13075244140625,-10.792999267578125,31.127321243286133,37.12638854980469
1633781620368631300,15.15063134765625,-10.640655517578125,31.256404876708984,37.13336181640625
1633781620388510500,15.170510498046875,-10.450286865234375,31.132354736328125,37.20872116088867
1633781620408390400,15.190390380859375,-10.341400146484375,31.104385375976562,37.158905029296875
1633781620428269300,15.210269287109375,-10.650726318359375,31.037456512451172,37.241554260253906
1633781620448148500,15.2301484375,-10.854400634765625,31.202478408813477,37.471649169921875
1633781620468027400,15.25002734375,-10.712982177734375,31.139554977416992,37.27973556518555
1633781620487906600,15.269906494140624,-10.773193359375,30.973037719726562,37.43770980834961
1633781620507785200,15.28978515625,-10.68243408203125,30.917369842529297,37.247276306152344
1633781620527664400,15.309664306640625,-10.60565185546875,30.930065155029297,37.46842575073242
1633781620547543300,15.329543212890625,-10.464935302734375,30.77533721923828,37.450584411621094
1633781620567422500,15.34942236328125,-10.77593994140625,30.771480560302734,37.42756271362305
1633781620587301400,15.36930126953125,-10.55377197265625,30.64794921875,37.57927703857422
1633781620607180300,15.38918017578125,-10.56097412109375,30.616619110107422,37.36626434326172
1633781620627059500,15.4090595703125,-10.582427978515625,30.608261108398438,37.49065017700195
1633781620646938400,15.4289384765625,-10.7705078125,30.681264877319336,37.58583450317383
1633781620666817500,15.448817626953126,-10.455291748046875,30.35354995727539,37.790016174316406
1633781620686696200,15.4686962890625,-10.347198486328125,30.56983757019043,37.82009506225586
1633781620706575400,15.488575439453125,-10.262359619140625,30.27659034729004,37.660797119140625
1633781620726454500,15.50845458984375,-10.26702880859375,30.349437713623047,37.682376861572266
1633781620746333400,15.52833349609375,-10.392364501953125,30.451839447021484,37.714881896972656
1633781620766213400,15.54821337890625,-10.493682861328125,30.392276763916016,37.68603515625
1633781620786092300,15.56809228515625,-10.4300537109375,30.27322769165039,37.69277572631836
1633781620805971500,15.587971435546875,-10.33148193359375,30.440401077270508,38.02075958251953
1633781620825850400,15.607850341796874,-10.53961181640625,30.236875534057617,37.984466552734375
1633781620845729300,15.627729248046874,-10.4139404296875,30.217626571655273,37.79445266723633
1633781620865608200,15.647608154296876,-10.0528564453125,30.138729095458984,37.982086181640625
1633781620885487400,15.6674873046875,-10.01055908203125,30.06608772277832,37.85744857788086
1633781620905366300,15.6873662109375,-10.395721435546875,30.0544490814209,37.63871383666992
1633781620925245200,15.7072451171875,-10.441650390625,30.0318603515625,37.648773193359375
1633781620945124400,15.727124267578125,-10.759735107421875,29.858091354370117,37.97484588623047
1633781620965003300,15.747003173828125,-10.508209228515625,29.666667938232422,37.91653823852539
1633781620984882400,15.76688232421875,-10.519866943359375,29.858869552612305,37.952938079833984
1633781621004761300,15.78676123046875,-10.937408447265625,29.838191986083984,37.88733673095703
1633781621024640300,15.80664013671875,-10.390960693359375,29.915109634399414,37.76011657714844
1633781621044519200,15.826519287109376,-10.36688232421875,29.819507598876953,37.82823944091797
1633781621064398300,15.8463984375,-10.4996337890625,30.052066802978516,37.95614242553711
1633781621084277200,15.86627734375,-10.68768310546875,29.93733787536621,37.997520446777344
1633781621104156200,15.88615625,-10.402923583984375,29.88088607788086,37.62174987792969
1633781621124036400,15.906036376953125,-10.7242431640625,29.998981475830078,37.928306579589844
1633781621143915300,15.925915283203125,-10.658721923828125,29.841732025146484,37.92130661010742
1633781621163794200,15.945794189453125,-10.499542236328125,30.158666610717773,37.700172424316406
1633781621183673300,15.96567333984375,-10.847900390625,29.9853458404541,37.90229797363281
1633781621203552300,15.98555224609375,-10.310546875,30.05669403076172,37.62946701049805
1633781621223431400,16.005431396484376,-10.640106201171875,30.05990982055664,37.80540084838867
1633781621243310300,16.025310302734376,-10.515380859375,29.91969108581543,37.919837951660156
1633781621263189200,16.045189208984375,-10.787353515625,30.13789939880371,37.63630294799805
1633781621283068200,16.065068115234375,-10.388946533203125,30.185331344604492,37.709869384765625
1633781621302947300,16.084947265625,-10.70880126953125,30.081056594848633,37.49895095825195
1633781621322826500,16.104826416015626,-10.8193359375,29.95108413696289,37.89503479003906
1633781621342705200,16.124705078125,-10.582977294921875,30.210582733154297,37.67850875854492
1633781621362584300,16.144584228515626,-10.56085205078125,30.097002029418945,37.8491325378418
1633781621382463200,16.164463134765626,-10.578399658203125,30.1130313873291,37.665931701660156
1633781621402342400,16.18434228515625,-10.601593017578125,30.054649353027344,37.65281677246094
1633781621422221000,16.204220947265625,-10.513153076171875,29.957992553710938,37.635223388671875
1633781621442100200,16.224100341796873,-10.474578857421875,29.88829803466797,37.89371871948242
1633781621461980400,16.24398046875,-10.74859619140625,30.042409896850586,37.764949798583984
1633781621481859300,16.263859375,-10.70703125,29.957372665405273,37.645164489746094
1633781621501738200,16.28373828125,-10.36883544921875,30.04619598388672,37.6546745300293
1633781621521617200,16.3036171875,-10.6861572265625,30.029815673828125,37.58367156982422
1633781621541496300,16.323496337890624,-10.50653076171875,30.11609649658203,37.71015548706055
1633781621561375500,16.34337548828125,-10.40374755859375,30.53099822998047,37.63294219970703
1633781621581254100,16.363254150390624,-10.372589111328125,30.476428985595703,37.73667526245117
1633781621601133300,16.38313330078125,-10.175445556640625,30.551218032836914,37.55116653442383
1633781621621012200,16.40301220703125,-10.526336669921875,30.644311904907227,37.50653076171875
1633781621640891400,16.422891357421875,-10.414306640625,30.469879150390625,37.528846740722656
1633781621660770300,16.442770263671875,-10.083526611328125,30.29346466064453,37.603477478027344
1633781621680649200,16.462649169921875,-10.52105712890625,30.205110549926758,37.90024948120117
1633781621700528400,16.4825283203125,-10.36590576171875,30.69375991821289,37.674896240234375
1633781621720407300,16.5024072265625,-10.71075439453125,30.578365325927734,37.666873931884766
1633781621740286500,16.522286376953126,-10.53338623046875,30.705801010131836,37.34070587158203
1633781621760165000,16.5421650390625,-10.773040771484375,30.664663314819336,37.48910903930664
1633781621780044300,16.562044189453125,-10.7105712890625,30.5324649810791,37.433006286621094
1633781621799924200,16.58192431640625,-10.765045166015625,30.63174819946289,37.627044677734375
1633781621819802000,16.601802001953125,-10.434112548828125,30.850494384765625,37.51573181152344
1633781621839682000,16.62168212890625,-10.67327880859375,30.557987213134766,37.51006317138672
1633781621859561000,16.64156103515625,-10.87689208984375,30.967727661132812,37.46928405761719
1633781621879440100,16.661440185546876,-11.002716064453125,30.711280822753906,37.18833541870117
1633781621899319000,16.681319091796876,-10.90570068359375,30.683940887451172,37.06610107421875
1633781621919198000,16.701197998046876,-11.04302978515625,30.883617401123047,37.30457305908203
1633781621939077000,16.7210771484375,-10.608673095703125,31.138107299804688,37.20977020263672
1633781621958956000,16.7409560546875,-11.055419921875,31.002246856689453,37.257530212402344
1633781621978835200,16.760835205078124,-10.7159423828125,31.02785301208496,37.43027877807617
1633781621998713900,16.7807138671875,-10.591644287109375,31.048625946044922,37.221275329589844
1633781622018593000,16.800593017578127,-10.769927978515625,30.878080368041992,37.11436462402344
1633781622038472000,16.820471923828126,-10.42437744140625,31.057361602783203,37.32705307006836
1633781622058351000,16.84035107421875,-10.3662109375,30.916229248046875,37.140907287597656
1633781622078230000,16.86022998046875,-10.451202392578125,30.90909194946289,37.09074401855469
1633781622098109000,16.88010888671875,-10.4676513671875,31.11669158935547,36.896324157714844
1633781622117988000,16.899988037109374,-10.47906494140625,31.0704288482666,36.990272521972656
1633781622137867000,16.919866943359374,-10.04791259765625,31.000930786132812,37.15660858154297
1633781622157746200,16.93974609375,-10.05950927734375,30.85955047607422,36.915985107421875
1633781622177626000,16.959626220703125,-10.602935791015625,31.08673858642578,37.015533447265625
1633781622197505000,16.979505126953125,-10.2568359375,31.04412269592285,37.28815460205078
1633781622217384200,16.99938427734375,-10.404937744140625,30.791282653808594,37.43052673339844
1633781622237262800,17.019262939453125,-10.77703857421875,30.924354553222656,37.36012268066406
1633781622257142000,17.03914208984375,-10.709991455078125,30.693620681762695,37.4356689453125
1633781622277021000,17.05902099609375,-10.34759521484375,30.919387817382812,37.212440490722656
1633781622296900000,17.078900146484376,-10.905853271484375,31.119792938232422,37.255126953125
1633781622316779300,17.098779296875,-10.596954345703125,30.894060134887695,37.40327453613281
1633781622336658000,17.118657958984375,-10.4925537109375,31.005897521972656,37.43562698364258
1633781622356537000,17.138537109375,-10.080169677734375,30.806970596313477,37.331504821777344
1633781622376416000,17.158416015625,-10.4537353515625,31.113887786865234,37.3580207824707
1633781622396295200,17.178295166015626,-10.60137939453125,31.01677703857422,37.46727752685547
1633781622416173800,17.198173828125,-10.675872802734375,30.787460327148438,37.396263122558594
1633781622436053000,17.218052978515626,-10.644561767578125,30.935321807861328,37.50163269042969
1633781622455932000,17.237931884765626,-10.851959228515625,30.81779670715332,37.34479904174805
1633781622475811000,17.25781103515625,-10.416107177734375,30.92711067199707,37.20928192138672
1633781622495690000,17.27768994140625,-10.65008544921875,31.211793899536133,37.51369094848633
1633781622515569000,17.29756884765625,-10.802093505859375,30.871084213256836,37.327537536621094
1633781622535449000,17.317448974609373,-10.50335693359375,31.066946029663086,37.09884262084961
1633781622555328300,17.337328369140625,-10.658905029296875,30.5788631439209,37.1566162109375
1633781622575207000,17.35720703125,-11.0018310546875,30.918787002563477,37.27174758911133
1633781622595086000,17.377086181640625,-10.346923828125,31.14150619506836,37.478553771972656
1633781622614965000,17.396965087890624,-10.3955078125,30.81896209716797,37.49067687988281
1633781622634844200,17.41684423828125,-10.42144775390625,30.715559005737305,37.609519958496094
1633781622654722800,17.436722900390624,-10.21868896484375,30.807350158691406,37.25801467895508
1633781622674602000,17.45660205078125,-10.178253173828125,30.95770263671875,37.4439582824707
1633781622694481200,17.476481201171875,-10.498321533203125,30.906545639038086,37.5869140625
1633781622714360000,17.496360107421875,-10.6312255859375,30.777652740478516,37.644752502441406
1633781622734239000,17.516239013671875,-10.9266357421875,30.746498107910156,37.27032470703125
1633781622754118000,17.536117919921875,-10.560546875,30.852476119995117,37.49006271362305
1633781622773997000,17.5559970703125,-10.38055419921875,30.842708587646484,37.46232986450195
1633781622793876700,17.575876708984374,-10.598785400390625,30.76125717163086,37.567054748535156
1633781622813755600,17.595755615234374,-10.6534423828125,30.90833854675293,37.42082214355469
1633781622833634600,17.615634521484374,-10.501251220703125,30.610898971557617,37.282432556152344
1633781622853513700,17.635513671875,-10.172576904296875,30.887996673583984,37.24232482910156
1633781622873393400,17.655393310546874,-10.500885009765625,30.99080467224121,37.5564079284668
1633781622893272600,17.6752724609375,-10.8255615234375,30.918010711669922,37.23291778564453
1633781622913151700,17.69515185546875,-10.649993896484375,30.66424560546875,37.52544021606445
1633781622933030700,17.71503076171875,-10.5391845703125,30.825225830078125,37.406349182128906
1633781622952909800,17.734909912109377,-10.2147216796875,30.873641967773438,37.712989807128906
1633781622972788500,17.75478857421875,-10.00506591796875,30.910024642944336,37.609519958496094
1633781622992667600,17.774667724609376,-10.0594482421875,30.62428855895996,37.495079040527344
1633781623012546600,17.794546630859376,-10.313507080078125,30.720703125,37.25019073486328
1633781623032425700,17.81442578125,-9.850250244140625,30.645238876342773,37.46240234375
1633781623052304600,17.8343046875,-9.81591796875,30.71000099182129,37.36458206176758
1633781623072183600,17.85418359375,-9.68914794921875,30.7210750579834,37.50611877441406
1633781623092062700,17.874062744140623,-9.986602783203125,30.74944305419922,37.6500244140625
1633781623111941600,17.893941650390627,-10.211181640625,30.81924819946289,37.49110412597656
1633781623131820800,17.91382080078125,-10.32958984375,30.84042739868164,37.23815155029297
1633781623151699500,17.933699462890626,-9.955474853515625,30.910167694091797,37.4179801940918
1633781623171578600,17.95357861328125,-10.2139892578125,30.892295837402344,37.10152816772461
1633781623191457800,17.973457763671874,-10.207916259765625,31.043338775634766,37.33563232421875
1633781623211336700,17.993336669921874,-10.59075927734375,31.020286560058594,37.183387756347656
1633781623231216600,18.013216552734374,-10.17779541015625,30.72652244567871,37.241493225097656
1633781623251095600,18.033095458984373,-10.247467041015625,30.94515037536621,37.10088348388672
1633781623270974700,18.052974609375,-10.472808837890625,31.139541625976562,36.98100662231445
1633781623290853600,18.072853515625,-10.27337646484375,30.927181243896484,37.165340423583984
1633781623310732500,18.092732666015625,-10.458709716796875,31.083486557006836,37.233619689941406
1633781623330611700,18.11261181640625,-9.67083740234375,30.95182228088379,37.31990051269531
1633781623350490600,18.13249072265625,-10.192047119140625,30.755203247070312,37.173973083496094
1633781623370369800,18.152369873046876,-10.035400390625,30.608386993408203,37.4615592956543
1633781623390248400,18.17224853515625,-9.890289306640625,30.50994873046875,37.4473876953125
1633781623410127600,18.192127685546875,-10.069427490234375,30.52816390991211,37.37093734741211
1633781623430006800,18.2120068359375,-10.130340576171875,30.58551788330078,37.803199768066406
1633781623449885700,18.2318857421875,-10.29425048828125,30.751680374145508,37.432125091552734
1633781623469764600,18.2517646484375,-9.92535400390625,30.722211837768555,37.39475631713867
1633781623489643500,18.2716435546875,-10.244232177734375,30.75684928894043,37.42938232421875
1633781623509522700,18.291522705078126,-10.512847900390625,30.718578338623047,37.234100341796875
1633781623529401600,18.311401611328126,-10.307708740234375,30.665386199951172,37.09059143066406
1633781623549280800,18.33128076171875,-10.053985595703125,30.71108627319336,37.25443649291992
1633781623569159700,18.35115966796875,-10.20599365234375,30.560688018798828,37.350669860839844
1633781623589039600,18.37103955078125,-10.38153076171875,30.644622802734375,37.315513610839844
1633781623608918800,18.390918701171874,-10.298980712890625,30.62498664855957,37.625823974609375
1633781623628797400,18.41079736328125,-10.236785888671875,30.47171974182129,37.60560607910156
1633781623648676600,18.430676513671877,-10.32794189453125,30.397525787353516,37.93650817871094
1633781623668555800,18.4505556640625,-10.524017333984375,30.336700439453125,37.52107238769531
1633781623688434700,18.4704345703125,-10.409698486328125,30.32711410522461,37.53974914550781
1633781623708313600,18.490313720703124,-10.636474609375,30.150245666503906,37.63982391357422
1633781623728192500,18.510192626953124,-10.44781494140625,30.060108184814453,37.674102783203125
1633781623748071700,18.53007177734375,-10.587188720703125,30.224327087402344,37.980831146240234
1633781623767950600,18.54995068359375,-10.702117919921875,30.247894287109375,37.94807052612305
1633781623787829000,18.5698291015625,-10.789215087890625,30.39807891845703,37.92379379272461
1633781623807708000,18.5897080078125,-10.83648681640625,30.187097549438477,37.84764099121094
1633781623827587000,18.609587158203126,-10.699432373046875,30.385242462158203,37.78456115722656
1633781623847466000,18.629466064453126,-10.449554443359375,30.209388732910156,37.664241790771484
1633781623867345200,18.64934521484375,-10.4044189453125,30.33814239501953,37.516563415527344
1633781623887224000,18.66922412109375,-10.491546630859375,30.821853637695312,37.49114990234375
1633781623907103000,18.68910302734375,-10.626190185546875,30.795276641845703,37.645145416259766
1633781623926982000,18.70898193359375,-10.768218994140625,30.649272918701172,37.388877868652344
1633781623946862000,18.728862060546874,-10.696868896484375,30.69365119934082,37.41502380371094
1633781623966741000,18.748740966796873,-11.125457763671875,30.822532653808594,37.5644645690918
1633781623986620000,18.768619873046877,-10.91644287109375,30.680025100708008,37.28029251098633
1633781624006499000,18.7884990234375,-10.593719482421875,31.043107986450195,37.11071014404297
1633781624026378000,18.8083779296875,-10.558135986328125,31.426929473876953,37.18861389160156
1633781624046257000,18.8282568359375,-10.824798583984375,31.44797134399414,36.89604187011719
1633781624066136000,18.848135986328124,-9.89910888671875,31.58464813232422,36.818355560302734
1633781624086015000,18.868014892578124,-9.788909912109375,31.591529846191406,36.72808837890625
1633781624105894100,18.88789404296875,-9.78253173828125,31.867450714111328,36.497928619384766
1633781624125773000,18.90777294921875,-10.198272705078125,31.874418258666992,36.265098571777344
1633781624145652000,18.92765185546875,-10.065185546875,32.130836486816406,36.29053497314453
1633781624165531000,18.94753076171875,-9.37188720703125,31.94634246826172,36.36219787597656
1633781624185410000,18.96741015625,-9.671112060546875,31.951797485351562,36.545433044433594
1633781624205289200,18.987289306640626,-10.0028076171875,32.18667221069336,36.35768508911133
1633781624225168000,19.00716796875,-10.0576171875,32.12839889526367,36.294891357421875
1633781624245047000,19.027047119140626,-9.852142333984375,32.11906051635742,36.20011901855469
1633781624264926000,19.046926025390626,-9.923553466796875,32.691471099853516,36.02198028564453
1633781624284805000,19.06680517578125,-9.8060302734375,32.68324279785156,35.681396484375
1633781624304685000,19.08668505859375,-9.495819091796875,33.0714225769043,35.5179443359375
1633781624324564000,19.10656396484375,-9.50079345703125,33.39491653442383,35.30597686767578
1633781624344443100,19.126443115234373,-9.37396240234375,33.51555633544922,35.05091857910156
1633781624364322000,19.146322021484377,-9.64849853515625,33.694419860839844,34.86544418334961
1633781624384201000,19.166200927734376,-10.473175048828125,33.662254333496094,34.71326446533203
1633781624404079900,19.186079833984376,-10.78009033203125,33.86897277832031,34.61537170410156
1633781624423959000,19.205958984375,-11.35797119140625,33.82575607299805,34.81737518310547
1633781624443838200,19.225838134765624,-11.483001708984375,33.711753845214844,34.77082061767578
1633781624463716900,19.245716796875,-11.91717529296875,33.69105529785156,34.90639877319336
1633781624483596000,19.265595947265624,-11.5145263671875,33.84823226928711,34.65371322631836
1633781624503475000,19.285474853515623,-11.27734375,34.17989730834961,34.619720458984375
1633781624523354000,19.30535400390625,-11.043914794921875,33.943138122558594,34.62358093261719
1633781624543233000,19.32523291015625,-10.91729736328125,33.95296859741211,34.52582550048828
1633781624563112000,19.34511181640625,-10.78167724609375,33.91106414794922,34.60533905029297
1633781624582991000,19.3649912109375,-10.548431396484375,34.24224090576172,34.76078796386719
1633781624602870000,19.3848701171875,-11.113128662109375,34.01227569580078,34.78532409667969
1633781624622749200,19.404749267578126,-10.591094970703125,34.320884704589844,34.661460876464844
1633781624642627800,19.4246279296875,-10.744659423828125,34.26617431640625,34.623924255371094
1633781624662507000,19.444507080078125,-10.32464599609375,34.060874938964844,34.470542907714844
1633781624682387200,19.46438720703125,-10.727142333984375,34.228511810302734,34.286643981933594
1633781624702265900,19.484265869140625,-10.462554931640625,34.28173828125,34.344627380371094
1633781624722145000,19.50414501953125,-10.5682373046875,34.212039947509766,34.31216049194336
1633781624742024000,19.52402392578125,-9.990875244140625,34.697940826416016,33.92759704589844
1633781624761903000,19.543903076171876,-10.05322265625,34.41743850708008,34.16507339477539
1633781624781782000,19.563781982421876,-9.979400634765625,34.53359603881836,33.978111267089844
1633781624801661200,19.5836611328125,-9.824554443359375,34.46630859375,33.95283126831055
1633781624821540000,19.6035400390625,-10.03790283203125,34.590126037597656,34.18255615234375
1633781624841419300,19.623419189453124,-9.826171875,34.46189498901367,34.34642791748047
1633781624861298200,19.643298095703123,-9.75,34.61448669433594,34.22254180908203
1633781624881177000,19.663177001953127,-10.2784423828125,34.34016036987305,33.93956756591797
1633781624901056300,19.68305615234375,-9.52691650390625,34.35251998901367,34.09554672241211
1633781624920935200,19.70293505859375,-10.034698486328125,34.330909729003906,34.31229782104492
1633781624940814300,19.722814453125,-9.898040771484375,34.31595993041992,33.951393127441406
1633781624960693200,19.742693359375,-10.2008056640625,34.324256896972656,34.46160888671875
1633781624980572200,19.762572265625,-10.42633056640625,34.28029251098633,34.09205627441406
1633781625000451000,19.782451171875,-10.377593994140625,34.216552734375,34.07744216918945
1633781625020331300,19.802331298828125,-10.14453125,34.27275466918945,34.24578094482422
1633781625040210200,19.822210205078125,-10.29864501953125,34.60212707519531,34.1409912109375
1633781625060089000,19.842089111328125,-10.17523193359375,34.574790954589844,34.289146423339844
1633781625079968300,19.86196826171875,-10.00848388671875,34.52616882324219,34.078521728515625
1633781625099847200,19.88184716796875,-10.30596923828125,34.56295394897461,34.23736572265625
1633781625119726000,19.90172607421875,-10.0306396484375,34.61347198486328,33.790611267089844
1633781625139605200,19.921605224609376,-9.597625732421875,34.84584045410156,33.98051452636719
1633781625159484200,19.941484130859376,-9.81512451171875,34.60966873168945,33.72337341308594
1633781625179363300,19.96136328125,-10.170257568359375,34.878570556640625,33.821685791015625
1633781625199242200,19.9812421875,-10.083160400390625,34.843509674072266,33.67485809326172
1633781625219121200,20.00112109375,-10.06536865234375,35.025325775146484,33.719886779785156
1633781625239000000,20.021,-10.389007568359375,35.058250427246094,33.9138069152832
1633781625258879200,20.040879150390627,-10.463531494140625,34.940101623535156,34.012962341308594
1633781625278758400,20.06075830078125,-9.939849853515625,34.517791748046875,34.028438568115234
1633781625298637000,20.080636962890626,-10.2835693359375,34.808250427246094,33.97166442871094
1633781625318516200,20.10051611328125,-10.455078125,34.94190216064453,33.95234680175781
1633781625338395100,20.12039501953125,-9.90570068359375,34.76200866699219,33.842830657958984
1633781625358274300,20.1402744140625,-10.21563720703125,34.80066680908203,34.001708984375
1633781625378154200,20.160154296875,-10.258270263671875,35.01911926269531,33.86302185058594
1633781625398033200,20.180033203125,-9.916595458984375,34.9034309387207,33.98670959472656
1633781625417912300,20.199912353515625,-10.340057373046875,35.015724182128906,33.69126892089844
1633781625437791200,20.219791259765625,-10.20147705078125,35.16194152832031,34.006996154785156
1633781625457670100,20.239670166015625,-9.560638427734375,35.12425994873047,33.77766418457031
1633781625477549000,20.259549072265624,-9.861724853515625,35.10968780517578,33.82283401489258
1633781625497428200,20.27942822265625,-10.401153564453125,35.09021759033203,33.75187301635742
1633781625517307400,20.299307373046876,-10.361572265625,34.83473587036133,34.15168762207031
1633781625537186000,20.31918603515625,-10.347564697265625,34.905181884765625,33.854774475097656
1633781625557065200,20.339065185546875,-9.961029052734375,34.61266326904297,33.736541748046875
1633781625576944000,20.358944091796875,-10.1512451171875,34.79257583618164,33.79811096191406
1633781625596823300,20.3788232421875,-9.463592529296875,35.079654693603516,33.871028900146484
1633781625616702000,20.398701904296875,-9.09027099609375,35.040889739990234,34.20072937011719
1633781625636581000,20.4185810546875,-9.499176025390625,35.02568435668945,33.819297790527344
1633781625656460300,20.438460205078126,-9.568695068359375,34.79777526855469,34.02649688720703
1633781625676339200,20.458339111328126,-9.62359619140625,34.723846435546875,34.00965118408203
