time,seconds_elapsed,z,y,x
1633780782888157000,0.023156982421875,0.04973638307154178,0.11470160719603299,-0.059212067425251
1633780782908035800,0.043035888671875,-0.05233809000253677,0.07567775679677724,-0.024188684839010238
1633780782927914800,0.062914794921875,-0.12385317416191101,0.11435469345450401,0.0416651221556589
1633780782947794000,0.0827939453125,-0.22720541208684444,0.08130231868028641,-0.11232457586638629
1633780782967672800,0.1026728515625,-0.13094517824947832,0.03304740633815527,-0.20361410861909388
1633780782987552800,0.122552734375,-0.010100538253784179,0.025738252368569373,-0.1510970087878406
1633780783007432000,0.142431884765625,0.11309504878222942,-0.0025999533653259274,0.007582856344431638
1633780783027310800,0.162310791015625,0.04964285956919193,0.0349696065723896,0.026485344408825037
1633780783047190000,0.18218994140625,0.13265724286437033,0.03319061420112848,0.0628447248391807
1633780783067069000,0.20206884765625,0.1514554668366909,0.04980798700302839,-0.0033818975232541557
1633780783086947800,0.22194775390625,0.053044192445278165,0.01703910534530878,-0.00715418260358274
1633780783106828000,0.241828125,0.10609715271890163,0.051826341088116165,0.014934643879346548
1633780783126707000,0.26170703125,0.027293080595135688,0.034614509524405,0.0123061950718984
1633780783146585900,0.2815859375,0.047809214401245116,-0.0013046528577804564,-0.04026077178306877
1633780783166464800,0.30146484375,-0.022427520385384557,-0.034516602107882495,-0.11183584250137209
1633780783186344000,0.321343994140625,0.028811083942651746,-0.06542115119844674,-0.08819058035667986
1633780783206224000,0.341223876953125,-0.08081307385861873,-0.08109042949527502,-0.01901497199553996
1633780783226102800,0.361102783203125,-0.028086861321330068,-0.10019640424251555,-0.05910005841813981
1633780783245982000,0.38098193359375,-0.017137012761831282,-0.08726502647697926,-0.11031254192423075
1633780783265860900,0.40086083984375,-0.023235914158821105,-0.07331248897016047,-0.08862542810998857
1633780783285739800,0.42073974609375,-0.01687748504281044,-0.024188392578065394,-0.09305383901149034
1633780783305620000,0.440619873046875,-0.03458849830031395,-0.02090776347219944,-0.1389777876554057
1633780783325499000,0.460498779296875,0.08309446279406547,0.016680208905041218,-0.07088920734599233
1633780783345378000,0.4803779296875,0.11296470040082932,0.036190965060889715,-0.017504421302117407
1633780783365257000,0.500257080078125,0.11588321819603442,0.04110562510937452,0.0549414409013465
1633780783385135900,0.520135986328125,0.12673662064373492,0.11099164676219224,0.12343852894641458
1633780783405015000,0.54001513671875,0.14894436079859733,0.08841039711982011,0.16089432631134987
1633780783424894700,0.559894775390625,-0.11071487564742565,0.005092062442004681,0.0933249110378325
1633780783444774000,0.57977392578125,-0.09905249490439891,-0.07663695721775293,-0.23287520135156808
1633780783464653000,0.599653076171875,-0.10672200661897659,0.015175065039098263,-0.47209253827147185
1633780783484532000,0.619531982421875,-0.052661915129423136,0.14389321488887072,-0.09319609702639281
1633780783504411000,0.639410888671875,0.3102612964361906,0.06049450845122337,0.38492198514491316
1633780783524290800,0.659290771484375,0.3162041304886341,0.06514905625879765,0.33911242012828585
1633780783544170000,0.679169921875,0.3090495825588703,0.005534837773442268,0.15184052063152192
1633780783564049000,0.699048828125,0.44908290714919563,-0.005184709161520004,0.004063888438045979
1633780783583927800,0.718927734375,0.12067395960390567,-0.06177344234585762,0.06397087932489812
1633780783603807000,0.738806884765625,0.1795019961476326,-0.01104424884468317,0.06883578194752335
1633780783623687000,0.75868701171875,0.13341010705828665,-0.03837269301414489,0.05726327144503593
1633780783643565800,0.77856591796875,0.02513444125652313,-0.020784721614420413,0.14769947530403732
1633780783663445000,0.798445068359375,0.026374212184548378,-0.05300649078339338,0.08066650499477981
1633780783683324000,0.818323974609375,-0.1373299108505249,-0.02350011805295944,0.010467544935271144
1633780783703203000,0.838203125,-0.28307518334686754,-0.06799100168645382,-0.05543780958354473
1633780783723083000,0.8580830078125,-0.3741092069685459,-0.030814824980497358,-0.10964914611205458
1633780783742962000,0.8779619140625,-0.2745809112459421,-0.007510814021527767,-0.18276267844401298
1633780783762841000,0.897841064453125,-0.18604747226834295,-0.06185644445419311,-0.2459827394016087
1633780783782719700,0.9177197265625,-0.15380641387701033,-0.05709872853308916,-0.116516255402565
1633780783802599000,0.937598876953125,-0.024451135167479515,-0.054177288128435606,-0.16197291532829403
1633780783822477800,0.957477783203125,-0.03761164551377296,-0.11364888327270746,-0.12528064968176186
1633780783842357800,0.977357666015625,0.06525660828649997,-0.11249240671396254,-0.03458568528871983
1633780783862237000,0.99723681640625,0.1374906543701887,-0.1577121891438961,-0.05424366789553314
1633780783882115800,1.01711572265625,0.22652385956346988,-0.14403729953467845,-0.007306596686318516
1633780783901995000,1.0369951171875,0.21658231126368044,-0.05638415052294731,0.11296444467250256
1633780783921874000,1.0568740234375,0.19531915848255157,-0.04985854814648628,0.11297102054376154
1633780783941753900,1.07675390625,0.11659925751090049,0.05345598811656236,0.005326638382859528
1633780783961633000,1.096633056640625,-0.0011006547182798386,0.055365036608278746,-0.042826494085229934
1633780783981512000,1.116511962890625,-0.06810381441116332,0.03202449303120374,-0.031233086925186216
1633780784001390800,1.136390869140625,-0.04854688102602958,0.04622340651452541,-0.05516334002371877
1633780784021269800,1.156269775390625,0.06731821699142455,0.018591303223371505,-0.07455441532265394
1633780784041150000,1.17614990234375,0.05084405205249786,0.006772562874853611,-0.06274159325826913
1633780784061028900,1.19602880859375,0.07276186935007571,-0.015435177280008792,0.009561572538875043
1633780784080907800,1.21590771484375,-0.07628127564787865,-0.005981997019052505,0.1119479976389557
1633780784100787000,1.235786865234375,-0.17105565484166144,0.043702363604307175,0.024889526584744453
1633780784120666000,1.255666015625,-0.19183306993246077,0.07608692211955785,-0.13741130552366376
1633780784140544800,1.275544677734375,-0.10148527500927447,0.12349544676542282,-0.1786493979062885
1633780784160425000,1.295425048828125,-0.08570786016285419,0.1433908183246851,-0.14849405974783003
1633780784180304000,1.315303955078125,-0.045857495811581606,0.16106383765935897,-0.12426047632116824
1633780784200183000,1.33518310546875,0.03228782014250755,0.07982610864788293,-0.1593911917394027
1633780784220062000,1.35506201171875,0.13530629606842995,-0.001355214001238346,-0.11591617061756551
1633780784239940900,1.37494091796875,0.2554530169278383,-0.03669073127657175,-0.05184921050705015
1633780784259821000,1.394821044921875,0.3527952007830143,-0.04959960494935512,-0.002708199512772262
1633780784279699700,1.41469970703125,0.36415596823096275,-0.05429185441881418,0.0641699090283364
1633780784299579000,1.434578857421875,0.31126959669589993,-0.028244389970600605,0.19742851531933991
1633780784319458000,1.4544580078125,0.22744272797405718,-0.03356470821052789,0.2325275204250589
1633780784339337200,1.474337158203125,0.050204585105180735,0.045775370486080644,0.07792389175575226
1633780784359217000,1.494216796875,-0.09016717765927314,0.13005290558487176,0.002948803335614502
1633780784379096000,1.514095947265625,-0.1173310789167881,0.10047405214011669,-0.08381488602310419
1633780784398975000,1.53397509765625,-0.19828619159460067,0.008960136047005653,-0.1628178051872179
1633780784418854000,1.55385400390625,-0.16876315999031066,-0.07694032407850027,-0.13249810677990317
1633780784438733000,1.573733154296875,-0.09247253199219703,-0.14242431138008832,-0.08132917015459389
1633780784458612000,1.593612060546875,-0.00879120922088623,-0.23462591747641562,-0.010118220040947198
1633780784478492000,1.613491943359375,0.11476619686484336,-0.22144816373437642,0.037700310177914795
1633780784498370800,1.633370849609375,0.17571604786813258,-0.1925812579512596,0.012238427065312862
1633780784518250000,1.65325,0.20410861413776873,-0.1830450755819678,0.02914331157170236
1633780784538129200,1.673129150390625,0.07694295442700386,-0.11529869630634784,0.11199837611932306
1633780784558008000,1.693008056640625,0.08498188397586345,-0.054447629502415655,0.13000285589806734
1633780784577888000,1.712887939453125,0.06241875451207161,0.1062003208324313,0.0612615838335827
1633780784597767000,1.732766845703125,0.07012742919325828,0.1677265104189515,0.06839377380106598
1633780784617646000,1.75264599609375,0.014075287103652953,0.21550416063815353,0.11855298539455979
1633780784637525000,1.77252490234375,0.09990823495090007,0.18648878629505633,0.07370989078991115
1633780784657404000,1.79240380859375,-0.012140519648790359,0.11372867051064968,0.03786996765639633
1633780784677284000,1.8122841796875,0.02015957545340061,0.03499620231837034,0.0732491779429838
1633780784697163000,1.8321630859375,0.039186932006478305,-0.03583265314251184,0.0892352671040222
1633780784717042000,1.8520419921875,0.010890811848640441,-0.08614362123161554,0.05026329302247613
1633780784736921000,1.871921142578125,0.06750058782100678,-0.11194821683466434,0.06580996785294264
1633780784756800000,1.891800048828125,0.027075053930282592,-0.11056231543421745,0.06499324464257807
1633780784776679000,1.911678955078125,-0.025835867524147033,-0.08953823210597038,0.0968104881312698
1633780784796559000,1.93155908203125,-0.046754736912250516,-0.08209785297214985,0.10380754394438117
1633780784816438000,1.95143798828125,-0.06994973453879356,-0.013577274453639984,0.07675554209612309
1633780784836317200,1.971317138671875,-0.06654547905325889,0.018602993661165235,0.050385531162656844
1633780784856195800,1.99119580078125,-0.06828910785019397,0.03847966051995754,0.06359868501164019
1633780784876075000,2.011074951171875,-0.02313946804702282,0.04424012374281883,0.09169687144458294
1633780784895955200,2.030955078125,0.060793783658742905,0.05754062708169221,0.08143040203936397
1633780784915833900,2.050833740234375,0.1127998652279377,0.0306038125783205,0.052649676702357824
1633780784935713000,2.070713134765625,0.12179741067588329,-0.03757569741755724,0.08464994860775768
1633780784955592000,2.090592041015625,0.09047346712946891,-0.057337213464081285,0.05715206615552306
1633780784975471000,2.11047119140625,0.11566694509685038,-0.03984890304654837,0.00773212862201035
1633780784995349800,2.130349853515625,0.08281973750591277,0.026963702510297297,-0.012545885579288004
1633780785015230000,2.15022998046875,0.04776245265007019,0.0755269501492381,-0.038175088082812725
1633780785035109000,2.170109130859375,-0.019772621962428093,0.06607026275694369,-0.10308496529087424
1633780785054988000,2.189988037109375,-0.07651566892564296,0.1040115786164999,-0.07661664508208632
1633780785074867000,2.209866943359375,0.053882981356978416,0.06732581577599048,-0.047706996135786175
1633780785094746000,2.22974609375,-0.023267478340864182,0.09780834006220102,-0.07902071054913103
1633780785114626000,2.2496259765625,0.02863748094141483,0.039509003567695614,0.028069690990820524
1633780785134505000,2.2695048828125,-0.027853052565455436,0.0366121130824089,0.028218013420328498
1633780785154384000,2.2893837890625,0.03526303656101227,0.037871173232793806,-0.026726715416647492
1633780785174263000,2.309262939453125,0.03417699488997459,0.09361614906936884,-0.0729157082049176
1633780785194142200,2.32914208984375,0.0056219315350055695,0.05181465065032243,-0.0955331982044503
1633780785214022000,2.34902197265625,0.005889642560482025,0.10276771603524684,-0.11925298689007759
1633780785233901000,2.368901123046875,0.03024433161616325,0.11111994931697845,-0.0968259414287284
1633780785253780000,2.388780029296875,0.06296294439136982,0.07305354577302932,-0.06615450697429477
1633780785273659000,2.408658935546875,0.0996802714139223,0.08841244294643402,-0.09119356156494468
1633780785293538000,2.4285380859375,0.008089782953262329,0.07560176895111799,-0.055350569691509005
1633780785313421600,2.448421630859375,-0.04843348377943039,0.07775982376784085,-0.09204981306809931
1633780785333300500,2.468300537109375,-0.07927052059173584,0.07782236761003732,-0.13829294719640164
1633780785353179400,2.488179443359375,-0.0650245530962944,0.0644952685251832,-0.17402053252924232
1633780785373058600,2.50805859375,-0.08885784862637519,0.05427285745739936,-0.188685236893408
1633780785392937500,2.5279375,-0.10844926880300045,0.055547699698805804,-0.206549614081718
1633780785412816600,2.547816650390625,-0.1265893211275339,0.02161269687116146,-0.19810926412511615
1633780785432696600,2.567696533203125,-0.05430968233644962,-0.039433307982981204,-0.23569734610021112
1633780785452575500,2.587575439453125,-0.03206570182442665,-0.0480298714146018,-0.24982399806492028
1633780785472454700,2.60745458984375,-0.007580079865455627,-0.05693301657736301,-0.18675883540809154
1633780785492333300,2.627333251953125,0.06384031174778938,-0.10126841738820075,-0.11471859486345201
1633780785512212500,2.64721240234375,0.10144260491132735,-0.08578384800851345,-0.0626151903996244
1633780785532092700,2.6670927734375,0.09149111973941326,-0.05735445685982704,-0.01191423661224544
1633780785551971300,2.686971435546875,0.0824000507891178,-0.010125964955985545,0.03811857212260365
1633780785571850500,2.7068505859375,0.06552373479008675,0.01900631376504898,0.06433284450508654
1633780785591729400,2.7267294921875,0.008216624203324318,0.05891308447867632,0.03598349632266909
1633780785611608600,2.746608642578125,-0.055607905453443525,0.08509177409112453,0.0545816311456263
1633780785631487500,2.766487548828125,-0.044785482665896416,0.06987286991029977,0.11519530899710953
1633780785651367400,2.786367431640625,-0.01895662940442562,0.08600304371714591,0.10927154497131705
1633780785671246600,2.80624658203125,-0.06247545313537121,0.06252426071316003,0.07371526108477264
1633780785691125500,2.82612548828125,-0.01148819321990013,-0.010964753867685794,0.04843567573651671
1633780785711004400,2.84600439453125,0.04163023350536823,-0.005378478167951107,0.03316007293239236
1633780785730883600,2.865883544921875,0.05678922419250011,-0.009961422044038772,0.0043262291686609385
1633780785750763500,2.885763427734375,0.07915829238891602,-0.04781096796691418,0.01679371574949473
1633780785770642400,2.905642333984375,0.0918424173951149,-0.02430062078088522,0.03897957286611199
1633780785790521300,2.925521240234375,0.07788111205995082,0.005528408032655715,0.011800839365646243
1633780785810400500,2.945400390625,0.08804010250270367,0.010966799694299697,-0.00703753395397216
1633780785830279700,2.96527978515625,0.0661661243468523,-0.007525427068769931,0.018732720988057554
1633780785850159400,2.985159423828125,0.019990064105391503,0.02357084520161152,-0.008465228669531644
1633780785870038500,3.00503857421875,-0.024982465565204618,0.023736557157337666,-0.009123729110881686
1633780785889917700,3.024917724609375,0.04361059366762638,-0.037707799364626406,0.09097071259450167
1633780785909796400,3.04479638671875,0.08509002052545547,-0.0631599282681942,0.12194248170237988
1633780785929675500,3.064675537109375,0.09073825554549693,-0.07512158421874046,0.1579552771847695
1633780785949554400,3.084554443359375,0.03110240975022316,-0.061201487676799296,0.20669117797687647
1633780785969434600,3.1044345703125,0.008726911813020705,-0.1038455743998289,0.21781031868867576
1633780785989313500,3.1243134765625,-0.02512625795006752,-0.01860591627061367,0.19261256640497593
1633780786009192400,3.1441923828125,-0.0511298832565546,0.14104747006893156,0.14022154063880443
1633780786029071600,3.164071533203125,-0.043889410609006876,0.23948855507671832,0.09172375945150851
1633780786048950500,3.183950439453125,-0.03228606657683849,0.2239896649107337,0.050066966732777655
1633780786068830500,3.20383056640625,-0.016647183418273925,0.1494099324837327,0.05088639335688203
1633780786088709600,3.223709716796875,-0.032684710505604744,0.1193394961297512,0.06579710837136954
1633780786108588500,3.243588623046875,-0.004283960929512978,0.03877630537897348,0.0833599818624556
1633780786128467500,3.263467529296875,0.05594751267135143,0.008850538192689418,0.06124824942797422
1633780786148346400,3.283346435546875,0.12420388729572296,-0.06819353852123022,0.045812852952256795
1633780786168226600,3.3032265625,0.17401392012536523,-0.1267865972653031,0.04278700232505798
1633780786188105500,3.32310546875,0.19104104277193545,-0.1781438595369458,0.012546689296886324
1633780786207984400,3.342984375,0.09930325479507446,-0.19189532151371239,0.0574986876361072
1633780786227863600,3.362863525390625,-0.02871113069951534,-0.12660977939367293,0.05561893830411136
1633780786247742500,3.382742431640625,-0.1679600269138813,-0.040457974855601785,0.007512348391488194
1633780786267621600,3.40262158203125,-0.17845453292131422,0.06241875451207161,-0.046981969796866176
1633780786287501600,3.42250146484375,-0.17917524841129778,0.14148527696430682,-0.1313607733130455
1633780786307380500,3.44238037109375,-0.22843816875219344,0.1676692272737622,-0.13381591138020157
1633780786327260000,3.462260009765625,-0.15780863525569438,0.25180852294564243,-0.006814904179237783
1633780786347138600,3.482138671875,-0.19184242228269577,0.2351490645676851,0.024789390678517518
1633780786367017700,3.502017822265625,-0.040732407882809636,0.1634524863615632,-0.01528327465392649
1633780786386898000,3.52189794921875,0.08658698108494281,0.16161650310605763,0.0018780322989448903
1633780786406776600,3.541776611328125,0.14226093751192093,0.12171499308943748,0.03509228310398757
1633780786426655700,3.56165576171875,0.1871791066467762,0.09155570940822362,0.03243325649518519
1633780786446534700,3.58153466796875,0.2209106958568096,0.03404080128967762,-0.008726181160658597
1633780786466413800,3.601413818359375,0.22194003890454767,-0.018295827408134936,-0.03258954303544014
1633780786486293800,3.621293701171875,0.1781593493670225,-0.007739362080395221,-0.10493431948460638
1633780786506172700,3.641172607421875,0.11728490168750286,-0.03636486032307148,-0.11831113946270197
1633780786526051800,3.6610517578125,0.0304208572268486,-0.01849514937251806,-0.07122607461754232
1633780786545930800,3.6809306640625,0.0682791709780693,0.026347616438567638,-0.1393660197880119
1633780786565809700,3.7008095703125,-0.0495136802315712,0.07979922064095735,-0.2129155323844403
1633780786585689900,3.72068994140625,-0.11458967125415802,0.05596592511087656,-0.17647592632472514
1633780786605568800,3.74056884765625,-0.10858429335951804,0.07153554242551326,-0.13916468852963298
1633780786625447700,3.76044775390625,-0.06410626920759678,0.056097150275111196,-0.16575144748631865
1633780786645326800,3.780326904296875,0.0153150580316782,0.08296323762983084,-0.13118114242982118
1633780786665205800,3.800205810546875,0.08367664659619331,0.09620236617028713,-0.08335194468647242
1633780786685085000,3.8200849609375,0.06044833122193813,0.08865969570577144,-0.061375602134689684
1633780786704964600,3.839964599609375,0.12636135759055614,0.05532382781505584,-0.018239859437197446
1633780786724843800,3.85984375,0.12268354586064815,0.08711071269810199,-0.02915748622752726
1633780786744723000,3.879722900390625,0.16038929939866065,0.05950520515292883,-0.017946612111665306
1633780786764601600,3.8996015625,0.14239654659032822,0.09495032028257847,0.004556749988906085
1633780786784480800,3.919480712890625,0.10033318236470222,0.09882745397686958,-0.0048813057681545615
1633780786804360700,3.939360595703125,0.051310500520467754,0.07462854000478983,0.0032576500890776515
1633780786824239600,3.959239501953125,0.02412321838736534,0.040187048959732054,-0.0016493015769869087
1633780786844118800,3.979118896484375,-0.12579495587944983,0.04505728534460068,-0.058760213738214224
1633780786863997700,3.998997802734375,-0.23245734126567838,0.04174538431763649,-0.0688017335474491
1633780786883876900,4.018876953125,-0.2140349648684263,0.0599094020396471,-0.12647975980583578
1633780786903756800,4.0387568359375,-0.20844693560302258,0.07176029109209775,-0.16745350216384977
1633780786923635700,4.0586357421875,-0.17332886047065257,0.03154050890654325,-0.11874109184518455
1633780786943515000,4.078514892578125,-0.12263619958758354,0.007099310611188412,-0.08538575206901877
1633780786963393800,4.098393798828125,-0.08389759587049483,-0.0419102194905281,-0.11764120431188493
1633780786983272700,4.118272705078125,0.06352817705869675,-0.029911738660931584,-0.08757606518752872
1633780787003153000,4.13815283203125,0.11229133118391037,-0.05130933147668838,-0.04460252731442451
1633780787023031800,4.15803173828125,0.19351590845286845,-0.0448690692961216,-0.030424510488659143
1633780787042910700,4.17791064453125,0.19860066437125204,-0.027562837447226048,0.02288956667287275
1633780787062789600,4.19778955078125,0.24940029276013373,-0.013179799568653106,0.036683899676986036
1633780787082668800,4.217668701171875,0.19596447064876554,0.028183015172183513,0.03402187739349902
1633780787102547700,4.237547607421875,0.13797171588540078,0.0003758475750684738,0.04117237020265311
1633780787122427600,4.257427734375,0.08944996930062771,0.06423720211088657,0.05627495452743023
1633780787142306800,4.277306884765625,0.07263269001245498,0.03419891446083784,0.05729026904981583
1633780787162185700,4.297185791015625,0.07327566409111022,0.026154724214971063,0.07147486174684017
1633780787182065000,4.31706494140625,0.10721534309387207,0.054607496239244935,0.021711225342191755
1633780787201943600,4.336943603515625,0.08763853596448898,0.013567629842460155,0.04788458119239658
1633780787221823700,4.35682373046875,0.12489946834445,-0.05144084890186786,0.018843086027354
1633780787241703000,4.376702880859375,0.16985621592402458,-0.10265314974486828,-0.04610843836534768
1633780787261581600,4.39658154296875,0.11069792451262474,-0.163881817689538,-0.01808503420166671
1633780787281460700,4.416460693359375,0.05077741655707359,-0.22457272549569607,0.029035412484128026
1633780787301339600,4.436339599609375,0.04061024280786514,-0.20885200927257536,0.012349193963408469
1633780787321215700,4.4562158203125,-0.03688333123922348,-0.16481091523319483,-0.013541509020514786
1633780787341095000,4.476094970703125,-0.11844225502908229,-0.1375648886501789,0.0026180370112881064
1633780787360973800,4.495973876953125,-0.08943009555637836,-0.0660614949285984,-0.009652776219975203
1633780787380853000,4.51585302734375,-0.07903320470452309,-0.020033026464283465,0.034067652763985094
1633780787400732000,4.53573193359375,-0.09867781637310981,0.03244768687933683,0.08350669685676694
1633780787420611800,4.55561181640625,-0.05212064785957336,0.09529927985072136,0.16960899969730525
1633780787440491000,4.575490966796875,-0.012955343163013458,0.1308458095282316,0.24574334115516394
1633780787460370000,4.595369873046875,0.06744856537282466,0.17340104892402886,0.21915736764976754
1633780787480248800,4.615248779296875,0.058869537597894664,0.16453560542315243,0.25119612666834146
1633780787500127700,4.635127685546875,-0.004776128360629081,0.16367606598436832,0.25268340608403084
1633780787520008000,4.655008056640625,-0.041620881155133245,0.1311293026447296,0.19688388704862445
1633780787539886800,4.674886962890625,-0.05502221451997757,0.09886106398552656,0.1376931912049651
1633780787559765800,4.694765869140625,-0.033199089768528936,0.0666299424663186,0.07039744177367538
1633780787579645000,4.71464501953125,-0.034657471883296966,0.026494039171934127,0.022336700296774505
1633780787599524000,4.734524169921875,-0.04581950188875198,0.0027110125243663785,-0.0014192556807771325
1633780787619403800,4.75440380859375,0.019712416207790375,-0.037409400939941405,-0.05579613976823165
1633780787639283000,4.774282958984375,0.022617489999532697,-0.04603519046604633,-0.09834686738569288
1633780787659161900,4.794161865234375,0.009389759635925293,-0.0453591909006238,-0.10960216516517102
1633780787679041000,4.814041015625,0.019710662642121315,-0.047017479501664634,-0.12297449163123965
1633780787698920000,4.833919921875,0.05000058696568012,-0.023412439769506452,-0.120779082212504
1633780787718798800,4.853798828125,0.04572948551774025,-0.03464987309873104,-0.06746073073465376
1633780787738679000,4.873678955078125,0.0791109461158514,-0.001931260323524475,-0.07866119305435568
1633780787758557700,4.8935576171875,0.07084229946434498,0.0466878091558814,-0.07436513982824981
1633780787778436900,4.913436767578125,0.04355623313188552,0.03385316976308823,0.03952701414842158
1633780787798316000,4.93331591796875,0.07953881613910198,0.04363455906510353,0.05095671864673495
1633780787818195000,4.95319482421875,0.057660746330022807,0.07605711150318384,0.0003439911320805549
1633780787838075000,4.973074951171875,-0.014207973572611807,0.06787059017717838,0.07631045607659034
1633780787857954000,4.9929541015625,-0.0425508554816246,0.09339490753412247,0.0288971913235262
1633780787877833000,5.0128330078125,-0.08422317456305027,0.1012774774774909,-0.03280483888708986
1633780787897711900,5.0327119140625,-0.08649871827960014,0.10728694702535867,-0.03574380581527948
1633780787917590800,5.0525908203125,-0.08541676826179027,0.09487404017597437,-0.06630473823309875
1633780787937471000,5.072470947265625,-0.09475625901520252,0.07632832965999842,-0.07760777501128613
1633780787957350000,5.092349853515625,-0.04026479037106037,0.05155336936563253,-0.06456394984722137
1633780787977228800,5.112228759765625,-0.026196517530083653,0.030036826345324515,-0.09204648859985172
1633780787997108000,5.13210791015625,0.045648236975073815,-0.010652619178593158,-0.09018274968774058
1633780788016987000,5.15198681640625,0.09874971256554126,-0.004374269561469555,-0.07072685639113187
1633780788036866800,5.17186669921875,0.07892506815493107,0.0272249837949872,-0.07461451147943735
1633780788056746000,5.19174609375,0.05200315895974636,0.041652737598121166,-0.06496412814594806
1633780788076625000,5.211625,0.06699263829886913,0.05816401967704296,-0.06882555281445384
1633780788096504000,5.231504150390625,0.07461889539361,0.09143325207233428,-0.11208851122134364
1633780788116382700,5.2513828125,0.04770750759243965,0.08113836029022932,-0.08599120714887976
1633780788136263000,5.271262939453125,0.036848259925842286,0.08984247574955224,-0.09319258989505469
1633780788156142000,5.29114208984375,-0.018790040665864944,0.08482464758753776,-0.09306085327416658
1633780788176020700,5.311020751953125,-0.00022679449319839477,0.10347527978271245,-0.12554434211924673
1633780788195900000,5.33089990234375,-0.013992869517207145,0.09927636678814887,-0.12949908022754825
1633780788215778800,5.35077880859375,0.03269055572450161,0.03348667453825473,-0.07907477882392704
1633780788235659000,5.370658935546875,0.019902385821938512,-0.028111995762586592,-0.0028774551324546337
1633780788255538000,5.390537841796875,-0.036484687310457224,-0.015059621965885162,0.015761778885871172
1633780788275416800,5.410416748046875,-0.01671264986991882,-0.03696984047889709,-0.01694587410390377
1633780788295296000,5.4302958984375,-0.002814472898840904,-0.032167408633232114,-0.04411883545070886
1633780788315175000,5.4501748046875,0.004959083712100983,-0.015466741462051868,-0.07893756231032312
1633780788335054600,5.4700546875,-0.022069208467006683,0.007212415596842765,-0.0784905491951853
1633780788354933800,5.489933837890625,-0.012734393888711929,0.0032473113581538197,-0.05283756395727396
1633780788374813000,5.50981298828125,0.018154665371775625,0.027856851957738397,-0.0905017433758825
1633780788394691600,5.529691650390625,0.020589783564209936,0.037107787644863124,-0.07883768213242293
1633780788414570800,5.54957080078125,0.041088966235518457,0.001727262184023857,-0.013350991417095065
1633780788434450700,5.56945068359375,0.03770224640667438,-0.022496493968367576,-0.0020082710824906825
1633780788454329900,5.589329833984375,-0.04728606730997562,-0.027727672620117664,-0.007524477220699191
1633780788474208800,5.609208740234375,-0.08296703702211379,-0.025813071170449255,-0.006098097679391503
1633780788494087700,5.629087646484375,0.05246200864315033,-0.04754997894316911,-0.0660459320332855
1633780788513966800,5.648966796875,0.10711597437262535,-0.05683218655139208,-0.0649441813364625
1633780788533845800,5.668845703125,0.03258475726246834,-0.05956862577795982,0.04623400097377598
1633780788553725700,5.6887255859375,0.030762802532315253,-0.04060176724046469,0.04485664820596576
1633780788573604900,5.70860498046875,0.02120703867971897,0.01261018298715353,0.05277691981121897
1633780788593483800,5.72848388671875,0.06117547645270824,0.050203708322346205,0.06013838848993182
1633780788613362700,5.74836279296875,0.02573006906211376,0.12552987520247696,0.0891289754516445
1633780788633241600,5.76824169921875,0.03337853798866272,0.1647521707832813,0.10093366900850087
1633780788653121800,5.788121826171875,0.0009422492861747741,0.15104104081690312,0.16169439064785837
1633780788673000700,5.808000732421875,-0.02252279745340347,0.1331605162113905,0.19871868299404158
1633780788692879600,5.827879638671875,0.03463292196393013,0.11495090578198432,0.19184819443635642
1633780788712758800,5.8477587890625,0.057519292032718654,0.07917962743788957,0.15790745598766953
1633780788732637700,5.8676376953125,0.011319850915670395,0.017654899156093598,0.175342940239422
1633780788752517600,5.887517578125,0.03633388066291809,-0.01631809759438038,0.15999343194887042
1633780788772396800,5.907396728515625,0.07803542583882808,-0.04560819722563028,0.0820873681107536
1633780788792275700,5.927275634765625,0.04016542164981365,-0.07885551005005836,0.037382878259196874
1633780788812155000,5.94715478515625,0.04884907884299755,-0.0918465090483427,0.02210051692072302
1633780788832033500,5.967033447265625,0.029088731840252874,-0.09329553881287574,-0.010108264902513474
1633780788851913700,5.986913818359375,0.0540536617487669,-0.0937549730181694,-0.03271278582261875
1633780788871793000,6.00679296875,0.014366963526606559,-0.05081511821895837,-0.035852198093198236
1633780788891671600,6.026671630859375,-0.027432196804881095,-0.021795359961688517,-0.0636844270663336
1633780788911550700,6.04655078125,-0.00995499230325222,0.008253156821429729,-0.07089315286874771
1633780788931430000,6.066429931640625,-0.03310147461295128,0.054335985821485515,-0.09424071984165347
1633780788951309600,6.0863095703125,-0.04381576085090637,0.08606821790784597,-0.1363469642277807
1633780788971188700,6.106188720703125,-0.007552022814750671,0.07248392919152975,-0.09735994784072972
1633780788991067600,6.126067626953125,-0.018393150302767752,0.008084229995310306,-0.06538962354902178
1633780789010946800,6.14594677734375,0.004316694155335426,0.02977028436362743,-0.06945365811754017
1633780789030825700,6.16582568359375,0.0407733244150877,0.026423896545171736,-0.0005093012290075421
1633780789050705700,6.18570556640625,0.09130757986605167,-0.03085837186127901,0.06985968163516372
1633780789070584800,6.205584716796875,0.17374854718744753,-0.07099661324322223,0.1212196107879281
1633780789090463700,6.225463623046875,0.15104104081690312,-0.09047259034663438,0.09147197664752602
1633780789110342700,6.2453427734375,0.0823129570275545,-0.07015694754868745,0.06902622648570686
1633780789130221800,6.265221923828125,0.060784431308507914,-0.04322568600326776,0.060870246428437524
1633780789150101800,6.285101806640625,0.02934767503738403,-0.02313070021867752,0.01618099067863077
1633780789169980700,6.304980712890625,-0.04185118277966976,0.02165536696910858,0.025520335301570593
1633780789189859600,6.324859619140625,-0.04457622382938862,0.05545037680417299,0.005043437527306378
1633780789209738800,6.34473876953125,-0.019116788402199745,0.06770107882916927,-0.008988120032474399
1633780789229618000,6.364617919921875,-0.028820436292886734,0.06443272468298673,0.02916273779137991
1633780789249497600,6.38449755859375,-0.00014145429730415344,0.09039718702286481,0.08320194175653159
1633780789269376800,6.404376708984375,0.06335223596990108,0.07579933734983205,0.07924231741055845
1633780789289256000,6.424255859375,0.11789981871545314,0.06573562397509813,0.06455218634419142
1633780789309134800,6.444134765625,0.07487842311263083,0.12019260582774877,0.06680018446668982
1633780789329013500,6.464013427734375,0.18306641063094137,0.11464812344312666,-0.0009758592948317527
1633780789348893700,6.483893798828125,0.16449381210803984,0.10399462748169898,-0.05231390540935099
1633780789368772900,6.50377294921875,0.1800730740338564,0.08518909698575734,-0.07308357558511197
1633780789388651500,6.523651611328125,0.12849895414114,0.06278378843218088,-0.029215792286023497
1633780789408530700,6.54353076171875,0.08788812681138515,0.04920008423775434,-0.07606032637357711
1633780789428409600,6.56340966796875,0.06981061832904815,0.014544073659181594,-0.10852131112590431
1633780789448288800,6.583288818359375,0.06861994723975658,-0.0036368951976299283,-0.14480002753548324
1633780789468168700,6.603168701171875,-0.056525020298361775,-0.02530921330153942,-0.15581483108997343
1633780789488047600,6.623047607421875,-0.02108545812666416,-0.0794943924754858,-0.12994624860631301
1633780789507926800,6.6429267578125,-0.05829495258033275,-0.08626666308939457,-0.10052607458829879
1633780789527805400,6.662805419921875,-0.04101940813064575,-0.05608107592314481,-0.08281944524496793
1633780789547685600,6.682685546875,0.025821254476904868,-0.053472062468528744,-0.02706862418949604
1633780789567564800,6.702564697265625,0.06669628570079802,-0.02218377475738525,0.026844898436218498
1633780789587443700,6.722443603515625,0.07983984491229057,0.022299217830598354,0.0606078143662773
1633780789607322600,6.742322509765625,0.06969605203866958,0.03911620485782623,0.08979096475802362
1633780789627201500,6.762201416015625,0.03442833930253982,0.049156829617917536,0.061065074880793685
1633780789647080700,6.782080810546875,-0.007990998753905297,0.077666300265491,0.01897087712548673
1633780789666960600,6.801960693359375,-0.019091069439053535,0.09411445398032665,-0.017191227167099712
1633780789686839600,6.821839599609375,0.02748772638440132,0.059521279504895205,0.0023560616068542
1633780789706718700,6.84171875,-0.005461188015341759,0.02862403693795204,-0.03343275239393115
1633780789726597600,6.86159765625,-0.0468120200574398,-0.02338467497974634,-0.07138217849470675
1633780789746476500,6.8814765625,-0.08298749528825282,-0.06526712968051433,-0.059272090516798194
1633780789766356700,6.901356689453125,-0.025468787777423858,-0.11929331890046596,-0.056340968968346714
1633780789786235600,6.921235595703125,-0.002959434327483177,-0.11991641923487185,-0.09231544173434376
1633780789806114600,6.941114501953125,-0.007902735948562622,-0.08822101202756166,-0.1341306764177978
1633780789825993700,6.96099365234375,-0.02192716964781284,-0.10844108549654483,-0.05259191863313317
1633780789845872600,6.98087255859375,-0.00779869105219841,-0.07540215472579002,-0.049454058998823165
1633780789865752600,7.000752685546875,0.04685293658971786,-0.06759177323579788,-0.03498754408787936
1633780789885631500,7.020631591796875,0.08467617902755736,-0.0118032505184412,0.010509593978710471
1633780789905510700,7.0405107421875,0.06938333282768726,0.005670739112794399,0.035419359633885324
1633780789925389800,7.060389892578125,0.10824936231672763,-0.0050546530410647385,0.06977273400407284
1633780789945268700,7.080268798828125,0.10037819055020808,0.026791853074729442,0.0630195334168151
1633780789965148700,7.100148681640625,0.0999111575603485,0.04201338760405779,0.09731807232722639
1633780789985027600,7.120027587890625,0.02986439238786697,0.06397299821674823,0.09545611438024788
1633780790004906800,7.13990673828125,0.06523556549847126,0.06344108329713344,0.10892718851305544
1633780790024785700,7.15978564453125,0.017242226701974867,0.0754620682194829,0.1298208869272843
1633780790044664600,7.17966455078125,-0.019382161340117453,0.07019084981828927,0.11421312955934554
1633780790064544800,7.199544677734375,-0.047262686434388156,0.03415186044871807,0.11145495342500507
1633780790084423700,7.219423583984375,-0.022665420794487,0.04334522072970867,0.11058737681023775
1633780790104302600,7.239302490234375,-0.03321487185955047,0.027359423829615113,0.10255440207812934
1633780790124181800,7.259181640625,-0.011674071180820464,-0.002382218961417675,0.09191303494591266
1633780790144060700,7.279060791015625,0.04079261363744736,-0.008130114963650703,0.06806834123898298
1633780790163940600,7.298940673828125,0.030490415331721303,-0.015580723230540751,0.07345492964815348
1633780790183819800,7.31881982421875,0.09163432760238648,-0.038549218624830246,0.05229242422990501
1633780790203698700,7.33869873046875,0.1052531031101942,-0.025498013871908188,0.05830909070353955
1633780790223577900,7.358577880859375,0.1331815589994192,-0.041105332848429675,0.034509514779970045
1633780790243456500,7.37845654296875,0.2002893481105566,-0.03820288940519094,0.02793273020554334
1633780790263336700,7.398336669921875,0.14058335968852043,-0.012383388493955134,0.04603862453214824
1633780790283216000,7.4182158203125,0.085907766649127,-0.010649404308199882,-0.011209449343755841
1633780790303094500,7.438094482421875,-0.01893792470395565,-0.0015676877081394194,-0.01441241010352969
1633780790322973700,7.4579736328125,-0.05720891090929508,0.03428425465673208,-0.023337438304536044
1633780790342852900,7.477852783203125,-0.04117430643141269,0.018482874412834645,-0.0054893181312829255
1633780790362732800,7.49773291015625,-0.07147182953953743,0.040699674656987185,0.002823934846930206
1633780790382611700,7.51761181640625,-0.11169628790020943,-0.006957564052939414,0.04517532223369926
1633780790402491000,7.537490966796875,-0.10482815569639205,-0.004749532614648342,0.07478731076307595
1633780790422369800,7.557369873046875,-0.07898819651901721,0.02322217789441347,0.04410740074124187
1633780790442248700,7.577248779296875,-0.04814648353159427,-0.018455694144964216,-0.000922448607161641
1633780790462129000,7.59712890625,-0.00784311471581459,-0.051878948058187956,0.013002543305605649
1633780790482007800,7.6170078125,0.047778819262981415,-0.01016542018353939,0.0619819339973852
1633780790501886700,7.63688671875,0.0920733035415411,-0.03480710948705673,0.04098926872070879
1633780790521765600,7.656765625,0.15697744512856004,-0.016420681186020372,0.04323821669127792
1633780790541644800,7.676644775390625,0.12518354598283768,-0.048998716446757316,-0.02128941973354667
1633780790561525000,7.69652490234375,0.1661392412275076,-0.0245955120742321,0.028302732561714946
1633780790581403600,7.716403564453125,0.13900105893313883,-0.018844401201605795,0.029223500668443737
1633780790601282800,7.73628271484375,0.09485153608322143,0.014726152227818964,-0.005902830835618079
1633780790621161700,7.75616162109375,0.09923486573398113,0.04287234252095222,0.04762129061371088
1633780790641041000,7.776041015625,0.021291794353723525,0.07093962235897779,0.030529103374294934
1633780790660919800,7.795919921875,-0.05392214432358741,0.1129585629209876,0.025649222378246486
1633780790680799700,7.8157998046875,-0.17315642651319502,0.07648439700454474,0.024044673258438704
1633780790700679000,7.835678955078125,-0.15397183357179164,0.035328795273602005,0.014772000663541257
1633780790720557600,7.8555576171875,-0.09470540561079978,0.0599877279728651,0.024236067644692955
1633780790740436700,7.875436767578125,-0.06116203244924545,0.08069996887296438,0.044623350906744595
1633780790760316000,7.89531591796875,0.021008885759115217,0.050371466104686256,0.03701327776182443
1633780790780195800,7.91519580078125,-0.029504911425709723,0.022410276989638805,0.012800043003447352
1633780790800074800,7.93507470703125,0.024661563047766684,-0.0018114333361387252,-0.023077545259334146
1633780790819953700,7.95495361328125,0.01326630880832672,0.032874680119752885,-0.04409044960644096
1633780790839832800,7.974832763671875,0.034084055909514424,0.03737169927805662,-0.030941154773905872
1633780790859712000,7.9947119140625,0.09578209493160247,0.05409750089049339,-0.03546371023226529
1633780790879591700,8.014591796875,0.09347849416434764,0.06862053176164627,-0.0360537850799039
1633780790899470800,8.034470947265625,0.03418751628398895,0.07485241188853979,-0.005222429089713841
1633780790919349800,8.054349853515625,0.006242693781852722,0.05176145915836095,0.0007609013698995113
1633780790939228700,8.074228759765624,-0.005440145227313041,0.0524240147203207,-0.062164304826967415
1633780790959107800,8.09410791015625,-0.0008516483932733535,0.043729836133122445,-0.10493360709855333
1633780790978987800,8.11398779296875,0.012512275570631027,0.06789718592315912,-0.03398477851981297
1633780790998866700,8.13386669921875,0.025718963146209715,0.05090191971957683,0.01669387210421264
1633780791018745900,8.153745849609376,0.09956102894842624,-0.03975537954419851,-0.0206610952347517
1633780791038624800,8.173624755859375,0.04150222321152687,-0.015783552326261996,-0.06819960293583571
1633780791058504000,8.19350390625,-0.020726561686396597,-0.061195642457902426,-0.008627543091773986
1633780791078383600,8.213383544921875,0.0750192928880453,-0.0858098592326045,-0.012826163825392723
1633780791098262800,8.2332626953125,0.05945698209702968,-0.03865852421820164,-0.06802570767365396
1633780791118142000,8.253141845703125,0.002885200047492981,-0.02163841583430767,-0.04327821990810334
1633780791138020900,8.273020751953124,-0.041077860319614405,0.0002408230185508728,-0.03506809851080179
1633780791157899800,8.292899658203124,-0.02518587918281555,0.02060059721916914,-0.04206405834536999
1633780791177779700,8.31277978515625,-0.010588614031672477,0.04433014011383057,-0.005136120779439807
1633780791197659000,8.332658935546876,-0.019348843592405317,0.04409107066094875,0.0037684856880456207
1633780791217537800,8.352537841796876,0.025606150421500204,0.04212356998026371,0.03729947429206222
1633780791237416700,8.372416748046875,0.051556584236025806,0.04378478119075298,0.06875509966043755
1633780791257296000,8.3922958984375,0.06075286712646484,0.05178484003394842,0.10864490097295493
1633780791277174800,8.4121748046875,0.042243396967649456,0.06914952407181263,0.10495620252285152
1633780791297054700,8.4320546875,0.049309682092070574,0.06813187146186828,0.0539403010347858
1633780791316934000,8.451933837890625,0.03495791613459587,0.06885258695185184,0.050741285797767335
1633780791336817000,8.47181689453125,0.021493454405665396,0.07719049944728612,0.04944854257348925
1633780791356695600,8.491695556640625,-0.02208382151424885,0.02354629528224468,0.04144506793050095
1633780791376574700,8.51157470703125,-0.013758476239442825,-0.00670855772793293,0.043695568537339566
1633780791396455000,8.531454833984375,-0.02422024902105331,-0.009190437671542167,-0.0016714768761768937
1633780791416333600,8.55133349609375,-0.007622749963402748,-0.03253068898767233,-0.016093750786595046
1633780791436212700,8.571212646484375,0.0039016836136579513,-0.028882687874138353,-0.006749857852701097
1633780791456091600,8.591091552734374,0.0033773674786090847,-0.025858663877844808,-0.014908340394310653
1633780791475970800,8.610970703125,-0.001205284136533737,-0.006544014815986156,-0.015369491632655262
1633780791495850800,8.630850830078124,-0.002423427754640579,0.006173135676980019,-0.01957589381393045
1633780791515729700,8.650729736328126,0.042435704669356346,0.03916588921844959,-0.02175035177618265
1633780791535608800,8.67060888671875,0.027411154016852377,0.05004588741213083,-0.03915533129181713
1633780791555487700,8.69048779296875,0.0484457587391138,0.03514700896590948,-0.033221813056990505
1633780791575366700,8.71036669921875,0.07486322554349899,0.04218348347395658,-0.001983575032651424
1633780791595246800,8.730246826171875,0.07934417034983635,0.02670008313804865,0.01604578345902264
1633780791615125800,8.750125732421875,0.0698871906965971,0.002716565482318401,0.02771079455055296
1633780791635004700,8.770004638671875,0.08202069608271122,-0.010063128852844237,-0.05852642324864864
1633780791654883800,8.7898837890625,-0.013899930536746978,0.0006719079121947288,-0.09977613300383091
1633780791674762800,8.8097626953125,-0.009925181686878204,-0.015107845021784305,-0.017193711385130882
1633780791694642000,8.829641845703126,0.009858546191453934,-0.025663725827634334,0.012529372835904358
1633780791714521600,8.849521484375,0.028864275434613226,-0.025147300738096234,-0.039719285317510365
1633780791734400800,8.86940087890625,-0.03356616951525211,0.012262684723734854,-0.013386802515992894
1633780791754280000,8.889280029296875,-0.058790627142786975,0.019714169773459432,-0.02014452401474118
1633780791774158600,8.90915869140625,-0.009322539618611335,0.008655307881534098,-0.02616670691370964
1633780791794037800,8.929037841796875,0.015270049846172333,0.03944850555211305,-0.024255174203962088
1633780791813917700,8.948917724609375,0.051418637070059774,0.05464461337924003,0.005329232198745012
1633780791833796900,8.968796875,0.05748655880689621,0.05530570763647556,-0.0025123481471091506
1633780791853675800,8.98867578125,0.09815291571617125,0.04587181659787893,-0.033663346279412504
1633780791873554700,9.0085546875,0.08112053237259388,0.0072726213514804836,-0.06422551167309284
1633780791893433900,9.028433837890624,0.10359130737781524,-0.025953940945863722,-0.062223231939971445
1633780791913313500,9.0483134765625,0.09646014032363891,-0.05721183351874351,-0.03794526138231158
1633780791933192700,9.068192626953126,0.11000351250767708,-0.047338089758157724,0.017690554991364477
1633780791953071900,9.08807177734375,0.0686491733342409,-0.02652911048531532,-0.01610949634499848
1633780791972950800,9.10795068359375,0.05328793807327747,-0.012656067955493927,-0.06385843192636967
1633780791992829700,9.12782958984375,0.029220833787322043,-0.013720482316613197,-0.03683379300907254
1633780792012710000,9.1477099609375,0.01029226143360138,-0.002910334488749504,-0.0272756180036813
1633780792032588800,9.1675888671875,-0.04256137687563896,0.007395955470204353,-0.018577201632782817
1633780792052467700,9.1874677734375,-0.08793255047500133,-0.022668635664880275,0.004774886251613497
1633780792072346600,9.2073466796875,-0.052854807353019714,0.013614976115524768,0.007830328299477695
1633780792092225800,9.227225830078124,0.07145487840473652,0.03965893343240023,0.0019178893852978944
1633780792112104700,9.247104736328126,0.12483750902414321,0.05564473033249378,0.036291137499734755
1633780792131984600,9.266984619140626,0.07076689614057541,0.03357581412643194,0.05852189320400357
1633780792151863800,9.28686376953125,0.048103813433647155,-0.005343699115514755,0.043218744805827734
1633780792171742700,9.30674267578125,0.09090367524027824,0.0026689269483089447,-0.007463321617990732
1633780792191622000,9.326621826171875,0.03672667937278747,0.025706395925581455,-0.009886237915977834
1633780792211500500,9.34650048828125,0.0666448477745056,0.017867957384884357,-0.030079569508507847
1633780792231380700,9.366380615234375,0.04965396548509597,0.0019099252745509146,-0.08996127982363104
1633780792251260000,9.386260009765625,-0.0012894552886486053,-0.011333294919133185,-0.04026508263200521
1633780792271138600,9.406138671875,0.013428221371769904,-0.011181611488759517,-0.01040149396173656
1633780792291017700,9.426017822265624,0.06528466533720494,-0.021509236496686936,-0.08273666233234107
1633780792310896600,9.445896728515624,0.04871230072081089,0.00203998139500618,-0.0455697009793017
1633780792330773000,9.46577294921875,0.05488894352912903,0.0018225392520427703,0.04115662464424968
1633780792350652000,9.48565185546875,0.06998422133028506,0.0060243748560547825,0.04857040803208947
1633780792370530800,9.50553076171875,0.06939268517792224,0.03740004858970642,-0.0010940057817846536
1633780792390410000,9.525409912109374,0.043351065948605536,0.030294308237731455,0.037383974237740036
1633780792410289000,9.545288818359374,0.031095395487546917,0.03062748571485281,0.06211399941183626
1633780792430168800,9.5651689453125,0.00466682276725769,0.06727554689347744,0.06783310771100223
1633780792450048000,9.585048095703126,0.004414309310913086,0.0813853207886219,0.06102825000174343
1633780792469927000,9.604927001953126,-0.04205693448483944,0.0802072169199586,0.007867080113291739
1633780792489805800,9.624805908203125,-0.040701428222656245,0.094667703948915,-0.0349075011216104
1633780792509684700,9.644684814453125,-0.0400847576290369,0.08042991975992918,-0.021303713120380416
1633780792529564000,9.66456396484375,-0.019530629900097844,0.055468789243698115,-0.049901437440142034
1633780792549443800,9.68444384765625,0.031121698972582816,0.008304887008666991,-0.07710144205749966
1633780792569322800,9.70432275390625,0.026779870375990868,-0.027659575819969175,-0.06910334684252739
1633780792589202000,9.724201904296875,0.0536918426990509,-0.05780658454149961,-0.05107260924451984
1633780792609081000,9.7440810546875,0.10299451052844524,-0.0494853309199214,-0.06844730321974493
1633780792628960000,9.7639599609375,0.09106441875994205,-0.053178924740850925,-0.05991393208429217
1633780792648840000,9.78383984375,0.05517009855806827,-0.05218611431121826,-0.09454115495979785
1633780792668718800,9.80371875,0.05390577771067619,-0.04337035517096519,-0.06272708980888128
1633780792688598000,9.823597900390626,0.04366320063769817,-0.0228963069409132,-0.04252447893135249
1633780792708477000,9.843476806640625,-0.011308744999766349,-0.01752484303563833,-0.029859643147513267
1633780792728355800,9.86335595703125,0.016806173372268675,-0.017551146520674226,-0.05214205597378313
1633780792748236000,9.883236083984375,-0.03216623958945274,-0.002521627432107925,-0.04344955788701772
1633780792768114700,9.90311474609375,-0.05030687643587589,0.00842266816943884,-0.010303668743604794
1633780792787993900,9.922993896484375,-0.007195464462041855,-0.008653262054920195,0.016702128475904465
1633780792807873000,9.942873046875,0.06271802971959113,-0.005669570069015026,0.011513756919419393
1633780792827752000,9.962751953125,0.015392799443006514,0.0147007255256176,0.03423720064461231
1633780792847631000,9.982631103515626,-0.0036380642414093017,-0.0008019640326499939,0.017453385234624145
1633780792867510800,10.0025107421875,0.04345978702008724,-0.007980185098946093,-0.011165464071556925
1633780792887390000,10.022389892578126,0.08450199150443076,0.0073871876418590545,0.03201689424663782
1633780792907269000,10.04226904296875,0.05731646293699741,0.015952186891436577,0.05178622827343642
1633780792927147800,10.062147705078125,0.031087796702980994,-0.01053834514915943,0.0737151788863819
1633780792947027000,10.08202685546875,0.05194762938022613,-0.012096680507063865,0.03881466462798416
1633780792966907100,10.1019072265625,0.04711421787440777,0.01674450631290674,0.01786802131696604
1633780792986785800,10.121785888671875,0.008700023806095122,0.031359014859795566,0.04874375530499964
1633780793006665000,10.1416650390625,0.04147007450759411,0.019583821392059324,0.10007496981993318
1633780793026543900,10.1615439453125,0.07330489018559455,0.03647738078683615,0.11487775834738276
1633780793046423000,10.181423095703124,0.06400573144257068,0.10340630619972943,0.08130641033351421
1633780793066303000,10.201302978515624,0.07476385682225227,0.11020897195190191,0.09036701108030974
1633780793086182000,10.221181884765626,-0.011944120293855666,0.10209083968698977,0.09873082520198076
1633780793106061000,10.24106103515625,-0.11779752738475799,0.15304887350797652,0.0031338045137003063
1633780793125940000,10.26093994140625,-0.07548691039979458,0.1340320383489132,-0.07663174218651839
1633780793145819000,10.28081884765625,-0.0280114579975605,0.12976239820569752,-0.09557792326216585
1633780793165699000,10.300698974609375,0.022492986837029456,0.08062982624620199,-0.05472282971460372
1633780793185578000,10.320577880859375,0.09047229808568955,-0.020713702204823492,0.013386647252365946
1633780793205457000,10.340456787109375,0.07789221797585487,-0.0988020272746682,0.038944647683203215
1633780793225335800,10.360335693359374,0.09392623793184757,-0.12681523883789778,0.01301861765757203
1633780793245215000,10.380215087890624,0.11485329062640666,-0.13183219021707773,0.06708148562610149
1633780793265094000,10.400093994140626,0.059958501878380775,-0.07640811689794064,0.0615289660654962
1633780793284973800,10.419973876953126,-0.051503392744064326,-0.007662497451901435,0.04690232868939638
1633780793304853000,10.43985302734375,-0.08121405587494372,0.0629155981183052,0.02832614083676599
1633780793324733000,10.45973291015625,-0.11993512393534182,0.1040028107881546,0.046326355432346464
1633780793344612000,10.479612060546875,-0.11047463715076446,0.10708441019058226,0.05183678941689431
1633780793364491000,10.499490966796875,-0.05065700504779815,0.13403554548025132,0.021612989132106304
1633780793384371000,10.519370849609375,-0.042784664237499236,0.10249386752992867,0.006758388219028711
1633780793404250000,10.53925,0.026547815185785292,0.05205488914698362,0.016192790714278815
1633780793424129000,10.55912890625,0.0745271254569292,0.024569500850141045,-0.005222045497223734
1633780793444008200,10.57900830078125,0.14114450070261955,-0.02554623692780733,-0.028757380994036793
1633780793463887000,10.59888720703125,0.14559797298014163,-0.003732464526593685,-0.040138241381943225
1633780793483767000,10.61876708984375,0.05824526821970939,0.0018488427370786666,-0.07120236494839191
1633780793503646200,10.638646240234374,0.04082067068815231,-0.04285276103764772,-0.06369491192772984
1633780793523525000,10.658525146484376,0.03754734810590744,-0.013007657872140407,-0.08224310666173697
1633780793543404000,10.678404052734376,0.0009556932896375655,0.00521715012639761,-0.08503383335880935
1633780793563283000,10.698282958984375,-0.031224574825167654,0.028390228182077405,-0.08853197767287492
1633780793583162000,10.718162109375,-0.09441372918784618,0.029689912603795526,-0.12278627558276056
1633780793603042000,10.7380419921875,-0.0678343498200178,0.026118191596865653,-0.10926474990434944
1633780793622921000,10.7579208984375,0.009887187764048577,-0.03761018420904875,-0.08669453311264515
1633780793642800000,10.777800048828125,0.0402373178422451,-0.026762626980245112,-0.09625840720646082
1633780793662679000,10.797678955078124,0.03372983564436435,-0.025470249082148073,-0.05496127811297774
1633780793682559000,10.81755908203125,0.05210837289988994,-0.08829933796077966,-0.03969290876723826
1633780793702438100,10.837438232421874,0.055790860804915424,-0.06369359675347805,-0.07328209839847404
1633780793722317000,10.857317138671876,0.05658230344355106,-0.024326047483086585,-0.13890417442992328
1633780793742196000,10.877196044921876,0.037133506608009334,0.0013309563428163527,-0.14741539766564965
1633780793762075000,10.897074951171875,0.018164602243900298,0.03784925366193056,-0.13200740065351127
1633780793781954000,10.9169541015625,0.07317337276041508,0.049182548581063745,-0.07017287577018141
1633780793801834000,10.936833984375,0.07054711591005325,0.01807312456816435,-0.05735547977313399
1633780793821713000,10.956712890625,0.0437578931838274,-0.008728373117744923,0.03903838581468444
1633780793841592000,10.976592041015625,0.011419219636917114,0.02136076793670654,0.09148501879218965
1633780793861471000,10.996470947265625,0.05346212559640407,-0.021250877821445465,0.08308609682451933
1633780793881350100,11.01635009765625,0.09936053794026374,-0.002995674684643745,0.10307579560372977
1633780793901230000,11.03622998046875,0.08850187479555606,-0.0009349427625536918,0.1309456897061318
1633780793921109000,11.05610888671875,0.04281798198521137,-0.01277531042098999,0.12168795895203947
1633780793940988200,11.07598828125,0.06293780995011329,0.0002779401585459709,0.16211491761486976
1633780793960866800,11.09586669921875,0.06558569411039351,0.030533085429668424,0.144455451881513
1633780793980746000,11.11574609375,0.022765374037623406,0.07540303150862455,0.09439794709682464
1633780794000626200,11.135626220703125,-0.014805939465761184,0.0874590877443552,0.06288151318561286
1633780794020504800,11.1555048828125,0.04496551540791988,0.06336743353903293,0.09796086374279112
1633780794040384000,11.175384033203125,0.001717325311899185,0.06482815374135971,0.12269826850574463
1633780794060263000,11.195262939453125,-0.03705050449967384,0.046918695302307606,0.11946250145491212
1633780794080142000,11.21514208984375,0.005628945797681808,0.026029636530578135,0.04667304997816681
1633780794100021200,11.235021240234374,0.04590016590952873,-0.003993453550338745,0.007770597468875348
1633780794119901000,11.25490087890625,0.04383797268271446,0.01806727934926748,-0.0006392112189903855
1633780794139780000,11.274780029296876,0.014174655824899672,-0.017810966500639916,-0.021309056015778333
1633780794159659300,11.2946591796875,0.0863303759753704,-0.040108138504624365,-0.04825516807045787
1633780794179538000,11.314537841796875,0.06922785000503062,-0.029710370869934558,-0.038133861023280764
1633780794199417000,11.3344169921875,0.042837855729460715,-0.035733576682209965,-0.004789572364091873
1633780794219297000,11.354297119140625,0.051827802392840384,-0.031635493713617326,-0.030149712135270235
1633780794239176000,11.374176025390625,0.09478490058779716,-0.04281827424615621,-0.022413254398014396
1633780794259055000,11.39405517578125,0.026170214045047758,-0.015740589967370034,-0.0056709583085030315
1633780794278934000,11.41393408203125,-0.01661561923623085,-0.016403145529329775,0.01141912830537185
1633780794298813200,11.433813232421874,0.0014724106401205062,-0.035218905158340925,0.03064586162175983
1633780794318692900,11.45369287109375,0.03087444621324539,-0.009157119923830032,0.015129472331702708
1633780794338575400,11.473575439453125,-0.0013373860836029053,0.03670183719247579,0.032834311576746406
1633780794358454500,11.49345458984375,0.003555646654963493,0.032032676337659355,0.052009807896241544
1633780794378333400,11.51333349609375,0.05268412696123123,0.03900602248162031,0.052219980048201976
1633780794398212400,11.53321240234375,0.06667933456599712,0.03550210601389408,0.032920966946892435
1633780794418092500,11.553092529296874,0.008221884900331497,0.04594868122637272,0.07583199751041829
1633780794437971500,11.572971435546876,0.03169862207770347,0.03486410037130117,0.03682177377771586
1633780794457850400,11.592850341796876,0.0641921939253807,0.04484013546258211,-0.029560422738920896
1633780794477729300,11.612729248046875,0.024154782569408416,0.004851239423453808,-0.05397599340267479
1633780794497608400,11.6326083984375,-0.01480477042198181,-0.024089608378708362,-0.029485147279314696
1633780794517488400,11.65248828125,-0.09678571901619434,-0.03702332423180341,-0.08553237573178485
1633780794537367300,11.6723671875,-0.020449498310685158,-0.0848491975069046,-0.1070333375904709
1633780794557246500,11.69224658203125,0.020986673927307128,-0.08490531160831451,-0.07831219695359468
1633780794577125400,11.71212548828125,0.010066635984182358,-0.0588394347205758,-0.019242972065135835
1633780794597004300,11.73200439453125,0.043103228667378424,-0.037648178131878374,0.019292948686704038
1633780794616884500,11.751884521484374,0.025784429597854614,-0.00800736536681652,0.019781353258155287
1633780794636763400,11.771763427734374,0.06745616415739059,0.05152852718532085,0.07531717985607683
1633780794656642600,11.791642578125,0.06735328830480575,0.08905015632808208,0.07875347444768994
1633780794676521200,11.811521240234375,0.09246551772952079,0.11154869612306356,0.08212704253401606
1633780794696400400,11.831400390625,0.06945698258578777,0.12155278826504945,0.08556189408721401
1633780794716280600,11.851280517578125,0.04616612336933613,0.08640607156008481,0.11161303006354718
1633780794736159200,11.8711591796875,0.051069092980027195,0.045380233688652516,0.038214872103929515
1633780794756038400,11.891038330078125,0.01589490374624729,0.03891834419816732,0.012927834101580082
1633780794775917600,11.91091748046875,-0.02430149756371975,0.019570377388596533,-0.01655534041635692
1633780794795796500,11.93079638671875,-0.02870294739305973,-0.006711188076436519,-0.0511838784661144
1633780794815676400,11.950676513671874,-0.027735563665628432,-0.014226678273081779,-0.07939703304823488
1633780794835555300,11.970555419921874,-0.03706511754691601,-0.024563947892189023,-0.07599025681205093
1633780794855434500,11.9904345703125,-0.017325228810310362,-0.04970511115044355,-0.056735375113412735
1633780794875313400,12.0103134765625,-0.04783434884250164,-0.06755933227092027,-0.04754471824616194
1633780794895192300,12.0301923828125,-0.03610942425727844,-0.10943038879483938,-0.02750863217511214
1633780794915072500,12.050072509765625,-0.019592589220404622,-0.05748685106784105,-0.0324899916511029
1633780794934951400,12.069951416015625,-0.04957213242053985,-0.026197686573863028,-0.06564421936459838
1633780794954830300,12.089830322265625,-0.00158639240860939,-0.00369563964754343,0.006215732709690928
1633780794974709500,12.10970947265625,0.02771861253082752,0.01052139401435852,0.020053557795658705
1633780794994588400,12.12958837890625,0.08446224401593208,0.07073503969758749,0.0075872311254497615
1633780795014467600,12.149467529296874,0.10457856484949588,0.0851625012397766,0.07921045183441601
1633780795034347300,12.16934716796875,0.14531389534175396,0.04596066392511129,0.15098171184509993
1633780795054226400,12.189226318359376,0.14537819274961947,0.04388239634633064,0.14045681069940327
1633780795074105600,12.209105712890626,0.06828326263129711,0.059169689588248725,0.09796724781780503
1633780795093984300,12.228984375,0.021321020448207852,0.06723959879726171,0.07879355072975158
1633780795113863400,12.248863525390625,-0.023740356549620627,0.10001227984726428,0.034678222410380835
1633780795133743600,12.26874365234375,-0.052180269092321395,0.08972177197933197,0.009231354203820229
1633780795153622300,12.288622314453125,-0.09654431147575378,0.12187281399965286,-0.01932217478118837
1633780795173501400,12.30850146484375,-0.07462064895927906,0.10966127494126558,-0.0401502240806818
1633780795193380400,12.32838037109375,0.012377251014113426,0.08440583765357733,-0.02822283572591841
1633780795213259500,12.348259521484374,0.057906245523691176,0.054824646121263504,-0.019938699244335292
1633780795233139500,12.368139404296874,0.08212064932584762,0.05543664053976535,-0.018258125746250152
1633780795253018400,12.388018310546874,0.11972937223017215,0.019243921913206577,-0.05109525490116793
1633780795272897500,12.4078974609375,0.17265432220995425,-0.011672902137041091,-0.03669708795212209
1633780795292776400,12.4277763671875,0.13408406079709528,-0.00616173750013113,-0.029641981808841228
1633780795312655400,12.4476552734375,0.08251929325461387,-0.00369563964754343,-0.08333652792163193
1633780795332531500,12.467531494140625,0.04138999500870704,-0.011804419562220572,-0.12261267258152365
1633780795352410600,12.48741064453125,-0.024790157863497732,-0.026528525963425635,-0.09190547269396483
1633780795372289500,12.50728955078125,-0.046481180667877195,-0.034923137082159515,-0.05907653141207993
1633780795392168400,12.52716845703125,-0.03175298261344433,-0.034546704985201356,-0.07331862645000219
1633780795412047600,12.547047607421876,0.003188566908240318,-0.030987843459844587,-0.05730133843310177
1633780795431927600,12.566927490234375,-0.001087210714817047,-0.0006274842485785484,-0.03143354140073061
1633780795451806500,12.586806396484375,0.02813420759439468,-0.02701017200052738,0.021969255223870277
1633780795471685600,12.606685546875,-0.06422317358553409,0.020902795036137102,-0.13668065316155553
1633780795491564500,12.626564453125,0.09974281525611876,0.026964579293131827,0.08217500986158847
1633780795511443700,12.646443603515625,0.15021686495244502,0.13252104926407338,0.10223412061519921
1633780795531323400,12.666323486328125,0.000043839141726493834,0.10192541999220847,-0.02320084284543991
1633780795551202600,12.68620263671875,0.030742928788065907,0.08332388763576745,-0.00012684125006198882
1633780795571081700,12.706081787109374,-0.015097031366825104,0.09356734149158,-0.028141587183251975
1633780795590960400,12.72596044921875,-0.03381634488403797,0.040568741753697395,-0.07807422347925604
1633780795610839600,12.745839599609376,-0.015177695387601851,0.030638007108867167,-0.07963467772901058
1633780795630718500,12.765718505859375,-0.0007394201904535293,-0.009933364993333816,-0.0835443254534155
1633780795650598400,12.785598388671875,-0.010606734210252761,-0.0007142857491970061,-0.13537804613038898
1633780795670477600,12.8054775390625,-0.020853987458348273,-0.026095102982223034,-0.16402780203148723
1633780795690356500,12.8253564453125,0.03599719605445861,-0.09488456156998872,-0.10078830572105943
1633780795710235600,12.845235595703125,0.09458324053585529,-0.081735741661489,-0.06477218577042222
1633780795730114600,12.865114501953125,0.07315700614750385,-0.08184563177675008,-0.022543255719542504
1633780795749994500,12.884994384765625,0.10194821634590626,-0.06996785471737385,0.019460779534280298
1633780795769873700,12.904873779296874,0.11434651014804839,-0.0423895274400711,0.046891880360618234
1633780795789752600,12.924752685546874,0.048403088641166686,0.010620762735605239,0.07870799133814871
1633780795809631500,12.944631591796876,0.019324293673038482,0.04651975911259651,0.10114486407376826
1633780795829510400,12.964510498046875,-0.09043605772852897,0.09212269564121961,0.06638831573016941
1633780795849390600,12.984390625,-0.0955149684280157,0.1171016540750861,0.045695875509083266
1633780795869269500,13.00426953125,-0.09038345075845718,0.11649141322225331,0.0601950140479952
1633780795889148400,13.0241484375,-0.10026771591305732,0.0933344095185399,0.023043460326641795
1633780795909027600,13.044027587890625,-0.11101064372360706,0.053932373456656926,0.004764072596654296
1633780795928906500,13.063906494140625,-0.03296878814399242,0.005939911442995071,0.04081321803405881
1633780795948786400,13.083786376953125,0.0026952304333448408,-0.005000877027213573,0.05117755832318216
1633780795968665600,13.10366552734375,0.10187515110969543,-0.029412849228084084,-0.001746697536855936
1633780795988544500,13.12354443359375,0.14073825798928738,-0.029544074392318723,0.022120829056389627
1633780796008423700,13.143423583984376,0.1219277590572834,-0.03696545656472444,0.03777425219696015
1633780796028302300,13.16330224609375,0.06703413935303687,-0.041131051811575885,0.050116139636747534
1633780796048182500,13.1831826171875,0.04290507574677467,-0.05118219796568155,0.049997372095286846
1633780796068061700,13.203061767578125,-0.007019523373246192,-0.039840135218203065,-0.015901881476305425
1633780796087940400,13.2229404296875,-0.035108722782135005,0.01607756683677435,-0.04564878496434539
1633780796107819500,13.242819580078125,-0.0835024590730667,0.06083703827857971,-0.07180544540807604
1633780796127698400,13.262698486328125,-0.11413608226776123,0.05788286464810371,-0.12523611642029137
1633780796147578400,13.282578369140625,-0.010240238985419273,0.03186901020854711,-0.12276585384923965
1633780796167457500,13.30245751953125,-0.002003156515955925,0.04228606706559658,-0.07310936761349439
1633780796187336400,13.32233642578125,0.046505146065354344,0.02482610595971346,0.02606489507362712
1633780796207215600,13.342215576171874,0.1379611944913864,0.01965542532354593,0.07728778580930083
1633780796227094500,13.362094482421876,0.1786386573165655,0.033982056839764116,0.10502601635605097
1633780796246973400,13.381973388671875,0.10215046091973781,0.021712942375242707,0.1265817588755861
1633780796266853600,13.401853515625,0.06231704770326614,0.05041442846357822,0.07725497951824217
1633780796286732500,13.421732666015625,0.06749883425533772,0.036923955510556696,0.06850154502447695
1633780796306611500,13.441611572265625,0.028450433936715123,0.06874269683659076,0.07811433629393577
1633780796326491000,13.461490966796875,0.0538140077739954,0.09223609288781881,0.0785830132516101
1633780796346370000,13.4813701171875,0.04483575154840946,0.024969021561741828,0.04939480765883345
1633780796366249700,13.501249755859375,0.030137364110350607,-0.007552899597585201,0.015789434077776967
1633780796386129000,13.52112890625,-0.020541268247365952,-0.038762276853621006,0.03698682814631611
1633780796406007800,13.5410078125,0.0634340690344572,-0.05467237816900015,-0.020899653230980038
1633780796425887000,13.560886962890624,0.14189736489653587,-0.05683657046556472,-0.05458053516708314
1633780796445766000,13.580765869140626,0.08828852430582046,-0.06943710884153842,-0.015340155940316617
1633780796465645800,13.600645751953126,0.04516249928474426,-0.08888473663330078,-0.025800650080293416
1633780796485525000,13.62052490234375,-0.009928104296326637,-0.06235358032137155,-0.04309212275147438
1633780796505403600,13.640403564453125,-0.016232757398486137,-0.030709026518464088,-0.052487179617024954
1633780796525282800,13.66028271484375,-0.00021627309918403624,-0.02365384730994701,-0.09088149994108825
1633780796545162000,13.680161865234375,-0.02155073755085468,0.03833616039603949,-0.09837663233629428
1633780796565041700,13.700041748046875,-0.03151215959489345,0.033713761292397976,-0.05811291054431349
1633780796584920800,13.7199208984375,0.028936171627044677,-0.0026966917380690575,-0.05886628619488329
1633780796604800000,13.739800048828124,0.0630243191897869,-0.002045242092013359,-0.026878106586076318
1633780796624679000,13.759678955078124,0.1223065292418003,0.007906827601790428,0.004796591193345375
1633780796644558000,13.77955810546875,0.16599077266752718,-0.015753157187998294,0.016927795024518855
1633780796664437800,13.799437744140626,0.13667407729029654,-0.0037011926054954527,0.0543878621391952
1633780796684317000,13.81931689453125,0.10623568440675735,0.0024219664499163626,0.0496770540997386
1633780796704196000,13.839196044921875,0.00902384893298149,0.029587329012155533,0.041493418850563464
1633780796724074800,13.85907470703125,-0.04905658411383629,0.061756491211056704,0.025954525467753408
1633780796743954000,13.878953857421875,-0.08246785532832145,0.08451426646411418,0.016635237252153455
1633780796763833900,13.898833740234375,-0.06834580647349357,0.10413841986656189,0.04884221071079373
1633780796783712800,13.918712646484375,-0.05236030183434486,0.09395224915593862,0.03560947537850588
1633780796803592000,13.938592041015625,-0.03280044583976269,0.07856938658505677,0.06590926350895315
1633780796823470800,13.958470947265624,0.011959902384877204,0.021326281145215033,0.04950458360966295
1633780796843350000,13.97835009765625,0.054417234364151953,0.004749240353703499,0.05273155086610932
1633780796863228700,13.998228759765626,0.09303834918141364,-0.003361585387587547,0.017852029163390397
1633780796883108900,14.01810888671875,0.10339432350099086,-0.005332885460555553,0.009047229808568953
1633780796902988000,14.037988037109375,0.039541736793518065,-0.011956687514483928,-0.029910715747624633
1633780796922867000,14.057866943359375,0.026795652467012404,0.001744213318824768,-0.05696768603194505
1633780796942745900,14.077745849609375,0.01996785227358341,-0.03490034072846174,-0.09806534703057258
1633780796962624800,14.097624755859375,0.01032967083454132,-0.0075075991511344906,-0.10398085468467325
1633780796982505000,14.1175048828125,-0.05834288337528705,0.02777268080562353,-0.0597933013793081
1633780797002384000,14.1373837890625,0.002326397120952606,-0.005714578254520893,-0.023651029731775634
1633780797022262800,14.1572626953125,0.0741834265857935,-0.019018296463787554,-0.026183438852801916
1633780797042142000,14.177141845703124,0.04827040217220783,0.017731471523642538,0.01230666999593377
1633780797062020900,14.197020751953126,0.0037251580029726027,0.054931905888020986,0.07862670626286417
1633780797081900800,14.21690087890625,0.039595512807369226,0.06861644010841846,0.05952814763709902
1633780797101780000,14.236780029296876,-0.018481413108110425,0.1370937640070915,0.026421814185939727
1633780797121659000,14.256658935546875,-0.017772972577810287,0.15812690742462873,0.018132928464002905
1633780797141537800,14.276537841796875,-0.036678748577833174,0.17162293333560227,0.019908194508217274
1633780797161416700,14.296416748046875,-0.04391337600648403,0.1682125403702259,0.016543101989291608
1633780797181297000,14.316296875,-0.04286065208315849,0.15284633667320013,-0.010079714661464095
1633780797201175800,14.33617578125,-0.08108604558110237,0.09625906479358673,-0.05792513288725167
1633780797221054700,14.3560546875,-0.025515549528598785,0.02030132201164961,-0.054193691273964936
1633780797240934000,14.375933837890624,0.017369652473926543,-0.04177373362928629,-0.06123805682752281
1633780797260812800,14.395812744140626,-0.019357611420750615,-0.053926820498704904,-0.04413695562928915
1633780797280692700,14.415692626953126,-0.005792611926794052,-0.08523585873693228,-0.10954864487964659
1633780797300572000,14.435572021484376,-0.016467735198140144,-0.05382160655856132,-0.09973586492552422
1633780797320450800,14.455450927734375,0.015960954719781876,-0.04724252042919397,-0.08005293967369943
1633780797340329500,14.47532958984375,0.0467336941242218,-0.01472206057459116,-0.08544372933395207
1633780797360208400,14.49520849609375,0.051876902231574054,0.025708441752195357,-0.0493786922076717
1633780797380088300,14.51508837890625,0.04506546865105629,0.07063157932311297,-0.008747223948687315
1633780797399967500,14.534967529296875,0.08300736903250217,0.09175006293654442,0.06573712181244046
1633780797419846400,14.554846435546875,0.20477730717957018,0.10112111787199973,0.07314264882858842
1633780797439725300,14.574725341796874,0.22103169188797472,0.13608020305037496,0.056753531824611125
1633780797459604200,14.594604248046876,0.05413549481332302,0.1423445241421461,0.026331112828338516
1633780797479484400,14.614484375,-0.1121674125432968,0.11481412765979766,0.012063143563643098
1633780797499363300,14.63436328125,-0.07649930231273173,0.08667582841217518,-0.06684986882731318
1633780797519242200,14.6542421875,-0.05175532167851925,0.06068856971859932,-0.11163442904460243
1633780797539121400,14.674121337890625,-0.08381342471837996,0.04106032466292381,-0.10018270451072603
1633780797559000300,14.694000244140625,-0.14635083717405795,-0.0038014381095767017,-0.09100424953792244
1633780797578879200,14.713879150390625,-0.09466741168797016,-0.05998392858058214,-0.11290398318953812
1633780797598759400,14.733759521484375,0.0032779987573623654,-0.10250672701150178,-0.10315309862364083
1633780797618638300,14.753638427734375,0.07696575078070163,-0.08977554799318313,-0.1204615224296227
1633780797638517500,14.773517578125,0.11028642110228538,-0.04239537265896797,-0.09654317896459251
1633780797658396400,14.793396484375,0.1376683490246534,-0.0571948823839426,-0.035488296684250235
1633780797678275300,14.813275390625,0.16323066030442715,-0.07755173397511243,-0.02752644182643853
1633780797698155500,14.833155517578126,0.16644494617581365,-0.03649608548730612,-0.012457832836499438
1633780797718034200,14.8530341796875,0.10138181463479995,-0.030127134977281093,0.010351663470640779
1633780797737913300,14.872913330078125,0.08225450483858585,-0.015045593440532683,0.005853009477676824
1633780797757792500,14.89279248046875,0.013377952489256857,-0.004220832565426826,-0.05000646871719509
1633780797777671400,14.91267138671875,-0.043916883137822146,0.002690261997282505,-0.052604376255907116
1633780797797551400,14.93255126953125,-0.1034539447337389,0.010469371566176415,-0.05718164844303392
1633780797817430300,14.95243017578125,-0.140375269895792,-0.02298427748531103,-0.020968517216108738
1633780797837309400,14.972309326171874,-0.05753975029885768,-0.03591857786029577,0.0285454552764073
1633780797857188400,14.992188232421874,-0.04412321936488151,-0.01784779137969017,0.042703123433887956
1633780797877067300,15.0120673828125,0.012930208721756934,-0.0743286802753806,0.09883969240393489
1633780797896947500,15.031947509765626,0.0447077412545681,-0.06083440793007612,0.13264456604588776
1633780797916826400,15.051826416015626,0.06263035143613815,-0.006957271791994572,0.1431423965215683
1633780797936705300,15.071705322265625,0.11193594187498092,0.03586421732455492,0.158092347567901
1633780797956584400,15.09158447265625,0.1493599558621645,0.04976180977374315,0.15082717887051403
1633780797976463400,15.11146337890625,0.10917641403377056,0.08549421741217374,0.11546934016551821
1633780797996343300,15.13134326171875,0.11344108574092387,0.09979512996524571,0.10378036367651075
1633780798016222500,15.151222412109375,0.08595745100975036,0.0662464961066842,0.14850421581566334
1633780798036101400,15.171101318359375,0.12242343361973762,0.033006489805877205,0.10789229250736534
1633780798055980500,15.19098046875,0.13845277740061282,0.0074114453002810474,0.0917303718553856
1633780798075859200,15.210859130859374,0.05923778638839721,-0.00684884298145771,0.08294654222335666
1633780798095739400,15.230739501953124,0.0027419921845197675,-0.07123071426004171,0.04254143006615341
1633780798115618600,15.25061865234375,-0.01724865644276142,-0.06737900726795196,0.007270465927012264
1633780798135497200,15.270497314453126,0.016493454161286353,-0.047480420838296414,-0.03387435868158936
1633780798155376400,15.29037646484375,-0.056363107734918594,-0.03781301330476999,-0.04921129518493544
1633780798175255300,15.31025537109375,-0.09320435339808464,-0.037842823921144006,-0.021249087723158297
1633780798195135200,15.33013525390625,-0.031221652215719223,-0.029518647690117358,-0.025032697915099558
1633780798215014400,15.350014404296875,-0.002561374920606613,-0.004520984555780887,-0.03185238786730915
1633780798234893300,15.369893310546875,0.06410685372948646,0.01889087069183588,0.01807988310251385
1633780798254772500,15.3897724609375,0.0808230107307434,0.01783639320284128,-0.012191446118429303
1633780798274651400,15.4096513671875,0.0703530546426773,0.03899637787044048,0.009595328678004443
1633780798294531300,15.42953125,0.12319149538278579,0.03625789281725883,0.04242554860152304
1633780798314410500,15.449410400390626,0.1517377909094095,0.07082417928576469,0.03587949709207751
1633780798334289000,15.469288818359376,0.15506488950550557,0.027820903861522674,0.014443901220336555
1633780798354168000,15.48916796875,0.05467150138616562,0.006109715051949024,0.0311472718052566
1633780798374046700,15.509046630859375,-0.03885141644179821,0.0020773907959461212,0.02635021025445312
1633780798393927000,15.528927001953125,-0.0002139350116252899,0.028719606266915797,-0.060583319245837625
1633780798413806000,15.54880615234375,-0.018040683603286742,0.013297872990369795,-0.0808028081929311
1633780798433684700,15.568684814453125,-0.04699731349647045,0.00665799658447504,-0.06699278442934155
1633780798453564000,15.58856396484375,-0.019695465072989464,0.042084991535544396,-0.07131846560873091
1633780798473442800,15.60844287109375,-0.061682256931066506,0.025982582518458364,-0.05478073391430079
1633780798493322800,15.62832275390625,0.015652327162027357,-0.001599251890182495,-0.08370594575591385
1633780798513202000,15.648201904296876,0.0033007951110601425,0.00251139829903841,-0.06132415507524274
1633780798533080800,15.668080810546876,0.0231926595389843,0.002551145787537098,-0.05104494491945952
1633780798552960000,15.6879599609375,0.06309679990410805,0.030488954026997087,-0.039792460151575504
1633780798572839000,15.7078388671875,0.048937341648340224,0.010530161842703818,-0.04303944271616637
1633780798592718800,15.72771875,0.024160627788305283,0.02398556348234415,-0.05693790281503461
1633780798612598000,15.747597900390625,-0.0017523966252803802,0.023221008850634096,-0.03888754720110446
1633780798632477000,15.767476806640625,0.03111760731935501,0.046915480431914326,-0.0501145322015509
1633780798652355800,15.78735595703125,0.02625380067527294,0.05224281293451786,0.0010743877658620476
1633780798672235000,15.807235107421874,0.042000820383429525,0.06192220316678285,0.03789009712897241
1633780798692115000,15.827114990234374,0.08442600365877151,0.07770897036343813,-0.008022416805475949
1633780798711993900,15.846993896484374,0.018583119916915893,0.08873656033426523,0.0027307766707614064
1633780798731872800,15.866872802734376,-0.005056114345788955,0.06126286247521639,0.02579678675592877
1633780798751752000,15.886751953125,0.0484592027425766,0.03102466833889484,0.018137714236974717
1633780798771631000,15.906631103515625,0.04946458039283752,0.04959434425234795,-0.0383572031840682
1633780798791510800,15.9265107421875,0.011636077257990837,0.04115647851377725,-0.02985042779459618
1633780798811390000,15.946389892578125,-0.008486088794469833,0.016722879002988338,-0.06306549145039171
1633780798831269000,15.96626904296875,-0.011796820777654647,0.0009378653720021247,-0.10354998898673802
1633780798851147800,15.986147705078125,-0.0031809681236743925,-0.016502514250576496,-0.0761459222977981
1633780798871027000,16.00602685546875,-0.0549509028494358,-0.005041209037601947,-0.03808971135430038
1633780798890907000,16.025906982421876,0.028275077369809148,-0.045913609912991524,-0.027073190766759216
1633780798910785800,16.045785888671876,0.03720189566910267,-0.029397359398007392,-0.04487882350515574
1633780798930665000,16.0656650390625,0.06978782197535037,-0.005012567465007305,-0.05998988339733332
1633780798950544000,16.0855439453125,-0.028558570486307142,0.01837327655851841,0.05210235415105707
1633780798970423000,16.105423095703124,0.07690788311362266,-0.00516483541727066,0.05053290374409407
1633780798990302700,16.125302734375,0.11008593009412287,0.03801701144427061,0.009184154061228036
1633780799010182000,16.145181884765623,0.04609013552367687,0.040784722591936586,0.028766368018090724
1633780799030061000,16.16506103515625,0.01909516109228134,0.0709498514920473,0.058893904854170974
1633780799049940000,16.18493994140625,0.014583236625790596,0.07752396918535231,0.022672288926690817
1633780799069819000,16.20481884765625,0.06172492702901363,0.04265080872476101,0.00648315147422254
1633780799089699000,16.224698974609375,0.07551672101616859,0.058524085161089895,0.021139635999314486
1633780799109578000,16.244577880859374,0.07247720718979835,0.06584843669980764,-0.011623802298307418
1633780799129457000,16.264456787109374,0.09604045360684395,0.014974574030935764,-0.018134499366581437
1633780799149335800,16.284335693359374,0.09607084874510764,-0.028681320083141327,0.00030658173114061354
1633780799169215000,16.304215087890626,0.030987843459844587,-0.05172521880120039,0.013583923390135168
1633780799189095000,16.324094970703126,0.007245733344554901,-0.08885667958259583,-0.005942651389352977
1633780799208973800,16.343973876953125,-0.0014238953232765196,-0.09707067343741654,-0.008353913782164454
1633780799228853000,16.36385302734375,-0.003564414483308792,-0.1103290912002325,-0.025694851618260142
1633780799248732000,16.38373193359375,0.02434241409599781,-0.0915893194168806,-0.012376118502952158
1633780799268611000,16.403611083984377,-0.02320902615189552,-0.03881429930180311,0.0030753979905042794
1633780799288491000,16.423490966796876,-0.05635083277523517,-0.034060675033926964,0.04773209404442459
1633780799308370000,16.443369873046876,-0.031019407641887663,-0.03817892400771379,0.05124908918943256
1633780799328249600,16.46324951171875,0.09453589426279067,-0.02138531785607338,0.028220716834068297
1633780799348128800,16.483128662109376,-0.05480944855213165,0.04310205962359905,0.09910740342941135
1633780799368008000,16.503008056640624,0.0447077412545681,0.01634498560130596,0.03880586026702076
1633780799387887600,16.5228876953125,0.024855039793252945,0.06998276002556085,0.034028270601667465
1633780799407766800,16.542766845703124,0.0695510906100273,0.061788639914989466,0.03831577519513667
1633780799427645700,16.562645751953124,0.06501403170228004,0.07832710226178169,0.038326885677617974
1633780799447524900,16.58252490234375,0.10343524003326893,0.09689122521728277,0.03321187618486583
1633780799467403800,16.60240380859375,0.08285130168795585,0.08279547984749078,-0.0045156873261556025
1633780799487283700,16.62228369140625,0.03356909212470054,0.06660539254695176,-0.0069752458401024335
1633780799507163000,16.642162841796875,0.021387655943632126,0.03488338959366083,-0.02977890606150031
1633780799527041800,16.662041748046875,0.008968319353461264,0.023422376641631125,-0.017370821517705918
1633780799546920700,16.681920654296874,0.01864157210588455,-0.04514145649671554,-0.0012580372370779513
1633780799566800000,16.7017998046875,0.010661679267883301,-0.06690174514502287,-0.032781120084784926
1633780799586679800,16.7216796875,0.002527472651004791,-0.03435965798050165,0.003190430071763694
1633780799606558700,16.741558837890626,-0.012298340559005737,-0.00014992986470460892,0.12111925568599254
1633780799626438000,16.76143798828125,0.01782382598221302,-0.029689620342850682,0.07321396049913019
1633780799646316800,16.78131689453125,0.04652618885338306,0.019961422532796858,-0.012899265594221651
1633780799666196000,16.801196044921873,-0.03469371224045753,0.07229454409927129,0.05961356089822947
1633780799686075600,16.82107568359375,-0.007626257094740867,0.07291969026029109,0.08123586584795266
1633780799705954800,16.840954833984377,-0.0211316353559494,0.07989420544803143,0.04894143330156803
1633780799725834000,16.860833984375,0.030575755527615545,0.06284896262288094,0.0383376217007637
1633780799745712600,16.880712646484376,0.027093174108862875,0.08139233505129814,0.023876335520786232
1633780799765591800,16.900591796875,0.02835164973735809,0.08980331278294325,0.023937340426445006
1633780799785470700,16.920470703125,0.047021863415837285,0.062141106614470476,0.04601275943852961
1633780799805350700,16.9403505859375,0.08424071021974086,0.03525952942967415,-0.002918846588768065
1633780799825229800,16.960229736328124,0.030640637457370758,0.030756080530583856,-0.015345964626595376
1633780799845108700,16.980108642578124,0.04906242933273315,-0.021189503023028373,0.017035853942297396
1633780799864988000,16.99998779296875,0.03229074275195598,-0.005752279916405678,0.03217635912466794
1633780799884867600,17.01986767578125,0.0019569792866706848,-0.008546879070997238,-0.027278905939310788
1633780799904746800,17.039746826171875,0.07310556822121143,-0.020782968048751353,-0.034420082930848
1633780799924626000,17.0596259765625,0.015251345145702361,-0.024964345386624336,-0.00753945559412241
1633780799944504800,17.0795048828125,0.03687748602032661,-0.05742459948658943,0.00009746902510523795
1633780799964383700,17.0993837890625,-0.012377251014113426,-0.04259790949374437,0.01510956205483526
1633780799984262700,17.1192626953125,-0.024189269360899924,-0.0365013461843133,0.019314105639164334
1633780800004142800,17.139142822265626,-0.008451017481088638,-0.017665128289163112,0.02070504397433251
1633780800024021800,17.159021728515626,0.007974047619104386,-0.0004211480215191841,0.035412674164772034
1633780800043900700,17.178900634765625,0.03372691303491592,0.039272564463317394,0.016199220455065368
1633780800063779800,17.19877978515625,-0.02953822917342186,0.0455421462520957,0.05136998018932063
1633780800083658800,17.21865869140625,0.010960369953513144,0.03156973500102758,0.03997604112413246
1633780800103538700,17.23853857421875,-0.00018295535147190093,0.058280924054980275,0.01960599669124931
1633780800123417900,17.25841796875,-0.025817747345566747,0.0534150715842843,0.045380306753888724
1633780800143296800,17.278296875,0.07531681452989578,0.03361673065871,0.02317052077241242
1633780800163176000,17.298176025390624,0.0503629905372858,0.052285483032464976,-0.016114866639859973
1633780800183054600,17.3180546875,0.023251111727952956,0.03946896381825209,0.006242218857817352
1633780800202934800,17.337934814453124,0.01693359914422035,0.0012599369332194328,-0.029443975018709895
1633780800222814000,17.35781396484375,0.057984571456909176,-0.02257774251103401,-0.07142546964716166
1633780800242692600,17.377692626953124,0.044134909802675246,0.017114800930023193,-0.08350614886749536
1633780800262571800,17.39757177734375,0.05081833308935165,0.009370470413565635,-0.04403758234146517
1633780800282450700,17.41745068359375,0.02889408605098724,-0.03655950611233711,-0.01283554814166855
1633780800302330600,17.43733056640625,0.011739537632465363,-0.040190556091070175,-0.0393178649097681
1633780800322209800,17.457209716796875,0.0030126258194446563,-0.016255553752183915,-0.01958849756717682
1633780800342088400,17.47708837890625,-0.01465571734011173,0.025697335836291312,0.005611044814810157
1633780800361967600,17.496967529296874,-0.02385433831810951,0.03623421968072653,-0.01156184297800064
1633780800381846500,17.516846435546874,-0.003777180451154709,0.036007425187528135,-0.008243366079777478
1633780800401726500,17.5367265625,-0.029365795215964316,0.05388444266170263,-0.001357803250546567
1633780800421605600,17.556605712890626,-0.033844986456632614,0.06489800410717725,0.0001536561917513609
1633780800441484500,17.576484619140626,0.018262801921367644,0.0627460867702961,-0.03964519716799259
1633780800461363500,17.596363525390625,0.0335842896938324,0.01524053149074316,-0.0369226403363049
1633780800481242400,17.616242431640625,0.016438509103655814,0.022162731969356534,-0.02028553992062807
1633780800501122600,17.63612255859375,0.08709902226030826,-0.014921967060863971,-0.025197199727850964
1633780800521001500,17.65600146484375,0.10480360577702522,-0.0332116569891572,-0.05054743915952276
1633780800540880400,17.67588037109375,0.06084872871637344,-0.013059972581267357,-0.018721395876444877
1633780800560759600,17.695759521484376,0.10425824685394763,-0.012688508920371532,-0.039633872056379915
1633780800580638500,17.715638427734376,0.08767068466842173,-0.0094917587056756,-0.06607617647449951
1633780800600518400,17.735518310546876,0.10568331122100352,-0.022863865976035593,-0.028894524442404507
1633780800620397600,17.7553974609375,0.0359282224714756,-0.00018324761241674423,-0.04046929996721446
1633780800640276500,17.7752763671875,0.015144377639889716,-0.013688333612680435,-0.02922163750492036
1633780800660155600,17.79515576171875,0.004931026661396026,-0.02137567324489355,-0.03748498236022424
1633780800680034300,17.815034423828124,-0.01237140579521656,-0.03223199830204248,-0.03664122957903892
1633780800699914500,17.83491455078125,-0.0042991584986448285,0.019821137279272077,-0.06096815384496003
1633780800719793700,17.854793701171875,0.028240006056427954,-0.050555298238992685,-0.06242284159872215
1633780800739672300,17.87467236328125,0.05743395183682441,-0.06698913116753101,-0.017273389025218785
1633780800759551500,17.894551513671875,0.07645897030234336,-0.08676876739263534,0.013777290537767111
1633780800779430400,17.914430419921874,0.08101648747622966,-0.07142536004930734,0.04003160723627079
1633780800799310300,17.934310302734374,0.07562018139064311,-0.03621230010986328,0.05295772430479992
1633780800819189500,17.954189453125,0.12858780146837234,-0.03004004121571779,0.07207706999026704
1633780800839068400,17.974068359375,0.13537059347629546,0.026546353881061076,0.04286700875870883
1633780800858947600,17.993947509765626,0.06371230145394802,0.058817807410657404,0.08690602043885737
1633780800878826500,18.013826416015625,0.0934323169350624,0.06940875952988862,0.11093640944361687
1633780800898705400,18.033705322265625,0.12224690800905227,0.059203299596905706,0.06952007441725581
1633780800918585600,18.053585693359373,0.10001461793482302,0.09682312841713428,0.051704614404588935
1633780800938464500,18.073464599609373,0.03602233049571514,0.09518500582128762,0.06106960492543876
1633780800958343400,18.093343505859377,0.06193769299685955,0.015286416459083556,0.04277410631086677
1633780800978222600,18.11322265625,0.07654255693256855,-0.017687632381916046,-0.003574168692342937
1633780800998101500,18.1331015625,0.006840659675002097,-0.047721243856847284,0.007873254125751555
1633780801017981400,18.1529814453125,-0.02469488079547882,-0.07228256140053271,0.011058313902653752
1633780801037860400,18.1728603515625,-0.013793547552824019,-0.0800695620149374,-0.028106625467725098
1633780801057739500,18.192739501953124,-0.03289689195156097,-0.1034708958685398,-0.07926869396083057
1633780801077618700,18.21261865234375,-0.04364098880589008,-0.07980798846930265,-0.08631240192726254
1633780801097497300,18.232497314453123,-0.1196744271725416,-0.05264964016973972,-0.022476583691500126
1633780801117377500,18.25237744140625,-0.02317161675095558,-0.06469254466295242,0.005540609927102923
1633780801137256400,18.27225634765625,0.031280688926577566,-0.04629793305546045,-0.013791757454536854
1633780801157135400,18.29213525390625,0.03617255262136459,-0.028168109863996503,0.037987821882404384
1633780801177014500,18.3120146484375,0.05335282000303268,-0.013245558281242846,0.1105086124856025
1633780801196893400,18.3318935546875,0.0722048199892044,-0.01039542954713106,0.10932992409504949
1633780801216773600,18.351773681640626,0.09271686214208602,0.01430938812047243,0.11645239638611674
1633780801236652500,18.371652587890626,0.12839490924477576,0.065922378718853,0.09296517434734851
1633780801256531500,18.391531494140626,0.07479775909185409,0.08681699044853448,0.08580226044803857
1633780801276410600,18.41141064453125,0.04159808480143547,0.1085866314470768,0.04922105396054685
1633780801296289500,18.43128955078125,0.0600835895627737,0.08553221133500337,0.03995203462745994
1633780801316169500,18.45116943359375,0.0617827946960926,0.04458265357017517,0.0015748115686699748
1633780801336047600,18.471047607421873,-0.0014940379500389099,0.020337854629755018,-0.011079977745190261
1633780801355926800,18.4909267578125,0.00293839153945446,-0.007873509854078293,-0.03388513580393046
1633780801375806000,18.510805908203125,-0.013227145841717719,-0.010278817430138587,-0.04155903143268078
1633780801395684600,18.5306845703125,-0.008847323322296142,-0.0516442625194788,-0.05364307165388017
1633780801415564800,18.550564697265624,0.025266543203592298,-0.053071957235038277,-0.07323916800562291
1633780801435443700,18.570443603515624,-0.009773790517449378,-0.045270343573391436,-0.06068075173832476
1633780801455322600,18.590322509765624,0.014806523987650871,-0.06341565659493208,-0.05361289114474784
1633780801475201800,18.610201904296876,0.0013028992921113966,-0.03577098608314991,-0.0487641359393252
1633780801495080700,18.630080810546875,0.027810966989398,-0.042977264200150966,-0.026932316424767486
1633780801514960000,18.6499599609375,0.022148703444004058,0.007864157503843307,0.05058211318068206
1633780801534839600,18.669839599609375,0.05916238306462764,0.003914543095231056,0.008738602250814437
1633780801554718700,18.68971875,0.06324000776708126,0.045507659460604186,0.028417883373983203
1633780801574598000,18.709597900390627,0.014730536141991614,0.04844049804210662,0.06600297424097079
1633780801594476800,18.729476806640626,-0.03450958784520626,0.05829641388505697,0.05544314791236538
1633780801614355700,18.749355712890626,0.00734334850013256,0.11552958245277405,0.03393587961047888
1633780801634236000,18.76923583984375,0.02607084532380104,0.1292883509531617,0.052621729249507185
1633780801654114800,18.78911474609375,0.08205109122097491,0.08815203844457864,0.061912412425130604
1633780801673993700,18.80899365234375,0.060386371901631354,0.06934270855635404,0.02693239405658096
1633780801693872600,18.82887255859375,0.0014484452426433562,0.045995442977547644,0.02303706711847335
1633780801713751800,18.848751708984373,-0.03987257618308067,0.042326399075984955,0.042736331583745776
1633780801733631700,18.8686318359375,0.026526772397756575,0.021334464451670646,-0.04356674995932262
1633780801753510700,18.8885107421875,0.04330255063176155,0.009904723420739173,-0.06343322878424078
1633780801773389800,18.908389892578125,-0.04031739734113216,0.027207740399241447,-0.0352389615656808
1633780801793268700,18.928268798828125,0.010226210460066795,0.034004853193461894,-0.02939541860267054
1633780801813148000,18.94814794921875,0.059925184130668635,0.02123188086003065,-0.07804181904699653
1633780801833027800,18.96802783203125,0.06022796646952629,0.01776332796663046,-0.07576510628666729
1633780801852906800,18.98790673828125,0.037304771521687506,0.037761867639422415,-0.03968975782892666
1633780801872786000,19.007785888671876,0.0729413175702095,0.03887392053455114,-0.057189101097127416
1633780801892664600,19.02766455078125,0.11935761630833149,0.056473290111124515,-0.049063771906448526
1633780801912543700,19.047543701171875,0.09810440039932727,0.053021103830635546,-0.06357102981973439
1633780801932424000,19.067423828125,0.07552198171317577,0.06816635825335979,-0.09228577724844217
1633780801952302600,19.087302490234375,0.03240180191099643,0.017202771474421022,-0.07513627033121884
1633780801972181800,19.107181640625,0.041593408626317975,-0.0031187165424227713,-0.04477196559719741
1633780801992060700,19.127060791015627,0.014939210456609725,-0.02413724691271782,-0.04446633371412754
1633780802011939800,19.14693994140625,0.04900865331888198,-0.033809915143251414,-0.013719094077125191
1633780802031818800,19.16681884765625,0.008529927936196327,-0.02443301498889923,0.014444668405316769
1633780802051698700,19.18669873046875,-0.011838906353712082,-0.011355506750941276,0.01779076396282762
1633780802071577900,19.206577880859374,-0.03770984519124031,0.023119886563718318,0.041610798152536155
1633780802091456800,19.226456787109374,-0.01272913319170475,0.028503625428676602,0.05795004813279956
1633780802111335700,19.246335693359374,0.021806758138537406,0.07181289806216955,0.08377949504931456
1633780802131214800,19.26621484375,-0.0236935947984457,0.1082592991888523,0.06964480590862221
1633780802151094800,19.2860947265625,-0.012218261060118675,0.11060089387893676,0.08426686757430434
1633780802170973700,19.3059736328125,-0.0011363105535507202,0.10162146860957146,0.06465605771061964
1633780802190852600,19.3258525390625,-0.008522329151630401,0.0954237830132246,0.04180683674786705
1633780802210731800,19.345731689453125,0.027418168279528615,0.08660743935108184,0.015547624678537248
1633780802230611000,19.36561083984375,0.04686170441806316,0.07043225735872984,0.013765417436882853
1633780802250490600,19.38549072265625,0.054524786391854284,0.021362229241430757,-0.01879621467832476
1633780802270369800,19.405369873046876,0.012598200288414954,0.0012874094620347022,-0.06486508821826428
1633780802290248700,19.425248779296876,-0.027515783435106276,-0.017918226267397402,-0.07773710047937929
1633780802310127600,19.445127685546876,0.03413432479202747,-0.0373357511818409,-0.07158277910072355
1633780802330008300,19.46500830078125,0.0570510899990797,-0.06755377931296826,-0.039536476096510884
1633780802349888300,19.48488818359375,0.04798457096815109,-0.07618161466568708,-0.07403170662280172
1633780802369767400,19.504767333984375,-0.029389760613441465,-0.051233051370084284,-0.007736366405710578
1633780802389646300,19.524646240234375,-0.03980009546875953,-0.04427782540470362,0.008730418944358826
1633780802409525500,19.544525390625,-0.003986439287662506,-0.021039865419268607,-0.005741100935265421
1633780802429404200,19.564404052734375,0.011019991186261176,0.0399868502125144,0.028235074152983722
1633780802449284400,19.584284423828127,-0.008718728506565094,0.09331278220862149,0.042443929075007325
1633780802469163500,19.60416357421875,-0.032788755401968954,0.12374503761231899,0.07944700966980307
1633780802489042200,19.624042236328126,0.03124386404752731,0.12835282366871834,0.07059307851020712
1633780802508921300,19.64392138671875,0.04992869077324867,0.10828004971593617,0.07868252810332924
1633780802528800500,19.663800537109374,0.059604866135120387,0.11040654035061598,0.08388009674642234
1633780802548679400,19.683679443359374,0.07670154688656329,0.07930997581928968,0.079156210029684
1633780802568559400,19.703559326171874,0.06817746416926383,0.030511750380694865,0.06750084354933351
1633780802588438300,19.723438232421874,0.07667056722640991,0.02211713926196098,0.022271457607415505
1633780802608317400,19.7433173828125,0.07057400391697884,-0.00774988347440958,0.009500891860201954
1633780802628196400,19.7631962890625,0.015161328774690628,-0.0011807342171669005,-0.030084976335987446
1633780802648075300,19.7830751953125,-0.010744681376218795,-0.04430792828202247,-0.061197870947606856
1633780802667955500,19.80295556640625,-0.0418231257289648,-0.05217471613436937,-0.07701499674990772
1633780802687834400,19.82283447265625,-0.04492693696320057,-0.0718172819763422,-0.06516721296999603
1633780802707713300,19.84271337890625,-0.0312269129127264,-0.0552647911041975,-0.06549593346770853
1633780802727592400,19.862592529296876,-0.04046878851056099,-0.012632102558016776,-0.033211510858684776
1633780802747471400,19.882471435546876,-0.050336687052249904,0.003432604797184467,-0.013686908840574323
1633780802767351300,19.902351318359376,0.001717325311899185,0.015785890413820742,-0.021727226628921924
1633780802787230200,19.922230224609375,0.04768295767307281,0.07228080783486365,-0.024745661134645342
1633780802807109400,19.942109375,0.0369692559570074,0.0842956552773714,0.02030767868719995
1633780802826988500,19.961988525390623,0.048673722276091576,0.05641629922688007,0.05162690952587872
1633780802846867200,19.9818671875,0.09596972645819186,0.05584229873120784,0.0497985981201753
1633780802866746400,20.001746337890626,0.13046060960292816,0.04820025954544544,0.03219466196633875
1633780802886626600,20.02162646484375,0.08616028010547161,0.05066723418086767,0.05324603516031056
1633780802906505500,20.04150537109375,0.05249240378141403,0.0331286548808217,0.051983801238727756
1633780802926384400,20.06138427734375,0.03829027542769909,0.011197101318836212,0.001181209141202271
1633780802946263300,20.08126318359375,0.019716507861018178,-0.03711801677793264,0.010966877326113171
1633780802966142500,20.101142578125,-0.04218319121301174,0.033150866712629797,-0.007655190928280353
1633780802986022400,20.1210224609375,-0.03103343616724014,0.0026712650358676907,-0.03742072605155408
1633780803005901300,20.1409013671875,-0.010507950010895729,-0.05346884759813547,-0.016670084803248754
1633780803025780500,20.160780517578125,-0.0662619859367609,-0.023391104720532893,-0.007510485227964818
1633780803045659400,20.180659423828125,0.017379004824161527,-0.04928513217270374,-0.02582538266275078
1633780803065538300,20.200538330078125,0.025143209084868428,0.000863046570122242,0.06764777773935347
1633780803085418500,20.22041845703125,0.05565817433595657,0.008962766395509242,0.048485839587752703
1633780803105297400,20.24029736328125,0.08237316278219223,0.050260114684700964,0.00048318040706217286
1633780803125176300,20.26017626953125,-0.00680091218650341,0.013955752377212046,-0.03352733534220606
1633780803145055200,20.28005517578125,0.038327100306749344,0.043209319390356535,-0.07116944905947893
1633780803164934400,20.299934326171876,0.11233867745697498,0.08781009313911199,-0.060872036526724696
1633780803184814300,20.319814453125,0.023254034337401388,0.06503215188086033,0.032284203413315116
1633780803204693200,20.339693359375,0.052984571212530134,0.034190731154382224,0.042690775408968325
1633780803224572400,20.359572509765623,0.03102349929511547,0.011806465388834475,0.0010502808044897392
1633780803244451300,20.379451416015623,0.03866729204654693,-0.0004068272352218628,-0.05431326253302395
1633780803264330500,20.39933056640625,0.001967500680685043,0.018077508482336996,0.06390253136300016
1633780803284209200,20.419209228515626,-0.05855389577746391,-0.045508243982493875,0.016383856306970118
1633780803304089300,20.43908935546875,-0.08725742769241332,-0.12903408393114804,-0.12320676601715386
1633780803323968500,20.458968505859374,-0.09918167424201965,-0.1876253891095519,-0.17565372322164474
1633780803343846000,20.478845947265626,-0.16944354346990584,-0.18951047220379114,-0.0888787818165496
1633780803363725000,20.49872509765625,-0.15554712006449697,-0.10058657260388135,-0.009739632519520819
1633780803383603700,20.518603759765625,-0.03487959020137787,-0.01909077717810869,-0.033889483185485
1633780803403484000,20.53848388671875,0.08893383647203446,0.14506693484336136,0.10499733825083822
1633780803423363000,20.558363037109373,0.19239947164356708,0.1779687952309847,0.030467847306886685
1633780803443241700,20.57824169921875,0.16946107912659644,0.118086573459208,-0.003623222865303978
1633780803463121000,20.598120849609376,0.1089829372882843,0.10208557898998259,0.17334109889771787
1633780803482999800,20.617999755859376,0.12005436640083789,0.14864362428635358,0.20528595082145182
1633780803502879700,20.637879638671876,0.04325286627113819,0.16662351761311292,0.11396299072317778
1633780803522759000,20.657759033203124,0.11115092897713184,0.1557867740392685,-0.003506103858235292
1633780803542637800,20.677637939453124,0.12132862412035464,0.16677286295592783,-0.10562613767366856
1633780803562517000,20.69751708984375,0.09489595974683761,0.11806582293212413,-0.13529760130532084
1633780803582396000,20.71739599609375,0.14048165287971495,0.02645896785855293,-0.0790766054548323
1633780803602274800,20.73727490234375,0.15689911919534205,-0.04032616516947746,-0.010689517122879624
1633780803622155000,20.757155029296875,0.31221067693829535,-0.0796639038234949,-0.02665427123494446
1633780803642034000,20.777033935546875,0.2619347801625728,-0.1518295608460903,0.13489738647397606
1633780803661912800,20.796912841796875,-0.04546820423305034,-0.12185936999619007,-0.13094046554174274
1633780803681792000,20.8167919921875,-0.4462584973782301,-0.09269874196350573,-0.20355865210480986
