time,seconds_elapsed,z,y,x
1633780782888157000,0.023156982421875,-8.614992822280525,-4.640940137982368,0.643397272503376
1633780782908035800,0.043035888671875,-8.595967219293117,-4.679278636465966,0.6197464208681136
1633780782927914800,0.062914794921875,-8.57727420926094,-4.715112458652258,0.6070138901429251
1633780782947794000,0.0827939453125,-8.566697285667061,-4.735480708420276,0.5977489259304478
1633780782967672800,0.1026728515625,-8.566890177890658,-4.736755842922627,0.584741121927835
1633780782987552800,0.122552734375,-8.570418936538696,-4.731541615405678,0.5751699778430164
1633780783007432000,0.142431884765625,-8.572408064529299,-4.72774368442744,0.5767519863374531
1633780783027310800,0.162310791015625,-8.572700909996032,-4.727454930613935,0.5747585474979132
1633780783047190000,0.18218994140625,-8.570421859148144,-4.7325595602765675,0.5666807107107713
1633780783067069000,0.20206884765625,-8.565428288644553,-4.7422936033055185,0.560781934995763
1633780783086947800,0.22194775390625,-8.558594643232226,-4.755313536137342,0.5548278123643249
1633780783106828000,0.241828125,-8.550895320901274,-4.769450782561302,0.5521918743701651
1633780783126707000,0.26170703125,-8.542869250833988,-4.784111760598421,0.5495829339807853
1633780783146585900,0.2815859375,-8.53570301246643,-4.797274024510384,0.5461855100948363
1633780783166464800,0.30146484375,-8.531306823334097,-4.805960896573961,0.5384526142878457
1633780783186344000,0.321343994140625,-8.530171681824326,-4.808724223807454,0.5317164379006252
1633780783206224000,0.341223876953125,-8.53232739855349,-4.805774141830206,0.5237426460098475
1633780783226102800,0.361102783203125,-8.533578275397419,-4.804026129119098,0.5193852545179426
1633780783245982000,0.38098193359375,-8.532407478052377,-4.8066328044861555,0.5144837462119758
1633780783265860900,0.40086083984375,-8.529002053523064,-4.81340244475156,0.5076107551699504
1633780783285739800,0.42073974609375,-8.52593331360221,-4.819281565918028,0.5033601119881496
1633780783305620000,0.440619873046875,-8.52378461113572,-4.823161037699878,0.5025972013242542
1633780783325499000,0.460498779296875,-8.52041075078845,-4.829025545819103,0.5034915198154747
1633780783345378000,0.4803779296875,-8.516163614737987,-4.836116088601947,0.5072683349404484
1633780783365257000,0.500257080078125,-8.513096628382801,-4.840582128100097,0.5160756550459191
1633780783385135900,0.520135986328125,-8.510631699573993,-4.842831660592556,0.5352662028040737
1633780783405015000,0.54001513671875,-8.507700906819105,-4.844043082208931,0.5697860563149676
1633780783424894700,0.559894775390625,-8.507363053166866,-4.839134559640288,0.6147601568881422
1633780783444774000,0.57977392578125,-8.510645728099346,-4.824592824068665,0.6801419259242713
1633780783464653000,0.599653076171875,-8.518838386905193,-4.798191431616247,0.7596960857629775
1633780783484532000,0.619531982421875,-8.529653210908174,-4.768293721480667,0.8238765161853283
1633780783504411000,0.639410888671875,-8.53434399907291,-4.751334403373301,0.871884175768122
1633780783524290800,0.659290771484375,-8.532954590541124,-4.748805761678517,0.8988394757762551
1633780783544170000,0.679169921875,-8.529690035787224,-4.756229481938481,0.8905349540937691
1633780783564049000,0.699048828125,-8.527119308516383,-4.764363980816304,0.8714658042255788
1633780783583927800,0.718927734375,-8.531354169607162,-4.760896596966684,0.8486687929406762
1633780783603807000,0.738806884765625,-8.542598032677173,-4.7439898858293885,0.8300373038373887
1633780783623687000,0.75868701171875,-8.556211547487974,-4.722198032999039,0.8139269307095557
1633780783643565800,0.77856591796875,-8.57018980395794,-4.701628415440022,0.785440621741861
1633780783663445000,0.798445068359375,-8.579659643092752,-4.689607722778618,0.7532639338236302
1633780783683324000,0.818323974609375,-8.585045427784323,-4.684248241572082,0.7247019292712211
1633780783703203000,0.838203125,-8.588339793154598,-4.681506541648507,0.7030694317210465
1633780783723083000,0.8580830078125,-8.59232564792037,-4.676933826905489,0.684556819757074
1633780783742962000,0.8779619140625,-8.593541453450918,-4.67659480420947,0.6714790192581713
1633780783762841000,0.897841064453125,-8.590795954135059,-4.6836008835792535,0.6576357873447239
1633780783782719700,0.9177197265625,-8.583084356844425,-4.700628883008658,0.6365070015329867
1633780783802599000,0.937598876953125,-8.571780288019776,-4.7240506751284,0.6150755064476281
1633780783822477800,0.957477783203125,-8.559965931585431,-4.748076862882077,0.5942448998648673
1633780783842357800,0.977357666015625,-8.548960553446411,-4.769434415948391,0.5815110904980451
1633780783862237000,0.99723681640625,-8.540988843914866,-4.784069675022363,0.5784241938659921
1633780783882115800,1.01711572265625,-8.536348324632645,-4.792806523707509,0.5745827160069719
1633780783901995000,1.0369951171875,-8.53508634187281,-4.796363339406252,0.5635471619253978
1633780783921874000,1.0568740234375,-8.535969554448128,-4.7963045949563385,0.5505220779944211
1633780783941753900,1.07675390625,-8.539550335544348,-4.791431435962021,0.5372593128500506
1633780783961633000,1.096633056640625,-8.547395788347721,-4.778376431816816,0.5286997569605708
1633780783981512000,1.116511962890625,-8.559251645836234,-4.757430382160842,0.5257853673512116
1633780784001390800,1.136390869140625,-8.569979960599541,-4.738409455348551,0.5227807787077501
1633780784021269800,1.156269775390625,-8.576011057457327,-4.727985968750715,0.5182298739377409
1633780784041150000,1.17614990234375,-8.576745801472663,-4.72724041108042,0.5128515053676441
1633780784061028900,1.19602880859375,-8.574422326961159,-4.732117077206075,0.5066881604323163
1633780784080907800,1.21590771484375,-8.572173671251536,-4.737380404561757,0.49543099948931485
1633780784100787000,1.235786865234375,-8.571670982426404,-4.739330369585752,0.4853746657034382
1633780784120666000,1.255666015625,-8.572440797755121,-4.738944292877615,0.47544265241697425
1633780784140544800,1.275544677734375,-8.570462191158533,-4.743256895379722,0.468048450512439
1633780784160425000,1.295425048828125,-8.564692375585436,-4.754174302974343,0.4628826652470976
1633780784180304000,1.315303955078125,-8.555611243507265,-4.7707998590826985,0.45974798395056277
1633780784200183000,1.33518310546875,-8.544572547620534,-4.790717442473769,0.4579182112401351
1633780784220062000,1.35506201171875,-8.533118256670235,-4.810840485309064,0.46053160860892384
1633780784239940900,1.37494091796875,-8.525175188711286,-4.824286534598469,0.46694392333664
1633780784259821000,1.394821044921875,-8.523606916481256,-4.826640696509182,0.4712235003519803
1633780784279699700,1.41469970703125,-8.530179280608891,-4.815364392474294,0.46764209820125247
1633780784299579000,1.434578857421875,-8.543732005143164,-4.7924806527540085,0.45514107467699794
1633780784319458000,1.4544580078125,-8.560611243751644,-4.763816868327558,0.4385970959048718
1633780784339337200,1.474337158203125,-8.576555247336625,-4.736465335543453,0.42306284216456114
1633780784359217000,1.494216796875,-8.588215289992094,-4.716595098425448,0.4082553317962214
1633780784379096000,1.514095947265625,-8.593223473542928,-4.708414422318339,0.3971560648286715
1633780784398975000,1.53397509765625,-8.592174841272831,-4.71132183419764,0.3851792843742296
1633780784418854000,1.55385400390625,-8.587580499219895,-4.720291614855825,0.377754139342159
1633780784438733000,1.573733154296875,-8.582468270772695,-4.729327154226601,0.3809036528816446
1633780784458612000,1.593612060546875,-8.577264856910706,-4.738430205875635,0.38496038092654195
1633780784478492000,1.613491943359375,-8.571685010951757,-4.748315932334959,0.3874200855709612
1633780784498370800,1.633370849609375,-8.56649445657134,-4.757131106953323,0.3940276671424508
1633780784518250000,1.65325,-8.563912623384594,-4.760682369694114,0.4070503399206325
1633780784538129200,1.673129150390625,-8.566782041341066,-4.754657118055224,0.4169705531714484
1633780784558008000,1.693008056640625,-8.57257582231164,-4.743382567586004,0.42620008074436333
1633780784577888000,1.712887939453125,-8.577995509272814,-4.732546116273105,0.4374805494977161
1633780784597767000,1.732766845703125,-8.580467452344298,-4.72673538416773,0.45159689926411956
1633780784617646000,1.75264599609375,-8.580079914331435,-4.726180088372528,0.46458475645724684
1633780784637525000,1.77252490234375,-8.576877903419733,-4.730982520218193,0.47471192698962983
1633780784657404000,1.79240380859375,-8.575561560124159,-4.732742223367095,0.480923568046093
1633780784677284000,1.8122841796875,-8.578083772078156,-4.7279307314321395,0.48325310697220264
1633780784697163000,1.8321630859375,-8.583045193877815,-4.718453293512761,0.487767332993634
1633780784717042000,1.8520419921875,-8.588865862855315,-4.707796290419996,0.4882824429089203
1633780784736921000,1.871921142578125,-8.592803786826133,-4.700696395286918,0.48740028977952893
1633780784756800000,1.891800048828125,-8.594276781988144,-4.698042081385851,0.4870198756271973
1633780784776679000,1.911678955078125,-8.594336987742782,-4.6982662455305455,0.48378341445662076
1633780784796559000,1.93155908203125,-8.594068107673525,-4.699122570098936,0.4802279869973659
1633780784816438000,1.95143798828125,-8.593319335132836,-4.700755139736831,0.4776517433011904
1633780784836317200,1.971317138671875,-8.59163591209054,-4.704055642586947,0.47544100844915954
1633780784856195800,1.99119580078125,-8.588994457671046,-4.708669273862243,0.4774908901836723
1633780784876075000,2.011074951171875,-8.584763103711605,-4.715626837915182,0.48485674277655777
1633780784895955200,2.030955078125,-8.579662565702199,-4.724288575537503,0.49078379473797973
1633780784915833900,2.050833740234375,-8.575704183465241,-4.731169859483837,0.49367721462454645
1633780784935713000,2.070713134765625,-8.574526371857523,-4.732721180579066,0.49923590819761154
1633780784955592000,2.090592041015625,-8.577468855050206,-4.7265769787356255,0.5068320989476517
1633780784975471000,2.11047119140625,-8.58246184103191,-4.717130520476401,0.5103132555942982
1633780784995349800,2.130349853515625,-8.586575121569632,-4.709872512172162,0.5081456292316318
1633780785015230000,2.15022998046875,-8.588477740320563,-4.706960131856799,0.5029494122954086
1633780785035109000,2.170109130859375,-8.589776547959447,-4.705434529724717,0.49498581300508226
1633780785054988000,2.189988037109375,-8.590643978443742,-4.704769343814253,0.4861747300399467
1633780785074867000,2.209866943359375,-8.589960087832807,-4.706390807536244,0.48255383612904695
1633780785094746000,2.22974609375,-8.590471544486284,-4.706047985447943,0.47675749787520616
1633780785114626000,2.2496259765625,-8.593893920150398,-4.7008702905490996,0.46603367662392553
1633780785134505000,2.2695048828125,-8.599652629807592,-4.691239415633678,0.45675742383245377
1633780785154384000,2.2893837890625,-8.60411077826023,-4.683520219558477,0.45199678530190135
1633780785174263000,2.309262939453125,-8.607663502305746,-4.6771655898347495,0.45015214381590485
1633780785194142200,2.32914208984375,-8.611130886155367,-4.670977841110528,0.4480793926624581
1633780785214022000,2.34902197265625,-8.615588450086117,-4.662973398353159,0.4457622017612681
1633780785233901000,2.368901123046875,-8.620490250653027,-4.654117599463462,0.4435363058727234
1633780785253780000,2.388780029296875,-8.624628081110119,-4.647026179897785,0.4374054019022733
1633780785273659000,2.408658935546875,-8.626628899538517,-4.644128997151554,0.42862632151059804
1633780785293538000,2.4285380859375,-8.628712135553359,-4.641045059661567,0.4200174100540578
1633780785313421600,2.448421630859375,-8.632342601010203,-4.634823408667743,0.41406993635911493
1633780785333300500,2.468300537109375,-8.635922797584533,-4.628601173152029,0.40898737239781763
1633780785353179400,2.488179443359375,-8.638646669590473,-4.6239530550852415,0.40401356604062016
1633780785373058600,2.50805859375,-8.640551041907072,-4.620913248997926,0.3980282445533201
1633780785392937500,2.5279375,-8.642208161464334,-4.618446858884394,0.3906038301736116
1633780785412816600,2.547816650390625,-8.643520997628569,-4.616384957918524,0.385904456843622
1633780785432696600,2.567696533203125,-8.642776901262998,-4.617887179175019,0.3845867253085598
1633780785452575500,2.587575439453125,-8.640929812091589,-4.621561483773589,0.3819540021847933
1633780785472454700,2.60745458984375,-8.6392288533926,-4.6250779674619436,0.3778460188766941
1633780785492333300,2.627333251953125,-8.63747645676732,-4.6284769622504705,0.3762850897029042
1633780785512212500,2.64721240234375,-8.63542478493452,-4.632439436140656,0.37460963077135384
1633780785532092700,2.6670927734375,-8.634750831195712,-4.63393376635164,0.37164303605072196
1633780785551971300,2.686971435546875,-8.63598475690484,-4.631782141275703,0.3697934991938993
1633780785571850500,2.7068505859375,-8.63721459096074,-4.6294905232071875,0.3697658805346116
1633780785591729400,2.7267294921875,-8.638715058651567,-4.626600939245522,0.37088114830013363
1633780785611608600,2.746608642578125,-8.640581437045336,-4.622852400366962,0.3741301401587203
1633780785631487500,2.766487548828125,-8.641677415588498,-4.620352692505717,0.3796562466364354
1633780785651367400,2.786367431640625,-8.64057150017321,-4.6221173640906805,0.38333544660583135
1633780785671246600,2.80624658203125,-8.638951205495,-4.624974799348414,0.38537290725018825
1633780785691125500,2.82612548828125,-8.637115806761383,-4.627950600288808,0.3907507278310135
1633780785711004400,2.84600439453125,-8.634569629409908,-4.632190137554705,0.3967487992020324
1633780785730883600,2.865883544921875,-8.632370658060907,-4.6361365370929235,0.39849816362001
1633780785750763500,2.885763427734375,-8.63124662246704,-4.638090593770146,0.4000966848578304
1633780785770642400,2.905642333984375,-8.6310619135499,-4.638257767030597,0.4021521195502952
1633780785790521300,2.925521240234375,-8.632064368590711,-4.636512969189882,0.4007500342000276
1633780785810400500,2.945400390625,-8.633394740411639,-4.634319550798833,0.39744204216320067
1633780785830279700,2.96527978515625,-8.633667127612233,-4.634083111694455,0.39426710192151365
1633780785850159400,2.985159423828125,-8.634028362140059,-4.63375577943623,0.39019075586069374
1633780785870038500,3.00503857421875,-8.63619167765379,-4.629881276090443,0.38830538050550967
1633780785889917700,3.024917724609375,-8.637896728006005,-4.626496309827268,0.39071269737556574
1633780785909796400,3.04479638671875,-8.637477041289209,-4.627380106924474,0.389518847948499
1633780785929675500,3.064675537109375,-8.636541806265711,-4.62948467798829,0.3852292244631797
1633780785949554400,3.084554443359375,-8.638107740408183,-4.6266456551700825,0.3842276827378198
1633780785969434600,3.1044345703125,-8.64117063511014,-4.6205128515034914,0.3891198021609336
1633780785989313500,3.1243134765625,-8.644277953475713,-4.6143239337354895,0.39351792752202597
1633780786009192400,3.1441923828125,-8.645957284864783,-4.611021677319705,0.3953314066847786
1633780786029071600,3.164071533203125,-8.645266964513063,-4.612198319883644,0.39669341575298456
1633780786048950500,3.183950439453125,-8.640709447339177,-4.620791376183927,0.39600269354246553
1633780786068830500,3.20383056640625,-8.632555951499938,-4.636443118824064,0.3908438129419461
1633780786088709600,3.223709716796875,-8.625047767826914,-4.650964396129548,0.3840135285304859
1633780786108588500,3.243588623046875,-8.620977157387136,-4.658986959065497,0.3781223881326616
1633780786128467500,3.263467529296875,-8.618959387823939,-4.662879290328919,0.3761424663618207
1633780786148346400,3.283346435546875,-8.61688608868122,-4.666489882041514,0.3788587030505761
1633780786168226600,3.3032265625,-8.614622235402464,-4.670445341669023,0.3815852054050192
1633780786188105500,3.32310546875,-8.613992120805381,-4.6713116031095385,0.3851900614965707
1633780786207984400,3.342984375,-8.617723124027252,-4.664144195698201,0.3885710091717541
1633780786227863600,3.362863525390625,-8.62498113233149,-4.65012210008651,0.395538437031582
1633780786247742500,3.382742431640625,-8.632826000612974,-4.634669679410756,0.4056370755892247
1633780786267621600,3.40262158203125,-8.6362477917552,-4.627263494807481,0.4171854014985263
1633780786287501600,3.42250146484375,-8.634030115705729,-4.6300145470812915,0.432281957941316
1633780786307380500,3.44238037109375,-8.628162100455164,-4.640486841256917,0.43713129766862835
1633780786327260000,3.462260009765625,-8.619185013273357,-4.656840302425623,0.44031504227127877
1633780786347138600,3.482138671875,-8.611037947174907,-4.671904016044736,0.44013464420307424
1633780786367017700,3.502017822265625,-8.6036817391932,-4.685650217324495,0.4378598676715046
1633780786386898000,3.52189794921875,-8.597524970129133,-4.697281618407368,0.4341659450570121
1633780786406776600,3.541776611328125,-8.592296421825885,-4.707359360307454,0.4284850133437663
1633780786426655700,3.56165576171875,-8.589480779883266,-4.7134123767361045,0.41827516949661075
1633780786446534700,3.58153466796875,-8.587598034876585,-4.717847436574101,0.40676217062901704
1633780786466413800,3.601413818359375,-8.586831142157315,-4.720128533248603,0.39635848471019414
1633780786486293800,3.621293701171875,-8.58839123108089,-4.718115439860522,0.38640268868934363
1633780786506172700,3.641172607421875,-8.591860953018069,-4.71238449499309,0.3791294828159734
1633780786526051800,3.6610517578125,-8.595677296435833,-4.706012914134562,0.3716984194997698
1633780786545930800,3.6809306640625,-8.597024034869671,-4.70431838517636,0.3618771365787834
1633780786565809700,3.7008095703125,-8.597444306108356,-4.704349072575569,0.35133027932960537
1633780786585689900,3.72068994140625,-8.598359082865715,-4.702961709870398,0.3475116708895191
1633780786605568800,3.74056884765625,-8.599874748125671,-4.700125609661638,0.3483580220531672
1633780786625447700,3.76044775390625,-8.600808814105392,-4.6984541693180795,0.3478603747293353
1633780786645326800,3.780326904296875,-8.60122148655951,-4.697786937581003,0.34665932837650176
1633780786665205800,3.800205810546875,-8.601198690205813,-4.6978579569906,0.34626517795976247
1633780786685085000,3.8200849609375,-8.602361304244399,-4.6960015154689545,0.34254465959928926
1633780786704964600,3.839964599609375,-8.604528711411357,-4.6924435307264325,0.33681828130912034
1633780786724843800,3.85984375,-8.607434954246878,-4.687569202688336,0.3303779825959354
1633780786744723000,3.879722900390625,-8.610873696523905,-4.681810785292089,0.3223094981590286
1633780786764601600,3.8996015625,-8.615476221883297,-4.6740106329351665,0.31237565824165936
1633780786784480800,3.919480712890625,-8.620997615653277,-4.664420674552023,0.3032586876651272
1633780786804360700,3.939360595703125,-8.626443021577597,-4.65503588335216,0.29242627320652825
1633780786824239600,3.959239501953125,-8.630529998630285,-4.648426694345474,0.2765335614173673
1633780786844118800,3.979118896484375,-8.6341394212991,-4.642822006206214,0.2573293504600413
1633780786863997700,3.998997802734375,-8.637311621594428,-4.637864383798838,0.2396878587747924
1633780786883876900,4.018876953125,-8.638076760748028,-4.637024425843358,0.22808363795978948
1633780786903756800,4.0387568359375,-8.635434721806645,-4.6422909680694335,0.22087409017346799
1633780786923635700,4.0586357421875,-8.630898831942677,-4.651002974574268,0.21480845172526314
1633780786943515000,4.078514892578125,-8.625776666623354,-4.660679442197084,0.21078204575339332
1633780786963393800,4.098393798828125,-8.62141964045763,-4.668831184470653,0.20862088566413148
1633780786983272700,4.118272705078125,-8.617710849067569,-4.675592349168658,0.21042855614060535
1633780787003153000,4.13815283203125,-8.615448164832591,-4.679633148992061,0.21324414328429847
1633780787023031800,4.15803173828125,-8.614970610448717,-4.680387182229757,0.21597515741707757
1633780787042910700,4.17791064453125,-8.616014566543697,-4.678389870932698,0.21757806256907058
1633780787062789600,4.19778955078125,-8.616686182194949,-4.6772108902812,0.21635327001446858
1633780787082668800,4.217668701171875,-8.617568810248374,-4.675777350346744,0.21213198079131543
1633780787102547700,4.237547607421875,-8.619131821781396,-4.673109592442215,0.2073756896423176
1633780787122427600,4.257427734375,-8.622534323701261,-4.6669399638965725,0.20484262750074267
1633780787142306800,4.277306884765625,-8.626965584146976,-4.658898696260154,0.201283455448132
1633780787162185700,4.297185791015625,-8.631199860715865,-4.651303418825567,0.19532900402313097
1633780787182065000,4.31706494140625,-8.633865280532836,-4.646536642815172,0.19092379133412613
1633780787201943600,4.336943603515625,-8.636584476363659,-4.641559146663546,0.18899172729300334
1633780787221823700,4.35682373046875,-8.640027310293913,-4.635208608593047,0.1875071695573628
1633780787241703000,4.376702880859375,-8.64413240752518,-4.627541142705082,0.18766561152208594
1633780787261581600,4.39658154296875,-8.651264159101247,-4.614196507963538,0.1876244209951721
1633780787281460700,4.416460693359375,-8.660924552372098,-4.596152317228913,0.18479668675595892
1633780787301339600,4.436339599609375,-8.670809402048587,-4.5776060221910475,0.18158115877555683
1633780787321215700,4.4562158203125,-8.678758899748324,-4.562540555006265,0.18098602416031062
1633780787341095000,4.476094970703125,-8.68428906134665,-4.551927975577116,0.1829325368518941
1633780787360973800,4.495973876953125,-8.685916954809427,-4.548612275157868,0.18802074510268865
1633780787380853000,4.51585302734375,-8.68494197229743,-4.550198667566478,0.1945785509820096
1633780787400732000,4.53573193359375,-8.684450973910092,-4.550904770009219,0.1999069429305382
1633780787420611800,4.55561181640625,-8.68596722369194,-4.5477664719834925,0.2053828353246674
1633780787440491000,4.575490966796875,-8.688471315467357,-4.542910556384921,0.20691041021812706
1633780787460370000,4.595369873046875,-8.690315482029318,-4.53952705142647,0.203718464042712
1633780787480248800,4.615248779296875,-8.690714710479973,-4.539041021475196,0.19741742766974493
1633780787500127700,4.635127685546875,-8.69126357653439,-4.538182066558301,0.1929373596462421
1633780787520008000,4.655008056640625,-8.692726050302387,-4.535412894105911,0.19217390099307521
1633780787539886800,4.674886962890625,-8.695037249854206,-4.53097695748508,0.19225772508531808
1633780787559765800,4.694765869140625,-8.696658713576197,-4.527775531095266,0.19431147927734999
1633780787579645000,4.71464501953125,-8.697295257914066,-4.526396059435606,0.19792985243760047
1633780787599524000,4.734524169921875,-8.697954598605632,-4.525058673352003,0.19953947959132493
1633780787619403800,4.75440380859375,-8.697346111318469,-4.5262379462644455,0.19929862004015594
1633780787639283000,4.774282958984375,-8.695912279123068,-4.529134544488787,0.1960602409071289
1633780787659161900,4.794161865234375,-8.694505919456482,-4.532055400371552,0.19085534747410565
1633780787679041000,4.814041015625,-8.693903277388214,-4.5333895715847605,0.18657049149544908
1633780787698920000,4.833919921875,-8.693218217733502,-4.534847953699529,0.18302827057763932
1633780787718798800,4.853798828125,-8.692239143568276,-4.536928559365868,0.17789324577674268
1633780787738679000,4.873678955078125,-8.690755042490363,-4.540018926596641,0.17143654391802846
1633780787758557700,4.8935576171875,-8.689519363215565,-4.542549614118039,0.16699079828923566
1633780787778436900,4.913436767578125,-8.689616978371143,-4.542434171044826,0.16502764499010517
1633780787798316000,4.93331591796875,-8.690285086891054,-4.541291723011434,0.16122942175092175
1633780787818195000,4.95319482421875,-8.691451208060979,-4.539297918845713,0.1543813276881352
1633780787838075000,4.973074951171875,-8.694699980723858,-4.533206323972344,0.150390486219991
1633780787857954000,4.9929541015625,-8.699128318560122,-4.524762905275821,0.14857298846924677
1633780787877833000,5.0128330078125,-8.702496333688497,-4.518429610601067,0.14398552368166856
1633780787897711900,5.0327119140625,-8.703812676984072,-4.516059666599333,0.13869448633515274
1633780787917590800,5.0525908203125,-8.703248028838633,-4.5172634894311425,0.13483873335560784
1633780787937471000,5.072470947265625,-8.70079245238006,-4.5222108827054495,0.12728746859268283
1633780787957350000,5.092349853515625,-8.697074893161654,-4.529608299480379,0.11798459265576675
1633780787977228800,5.112228759765625,-8.693635566362738,-4.536373263570666,0.11134973948486149
1633780787997108000,5.13210791015625,-8.691109847277403,-4.541322994932532,0.10664285870185121
1633780788016987000,5.15198681640625,-8.689444544413686,-4.544608884735405,0.10230043645021505
1633780788036866800,5.17186669921875,-8.689222426095604,-4.5450835165098304,0.10005294978437013
1633780788056746000,5.19174609375,-8.690432386407256,-4.542751566430926,0.10087720784721896
1633780788076625000,5.211625,-8.69180484380424,-4.540109527489543,0.10159614237206988
1633780788096504000,5.231504150390625,-8.692696824207902,-4.538363560605049,0.10325991086582653
1633780788116382700,5.2513828125,-8.693768252831697,-4.536298737029731,0.10379806372998282
1633780788136263000,5.271262939453125,-8.695179288673401,-4.533630394603311,0.10217080958802252
1633780788156142000,5.29114208984375,-8.697450156214833,-4.529360754460096,0.09814855920146219
1633780788176020700,5.311020751953125,-8.699853125703335,-4.524817558072507,0.09471904141050763
1633780788195900000,5.33089990234375,-8.701349501740932,-4.521965383511781,0.09343639032198116
1633780788215778800,5.35077880859375,-8.701496216735244,-4.521716961708664,0.09179395687719806
1633780788235659000,5.370658935546875,-8.70142724315226,-4.521918621760607,0.08832048121350816
1633780788255538000,5.390537841796875,-8.702650647467374,-4.519708252234756,0.08060487446803599
1633780788275416800,5.410416748046875,-8.70476544766426,-4.515754253911972,0.07350890202482696
1633780788295296000,5.4302958984375,-8.705794790711998,-4.513822993588447,0.07015581503752619
1633780788315175000,5.4501748046875,-8.704739144179225,-4.515858883330226,0.07010890715587884
1633780788335054600,5.4700546875,-8.703598741972446,-4.518037980934977,0.07130794421471655
1633780788354933800,5.489933837890625,-8.702458924287557,-4.520208310711384,0.07288901656081434
1633780788374813000,5.50981298828125,-8.701624811550975,-4.521773075810074,0.0753883042969508
1633780788394691600,5.529691650390625,-8.701516090479492,-4.521896117667853,0.08033401250424795
1633780788414570800,5.54957080078125,-8.701814196643232,-4.521231808540224,0.08532668795869686
1633780788434450700,5.56945068359375,-8.701869141700863,-4.521099706593156,0.08670316394367254
1633780788454329900,5.589329833984375,-8.702922450146078,-4.519010917620361,0.08982520495434292
1633780788474208800,5.609208740234375,-8.70539906939268,-4.5140424815580245,0.09917263241903856
1633780788494087700,5.629087646484375,-8.705256446051598,-4.514002734069526,0.11258321766941808
1633780788513966800,5.648966796875,-8.701102833503484,-4.521629575686156,0.12674455735501833
1633780788533845800,5.668845703125,-8.697349618449806,-4.528469943100213,0.13946622875947504
1633780788553725700,5.6887255859375,-8.69687498667538,-4.529031376375258,0.15042040643421933
1633780788573604900,5.70860498046875,-8.698392405501007,-4.525829949985444,0.15881063363878056
1633780788593483800,5.72848388671875,-8.699754341503978,-4.52287168470174,0.16820857658116145
1633780788613362700,5.74836279296875,-8.699773046204447,-4.522630569422245,0.17363463848419486
1633780788633241600,5.76824169921875,-8.69799434609413,-4.52594013236165,0.17649443009579552
1633780788653121800,5.788121826171875,-8.695335940539836,-4.5309337028652426,0.17932970832064746
1633780788673000700,5.808000732421875,-8.692969211408496,-4.53549852656275,0.17866737195439636
1633780788692879600,5.827879638671875,-8.69206612508893,-4.537340647298097,0.17581141626769675
1633780788712758800,5.8477587890625,-8.692506270071863,-4.5365845682337875,0.17353983634021133
1633780788732637700,5.8676376953125,-8.69389217147231,-4.534017055833339,0.1712177318018861
1633780788752517600,5.887517578125,-8.695263459825515,-4.531467955872416,0.16905967698516322
1633780788772396800,5.907396728515625,-8.69551538875997,-4.531058206027746,0.1670592238829471
1633780788792275700,5.927275634765625,-8.695354060718417,-4.53147906178832,0.1640293546677567
1633780788812155000,5.94715478515625,-8.695358736893533,-4.53150682657808,0.16300119893010706
1633780788832033500,5.967033447265625,-8.69534996906519,-4.531553588329255,0.1621400885887444
1633780788851913700,5.986913818359375,-8.695026143938302,-4.53229125495404,0.15885730405841023
1633780788871793000,6.00679296875,-8.69409616961181,-4.53423069858402,0.15436519853724165
1633780788891671600,6.026671630859375,-8.6932977127105,-4.535866775353252,0.1512223978663329
1633780788911550700,6.04655078125,-8.691770941534639,-4.5388308858558535,0.15005148179028183
1633780788931430000,6.066429931640625,-8.689423501625656,-4.543463806353509,0.1457160464018583
1633780788951309600,6.0863095703125,-8.686939868116378,-4.548411199627816,0.139339716302976
1633780788971188700,6.106188720703125,-8.683698694238066,-4.554728712211549,0.13491900465073994
1633780788991067600,6.126067626953125,-8.67914293062985,-4.56365173111856,0.12629211001293733
1633780789010946800,6.14594677734375,-8.674469093599916,-4.572767934510112,0.11733770958697423
1633780789030825700,6.16582568359375,-8.67097248365581,-4.579447266143561,0.11528135244590229
1633780789050705700,6.18570556640625,-8.667637201753259,-4.58576097933501,0.11509237834559753
1633780789070584800,6.205584716796875,-8.663587634101509,-4.593507063417136,0.11101795024722814
1633780789090463700,6.225463623046875,-8.660632291427254,-4.59916991148442,0.10709717834061011
1633780789110342700,6.2453427734375,-8.661186418178676,-4.59808737694472,0.10874326504720375
1633780789130221800,6.265221923828125,-8.663749546664953,-4.593146121150255,0.11330787868215701
1633780789150101800,6.285101806640625,-8.665233063220978,-4.590196623694896,0.11924103159080258
1633780789169980700,6.304980712890625,-8.664663154378532,-4.591138580720126,0.12426692432826385
1633780789189859600,6.324859619140625,-8.662387026140093,-4.5953053450107575,0.12888218130506573
1633780789209738800,6.34473876953125,-8.65776930321157,-4.603815399202704,0.13528222107309848
1633780789229618000,6.364617919921875,-8.652703836515546,-4.613116311511397,0.14232197438362054
1633780789249497600,6.38449755859375,-8.649211318224667,-4.619478540019691,0.14813786672130227
1633780789269376800,6.404376708984375,-8.647313375648856,-4.62283720279783,0.1540427251172252
1633780789289256000,6.424255859375,-8.646195769795774,-4.624744497723877,0.1594552699515596
1633780789309134800,6.444134765625,-8.645671453660727,-4.625631217430532,0.16214534928575158
1633780789329013500,6.464013427734375,-8.645372178453206,-4.625922309331596,0.16961742046577855
1633780789348893700,6.483893798828125,-8.645803555607795,-4.624846204532683,0.17681242827009408
1633780789368772900,6.50377294921875,-8.647316882780194,-4.621901967774331,0.17977518706582485
1633780789388651500,6.523651611328125,-8.652156139504909,-4.612814405955374,0.18034973555076866
1633780789408530700,6.54353076171875,-8.65868115735948,-4.600577440194785,0.17975916751278564
1633780789428409600,6.56340966796875,-8.664545665478705,-4.589564171010256,0.17870136555554345
1633780789448288800,6.583288818359375,-8.667694484898448,-4.583653485661745,0.17772033689524977
1633780789468168700,6.603168701171875,-8.66974148055613,-4.579788042405247,0.1775123019014485
1633780789488047600,6.623047607421875,-8.670614171737432,-4.577975732286274,0.18157122190343214
1633780789507926800,6.6429267578125,-8.671263575556873,-4.576441070064902,0.18911149948146194
1633780789527805400,6.662805419921875,-8.672228621196746,-4.574155297215283,0.19983605138510466
1633780789547685600,6.682685546875,-8.673079100546241,-4.571825977484882,0.21561198666049167
1633780789567564800,6.702564697265625,-8.672354877924919,-4.572289211082459,0.23412310078712179
1633780789587443700,6.722443603515625,-8.671731193068624,-4.572628818300366,0.25003983277268704
1633780789607322600,6.742322509765625,-8.672810220476984,-4.569843279235065,0.2632041607775725
1633780789627201500,6.762201416015625,-8.675401406013965,-4.564171955600381,0.27591879051988943
1633780789647080700,6.782080810546875,-8.678920812311768,-4.5566187637418505,0.2897315542298369
1633780789666960600,6.801960693359375,-8.682335589191316,-4.5492748307198285,0.30255017406959084
1633780789686839600,6.821839599609375,-8.682676365453004,-4.547901204279065,0.3132296447224915
1633780789706718700,6.84171875,-8.680253522220253,-4.552169090856611,0.3183427134199068
1633780789726597600,6.86159765625,-8.678407017570734,-4.555376654726267,0.32277335281111297
1633780789746476500,6.8814765625,-8.679041808342934,-4.553596493311226,0.3307146672043949
1633780789766356700,6.901356689453125,-8.68014713923633,-4.551045932045579,0.3367618384141475
1633780789786235600,6.921235595703125,-8.680061799040436,-4.551170727469027,0.337272162556462
1633780789806114600,6.941114501953125,-8.678411109223962,-4.554135714754462,0.3397327439837158
1633780789825993700,6.96099365234375,-8.676207461699843,-4.557858242408931,0.34603125960603354
1633780789845872600,6.98087255859375,-8.673726166278124,-4.562166460996866,0.3514227433860302
1633780789865752600,7.000752685546875,-8.67061709434688,-4.567731986169517,0.3558104934835806
1633780789885631500,7.020631591796875,-8.667439633354544,-4.573242274023592,0.36238731459062545
1633780789905510700,7.0405107421875,-8.664865983474254,-4.577548154523968,0.3694999596074223
1633780789925389800,7.060389892578125,-8.664078632488847,-4.578644425328076,0.37435167395491153
1633780789945268700,7.080268798828125,-8.665036079344153,-4.576523487651348,0.37811208593435586
1633780789965148700,7.100148681640625,-8.66771143603325,-4.570945102997124,0.3842157365716994
1633780789985027600,7.120027587890625,-8.67143600951433,-4.563426105669141,0.3895193228725344
1633780790004906800,7.13990673828125,-8.673737272194028,-4.558704337844253,0.3935559214448556
1633780790024785700,7.15978564453125,-8.674525792223214,-4.5571083008244635,0.3946589142506942
1633780790044664600,7.17966455078125,-8.674712254706025,-4.556775123347342,0.3944050490874797
1633780790064544800,7.199544677734375,-8.67496359911859,-4.556200246068835,0.39551728464569896
1633780790084423700,7.219423583984375,-8.67516935082376,-4.555666869844496,0.3971329762140289
1633780790104302600,7.239302490234375,-8.6753938072294,-4.5552433837354185,0.39708548381049186
1633780790124181800,7.259181640625,-8.675237739884853,-4.555579191561043,0.3966537778623402
1633780790144060700,7.279060791015625,-8.674283800160884,-4.557312883485854,0.39760391819402574
1633780790163940600,7.298940673828125,-8.673408770892024,-4.558990461309254,0.3974546093838289
1633780790183819800,7.31881982421875,-8.673051628017426,-4.5596647073090075,0.3975181761393323
1633780790203698700,7.33869873046875,-8.673203019186854,-4.559248235462606,0.3989834263863042
1633780790223577900,7.358577880859375,-8.673448518380523,-4.558754606726765,0.39928989851959046
1633780790243456500,7.37845654296875,-8.673218801277875,-4.559112918645143,0.4001804541511461
1633780790263336700,7.398336669921875,-8.673518076485395,-4.558596493555605,0.39958215946443376
1633780790283216000,7.4182158203125,-8.676003463560342,-4.553895768518745,0.3992197558928281
1633780790303094500,7.438094482421875,-8.681441270700097,-4.543225613683462,0.4025723542563617
1633780790322973700,7.4579736328125,-8.687313377603887,-4.531792073260247,0.4047636902881786
1633780790342852900,7.477852783203125,-8.69062878576219,-4.525567499656975,0.40322610545735804
1633780790362732800,7.49773291015625,-8.690558058613538,-4.525937209752202,0.4005990448893979
1633780790382611700,7.51761181640625,-8.689688290041685,-4.527660380282998,0.39999654895160347
1633780790402491000,7.537490966796875,-8.689972367680072,-4.527324572457373,0.397618567773886
1633780790422369800,7.557369873046875,-8.691271759840845,-4.525518692079186,0.38969201255831865
1633780790442248700,7.577248779296875,-8.692036314472556,-4.52484123120904,0.3804033752093091
1633780790462129000,7.59712890625,-8.690889482524991,-4.527480347540974,0.3751573643146083
1633780790482007800,7.6170078125,-8.688003697955608,-4.533730055585504,0.36643052556682376
1633780790501886700,7.63688671875,-8.684114873823523,-4.541709363901615,0.35974019761532544
1633780790521765600,7.656765625,-8.678838979247212,-4.551865723995864,0.35868842354007063
1633780790541644800,7.676644775390625,-8.674877674400806,-4.5596895494893195,0.3551309502542019
1633780790561525000,7.69652490234375,-8.673784618467092,-4.561946680766344,0.35282417114917186
1633780790581403600,7.716403564453125,-8.676274681717157,-4.557372504718601,0.35070630221236493
1633780790601282800,7.73628271484375,-8.680458689403533,-4.5494940264284605,0.349470805600658
1633780790621161700,7.75616162109375,-8.684842019054294,-4.541128349143267,0.3493673086935654
1633780790641041000,7.776041015625,-8.688152166515588,-4.534928325459361,0.3476051578592509
1633780790660919800,7.795919921875,-8.691198694604635,-4.52951243789047,0.34201037005949764
1633780790680799700,7.8157998046875,-8.695116160309315,-4.522516879914701,0.334935938161239
1633780790700679000,7.835678955078125,-8.698289529648422,-4.516675752671063,0.33133981336541474
1633780790720557600,7.8555576171875,-8.699496567350625,-4.514549554297328,0.3286094385534525
1633780790740436700,7.875436767578125,-8.698024741232395,-4.517754195557535,0.3234851178096607
1633780790760316000,7.89531591796875,-8.69400439967513,-4.525732919351756,0.32002204480897634
1633780790780195800,7.91519580078125,-8.689578984448314,-4.534582580761612,0.31490630923043933
1633780790800074800,7.93507470703125,-8.687182444700598,-4.5393905655652285,0.3117284463793039
1633780790819953700,7.95495361328125,-8.687009426221252,-4.539809667760133,0.31044538429882373
1633780790839832800,7.974832763671875,-8.687028130921721,-4.539967196409404,0.3076210841257125
1633780790859712000,7.9947119140625,-8.686028013968468,-4.542028220592439,0.3054099291485734
1633780790879591700,8.014591796875,-8.683874050804972,-4.546226549065112,0.3042043344847858
1633780790899470800,8.034470947265625,-8.683090791472791,-4.5481186464220285,0.2982128207187168
1633780790919349800,8.054349853515625,-8.6843258862257,-4.546426163290441,0.2878900362826884
1633780790939228700,8.074228759765624,-8.686559344366191,-4.542749228343367,0.27839067879244683
1633780790959107800,8.09410791015625,-8.688603417414427,-4.539292073626816,0.2708816731355153
1633780790978987800,8.11398779296875,-8.68939778266251,-4.538021030777693,0.2666712158336304
1633780790998866700,8.13386669921875,-8.687641294384003,-4.541676338414848,0.26163205262264233
1633780791018745900,8.153745849609376,-8.68367180623114,-4.549629927767813,0.25514323859261345
1633780791038624800,8.173624755859375,-8.680679638677836,-4.5556452425345775,0.24956041522528974
1633780791058504000,8.19350390625,-8.682046835377811,-4.55317914468199,0.2470002458810806
1633780791078383600,8.213383544921875,-8.68486773801744,-4.547867886531352,0.24566231180820614
1633780791098262800,8.2332626953125,-8.686214476451278,-4.545489466962218,0.24205422257995232
1633780791118142000,8.253141845703125,-8.686953312119842,-4.5442537876874205,0.23870489388573912
1633780791138020900,8.273020751953124,-8.687582842195033,-4.542939197957516,0.2408198036804795
1633780791157899800,8.292899658203124,-8.686865049314498,-4.544145066615939,0.2439251492846757
1633780791177779700,8.31277978515625,-8.685002178052068,-4.547823462867736,0.2417131540573202
1633780791197659000,8.332658935546876,-8.682975640660525,-4.551774538581073,0.24014079017406328
1633780791217537800,8.352537841796876,-8.681393339905142,-4.554744786563515,0.24102650523371993
1633780791237416700,8.372416748046875,-8.6808573333323,-4.55580715509802,0.24024651557086035
1633780791257296000,8.3922958984375,-8.681674494934082,-4.554380337165296,0.23776620652982963
1633780791277174800,8.4121748046875,-8.683665376490355,-4.550795464415848,0.23367373131811617
1633780791297054700,8.4320546875,-8.686092895898222,-4.546336731441318,0.2302215085050091
1633780791316934000,8.451933837890625,-8.688051628750562,-4.542717664161324,0.22773429479915647
1633780791336817000,8.47181689453125,-8.689251652190089,-4.540580944393575,0.2245379099106416
1633780791356695600,8.491695556640625,-8.690415435272454,-4.538561421264708,0.22027108277902005
1633780791376574700,8.51157470703125,-8.691558760088682,-4.536588367626071,0.2157759998494759
1633780791396455000,8.531454833984375,-8.692469445192813,-4.53500431330502,0.21236120470361783
1633780791416333600,8.55133349609375,-8.69245717023313,-4.535157165779173,0.209575172447972
1633780791436212700,8.571212646484375,-8.691261822968722,-4.5376077738016845,0.20606712779439984
1633780791456091600,8.591091552734374,-8.689540990525483,-4.541081002870202,0.20210498269777744
1633780791475970800,8.610970703125,-8.688699279004334,-4.5428880522921675,0.19762807474574073
1633780791495850800,8.630850830078124,-8.688079685801267,-4.544233037160336,0.19390372046036644
1633780791515729700,8.650729736328126,-8.686850436267257,-4.546699427273869,0.1911401374985464
1633780791535608800,8.67060888671875,-8.68544290755689,-4.549498994864523,0.18849367811037226
1633780791555487700,8.69048779296875,-8.684031871715188,-4.552257353661954,0.18689961385196074
1633780791575366700,8.71036669921875,-8.682916019427775,-4.554505424849689,0.18394286467190832
1633780791595246800,8.730246826171875,-8.681710735291242,-4.5569785369649525,0.179530564654991
1633780791615125800,8.750125732421875,-8.68033418624103,-4.559780442643166,0.17489853920647874
1633780791635004700,8.770004638671875,-8.679149944892526,-4.562263491630554,0.1688093372195959
1633780791654883800,8.7898837890625,-8.680344123113155,-4.560129986733198,0.16501818304201588
1633780791674762800,8.8097626953125,-8.683271408736704,-4.554525298593938,0.16578388845119624
1633780791694642000,8.829641845703126,-8.684349851623177,-4.552498761202394,0.16494082522317766
1633780791714521600,8.849521484375,-8.682406900861858,-4.556456851178408,0.15778328161872923
1633780791734400800,8.86940087890625,-8.67968185981214,-4.561844097174704,0.1519512418638449
1633780791754280000,8.889280029296875,-8.67735195555985,-4.5663031224101776,0.15107737250560893
1633780791774158600,8.90915869140625,-8.674746156975626,-4.571255484120548,0.1509644867156632
1633780791794037800,8.929037841796875,-8.671955064952373,-4.576610289151966,0.14905292660645209
1633780791813917700,8.948917724609375,-8.66949715040624,-4.58133176471591,0.14700183929554186
1633780791833796900,8.968796875,-8.66763369462192,-4.5849856110483405,0.14287239307430571
1633780791853675800,8.98867578125,-8.665504281377792,-4.589168741951883,0.13766153569137676
1633780791873554700,9.0085546875,-8.663734933617711,-4.592617713361978,0.13395667155776173
1633780791893433900,9.028433837890624,-8.662712604832649,-4.594555987948179,0.13360040546599775
1633780791913313500,9.0483134765625,-8.66351164625585,-4.593075978523492,0.13266587369539773
1633780791933192700,9.068192626953126,-8.665533507472276,-4.589332992602884,0.130151415789593
1633780791953071900,9.08807177734375,-8.66862153661549,-4.583655823749304,0.12444711233391426
1633780791972950800,9.10795068359375,-8.670917538598179,-4.579422716224193,0.12027183594326488
1633780791992829700,9.12782958984375,-8.671839914140104,-4.57760982158333,0.12272578670033253
1633780792012710000,9.1477099609375,-8.671316767048836,-4.578544179823995,0.12483935392135753
1633780792032588800,9.1675888671875,-8.670387377244234,-4.580321126368641,0.12422139555294998
1633780792052467700,9.1874677734375,-8.67050603518784,-4.580034710642695,0.12645722831361927
1633780792072346600,9.2073466796875,-8.671016907319427,-4.578908336961269,0.13208086774852126
1633780792092225800,9.227225830078124,-8.670080503252148,-4.580561657126248,0.13619765541758388
1633780792112104700,9.247104736328126,-8.667498670065402,-4.585474271348119,0.1351935472758021
1633780792131984600,9.266984619140626,-8.665651580893993,-4.589143315249681,0.1289739695080556
1633780792151863800,9.28686376953125,-8.666481601977347,-4.587782548290491,0.12138265586253255
1633780792171742700,9.30674267578125,-8.668729088643193,-4.583674528449773,0.11595063000959344
1633780792191622000,9.326621826171875,-8.670966053915024,-4.5796275911465285,0.10834783598883077
1633780792211500500,9.34650048828125,-8.671704889583587,-4.578372914910316,0.10205522038433701
1633780792231380700,9.366380615234375,-8.670575593292712,-4.58052132511586,0.10163294898481108
1633780792251260000,9.386260009765625,-8.669012581759691,-4.58343896612823,0.10341217881808988
1633780792271138600,9.406138671875,-8.668616860440373,-4.584189199973642,0.10332649156232364
1633780792291017700,9.426017822265624,-8.66780086788237,-4.585682945662737,0.10548160550328903
1633780792310896600,9.445896728515624,-8.667538417553901,-4.5860380427107215,0.11141022836728952
1633780792330773000,9.46577294921875,-8.668478328752517,-4.584174879187345,0.11491539607718586
1633780792350652000,9.48565185546875,-8.669507671800256,-4.582241573037207,0.11438499726122245
1633780792370530800,9.50553076171875,-8.669365048459172,-4.582492625188827,0.11511791464565321
1633780792390410000,9.525409912109374,-8.669659647491574,-4.581821594059467,0.11958588123940862
1633780792410289000,9.545288818359374,-8.671170636576413,-4.578862451992928,0.1232869825133588
1633780792430168800,9.5651689453125,-8.673472483778,-4.574509809741378,0.12295481881638988
1633780792450048000,9.585048095703126,-8.675314896774292,-4.571111983996629,0.11928502599615604
1633780792469927000,9.604927001953126,-8.675829860559105,-4.570233155335486,0.11543429625160061
1633780792489805800,9.624805908203125,-8.675090440368653,-4.571675170837342,0.11391611024099402
1633780792509684700,9.644684814453125,-8.673312909302116,-4.575094623892009,0.11198410099879838
1633780792529564000,9.66456396484375,-8.67112212125957,-4.579312826108932,0.10915792852900921
1633780792549443800,9.68444384765625,-8.669251066690682,-4.582875779287517,0.10822609103899448
1633780792569322800,9.70432275390625,-8.668501125106214,-4.584320717398822,0.1071112799311988
1633780792589202000,9.724201904296875,-8.668627381834387,-4.584101229429245,0.1062888667655643
1633780792609081000,9.7440810546875,-8.668848915630578,-4.583743502032757,0.1036121218369808
1633780792628960000,9.7639599609375,-8.669040054288507,-4.583491865359246,0.09867006232491694
1633780792648840000,9.78383984375,-8.669806947007775,-4.582090474128723,0.09633680620491504
1633780792668718800,9.80371875,-8.67018805527985,-4.581329426628351,0.09819122929940931
1633780792688598000,9.823597900390626,-8.669971782180667,-4.581752035954595,0.09759111711494624
1633780792708477000,9.843476806640625,-8.669318286707997,-4.583083284558356,0.09300673020044341
1633780792728355800,9.86335595703125,-8.668403509950638,-4.584852632318436,0.09104785121763125
1633780792748236000,9.883236083984375,-8.66716607711017,-4.587162955087423,0.09253069192022084
1633780792768114700,9.90311474609375,-8.665634045237303,-4.590026527824998,0.09395110751162282
1633780792787993900,9.922993896484375,-8.663555485397577,-4.593900446648895,0.09627431716164574
1633780792807873000,9.942873046875,-8.660445244422554,-4.599726960845292,0.09787131316266022
1633780792827752000,9.962751953125,-8.65831115500331,-4.603786757630109,0.09579785875631495
1633780792847631000,9.982631103515626,-8.658284266996382,-4.603846378862857,0.09537333146762102
1633780792867510800,10.0025107421875,-8.658545548281072,-4.6032522123619914,0.10019982917546294
1633780792887390000,10.022389892578126,-8.657090673297644,-4.605900388783216,0.10415330690843984
1633780792907269000,10.04226904296875,-8.65549317497313,-4.608928796693682,0.1029390814136248
1633780792927147800,10.062147705078125,-8.654852538982034,-4.6101209290876985,0.10345578049779869
1633780792947027000,10.08202685546875,-8.654763107132911,-4.610208607371151,0.10693234316771849
1633780792966907100,10.1019072265625,-8.655615340048074,-4.608523723024129,0.11052106097522191
1633780792986785800,10.121785888671875,-8.657903158724308,-4.604134548154473,0.11421162258884869
1633780793006665000,10.1416650390625,-8.659698225447535,-4.600589130632579,0.12079017899525352
1633780793026543900,10.1615439453125,-8.658462546172737,-4.602818204858899,0.12439270613240078
1633780793046423000,10.181423095703124,-8.656346576932073,-4.606749991349876,0.12609134501013905
1633780793066303000,10.201302978515624,-8.655582606822252,-4.6080160657629365,0.13214415137623436
1633780793086182000,10.221181884765626,-8.657460091131925,-4.604387061610818,0.13560168968527578
1633780793106061000,10.24106103515625,-8.66203923561573,-4.595789621396363,0.13483204788649453
1633780793125940000,10.26093994140625,-8.666341316723823,-4.587546109186112,0.13903059555487707
1633780793145819000,10.28081884765625,-8.667129836753011,-4.585820308306813,0.1466043004784733
1633780793165699000,10.300698974609375,-8.664363879171013,-4.591006478773057,0.14779745578579603
1633780793185578000,10.320577880859375,-8.660966053426264,-4.5975516626328226,0.14343354322155938
1633780793205457000,10.340456787109375,-8.660057706409692,-4.599519455574453,0.13493422961933538
1633780793225335800,10.360335693359374,-8.662773979631066,-4.594699780333042,0.12434873912651091
1633780793245215000,10.380215087890624,-8.66754017111957,-4.585942181120813,0.11517711575329304
1633780793265094000,10.400093994140626,-8.671901873460412,-4.577919618184864,0.10561621906785294
1633780793284973800,10.419973876953126,-8.675212020921707,-4.571846435751021,0.09645055964454076
1633780793304853000,10.43985302734375,-8.676775032454728,-4.5689524678751825,0.09288035474126227
1633780793324733000,10.45973291015625,-8.675613587459921,-4.571134195828438,0.09403370776115916
1633780793344612000,10.479612060546875,-8.672803790736198,-4.576460359287262,0.09420953011894598
1633780793364491000,10.499490966796875,-8.669623991656303,-4.582462230050564,0.09510432353420183
1633780793384371000,10.519370849609375,-8.667620250618457,-4.586234734326601,0.09589299882701598
1633780793404250000,10.53925,-8.667071969085931,-4.58727138389796,0.09588582016755826
1633780793424129000,10.55912890625,-8.666419058135151,-4.588516415522992,0.0953039012269117
1633780793444008200,10.57900830078125,-8.665250598877668,-4.590773546800017,0.09280224800375289
1633780793463887000,10.59888720703125,-8.664616392627359,-4.592086967486143,0.08682516462183557
1633780793483767000,10.61876708984375,-8.665849149292708,-4.589887411615252,0.07988135509961285
1633780793503646200,10.638646240234374,-8.668326353061198,-4.585288393387198,0.07506738807978108
1633780793523525000,10.658525146484376,-8.669991071403025,-4.582213515986502,0.07042174966444727
1633780793543404000,10.678404052734376,-8.6700606295079,-4.582182536326348,0.06348600471767131
1633780793563283000,10.698282958984375,-8.669004982975125,-4.584256712251902,0.057706631298363203
1633780793583162000,10.718162109375,-8.66761557444334,-4.586902842846513,0.056047908872482365
1633780793603042000,10.7380419921875,-8.665614171493052,-4.590663364423811,0.05763984967246651
1633780793622921000,10.7579208984375,-8.661933437153696,-4.5975645221143955,0.06080724592851475
1633780793642800000,10.777800048828125,-8.657268367952108,-4.606316860629618,0.06273959309742785
1633780793662679000,10.797678955078124,-8.654501825848222,-4.611499816225469,0.06364024543131236
1633780793682559000,10.81755908203125,-8.653128199407458,-4.6140623601898545,0.0646823657622328
1633780793702438100,10.837438232421874,-8.651423149055242,-4.617269631798565,0.06385486999610439
1633780793722317000,10.857317138671876,-8.649671336951851,-4.620574810823798,0.06214012023378163
1633780793742196000,10.877196044921876,-8.64922593127191,-4.62139197242558,0.06331904608635232
1633780793762075000,10.897074951171875,-8.647765211069583,-4.624092171294987,0.065717905655317
1633780793781954000,10.9169541015625,-8.643517490497231,-4.631983801327645,0.06867650429916101
1633780793801834000,10.936833984375,-8.637150293552875,-4.643820369593799,0.0703739878328517
1633780793821713000,10.956712890625,-8.631160113227367,-4.654876893398165,0.07468622044220101
1633780793841592000,10.976592041015625,-8.627851134809852,-4.660874672508239,0.08254355091303586
1633780793861471000,10.996470947265625,-8.626499720200895,-4.663154307878017,0.09423448189711198
1633780793881350100,11.01635009765625,-8.625710615649819,-4.6643511164471505,0.10641684052678756
1633780793901230000,11.03622998046875,-8.625327169290184,-4.664765542466938,0.11864983336515723
1633780793921109000,11.05610888671875,-8.626330208852886,-4.662501981449127,0.13374343979903497
1633780793940988200,11.07598828125,-8.627595698744058,-4.659693353769183,0.1491312982054427
1633780793960866800,11.09586669921875,-8.627849965766071,-4.658824169719219,0.16110451672961934
1633780793980746000,11.11574609375,-8.627675778242946,-4.6588025424093,0.17075988676548004
1633780794000626200,11.135626220703125,-8.627364228075741,-4.659037520208955,0.1798306618464179
1633780794020504800,11.1555048828125,-8.626083540615438,-4.660982516796887,0.19054045457234606
1633780794040384000,11.175384033203125,-8.624284966760873,-4.6640895429015155,0.1958801716324873
1633780794060263000,11.195262939453125,-8.62352508830428,-4.665483627608419,0.1961231500755064
1633780794080142000,11.21514208984375,-8.623108908718823,-4.66614209151715,0.1987325836552307
1633780794100021200,11.235021240234374,-8.621481599777937,-4.668889636659622,0.20471479986999183
1633780794119901000,11.25490087890625,-8.620317232173681,-4.670898638394474,0.20788729242626577
1633780794139780000,11.274780029296876,-8.620431213942169,-4.6706341422393916,0.20910417566904796
1633780794159659300,11.2946591796875,-8.620162918394804,-4.670932540664077,0.213455046088621
1633780794179538000,11.314537841796875,-8.619819219523668,-4.671454226450622,0.21590335255619136
1633780794199417000,11.3344169921875,-8.620514216050505,-4.670219131697714,0.21488080457542091
1633780794219297000,11.354297119140625,-8.621423732110857,-4.66848164038062,0.2161492536086589
1633780794239176000,11.374176025390625,-8.621134978297352,-4.668970592941344,0.21709177688946946
1633780794259055000,11.39405517578125,-8.621503811609745,-4.668365320524573,0.21546291531231254
1633780794278934000,11.41393408203125,-8.623309399726987,-4.665008995833992,0.2158803918057121
1633780794298813200,11.433813232421874,-8.625087515315412,-4.661606201653182,0.21835107450187205
1633780794318692900,11.45369287109375,-8.625310218155384,-4.661182131022215,0.21860444647474214
1633780794338575400,11.473575439453125,-8.625270470666885,-4.661251689127087,0.21870648207711055
1633780794358454500,11.49345458984375,-8.62507582487762,-4.661520861457288,0.22062992442036047
1633780794378333400,11.51333349609375,-8.623776432716847,-4.663855734145641,0.22206574764344839
1633780794398212400,11.53321240234375,-8.622807879945634,-4.6657384791523215,0.22011622101087122
1633780794418092500,11.553092529296874,-8.625103297406435,-4.661520569196343,0.21955266884397714
1633780794437971500,11.572971435546876,-8.628977508491277,-4.65432685829997,0.21995631774142382
1633780794457850400,11.592850341796876,-8.631094062253831,-4.650535649323463,0.21705632198359817
1633780794477729300,11.612729248046875,-8.631609026038646,-4.649901735334098,0.2100479958578013
1633780794497608400,11.6326083984375,-8.632901988458633,-4.647746018604934,0.20456112541193142
1633780794517488400,11.65248828125,-8.635465701466797,-4.643191716301441,0.19970581260155884
1633780794537367300,11.6723671875,-8.637133342418075,-4.640257416415214,0.19576841835370287
1633780794557246500,11.69224658203125,-8.636670985603333,-4.641249057801067,0.19263534449236466
1633780794577125400,11.71212548828125,-8.635028479093313,-4.644419796791673,0.18982982208495958
1633780794597004300,11.73200439453125,-8.634246973326801,-4.646009111809731,0.18645877474928274
1633780794616884500,11.751884521484374,-8.634286136293412,-4.646021386769414,0.184324338270165
1633780794636763400,11.771763427734374,-8.63495716742277,-4.644804412195086,0.18355589291462673
1633780794656642600,11.791642578125,-8.635752117192744,-4.643420264360309,0.1811670250167139
1633780794676521200,11.811521240234375,-8.636174141997099,-4.642724975572526,0.17884095668932423
1633780794696400400,11.831400390625,-8.637107038933038,-4.6410570423603055,0.17705206397855652
1633780794716280600,11.851280517578125,-8.639554432085156,-4.636586326687038,0.17479332526633515
1633780794736159200,11.8711591796875,-8.64326030086577,-4.629827500076591,0.17067924101101234
1633780794756038400,11.891038330078125,-8.647740076628327,-4.621569959340989,0.16753515256531534
1633780794775917600,11.91091748046875,-8.652883869257568,-4.612098074379563,0.16290089862709864
1633780794795796500,11.93079638671875,-8.657011762842535,-4.604520917123556,0.15787547168051824
1633780794815676400,11.950676513671874,-8.658876972192525,-4.601195572093129,0.15242017454984597
1633780794835555300,11.970555419921874,-8.658824949744343,-4.60148228008002,0.14661918752035125
1633780794855434500,11.9904345703125,-8.657914264640212,-4.603425815363228,0.13918573131766168
1633780794875313400,12.0103134765625,-8.656884337070585,-4.60562303314656,0.13029432225846685
1633780794895192300,12.0301923828125,-8.656188756021857,-4.607146589452028,0.12237884555933996
1633780794915072500,12.050072509765625,-8.655647488752008,-4.608362979504466,0.11464103611521423
1633780794934951400,12.069951416015625,-8.654996915888786,-4.609724623246491,0.10888949598432518
1633780794954830300,12.089830322265625,-8.653153333848714,-4.613222986756265,0.1072095344075933
1633780794974709500,12.10970947265625,-8.649687703564762,-4.619808502626419,0.10324785510185173
1633780794994588400,12.12958837890625,-8.646276433816551,-4.626301664038002,0.09805690799579024
1633780795014467600,12.149467529296874,-8.644994577312469,-4.628758409540355,0.09511735654571093
1633780795034347300,12.16934716796875,-8.64517870170772,-4.628462641464173,0.09277790814694016
1633780795054226400,12.189226318359376,-8.646440099945664,-4.626234736281633,0.08609455792549997
1633780795074105600,12.209105712890626,-8.649849616128206,-4.619974214582145,0.07950295937443151
1633780795093984300,12.228984375,-8.654812206971645,-4.610686161755025,0.07862524495813995
1633780795113863400,12.248863525390625,-8.658233413591981,-4.604253498359024,0.07889670971012674
1633780795133743600,12.26874365234375,-8.659272108989953,-4.602342988562584,0.07636137341307475
1633780795153622300,12.288622314453125,-8.658901522111892,-4.603070133793354,0.07453845970169641
1633780795173501400,12.30850146484375,-8.657032805630564,-4.606570543129742,0.07531502899818587
1633780795193380400,12.32838037109375,-8.65320068012178,-4.613786465857923,0.07401192421009764
1633780795213259500,12.348259521484374,-8.648750714975595,-4.6222135179415345,0.06812201222155709
1633780795233139500,12.368139404296874,-8.646628900516033,-4.626266884985566,0.06210193908128422
1633780795253018400,12.388018310546874,-8.647276550769805,-4.625089073377848,0.0594750109440647
1633780795272897500,12.4078974609375,-8.649026024785638,-4.621855498284101,0.05644927904787473
1633780795292776400,12.4277763671875,-8.652204654821753,-4.615993912774324,0.048346650312771085
1633780795312655400,12.4476552734375,-8.656753988689184,-4.607536757813394,0.0400912193358643
1633780795332531500,12.467531494140625,-8.661713072401284,-4.598231169329583,0.03716960768456338
1633780795352410600,12.48741064453125,-8.66556331808865,-4.590988358594477,0.035043146732635796
1633780795372289500,12.50728955078125,-8.667963949489593,-4.586484617434442,0.03079501973490696
1633780795392168400,12.52716845703125,-8.668326937583089,-4.585813586305082,0.02842739783771103
1633780795412047600,12.547047607421876,-8.666607274183631,-4.589072880361974,0.026775310648593585
1633780795431927600,12.566927490234375,-8.664875335824489,-4.592349417814612,0.025448050950071775
1633780795451806500,12.586806396484375,-8.667161985456943,-4.587963165554404,0.035790882660285565
1633780795471685600,12.606685546875,-8.674313610777258,-4.574375077445805,0.04196003171531483
1633780795491564500,12.626564453125,-8.67981337723732,-4.56397643302828,0.03663725437353132
1633780795511443700,12.646443603515625,-8.679859554466605,-4.563889047005772,0.03662954370782245
1633780795531323400,12.666323486328125,-8.677378843566775,-4.5686078922212126,0.03606969960166607
1633780795551202600,12.68620263671875,-8.675606573197244,-4.572003087617457,0.03199962801800575
1633780795571081700,12.706081787109374,-8.67660318301916,-4.5701258955687285,0.02978761909091845
1633780795590960400,12.72596044921875,-8.680329510065913,-4.563065747924149,0.026449243332270996
1633780795610839600,12.745839599609376,-8.684303674393892,-4.555529507200419,0.020078870333428492
1633780795630718500,12.765718505859375,-8.68542420285642,-4.553414707003534,0.014411755941336741
1633780795650598400,12.785598388671875,-8.684834420269727,-4.554553355644643,0.009083926823455839
1633780795670477600,12.8054775390625,-8.683864698454737,-4.556406874556839,0.006010501594329252
1633780795690356500,12.8253564453125,-8.682506854104995,-4.558994845223427,0.005618758905451977
1633780795710235600,12.845235595703125,-8.680788359749316,-4.562266998761892,0.004019328633345139
1633780795730114600,12.865114501953125,-8.680611249616742,-4.56260602145791,0.001743644922661042
1633780795749994500,12.884994384765625,-8.682467691138386,-4.5590714175909755,0.00328413481014868
1633780795769873700,12.904873779296874,-8.684092077469826,-4.5559737438365815,0.00548126040570205
1633780795789752600,12.924752685546874,-8.685485577654838,-4.55331913767457,0.004041604682645993
1633780795809631500,12.944631591796876,-8.687531404268741,-4.549414531451464,0.002404359155044949
1633780795829510400,12.964510498046875,-8.690448168498277,-4.543841407494247,0.0013975065003280177
1633780795849390600,12.984390625,-8.69225258757174,-4.5403889289528125,0.0008414369556907331
1633780795869269500,13.00426953125,-8.691398601090908,-4.542023544417321,-0.00033996009303064053
1633780795889148400,13.0241484375,-8.688248028105496,-4.548045873446762,-0.002393483137764997
1633780795909027600,13.044027587890625,-8.685136618086695,-4.553984031324088,-0.0043151318150892615
1633780795928906500,13.063906494140625,-8.682523805239796,-4.558963281041383,-0.004301630443999602
1633780795948786400,13.083786376953125,-8.680329510065913,-4.563135890550911,-0.007034484051182516
1633780795968665600,13.10366552734375,-8.678054550871252,-4.567454338271916,-0.010373909551778342
1633780795988544500,13.12354443359375,-8.675917538842558,-4.571512966012954,-0.010299488042120355
1633780796008423700,13.143423583984376,-8.674465001946688,-4.574266940896213,-0.011138778135675239
1633780796028302300,13.16330224609375,-8.675236570841074,-4.572794822517037,-0.014203127292491262
1633780796048182500,13.1831826171875,-8.67729350337088,-4.568878818117081,-0.017525992671464336
1633780796068061700,13.203061767578125,-8.67824627405107,-4.567052771733701,-0.02135787501001032
1633780796087940400,13.2229404296875,-8.67739053400457,-4.568651731362938,-0.026326872761349658
1633780796107819500,13.242819580078125,-8.675234817275404,-4.572709774582088,-0.03174379237670218
1633780796127698400,13.262698486328125,-8.672433788380026,-4.577985669158399,-0.036372495640255506
1633780796147578400,13.282578369140625,-8.668291866269707,-4.585790205429494,-0.040339093149709515
1633780796167457500,13.30245751953125,-8.663061564400792,-4.595608711871504,-0.046151784316729755
1633780796187336400,13.32233642578125,-8.658298295521735,-4.60448496902734,-0.054496067187446165
1633780796207215600,13.342215576171874,-8.653986862063407,-4.612482397522032,-0.062473640204197725
1633780796227094500,13.362094482421876,-8.650520647257565,-4.618877943778037,-0.0695619179647183
1633780796246973400,13.381973388671875,-8.650946763715147,-4.617981579460204,-0.07585458836813923
1633780796266853600,13.401853515625,-8.655106806004047,-4.610171490231156,-0.07635715846226085
1633780796286732500,13.421732666015625,-8.659540404537319,-4.601918333409726,-0.07134465492933523
1633780796306611500,13.441611572265625,-8.66239053327143,-4.596627241264283,-0.06629294276402797
1633780796326491000,13.461490966796875,-8.66306390248835,-4.595430140434205,-0.06107539991198573
1633780796346370000,13.4813701171875,-8.661866217136383,-4.597744554856419,-0.05657744460534304
1633780796366249700,13.501249755859375,-8.660635798558593,-4.600088195373118,-0.05439590844833292
1633780796386129000,13.52112890625,-8.662031052309274,-4.597459600435197,-0.05449443691936321
1633780796406007800,13.5410078125,-8.664603533145785,-4.592622681798041,-0.053320639333059076
1633780796425887000,13.560886962890624,-8.664955999845265,-4.591954865539074,-0.05360744778465014
1633780796445766000,13.580765869140626,-8.663570682966709,-4.594467725142836,-0.06157352215985302
1633780796465645800,13.600645751953126,-8.663091375017165,-4.595221173858643,-0.07191270060825627
1633780796485525000,13.62052490234375,-8.664264510449767,-4.592872272644937,-0.08020928101288154
1633780796505403600,13.640403564453125,-8.665741012743116,-4.589950832240283,-0.08757359010265209
1633780796525282800,13.66028271484375,-8.665596635836362,-4.590122681675851,-0.09272383987214415
1633780796545162000,13.680161865234375,-8.663265562540293,-4.594501919673383,-0.09360841328748501
1633780796565041700,13.700041748046875,-8.660188054791092,-4.60035444509387,-0.09092608800148591
1633780796584920800,13.7199208984375,-8.657489317226409,-4.605542953647673,-0.08508508862201124
1633780796604800000,13.739800048828124,-8.656262990301848,-4.6079900545388455,-0.07697040868951008
1633780796624679000,13.759678955078124,-8.657335587969422,-4.606120461274683,-0.06764441673848777
1633780796644558000,13.77955810546875,-8.659869490361213,-4.60146415990144,-0.059724117733770975
1633780796664437800,13.799437744140626,-8.662875101917981,-4.59585947176218,-0.05528566492886748
1633780796684317000,13.81931689453125,-8.666703135773538,-4.588664884082973,-0.05281944377869367
1633780796704196000,13.839196044921875,-8.671095817774534,-4.580366134554147,-0.05226734002099838
1633780796724074800,13.85907470703125,-8.674965352684259,-4.57303096936047,-0.0524403722000774
1633780796743954000,13.878953857421875,-8.677018193560839,-4.569153251144289,-0.05075261547595728
1633780796763833900,13.898833740234375,-8.67662539485097,-4.569923066473007,-0.04854292637011967
1633780796783712800,13.918712646484375,-8.674504749435187,-4.573952468119561,-0.04802938279083464
1633780796803592000,13.938592041015625,-8.672516790488363,-4.57772321882993,-0.04780311345402151
1633780796823470800,13.958470947265624,-8.672086582377553,-4.5785395036488765,-0.047708909531659446
1633780796843350000,13.97835009765625,-8.673243351197243,-4.576327380557358,-0.049589133787690656
1633780796863228700,13.998228759765626,-8.675054200011491,-4.572855612793565,-0.053016847780626264
1633780796883108900,14.01810888671875,-8.677030468520522,-4.569088369214534,-0.054387423747777934
1633780796902988000,14.037988037109375,-8.679318287196756,-4.5647094234779475,-0.05702873203679919
1633780796922867000,14.057866943359375,-8.681535378724336,-4.560453811860084,-0.059899287071009166
1633780796942745900,14.077745849609375,-8.682937646737694,-4.5577769938662644,-0.06040087991759646
1633780796962624800,14.097624755859375,-8.683474822354317,-4.556738590729236,-0.06151833964020479
1633780796982505000,14.1175048828125,-8.685131941911578,-4.55356229878068,-0.06275984586759005
1633780797002384000,14.1373837890625,-8.68684342200458,-4.550301251158118,-0.06239058329693507
1633780797022262800,14.1572626953125,-8.686276435771584,-4.551363035170733,-0.06389839861057699
1633780797042142000,14.177141845703124,-8.68550252878964,-4.552798328670859,-0.06677472123187035
1633780797062020900,14.197020751953126,-8.687644216993451,-4.548698492136597,-0.06755349618517793
1633780797081900800,14.21690087890625,-8.691043211781977,-4.542182242110371,-0.06880565167074092
1633780797101780000,14.236780029296876,-8.694018428200483,-4.536439314544201,-0.07176197615910787
1633780797121659000,14.256658935546875,-8.69607302264273,-4.532482978133857,-0.07275066296947189
1633780797141537800,14.276537841796875,-8.697219270068407,-4.5302670556500555,-0.07377769989569205
1633780797161416700,14.296416748046875,-8.697466522827744,-4.5296997771561145,-0.07924124883147887
1633780797181297000,14.316296875,-8.69777105873227,-4.528998058627546,-0.08568833347847685
1633780797201175800,14.33617578125,-8.698900355023145,-4.526729236912727,-0.09081460871733725
1633780797221054700,14.3560546875,-8.700002178785205,-4.524542832784355,-0.09409719231827184
1633780797240934000,14.375933837890624,-8.700241248238086,-4.523968832288682,-0.09947272961046547
1633780797260812800,14.395812744140626,-8.700474472472072,-4.5233378409087655,-0.10744590957988984
1633780797280692700,14.415692626953126,-8.700721725231409,-4.52270451144129,-0.11386029753368347
1633780797300572000,14.435572021484376,-8.699922099286317,-4.524190950606763,-0.11589193122545256
1633780797320450800,14.455450927734375,-8.697336174446344,-4.529124023094773,-0.117319087084895
1633780797340329500,14.47532958984375,-8.693841902589797,-4.535757469759881,-0.1200086914950516
1633780797360208400,14.49520849609375,-8.690755042490363,-4.5416216856181615,-0.12180672649350016
1633780797380088300,14.51508837890625,-8.689180925041436,-4.5446460018754005,-0.12128789938432163
1633780797399967500,14.534967529296875,-8.688217048445344,-4.546461526864767,-0.1223001177673228
1633780797419846400,14.554846435546875,-8.686535963490606,-4.5495480947032565,-0.12686256684465333
1633780797439725300,14.574725341796874,-8.685432386162876,-4.551436977189779,-0.13441546644223853
1633780797459604200,14.594604248046876,-8.688823197644949,-4.544682534493505,-0.14349731090646237
1633780797479484400,14.614484375,-8.697147958397865,-4.528524888157844,-0.14987934922692364
1633780797499363300,14.63436328125,-8.704684199121594,-4.5140036108523605,-0.1504239318318665
1633780797519242200,14.6542421875,-8.706383404254913,-4.510761267930269,-0.14933356104558332
1633780797539121400,14.674121337890625,-8.703804493677616,-4.515673589891195,-0.15120845153937115
1633780797559000300,14.694000244140625,-8.700822847518324,-4.521389337189495,-0.15200719156847334
1633780797578879200,14.713879150390625,-8.699085648462177,-4.524762320753932,-0.15105678637530653
1633780797598759400,14.733759521484375,-8.696923501992226,-4.528926454696059,-0.15078193322299047
1633780797618638300,14.753638427734375,-8.693398250475525,-4.535672421824932,-0.15128036599811165
1633780797638517500,14.773517578125,-8.689159882253408,-4.5438475449740885,-0.1494610142169986
1633780797658396400,14.793396484375,-8.684669000574946,-4.552541431300342,-0.14587249733889474
1633780797678275300,14.813275390625,-8.680004515895247,-4.561512965524196,-0.1432100183976814
1633780797698155500,14.833155517578126,-8.676933437886834,-4.567403777128458,-0.14151924316599032
1633780797718034200,14.8530341796875,-8.678160349333286,-4.5650940388813614,-0.14083564481600186
1633780797737913300,14.872913330078125,-8.681777370786666,-4.558178852665424,-0.14187360042845829
1633780797757792500,14.89279248046875,-8.684877090367674,-4.552244201919436,-0.14272681059115566
1633780797777671400,14.91267138671875,-8.686090557810664,-4.5500274026528,-0.13953030697163193
1633780797797551400,14.93255126953125,-8.685061799284815,-4.552119991017878,-0.13525226432625204
1633780797817430300,14.95243017578125,-8.68195857257247,-4.558170669358969,-0.1306143297267612
1633780797837309400,14.972309326171874,-8.676507905951143,-4.568729765035211,-0.1237149256018456
1633780797857188400,14.992188232421874,-8.670620601478218,-4.580066567085683,-0.11707299423618242
1633780797877067300,15.0120673828125,-8.666173558941482,-4.588678328086435,-0.10886543012214824
1633780797896947500,15.031947509765626,-8.663833717817068,-4.593343689548969,-0.09777903176932595
1633780797916826400,15.051826416015626,-8.662752352321148,-4.595596436911821,-0.087177950981725
1633780797936705300,15.071705322265625,-8.661630070292949,-4.597865843148529,-0.07863476170515642
1633780797956584400,15.09158447265625,-8.659400119283795,-4.602186628957092,-0.07107032693340443
1633780797976463400,15.11146337890625,-8.657074306684732,-4.606644777409732,-0.06534072463968768
1633780797996343300,15.13134326171875,-8.655952024656534,-4.608824751797318,-0.060086197078390975
1633780798016222500,15.151222412109375,-8.656151346620916,-4.60849595823437,-0.05647710320313926
1633780798036101400,15.171101318359375,-8.65655525124669,-4.607727311949431,-0.057314782436564564
1633780798055980500,15.19098046875,-8.65717133731842,-4.6065229045957325,-0.060904993514833035
1633780798075859200,15.210859130859374,-8.658910874462126,-4.603186453649402,-0.06573823605729266
1633780798095739400,15.230739501953124,-8.662569396969676,-4.596265422214567,-0.06797981357215903
1633780798115618600,15.25061865234375,-8.666221489736436,-4.589343513996899,-0.07011822297349572
1633780798135497200,15.270497314453126,-8.667791515532135,-4.58634696252942,-0.0720690510805929
1633780798155376400,15.29037646484375,-8.667957519748807,-4.585988650611043,-0.07483826919875573
1633780798175255300,15.31025537109375,-8.667478796321154,-4.586857250139117,-0.07706280881385319
1633780798195135200,15.33013525390625,-8.666015153509377,-4.589644542770087,-0.07567342768153175
1633780798215014400,15.350014404296875,-8.6634011716187,-4.594590767000615,-0.07483925557944457
1633780798234893300,15.369893310546875,-8.660637552124262,-4.59974683458954,-0.0779349246064201
1633780798254772500,15.3897724609375,-8.658948868384957,-4.602882210005819,-0.08043423060886562
1633780798274651400,15.4096513671875,-8.659551510453223,-4.601745899452268,-0.08052355286013335
1633780798294531300,15.42953125,-8.661961494204402,-4.597212055414915,-0.08028386235274373
1633780798314410500,15.449410400390626,-8.664321209073066,-4.5927229273021215,-0.0825664385982789
1633780798334289000,15.469288818359376,-8.665404328134656,-4.590570717704296,-0.08836485921135172
1633780798354168000,15.48916796875,-8.667811973798274,-4.585918215723336,-0.09369579017683863
1633780798374046700,15.509046630859375,-8.673049874451756,-4.575900095055997,-0.09862519113672896
1633780798393927000,15.528927001953125,-8.678617445451021,-4.56528283945173,-0.10087568261041305
1633780798413806000,15.54880615234375,-8.681141410970687,-4.560485376042127,-0.10070757776820101
1633780798433684700,15.568684814453125,-8.68091520099938,-4.560878467012942,-0.10239696476040408
1633780798453564000,15.58856396484375,-8.679037716689706,-4.56443265236318,-0.1031590169077739
1633780798473442800,15.60844287109375,-8.677153802639246,-4.567932769438624,-0.10667823140933178
1633780798493322800,15.62832275390625,-8.675479731947183,-4.571026643800735,-0.11022441611620597
1633780798513202000,15.648201904296876,-8.674799348467587,-4.572293887257576,-0.11120795639399439
1633780798533080800,15.668080810546876,-8.675388546532393,-4.571136533915996,-0.11280820379802026
1633780798552960000,15.6879599609375,-8.676087634712458,-4.569745664079487,-0.11538171668099238
1633780798572839000,15.7078388671875,-8.675844473606347,-4.570137586006522,-0.11812022000048308
1633780798592718800,15.72771875,-8.675607742241024,-4.570574516119063,-0.11858699726201594
1633780798612598000,15.747597900390625,-8.676181158214806,-4.569510686279833,-0.11763337719845585
1633780798632477000,15.767476806640625,-8.677028714954853,-4.567916402825713,-0.11703066206495277
1633780798652355800,15.78735595703125,-8.676354761216045,-4.569203520026803,-0.11674429200477897
1633780798672235000,15.807235107421874,-8.67399563086927,-4.57364588638842,-0.1180958618773613
1633780798692115000,15.827114990234374,-8.670930982601643,-4.579406641872227,-0.11991774354227817
1633780798711993900,15.846993896484374,-8.669432268476486,-4.582204163636267,-0.12139338731910101
1633780798731872800,15.866872802734376,-8.670931567123532,-4.579420378136635,-0.11932028910578228
1633780798751752000,15.886751953125,-8.673720321059227,-4.574171956089138,-0.11794601421104743
1633780798771631000,15.906631103515625,-8.675473886728286,-4.570744904249906,-0.121755032838881
1633780798791510800,15.9265107421875,-8.676101663237809,-4.569489351230859,-0.12412661167527549
1633780798811390000,15.946389892578125,-8.675732245403527,-4.570195161412656,-0.12398152238246984
1633780798831269000,15.96626904296875,-8.67466607747674,-4.572217022629082,-0.12404879719871095
1633780798851147800,15.986147705078125,-8.673705123490095,-4.574079601630568,-0.12257282462832517
1633780798871027000,16.00602685546875,-8.672662336438894,-4.576114030067623,-0.12037652016044594
1633780798890907000,16.025906982421876,-8.669846694496274,-4.581479648754001,-0.11912272070706821
1633780798910785800,16.045785888671876,-8.66485721564591,-4.5909629318922756,-0.1170290454966016
1633780798930665000,16.0656650390625,-8.660333016219735,-4.5996357754305,-0.1111955535701476
1633780798950544000,16.0855439453125,-8.658053380849957,-4.604017351515591,-0.10731857513948342
1633780798970423000,16.105423095703124,-8.654883518642187,-4.610108069606125,-0.10140967988925985
1633780798990302700,16.125302734375,-8.649455063852667,-4.620369351379573,-0.09747031288002617
1633780799010182000,16.145181884765623,-8.643668297144771,-4.631217785391211,-0.09595365210622549
1633780799030061000,16.16506103515625,-8.640316064107418,-4.637590243032574,-0.08986888883244246
1633780799049940000,16.18493994140625,-8.638347978904843,-4.641321246254444,-0.08641790812835097
1633780799069819000,16.20481884765625,-8.63835382412374,-4.641313355208933,-0.08624003081079572
1633780799089699000,16.224698974609375,-8.639725696998834,-4.638781498643755,-0.08503494760366156
1633780799109578000,16.244577880859374,-8.640876036077737,-4.636678388884663,-0.08279751654095016
1633780799129457000,16.264456787109374,-8.64079654110074,-4.636831533619762,-0.08257158056427724
1633780799149335800,16.284335693359374,-8.639480197805165,-4.639263436941802,-0.08365471789217553
1633780799169215000,16.304215087890626,-8.63919027494788,-4.6397129342749714,-0.08855234460746869
1633780799189095000,16.324094970703126,-8.641334885761141,-4.635651383924484,-0.09192035060268826
1633780799208973800,16.343973876953125,-8.64478648751974,-4.62923304131478,-0.09085580837740562
1633780799228853000,16.36385302734375,-8.6478832844913,-4.623456503739953,-0.09027430042871273
1633780799248732000,16.38373193359375,-8.649304257205127,-4.6207980981856585,-0.090275259409938
1633780799268611000,16.403611083984377,-8.649187352827191,-4.621050027120113,-0.0885184514710214
1633780799288491000,16.423490966796876,-8.647320389911531,-4.624607135079801,-0.08514149498436599
1633780799308370000,16.443369873046876,-8.643471897789835,-4.631860759469866,-0.08147590341521427
1633780799328249600,16.46324951171875,-8.638693431341647,-4.640873210225999,-0.07520690158174838
1633780799348128800,16.483128662109376,-8.635992355689407,-4.645954459013044,-0.07157405237157363
1633780799368008000,16.503008056640624,-8.63585148591399,-4.646282083532214,-0.06723703694741708
1633780799387887600,16.5228876953125,-8.636499136167764,-4.645152494980395,-0.0618608603344066
1633780799407766800,16.542766845703124,-8.636603181064128,-4.645039097733795,-0.055524108760664236
1633780799427645700,16.562645751953124,-8.636105752936006,-4.646014664767682,-0.051046059164311736
1633780799447524900,16.58252490234375,-8.634723943188787,-4.648568148642778,-0.05236548946611583
1633780799467403800,16.60240380859375,-8.633592308810353,-4.650632972218096,-0.05548894611573778
1633780799487283700,16.62228369140625,-8.633691093009709,-4.650454108519852,-0.05512433688731398
1633780799507163000,16.642162841796875,-8.63482740356326,-4.648360351110995,-0.05371889510275796
1633780799527041800,16.662041748046875,-8.636324364122748,-4.645578319177031,-0.05370703113502823
1633780799546920700,16.681920654296874,-8.637468273460865,-4.6434535821080205,-0.05350933943872806
1633780799566800000,16.7017998046875,-8.63831699924469,-4.641894662228227,-0.05176413973921444
1633780799586679800,16.7216796875,-8.639011411249637,-4.6406183586820955,-0.0503263072221307
1633780799606558700,16.741558837890626,-8.639448633623124,-4.639812887518108,-0.049442802385869435
1633780799626438000,16.76143798828125,-8.63844617858231,-4.641696801568568,-0.04777556785997003
1633780799646316800,16.78131689453125,-8.63557500706017,-4.647055113731325,-0.045908298983634445
1633780799666196000,16.801196044921873,-8.632466519650816,-4.652851232789456,-0.04345271795848384
1633780799686075600,16.82107568359375,-8.63005478233397,-4.6573669566482305,-0.038439534005546006
1633780799705954800,16.840954833984377,-8.628070915040373,-4.661049444553256,-0.03726969564172905
1633780799725834000,16.860833984375,-8.626358265903592,-4.6642052782356735,-0.03893613558318466
1633780799745712600,16.880712646484376,-8.625718214434384,-4.665390688627958,-0.038690444593271235
1633780799765591800,16.900591796875,-8.625780173754691,-4.665272030684352,-0.039200398842827416
1633780799785470700,16.920470703125,-8.62559604935944,-4.6655923486799,-0.04152366785835474
1633780799805350700,16.9403505859375,-8.624657307204604,-4.667291846074163,-0.045414122258522545
1633780799825229800,16.960229736328124,-8.62447785898447,-4.667576215973496,-0.05004566364984493
1633780799845108700,16.980108642578124,-8.625691326427459,-4.665310316868126,-0.05205103952235076
1633780799864988000,16.99998779296875,-8.627773977920413,-4.6614445813506835,-0.053275302353990264
1633780799884867600,17.01986767578125,-8.629911574470997,-4.657452881366014,-0.056069225655146875
1633780799904746800,17.039746826171875,-8.631029764845966,-4.655392149443924,-0.05506320411749184
1633780799924626000,17.0596259765625,-8.630786019217968,-4.6558498300835485,-0.054560113433562214
1633780799944504800,17.0795048828125,-8.629966519528628,-4.657357019776105,-0.055612978920782916
1633780799964383700,17.0993837890625,-8.62979291652739,-4.657668862204253,-0.056409563525416886
1633780799984262700,17.1192626953125,-8.630549872374534,-4.6562832530647515,-0.05492785990056581
1633780800004142800,17.139142822265626,-8.631773861211538,-4.65402086109072,-0.0543735139534343
1633780800024021800,17.159021728515626,-8.631589152294397,-4.65435579213351,-0.0550151911241468
1633780800043900700,17.178900634765625,-8.629958336222172,-4.657388291697204,-0.05420719007635489
1633780800063779800,17.19877978515625,-8.628193664637207,-4.660664829149842,-0.05346485184303019
1633780800083658800,17.21865869140625,-8.627093009918928,-4.662703641501069,-0.05329378329217434
1633780800103538700,17.23853857421875,-8.626574539002776,-4.663677162708342,-0.0520773749734275
1633780800123417900,17.25841796875,-8.62637813964784,-4.664048918630183,-0.05136580633770209
1633780800143296800,17.278296875,-8.624711083218454,-4.667145131079852,-0.04995566097856499
1633780800163176000,17.298176025390624,-8.62205384670794,-4.672047223907708,-0.05047387159981299
1633780800183054600,17.3180546875,-8.620230722934007,-4.675391565899551,-0.052180986044951715
1633780800202934800,17.337934814453124,-8.620497264915704,-4.674890922901034,-0.05300635835265275
1633780800222814000,17.35781396484375,-8.620997031131386,-4.673947796832024,-0.054868658792925996
1633780800242692600,17.377692626953124,-8.621212135186791,-4.67353717020452,-0.05595611610291525
1633780800262571800,17.39757177734375,-8.620712953493,-4.674472112967074,-0.05472327723917551
1633780800282450700,17.41745068359375,-8.618989782962203,-4.677623270474374,-0.0568955660772277
1633780800302330600,17.43733056640625,-8.616799579441548,-4.681624030548334,-0.05959253637650981
1633780800322209800,17.457209716796875,-8.616003460627793,-4.683113392323255,-0.05762451967259403
1633780800342088400,17.47708837890625,-8.61599235471189,-4.683167752858997,-0.054841843851236624
1633780800361967600,17.496967529296874,-8.615472714751958,-4.684127830062806,-0.054428299180860625
1633780800381846500,17.516846435546874,-8.613404091784357,-4.687941250871122,-0.05355693230696488
1633780800401726500,17.5367265625,-8.610110310935974,-4.69399660538733,-0.05266132147437892
1633780800421605600,17.556605712890626,-8.606529529839754,-4.700521330980957,-0.05596845956125762
1633780800441484500,17.576484619140626,-8.602373579204082,-4.708095565627515,-0.058217827656934965
1633780800461363500,17.596363525390625,-8.598391816091537,-4.715357665584981,-0.058695765633299014
1633780800481242400,17.616242431640625,-8.595311970254778,-4.720933127629757,-0.06156619280334562
1633780800501122600,17.63612255859375,-8.592649473047256,-4.725746665391326,-0.06383715624290053
1633780800521001500,17.65600146484375,-8.589853704848885,-4.730800733910501,-0.0657209926615469
1633780800540880400,17.67588037109375,-8.587797941362858,-4.734492281904816,-0.068517336248653
1633780800560759600,17.695759521484376,-8.58676509118378,-4.73636012160331,-0.06885339523602742
1633780800580638500,17.715638427734376,-8.585589617663622,-4.738509116330743,-0.06755019911639391
1633780800600518400,17.735518310546876,-8.584299577853082,-4.740849541977048,-0.06732244564197026
1633780800620397600,17.7553974609375,-8.583826699644327,-4.741682777930796,-0.06891575641513337
1633780800640276500,17.7752763671875,-8.583842481735347,-4.741645076268911,-0.06953922207572032
1633780800660155600,17.79515576171875,-8.58380390329063,-4.741738599771261,-0.06785989525322803
1633780800680034300,17.815034423828124,-8.58311182937324,-4.743003212879598,-0.06705761612674686
1633780800699914500,17.83491455078125,-8.582205820444226,-4.7446284759938715,-0.06801944689622615
1633780800719793700,17.854793701171875,-8.580327751612662,-4.748022794607281,-0.06806114431321621
1633780800739672300,17.87467236328125,-8.577499834710359,-4.753137068881094,-0.06757112773999106
1633780800759551500,17.894551513671875,-8.574677763026953,-4.758197274880111,-0.06959209847385063
1633780800779430400,17.914430419921874,-8.572949916321038,-4.761270398715138,-0.07220367377831134
1633780800799310300,17.934310302734374,-8.571593825536965,-4.763712823431193,-0.07211135585235898
1633780800819189500,17.954189453125,-8.57009335784614,-4.766443417438865,-0.06998218463682569
1633780800839068400,17.974068359375,-8.569094994458556,-4.768262741820514,-0.06830543793048709
1633780800858947600,17.993947509765626,-8.570460437592864,-4.7658179790169,-0.06760277868700214
1633780800878826500,18.013826416015625,-8.57339532200098,-4.760547637398541,-0.06679329350159968
1633780800898705400,18.033705322265625,-8.575574419605731,-4.756627249084413,-0.066377689304878
1633780800918585600,18.053585693359373,-8.577284146133065,-4.75354535742104,-0.06621944370297715
1633780800938464500,18.073464599609373,-8.580179867574572,-4.748315932334959,-0.06630691192387603
1633780800958343400,18.093343505859377,-8.582751763889194,-4.743685057663917,-0.06492047623388934
1633780800978222600,18.11322265625,-8.584188518694043,-4.7410877346470945,-0.06466058318868745
1633780800998101500,18.1331015625,-8.587210496863722,-4.73559439792782,-0.06593263525138608
1633780801017981400,18.1529814453125,-8.592336169314384,-4.726295823706686,-0.06537673666798509
1633780801037860400,18.1728603515625,-8.59620453518033,-4.719257011111081,-0.06526726211125497
1633780801057739500,18.192739501953124,-8.597451904892921,-4.71695487164855,-0.06737616685689427
1633780801077618700,18.21261865234375,-8.597032802698015,-4.717723225672543,-0.06706612366018816
1633780801097497300,18.232497314453123,-8.596416716626287,-4.718844630917906,-0.0671563135611359
1633780801117377500,18.25237744140625,-8.594308346170186,-4.722663312423229,-0.06853802741023246
1633780801137256400,18.27225634765625,-8.589953073570133,-4.7305832917675374,-0.0683592824429972
1633780801157135400,18.29213525390625,-8.585417768228053,-4.738836740849912,-0.06641895289702807
1633780801177014500,18.3120146484375,-8.583145147120952,-4.742985677222907,-0.06397130858316086
1633780801196893400,18.3318935546875,-8.582993171429633,-4.743291966693103,-0.06159553306226152
1633780801216773600,18.351773681640626,-8.583752465364336,-4.741959549045562,-0.058243363956990646
1633780801236652500,18.371652587890626,-8.584116622501611,-4.74134930819273,-0.05420901670726016
1633780801256531500,18.391531494140626,-8.584239372098445,-4.741144725531339,-0.05258272154652513
1633780801276410600,18.41141064453125,-8.584708158653974,-4.740319380623102,-0.050418154790624975
1633780801296289500,18.43128955078125,-8.5853867885679,-4.739112050659954,-0.04833172673827502
1633780801316169500,18.45116943359375,-8.585589617663622,-4.738714283514023,-0.05125446861744858
1633780801336047600,18.471047607421873,-8.58605840421915,-4.737812950760126,-0.05580805853488855
1633780801355926800,18.4909267578125,-8.587498081633449,-4.735189616519213,-0.0569449353440199
1633780801375806000,18.510805908203125,-8.588989781495929,-4.732485033735633,-0.05675291077010333
1633780801395684600,18.5306845703125,-8.589927939128875,-4.7307735536426305,-0.057537695339089256
1633780801415564800,18.550564697265624,-8.589475519186259,-4.7315904229834675,-0.05784337745450902
1633780801435443700,18.570443603515624,-8.588552559122443,-4.733256894890964,-0.05858040019189938
1633780801455322600,18.590322509765624,-8.587993171674013,-4.734264902889728,-0.05906422905293293
1633780801475201800,18.610201904296876,-8.588106568920612,-4.734076979102194,-0.05762815466809552
1633780801495080700,18.630080810546875,-8.58797914314866,-4.734352581173181,-0.053872012438392264
1633780801514960000,18.6499599609375,-8.587105867445468,-4.735963523501158,-0.05147998903559055
1633780801534839600,18.669839599609375,-8.584914494881033,-4.739944702091813,-0.05048751653267536
1633780801554718700,18.68971875,-8.582856977829337,-4.743679504705965,-0.049516803770419206
1633780801574598000,18.709597900390627,-8.582230954885482,-4.7448163997814055,-0.04909394328242633
1633780801594476800,18.729476806640626,-8.583568340969085,-4.742402032116055,-0.048559795306529846
1633780801614355700,18.749355712890626,-8.585767896839975,-4.738433713006973,-0.04710402070737909
1633780801634236000,18.76923583984375,-8.586688518816231,-4.7367798083201045,-0.04558872990675736
1633780801654114800,18.78911474609375,-8.585357562473416,-4.739188038505613,-0.04605083099317271
1633780801673993700,18.80899365234375,-8.58374428205788,-4.742076161162555,-0.04937807571974117
1633780801693872600,18.82887255859375,-8.585708860129117,-4.738481059280038,-0.052814936566934916
1633780801713751800,18.848751708984373,-8.59092513347268,-4.728976148831844,-0.05635335809246171
1633780801733631700,18.8686318359375,-8.594476103952527,-4.722498769511282,-0.05803715102751739
1633780801753510700,18.8885107421875,-8.594493055087327,-4.722441778627037,-0.06016745475421194
1633780801773389800,18.908389892578125,-8.592425601163505,-4.726127773663402,-0.06576644837162457
1633780801793268700,18.928268798828125,-8.590296187919378,-4.729932134382427,-0.07026323920106514
1633780801813148000,18.94814794921875,-8.588071497607231,-4.733918573670089,-0.0736907111654058
1633780801833027800,18.96802783203125,-8.586578628700972,-4.736585162530839,-0.07626673566587269
1633780801852906800,18.98790673828125,-8.587746503436565,-4.734437044586241,-0.0780750089305453
1633780801872786000,19.007785888671876,-8.590013863846659,-4.730311781349778,-0.07868181571727619
1633780801892664600,19.02766455078125,-8.590940331041812,-4.7286081923022865,-0.07992380600185132
1633780801912543700,19.047543701171875,-8.591235514596104,-4.727999412754178,-0.0841212576916907
1633780801932424000,19.067423828125,-8.592744750115274,-4.725187862464785,-0.08787791594462468
1633780801952302600,19.087302490234375,-8.596311502686142,-4.718666351741552,-0.08946506640505976
1633780801972181800,19.107181640625,-8.60071470608115,-4.710615147233009,-0.09050043733478523
1633780801992060700,19.127060791015627,-8.604586579078436,-4.703513498534262,-0.09185352331101894
1633780802011939800,19.14693994140625,-8.607082487547396,-4.698928216570615,-0.09267325132922269
1633780802031818800,19.16681884765625,-8.608801566424965,-4.6957358502700925,-0.09480008902377449
1633780802051698700,19.18669873046875,-8.610728735095263,-4.692203584490716,-0.09470449229534715
1633780802071577900,19.206577880859374,-8.61358821617961,-4.687024720548093,-0.09099122565956785
1633780802091456800,19.226456787109374,-8.61582401240766,-4.682981290376186,-0.08742866520662791
1633780802111335700,19.246335693359374,-8.616541220766305,-4.681698264828324,-0.08542545389174483
1633780802131214800,19.26621484375,-8.61668092149794,-4.681483453033864,-0.08311219024700112
1633780802151094800,19.2860947265625,-8.617232710161804,-4.680533020441234,-0.07932882665023207
1633780802170973700,19.3059736328125,-8.617989081487059,-4.679185112963617,-0.07662706601140089
1633780802190852600,19.3258525390625,-8.619581319114566,-4.67627974691093,-0.07487674717877525
1633780802210731800,19.345731689453125,-8.621704302617907,-4.672401444172859,-0.07255956541073974
1633780802230611000,19.36561083984375,-8.62334096390903,-4.669394371311366,-0.07167512899271677
1633780802250490600,19.38549072265625,-8.623971078506111,-4.668208376397192,-0.0730813151293667
1633780802270369800,19.405369873046876,-8.625439397493004,-4.665491810914874,-0.07325045201804023
1633780802290248700,19.425248779296876,-8.628720318859814,-4.659453699794412,-0.07115230612843297
1633780802310127600,19.445127685546876,-8.63171248641312,-4.653952764290571,-0.06817876564378383
1633780802330008300,19.46500830078125,-8.63203397345245,-4.653362981703877,-0.06775368579924106
1633780802349888300,19.48488818359375,-8.631197522628307,-4.654910503406822,-0.06797437021206133
1633780802369767400,19.504767333984375,-8.63253257062435,-4.652475092953443,-0.06513717859133612
1633780802389646300,19.524646240234375,-8.635589620107412,-4.646861052463948,-0.060505043544969515
1633780802409525500,19.544525390625,-8.637285902631282,-4.643762794187665,-0.05605926138355862
1633780802429404200,19.564404052734375,-8.63643074710667,-4.645383381126821,-0.05352378808918874
1633780802449284400,19.584284423828127,-8.634797592946887,-4.648431078259646,-0.052320010923151854
1633780802469163500,19.60416357421875,-8.633323428741097,-4.651180669228732,-0.051315149296121666
1633780802489042200,19.624042236328126,-8.631664555618167,-4.654291494725644,-0.048147474478860385
1633780802508921300,19.64392138671875,-8.630148890358209,-4.657113566409051,-0.046959351539681664
1633780802528800500,19.663800537109374,-8.629799346268177,-4.657743681006133,-0.048715255296300164
1633780802548679400,19.683679443359374,-8.631483353832364,-4.654629348377883,-0.04803154734845739
1633780802568559400,19.703559326171874,-8.634480782082676,-4.649076682686806,-0.04700048726766835
1633780802588438300,19.723438232421874,-8.63818548181951,-4.642178155344724,-0.0481587447915459
1633780802608317400,19.7433173828125,-8.641516672068834,-4.6359538740023964,-0.05005270074540749
1633780802628196400,19.7631962890625,-8.644313024789094,-4.630701652562618,-0.05326315982504747
1633780802648075300,19.7830751953125,-8.6462396089375,-4.62707878589034,-0.05536979498178698
1633780802667955500,19.80295556640625,-8.647482886996865,-4.624748589377105,-0.05586318168903235
1633780802687834400,19.82283447265625,-8.647820740649104,-4.624109999212623,-0.05648811778749804
1633780802707713300,19.84271337890625,-8.64760446754992,-4.624501921139657,-0.05750617225624155
1633780802727592400,19.862592529296876,-8.646891935366392,-4.625834338787198,-0.05746890441919677
1633780802747471400,19.882471435546876,-8.646301568257808,-4.6269352857664225,-0.05769025098572019
1633780802767351300,19.902351318359376,-8.645383868891,-4.6286640092551705,-0.05653320817139465
1633780802787230200,19.922230224609375,-8.643914380860329,-4.631439319187402,-0.053814076272654346
1633780802807109400,19.942109375,-8.642777485784888,-4.633578084781766,-0.05233012589178979
1633780802826988500,19.961988525390623,-8.64295985661447,-4.633232047823071,-0.052824014922534114
1633780802846867200,19.9818671875,-8.643269653216004,-4.632658047327399,-0.05249208868758287
1633780802866746400,20.001746337890626,-8.643343887495995,-4.63249818059057,-0.05434104558909312
1633780802886626600,20.02162646484375,-8.644234114333987,-4.630774717798829,-0.059381208880501794
1633780802906505500,20.04150537109375,-8.646777953597903,-4.625955334818363,-0.06440374975025188
1633780802926384400,20.06138427734375,-8.65008400940597,-4.619735729651153,-0.06687212632489391
1633780802946263300,20.08126318359375,-8.652758197051286,-4.614665879040956,-0.07082195536263752
1633780802966142500,20.101142578125,-8.654604701700807,-4.611163716138899,-0.07329872987286654
1633780802986022400,20.1210224609375,-8.655579099690913,-4.609414534384012,-0.06807377089934889
1633780803005901300,20.1409013671875,-8.655154736799002,-4.6102860565215344,-0.0627875056260731
1633780803025780500,20.160780517578125,-8.65401901076734,-4.612381859757006,-0.0653630323696183
1633780803045659400,20.180659423828125,-8.654012581026553,-4.612375430016219,-0.06665062449474353
1633780803065538300,20.200538330078125,-8.654594180306791,-4.611347256012261,-0.06211116356735583
1633780803085418500,20.22041845703125,-8.653983939453958,-4.612563646064698,-0.05656626105762552
1633780803105297400,20.24029736328125,-8.652567642915248,-4.615254492583871,-0.05375419474500231
1633780803125176300,20.26017626953125,-8.651979029372335,-4.616359238955378,-0.05356172264651395
1633780803145055200,20.28005517578125,-8.652664673548937,-4.615087027062476,-0.05243117054689209
1633780803164934400,20.299934326171876,-8.65170781121552,-4.616891446135938,-0.051505776497395704
1633780803184814300,20.319814453125,-8.650161166295408,-4.619701827381551,-0.058770100377989
1633780803204693200,20.339693359375,-8.648617443984746,-4.622528575240075,-0.06349044799734838
1633780803224572400,20.359572509765623,-8.648802152901887,-4.622141037227213,-0.0664419273472391
1633780803244451300,20.379451416015623,-8.64881501238346,-4.622048390507698,-0.0710830539842369
1633780803264330500,20.39933056640625,-8.648177299001812,-4.623174471928179,-0.07527501208162866
1633780803284209200,20.419209228515626,-8.64646406534314,-4.626327383001148,-0.07833379686404951
1633780803304089300,20.43908935546875,-8.64409675168991,-4.630638816459476,-0.08463988387146965
1633780803323968500,20.458968505859374,-8.638755975183845,-4.640281966334581,-0.10027801811136305
1633780803343846000,20.478845947265626,-8.632539584887027,-4.6514156470283865,-0.11821967092012055
1633780803363725000,20.49872509765625,-8.627431448093056,-4.660732049167156,-0.12403635784224606
1633780803383603700,20.518603759765625,-8.621057236886024,-4.672646651105582,-0.11889056505216285
1633780803403484000,20.53848388671875,-8.612142109024525,-4.689261685819924,-0.11053391132364049
1633780803423363000,20.558363037109373,-8.601883165338634,-4.708246956796944,-0.10199462190405464
1633780803443241700,20.57824169921875,-8.595703599920869,-4.71974216427952,-0.09109738031462766
1633780803463121000,20.598120849609376,-8.59567963452339,-4.720051668620109,-0.07607662448782938
1633780803482999800,20.617999755859376,-8.600167009070516,-4.712141333886981,-0.056845475291227916
1633780803502879700,20.637879638671876,-8.604618727782368,-4.704084868681431,-0.05006774761748965
1633780803522759000,20.657759033203124,-8.605628197085856,-4.702225796811282,-0.05111160781434737
1633780803542637800,20.677637939453124,-8.604882347154616,-4.703634786826372,-0.04685454859149176
1633780803562517000,20.69751708984375,-8.604786485564707,-4.703859535492956,-0.041723683942481875
1633780803582396000,20.71739599609375,-8.606827051481604,-4.700089953826367,-0.04542188543986995
1633780803602274800,20.73727490234375,-8.61097481881082,-4.692411966544389,-0.052607184700923966
1633780803622155000,20.757155029296875,-8.613057470303774,-4.688538047720492,-0.0568435299293138
1633780803642034000,20.777033935546875,-8.603332779625058,-4.706154952953756,-0.07175030855420045
1633780803661912800,20.796912841796875,-8.594307761648297,-4.722059501311183,-0.10204526524590328
1633780803681792000,20.8167919921875,-8.601728851559757,-4.7081244994610545,-0.11920967747131361
