time,seconds_elapsed,z,y,x
1633780782888157000,0.023156982421875,0.16279003024101257,-0.10203485190868378,0.22293078899383545
1633780782908035800,0.043035888671875,0.10591024160385132,-0.06968285888433456,0.2586788237094879
1633780782927914800,0.062914794921875,0.05865257978439331,-0.032270774245262146,0.18417559564113617
1633780782947794000,0.0827939453125,0.08386807143688202,-0.03684287518262863,0.06232494115829468
1633780782967672800,0.1026728515625,0.13804741203784943,0.0017692223191261292,-0.01317160576581955
1633780782987552800,0.122552734375,0.15084269642829895,0.059576865285634995,-0.02523389831185341
1633780783007432000,0.142431884765625,0.11902384459972382,0.07660156488418579,0.0013193957274779677
1633780783027310800,0.162310791015625,0.07363101094961166,0.014430959708988667,0.02138739824295044
1633780783047190000,0.18218994140625,0.03984534367918968,0.005592546425759792,0.048120856285095215
1633780783067069000,0.20206884765625,0.03300975263118744,-0.007960980758070946,0.06634914875030518
1633780783086947800,0.22194775390625,0.027577422559261322,-0.007448512129485607,0.08021534979343414
1633780783106828000,0.241828125,0.01397433690726757,-0.020070292055606842,0.08852355927228928
1633780783126707000,0.26170703125,0.013598602265119553,-0.02060399390757084,0.08596682548522949
1633780783146585900,0.2815859375,0.040920935571193695,-0.012872031889855862,0.06354202330112457
1633780783166464800,0.30146484375,0.08646351844072342,0.0037335706874728203,0.034698694944381714
1633780783186344000,0.321343994140625,0.09914622455835342,0.005659923888742924,-0.006281398702412844
1633780783206224000,0.341223876953125,0.06998586654663086,-0.0012787673622369766,-0.020975712686777115
1633780783226102800,0.361102783203125,0.05838067829608917,0.018570128828287125,-0.002997188363224268
1633780783245982000,0.38098193359375,0.04791652783751488,-0.003357440233230591,0.021044783294200897
1633780783265860900,0.40086083984375,0.020606739446520805,-0.023078687489032745,0.03485863655805588
1633780783285739800,0.42073974609375,-0.002239817287772894,-0.007881185039877892,0.022481955587863922
1633780783305620000,0.440619873046875,-0.00887884572148323,-0.0022055385634303093,0.02104676142334938
1633780783325499000,0.460498779296875,-0.013489853590726852,0.02163773402571678,0.03716215491294861
1633780783345378000,0.4803779296875,-0.027091877534985542,0.020906254649162292,0.03582450747489929
1633780783365257000,0.500257080078125,-0.06365834921598434,0.061986930668354034,0.022411365061998367
1633780783385135900,0.520135986328125,-0.12343347072601318,0.09875808656215668,0.02125214971601963
1633780783405015000,0.54001513671875,-0.12519527971744537,0.18452277779579163,0.0002507642493583262
1633780783424894700,0.559894775390625,-0.07685930281877518,0.27397623658180237,-0.04988062009215355
1633780783444774000,0.57977392578125,-0.0016241346020251513,0.4691304564476013,-0.12293308228254318
1633780783464653000,0.599653076171875,0.007173876278102398,0.4444369971752167,-0.18702875077724457
1633780783484532000,0.619531982421875,-0.05337201803922653,0.2971065938472748,-0.1453770250082016
1633780783504411000,0.639410888671875,-0.13166503608226776,0.16731467843055725,-0.04290849715471268
1633780783524290800,0.659290771484375,-0.11468558758497238,-0.0017157932743430138,0.035980284214019775
1633780783544170000,0.679169921875,-0.020858606323599815,-0.13369566202163696,0.06011398509144783
1633780783564049000,0.699048828125,0.07585933059453964,-0.06170189753174782,0.01752963848412037
1633780783583927800,0.718927734375,0.13491113483905792,-0.07611013203859329,-0.07854285091161728
1633780783603807000,0.738806884765625,0.14840997755527496,-0.03608077019453049,-0.14756496250629425
1633780783623687000,0.75868701171875,0.14430923759937286,-0.07729674875736237,-0.16942556202411652
1633780783643565800,0.77856591796875,0.1367192566394806,-0.12269840389490128,-0.13642628490924835
1633780783663445000,0.798445068359375,0.138936847448349,-0.12955151498317719,-0.07778710126876831
1633780783683324000,0.818323974609375,0.13462971150875092,-0.09040694683790207,-0.04654205963015556
1633780783703203000,0.838203125,0.12721680104732513,-0.06838864833116531,-0.04208354651927948
1633780783723083000,0.8580830078125,0.11711601912975311,-0.057228587567806244,-0.03879060596227646
1633780783742962000,0.8779619140625,0.1372702419757843,-0.0024978723376989365,0.0029520660173147917
1633780783762841000,0.897841064453125,0.17526556551456451,-0.0215766504406929,0.06177113577723503
1633780783782719700,0.9177197265625,0.1776808351278305,-0.026556331664323807,0.12240250408649445
1633780783802599000,0.937598876953125,0.17022912204265594,-0.024936236441135406,0.15252184867858887
1633780783822477800,0.957477783203125,0.13354839384555817,-0.01302801351994276,0.14434386789798737
1633780783842357800,0.977357666015625,0.07708553224802017,0.01871412806212902,0.11556951701641083
1633780783862237000,0.99723681640625,0.04179411381483078,0.02748434990644455,0.07032663375139236
1633780783882115800,1.01711572265625,0.01231331191956997,-0.024900207296013832,0.03778162598609924
1633780783901995000,1.0369951171875,-0.014095772989094257,-0.07141318917274475,0.004534230567514896
1633780783921874000,1.0568740234375,-0.010742127895355225,-0.08679268509149551,-0.022313836961984634
1633780783941753900,1.07675390625,-0.0025697522796690464,-0.0683446153998375,-0.07293404638767242
1633780783961633000,1.096633056640625,0.01044206228107214,-0.03287120163440704,-0.13060878217220306
1633780783981512000,1.116511962890625,0.02804199978709221,-0.01847551017999649,-0.15009333193302155
1633780784001390800,1.136390869140625,0.05252678319811821,-0.00846921093761921,-0.10942163318395615
1633780784021269800,1.156269775390625,0.06613419950008392,0.00550838652998209,-0.04163984954357147
1633780784041150000,1.17614990234375,0.04793195798993111,-0.0007476452738046646,0.014391445554792881
1633780784061028900,1.19602880859375,0.004809738136827946,-0.047328539192676544,0.03831414878368378
1633780784080907800,1.21590771484375,-0.052359554916620255,-0.09110496938228607,0.02989848144352436
1633780784100787000,1.235786865234375,-0.07937730848789215,-0.09735546261072159,0.0015011932700872421
1633780784120666000,1.255666015625,-0.03936151787638664,-0.07179997116327286,0.006183469668030739
1633780784140544800,1.275544677734375,0.007689125835895538,-0.04209011420607567,0.04069916158914566
1633780784160425000,1.295425048828125,0.019161241129040718,-0.026652652770280838,0.08903507888317108
1633780784180304000,1.315303955078125,0.002677207812666893,-0.012136735953390598,0.12419553101062775
1633780784200183000,1.33518310546875,0.0010032865684479475,0.01673043891787529,0.14650669693946838
1633780784220062000,1.35506201171875,-0.0031139785423874855,0.04768700152635574,0.12678028643131256
1633780784239940900,1.37494091796875,-0.002061685314401984,0.05491180717945099,0.07465352863073349
1633780784259821000,1.394821044921875,-0.0005775925237685442,0.020755162462592125,-0.005941846873611212
1633780784279699700,1.41469970703125,-0.01969560608267784,-0.040200237184762955,-0.09896024316549301
1633780784299579000,1.434578857421875,-0.06147496774792671,-0.11736072599887848,-0.16830873489379883
1633780784319458000,1.4544580078125,-0.07840333878993988,-0.1387060582637787,-0.1897267997264862
1633780784339337200,1.474337158203125,-0.06645288318395615,-0.13740500807762146,-0.175583153963089
1633780784359217000,1.494216796875,-0.02341071330010891,-0.10857227444648743,-0.1154417097568512
1633780784379096000,1.514095947265625,0.04372575506567955,-0.07376734912395477,-0.04067850112915039
1633780784398975000,1.53397509765625,0.09476186335086823,-0.04737728089094162,0.0231472160667181
1633780784418854000,1.55385400390625,0.06969656050205231,0.018861208111047745,0.06058083474636078
1633780784438733000,1.573733154296875,0.009632840752601624,0.03462330996990204,0.0699603334069252
1633780784458612000,1.593612060546875,-0.04796699061989784,-0.0008441237732768059,0.07231923192739487
1633780784478492000,1.613491943359375,-0.09568031877279282,-0.012546508572995663,0.07692984491586685
1633780784498370800,1.633370849609375,-0.12733252346515656,0.0075734928250312805,0.05243846774101257
1633780784518250000,1.65325,-0.1412501335144043,0.006350044161081314,-0.008474740199744701
1633780784538129200,1.673129150390625,-0.14760637283325195,-0.0287812240421772,-0.07218944281339645
1633780784558008000,1.693008056640625,-0.1496657282114029,-0.02192971110343933,-0.08910182863473892
1633780784577888000,1.712887939453125,-0.14546845853328705,-0.005551100242882967,-0.07456976175308228
1633780784597767000,1.732766845703125,-0.12742240726947784,0.019026413559913635,-0.039110321551561356
1633780784617646000,1.75264599609375,-0.08902264386415482,0.0025380756705999374,0.00686985906213522
1633780784637525000,1.77252490234375,-0.031661875545978546,0.03076421096920967,0.02564411796629429
1633780784657404000,1.79240380859375,0.018949653953313828,0.024294506758451462,-0.0040026456117630005
1633780784677284000,1.8122841796875,0.03664669767022133,0.03939365968108177,-0.030130328610539436
1633780784697163000,1.8321630859375,0.03632071986794472,0.023290492594242096,-0.0519869327545166
1633780784717042000,1.8520419921875,0.03073360212147236,0.005334306508302689,-0.04719862714409828
1633780784736921000,1.871921142578125,0.019548803567886353,0.0034927427768707275,-0.02304038777947426
1633780784756800000,1.891800048828125,0.009924329817295074,-0.011346845887601376,-0.009821082465350628
1633780784776679000,1.911678955078125,0.008871318772435188,-0.027127493172883987,-0.005541496444493532
1633780784796559000,1.93155908203125,0.018031587824225426,-0.01258255448192358,-0.003997795283794403
1633780784816438000,1.95143798828125,0.031233401969075203,-0.006029936484992504,-0.0019756958354264498
1633780784836317200,1.971317138671875,0.04715718701481819,0.011272179894149303,0.010283387266099453
1633780784856195800,1.99119580078125,0.04861651360988617,0.04499729722738266,0.025159023702144623
1633780784876075000,2.011074951171875,0.05257871747016907,0.06412137299776077,0.041678402572870255
1633780784895955200,2.030955078125,0.061475545167922974,0.04894739016890526,0.052837200462818146
1633780784915833900,2.050833740234375,0.06410533934831619,0.055954962968826294,0.033167414367198944
1633780784935713000,2.070713134765625,0.05380970612168312,0.06817444413900375,-0.007366693578660488
1633780784955592000,2.090592041015625,0.050421494990587234,0.056816764175891876,-0.04925403371453285
1633780784975471000,2.11047119140625,0.05939827486872673,0.024125751107931137,-0.05824100226163864
1633780784995349800,2.130349853515625,0.06698229908943176,0.00884019210934639,-0.0392240546643734
1633780785015230000,2.15022998046875,0.08462627232074738,-0.004805677104741335,-0.027017761021852493
1633780785035109000,2.170109130859375,0.09646720439195633,-0.00797315314412117,-0.02556302584707737
1633780785054988000,2.189988037109375,0.1064317524433136,0.009776013903319836,-0.010665285401046276
1633780785074867000,2.209866943359375,0.13073615729808807,0.06547495722770691,-0.00017692073015496135
1633780785094746000,2.22974609375,0.15166449546813965,0.02000344544649124,-0.019038492813706398
1633780785114626000,2.2496259765625,0.14115171134471893,0.02817525900900364,-0.04720250517129898
1633780785134505000,2.2695048828125,0.11869294941425323,0.02693316340446472,-0.054368823766708374
1633780785154384000,2.2893837890625,0.10542567819356918,0.04508553445339203,-0.04110919311642647
1633780785174263000,2.309262939453125,0.10497978329658508,0.0500110499560833,-0.0363045260310173
1633780785194142200,2.32914208984375,0.1213860735297203,0.047342389822006226,-0.04527272284030914
1633780785214022000,2.34902197265625,0.12822574377059937,0.05277923867106438,-0.05826978385448456
1633780785233901000,2.368901123046875,0.12384390085935593,0.050397299230098724,-0.054846785962581635
1633780785253780000,2.388780029296875,0.1211198940873146,0.026028400287032127,-0.03244712948799133
1633780785273659000,2.408658935546875,0.11268647015094757,0.014777705073356628,-0.0173440370708704
1633780785293538000,2.4285380859375,0.08171761780977249,0.01231036614626646,-0.02481827512383461
1633780785313421600,2.448421630859375,0.061187583953142166,0.004186305217444897,-0.03906070813536644
1633780785333300500,2.468300537109375,0.05873958393931389,0.008571024052798748,-0.03636486828327179
1633780785353179400,2.488179443359375,0.062430813908576965,0.01093751098960638,-0.019028354436159134
1633780785373058600,2.50805859375,0.05584036558866501,-0.005027600564062595,-0.011337733827531338
1633780785392937500,2.5279375,0.0357307605445385,-0.01139229629188776,-0.006304568145424128
1633780785412816600,2.547816650390625,0.011681737378239632,0.004796966910362244,0.0054410360753536224
1633780785432696600,2.567696533203125,0.0038856188766658306,0.01572481356561184,0.02646159566938877
1633780785452575500,2.587575439453125,-0.012977385893464088,-0.01103152334690094,0.031650688499212265
1633780785472454700,2.60745458984375,-0.04020095616579056,-0.014602737501263618,0.03152431920170784
1633780785492333300,2.627333251953125,-0.06267129629850388,-0.015250397846102715,0.03034254163503647
1633780785512212500,2.64721240234375,-0.08502169698476791,-0.03193344175815582,0.021863287314772606
1633780785532092700,2.6670927734375,-0.11452138423919678,-0.04823792725801468,-0.0007359174196608365
1633780785551971300,2.686971435546875,-0.12911385297775269,-0.05648201331496239,-0.014769882895052433
1633780785571850500,2.7068505859375,-0.12104681879281998,-0.051300033926963806,-0.02238330990076065
1633780785591729400,2.7267294921875,-0.09947314858436584,-0.03814978897571564,-0.026308713480830193
1633780785611608600,2.746608642578125,-0.08444645255804062,-0.019176896661520004,-0.026453113183379173
1633780785631487500,2.766487548828125,-0.06788749992847443,-0.010025199502706528,-0.0058011929504573345
1633780785651367400,2.786367431640625,-0.05976467579603195,-0.02473313920199871,0.016780834645032883
1633780785671246600,2.80624658203125,-0.06355562061071396,-0.016547823324799538,0.02353573404252529
1633780785691125500,2.82612548828125,-0.055151015520095825,0.005273495800793171,0.03245486691594124
1633780785711004400,2.84600439453125,-0.046167757362127304,-0.01591220498085022,0.03988843783736229
1633780785730883600,2.865883544921875,-0.044833868741989136,-0.029922306537628174,0.029460960999131203
1633780785750763500,2.885763427734375,-0.06159752234816551,-0.024252524599432945,0.01726832613348961
1633780785770642400,2.905642333984375,-0.07696449011564255,-0.039451442658901215,-0.0017773467116057873
1633780785790521300,2.925521240234375,-0.08022315055131912,-0.06417171657085419,-0.012854347936809063
1633780785810400500,2.945400390625,-0.07441577315330505,-0.05648856610059738,-0.006952763069421053
1633780785830279700,2.96527978515625,-0.05500054731965065,-0.052801791578531265,-0.003750007366761565
1633780785850159400,2.985159423828125,-0.046759720891714096,-0.05670616030693054,-0.015709178522229195
1633780785870038500,3.00503857421875,-0.05073215812444687,-0.020576294511556625,-0.029725834727287292
1633780785889917700,3.024917724609375,-0.040158744901418686,-0.0162246935069561,-0.010861293412744999
1633780785909796400,3.04479638671875,-0.01654863730072975,-0.031148694455623627,0.01231048908084631
1633780785929675500,3.064675537109375,-0.015538282692432404,-0.028803329914808273,0.004019860178232193
1633780785949554400,3.084554443359375,-0.03174588456749916,-0.005548965185880661,-0.0302556324750185
1633780785969434600,3.1044345703125,-0.023454736918210983,0.008673375472426414,-0.04305259883403778
1633780785989313500,3.1243134765625,-0.017781807109713554,-0.010717988014221191,-0.043378911912441254
1633780786009192400,3.1441923828125,-0.012788042426109314,-0.016105737537145615,-0.020683659240603447
1633780786029071600,3.164071533203125,0.028087951242923737,-0.002374923788011074,0.015001196414232254
1633780786048950500,3.183950439453125,0.10347706079483032,0.014119383879005909,0.059803418815135956
1633780786068830500,3.20383056640625,0.17430780827999115,0.03409457951784134,0.09697532653808594
1633780786088709600,3.223709716796875,0.19068771600723267,0.04692649096250534,0.08062481135129929
1633780786108588500,3.243588623046875,0.15827232599258423,0.0436052605509758,0.05280012637376785
1633780786128467500,3.263467529296875,0.11686927825212479,0.06329996138811111,0.03853476792573929
1633780786148346400,3.283346435546875,0.09688857942819595,0.06292622536420822,0.04010571166872978
1633780786168226600,3.3032265625,0.10664227604866028,0.06417889893054962,0.026722377166152
1633780786188105500,3.32310546875,0.10425563156604767,0.07214228063821793,-0.013409387320280075
1633780786207984400,3.342984375,0.06176243722438812,0.049102745950222015,-0.07224662601947784
1633780786227863600,3.362863525390625,0.0013688531471416354,0.057126931846141815,-0.11070328205823898
1633780786247742500,3.382742431640625,-0.02605690248310566,0.03592471033334732,-0.09996122866868973
1633780786267621600,3.40262158203125,0.004890486132353544,0.10238184779882431,-0.0439436137676239
1633780786287501600,3.42250146484375,0.08062592893838882,0.09050095826387405,0.010639984160661697
1633780786307380500,3.44238037109375,0.1335088014602661,0.0914510041475296,0.07048602402210236
1633780786327260000,3.462260009765625,0.1218307688832283,0.0817641019821167,0.09996891021728516
1633780786347138600,3.482138671875,0.11634430289268494,0.0627565011382103,0.09689963608980179
1633780786367017700,3.502017822265625,0.138117715716362,0.07660254091024399,0.09647776931524277
1633780786386898000,3.52189794921875,0.1613355576992035,0.07733730971813202,0.08939000219106674
1633780786406776600,3.541776611328125,0.18147164583206177,0.050694238394498825,0.0722012147307396
1633780786426655700,3.56165576171875,0.18690241873264313,0.02868649736046791,0.05289077013731003
1633780786446534700,3.58153466796875,0.18198856711387634,0.0376204289495945,0.028835251927375793
1633780786466413800,3.601413818359375,0.17080889642238617,0.023563560098409653,0.007235723081976175
1633780786486293800,3.621293701171875,0.14072918891906738,0.0176711343228817,-0.024422893300652504
1633780786506172700,3.641172607421875,0.10510603338479996,0.011568143032491207,-0.04929831996560097
1633780786526051800,3.6610517578125,0.08208692818880081,-0.007665294222533703,-0.04019355773925781
1633780786545930800,3.6809306640625,0.08045448362827301,-0.01785321533679962,-0.017714405432343483
1633780786565809700,3.7008095703125,0.07507415115833282,0.002124752849340439,-0.01782856322824955
1633780786585689900,3.72068994140625,0.059366095811128616,0.03982623666524887,-0.026230664923787117
1633780786605568800,3.74056884765625,0.056258656084537506,0.042314425110816956,-0.01918608881533146
1633780786625447700,3.76044775390625,0.06073390692472458,0.042109984904527664,-0.008185045793652534
1633780786645326800,3.780326904296875,0.04602201282978058,0.047456905245780945,0.00550655135884881
1633780786665205800,3.800205810546875,0.032562047243118286,0.028985660523176193,0.007686099037528038
1633780786685085000,3.8200849609375,0.023746006190776825,-0.0022044768556952477,-0.0061139995232224464
1633780786704964600,3.839964599609375,0.023440439254045486,-0.0024175290018320084,-0.0187773909419775
1633780786724843800,3.85984375,0.03184760361909866,-0.011009513400495052,-0.027845963835716248
1633780786744723000,3.879722900390625,0.04583551734685898,-0.025484682992100716,-0.037056032568216324
1633780786764601600,3.8996015625,0.030290530994534492,-0.03511687368154526,-0.05502886697649956
1633780786784480800,3.919480712890625,0.01660933345556259,-0.049284640699625015,-0.06194582208991051
1633780786804360700,3.939360595703125,0.02264435775578022,-0.0625370591878891,-0.05210687220096588
1633780786824239600,3.959239501953125,0.046014487743377686,-0.08460215479135513,-0.038140054792165756
1633780786844118800,3.979118896484375,0.05020318180322647,-0.09072554856538773,-0.035554446280002594
1633780786863997700,3.998997802734375,0.03418206423521042,-0.07759413123130798,-0.020530013367533684
1633780786883876900,4.018876953125,0.02299531362950802,-0.04238332808017731,0.01513066329061985
1633780786903756800,4.0387568359375,0.016471588984131813,-0.036942385137081146,0.044802483171224594
1633780786923635700,4.0586357421875,0.011317695491015911,-0.019431937485933304,0.06744121760129929
1633780786943515000,4.078514892578125,-0.00008782465010881424,-0.012595602311193943,0.06904549896717072
1633780786963393800,4.098393798828125,-0.00904905516654253,0.011808187700808048,0.06347156316041946
1633780786983272700,4.118272705078125,-0.02566976100206375,0.019709959626197815,0.052394505590200424
1633780787003153000,4.13815283203125,-0.042900361120700836,0.006067031994462013,0.031478021293878555
1633780787023031800,4.15803173828125,-0.06580338627099991,-0.007963920943439007,0.00011481036199256778
1633780787042910700,4.17791064453125,-0.07376617938280106,-0.026941433548927307,-0.008028090931475163
1633780787062789600,4.19778955078125,-0.06801701337099075,-0.04590988531708717,-0.011499653570353985
1633780787082668800,4.217668701171875,-0.06079040467739105,-0.05879700928926468,-0.022648712620139122
1633780787102547700,4.237547607421875,-0.048884473741054535,-0.04204501584172249,-0.037268247455358505
1633780787122427600,4.257427734375,-0.04126046597957611,-0.042339108884334564,-0.05886220932006836
1633780787142306800,4.277306884765625,-0.01860925182700157,-0.04742300510406494,-0.06231238692998886
1633780787162185700,4.297185791015625,-0.009272264316678047,-0.04128246009349823,-0.04346730560064316
1633780787182065000,4.31706494140625,-0.008875126950442791,-0.030222266912460327,-0.03255593776702881
1633780787201943600,4.336943603515625,-0.006898949854075909,-0.022930797189474106,-0.03552258387207985
1633780787221823700,4.35682373046875,0.006635448429733515,-0.012949716299772263,-0.041769545525312424
1633780787241703000,4.376702880859375,0.005711805075407028,0.0008538924157619476,-0.06277269124984741
1633780787261581600,4.39658154296875,-0.017342718318104744,-0.020426984876394272,-0.09817388653755188
1633780787281460700,4.416460693359375,-0.041781142354011536,-0.047790076583623886,-0.12012253701686859
1633780787301339600,4.436339599609375,-0.07261096686124802,-0.05121907591819763,-0.11564751714468002
1633780787321215700,4.4562158203125,-0.0974511206150055,-0.04266171157360077,-0.09872736781835556
1633780787341095000,4.476094970703125,-0.10462649166584015,-0.03599458187818527,-0.06675589084625244
1633780787360973800,4.495973876953125,-0.09505600482225418,-0.015317881479859352,-0.025934044271707535
1633780787380853000,4.51585302734375,-0.07210469990968704,-0.0034203939139842987,-0.0070509957149624825
1633780787400732000,4.53573193359375,-0.06382947415113449,0.0018712189048528671,-0.01918945647776127
1633780787420611800,4.55561181640625,-0.05073383450508118,0.0049232905730605125,-0.02964709885418415
1633780787440491000,4.575490966796875,-0.019331369549036026,-0.01609739661216736,-0.02686206065118313
1633780787460370000,4.595369873046875,0.02199869230389595,-0.024837002158164978,-0.007774557918310165
1633780787480248800,4.615248779296875,0.06563146412372589,-0.01439599134027958,0.007140000816434622
1633780787500127700,4.635127685546875,0.0836271196603775,0.007549171335995197,0.00005344348028302193
1633780787520008000,4.655008056640625,0.10267962515354156,0.02491217851638794,-0.014126481488347054
1633780787539886800,4.674886962890625,0.11499395221471786,0.0351860336959362,-0.015491162426769733
1633780787559765800,4.694765869140625,0.12414897978305817,0.05737505480647087,-0.003475245088338852
1633780787579645000,4.71464501953125,0.11131718754768372,0.04587800055742264,0.0020933104678988457
1633780787599524000,4.734524169921875,0.0977921411395073,0.036115389317274094,0.008175646886229515
1633780787619403800,4.75440380859375,0.0957123264670372,0.027646444737911224,0.023027030751109123
1633780787639283000,4.774282958984375,0.10226523876190186,0.01603550836443901,0.022293196991086006
1633780787659161900,4.794161865234375,0.09195307642221451,0.019479241222143173,0.015100302174687386
1633780787679041000,4.814041015625,0.07927297055721283,0.021129868924617767,0.007306828163564205
1633780787698920000,4.833919921875,0.05764071270823479,0.013296090066432953,0.0031181136146187782
1633780787718798800,4.853798828125,0.04781782999634743,-0.001454891636967659,0.010381408035755157
1633780787738679000,4.873678955078125,0.04503588750958443,0.0006445692852139473,0.012863853946328163
1633780787758557700,4.8935576171875,0.03793277591466904,0.015332520939409733,0.0013361533638089895
1633780787778436900,4.913436767578125,0.03499573841691017,0.01617436297237873,-0.011415517888963223
1633780787798316000,4.93331591796875,0.054549798369407654,0.001312321051955223,-0.009654616005718708
1633780787818195000,4.95319482421875,0.06229158490896225,0.003605291247367859,-0.028354648500680923
1633780787838075000,4.973074951171875,0.05029391124844551,0.021483181044459343,-0.04726168140769005
1633780787857954000,4.9929541015625,0.05742552876472473,0.005807815119624138,-0.046879805624485016
1633780787877833000,5.0128330078125,0.07398711144924164,-0.001414586789906025,-0.027318187057971954
1633780787897711900,5.0327119140625,0.08891154825687408,0.0201753918081522,-0.003466172143816948
1633780787917590800,5.0525908203125,0.10902414470911026,0.016047757118940353,0.022108925506472588
1633780787937471000,5.072470947265625,0.11809419840574265,0.004380892962217331,0.046504199504852295
1633780787957350000,5.092349853515625,0.11080985516309738,0.010463818907737732,0.05685189366340637
1633780787977228800,5.112228759765625,0.0984821692109108,0.021334495395421982,0.04819085821509361
1633780787997108000,5.13210791015625,0.08431228250265121,0.02452203258872032,0.03928684815764427
1633780788016987000,5.15198681640625,0.0579264760017395,0.011058061383664608,0.02112511731684208
1633780788036866800,5.17186669921875,0.019431205466389656,0.017066150903701782,0.002044422086328268
1633780788056746000,5.19174609375,-0.004626053385436535,0.013797654770314693,-0.014726072549819946
1633780788076625000,5.211625,-0.0061402590945363045,0.009787376970052719,-0.015353875234723091
1633780788096504000,5.231504150390625,-0.001918107271194458,0.019762957468628883,-0.014045695774257183
1633780788116382700,5.2513828125,0.011010373011231422,0.013989763334393501,-0.011464746668934822
1633780788136263000,5.271262939453125,0.018620342016220093,-0.0003278423100709915,-0.016791146248579025
1633780788156142000,5.29114208984375,0.013402828946709633,-0.010218096897006035,-0.02520163729786873
1633780788176020700,5.311020751953125,0.003334401175379753,-0.0009626494720578194,-0.019355978816747665
1633780788195900000,5.33089990234375,0.000009885290637612343,0.0001942310482263565,-0.005002209916710854
1633780788215778800,5.35077880859375,0.01345855463296175,0.009237272664904594,0.00939858891069889
1633780788235659000,5.370658935546875,0.0104110948741436,-0.018911639228463173,0.003886873833835125
1633780788255538000,5.390537841796875,-0.004469797946512699,-0.0396781787276268,-0.010672266595065594
1633780788275416800,5.410416748046875,-0.015178309753537178,-0.02897138148546219,-0.013183229602873325
1633780788295296000,5.4302958984375,-0.015352204442024231,-0.009566702879965305,0.0012178532779216766
1633780788315175000,5.4501748046875,-0.02150149643421173,-0.00891422014683485,0.010856004431843758
1633780788335054600,5.4700546875,-0.03733779862523079,-0.012058001942932606,0.012520118616521358
1633780788354933800,5.489933837890625,-0.05119943246245384,-0.01331962738186121,0.011026616208255291
1633780788374813000,5.50981298828125,-0.06064370274543762,-0.004514502361416817,0.00688968226313591
1633780788394691600,5.529691650390625,-0.06943241506814957,0.007300339639186859,-0.0029887049458920956
1633780788414570800,5.54957080078125,-0.058150675147771835,-0.00029783695936203003,0.0003584882942959666
1633780788434450700,5.56945068359375,-0.0542428120970726,-0.017047878354787827,-0.0028930974658578634
1633780788454329900,5.589329833984375,-0.08190539479255676,0.004499227739870548,-0.021297423169016838
1633780788474208800,5.609208740234375,-0.10098142176866531,0.023572877049446106,-0.021999070420861244
1633780788494087700,5.629087646484375,-0.09405812621116638,0.03660212829709053,0.023157449439167976
1633780788513966800,5.648966796875,-0.09654824435710907,0.03393745422363281,0.04911910369992256
1633780788533845800,5.668845703125,-0.12774191796779633,0.009339702315628529,0.024797501042485237
1633780788553725700,5.6887255859375,-0.1476689577102661,-0.02021375484764576,-0.009800443425774574
1633780788573604900,5.70860498046875,-0.14984023571014404,-0.005337158218026161,-0.024466052651405334
1633780788593483800,5.72848388671875,-0.12387401610612869,-0.00946106482297182,-0.01773194596171379
1633780788613362700,5.74836279296875,-0.0847867950797081,-0.028292272239923477,0.005411115009337664
1633780788633241600,5.76824169921875,-0.05469721555709839,-0.012989930808544159,0.021613938733935356
1633780788653121800,5.788121826171875,-0.029643386602401733,-0.01154622808098793,0.03248146176338196
1633780788673000700,5.808000732421875,-0.0015033753588795662,-0.019113602116703987,0.025627626106142998
1633780788692879600,5.827879638671875,0.026298047974705696,-0.011021049693226814,0.014642772264778614
1633780788712758800,5.8477587890625,0.04593619704246521,-0.0025743022561073303,0.005300669930875301
1633780788732637700,5.8676376953125,0.05239495262503624,-0.007993662729859352,-0.005300062708556652
1633780788752517600,5.887517578125,0.0545649416744709,-0.007046906277537346,0.0015310387825593352
1633780788772396800,5.907396728515625,0.06333655118942261,-0.004910341929644346,0.008571431040763855
1633780788792275700,5.927275634765625,0.05627737194299698,-0.002222326584160328,0.003379464615136385
1633780788812155000,5.94715478515625,0.04228997975587845,-0.0017203204333782196,-0.0023042350076138973
1633780788832033500,5.967033447265625,0.032691024243831635,-0.012960013002157211,-0.0027185077778995037
1633780788851913700,5.986913818359375,0.024802811443805695,-0.019458744674921036,-0.00003866403130814433
1633780788871793000,6.00679296875,0.010483995079994202,-0.024019941687583923,-0.00007117335917428136
1633780788891671600,6.026671630859375,0.0003497202415019274,-0.011435797438025475,0.0016084812814369798
1633780788911550700,6.04655078125,0.007883341982960701,-0.006788227241486311,0.011653183959424496
1633780788931430000,6.066429931640625,0.021595632657408714,-0.024429891258478165,0.018279261887073517
1633780788951309600,6.0863095703125,0.02911531738936901,-0.008757634088397026,0.026003150269389153
1633780788971188700,6.106188720703125,0.03418232500553131,-0.011167529039084911,0.045127253979444504
1633780788991067600,6.126067626953125,0.046425484120845795,-0.03157426416873932,0.060578592121601105
1633780789010946800,6.14594677734375,0.02802763693034649,-0.008144393563270569,0.0578378364443779
1633780789030825700,6.16582568359375,-0.0017134260851889849,0.013610078021883965,0.042001329362392426
1633780789050705700,6.18570556640625,-0.012810480780899525,-0.012088005430996418,0.05094854161143303
1633780789070584800,6.205584716796875,-0.006062086671590805,-0.02922242134809494,0.047917887568473816
1633780789090463700,6.225463623046875,-0.012676984071731567,-0.005688338074833155,0.01811928115785122
1633780789110342700,6.2453427734375,-0.01779400371015072,0.008016197942197323,-0.02156231552362442
1633780789130221800,6.265221923828125,-0.01729464717209339,0.010001849383115768,-0.03484490513801575
1633780789150101800,6.285101806640625,-0.013019736856222153,0.013197556138038635,-0.023070650175213814
1633780789169980700,6.304980712890625,-0.01001398079097271,0.013689441606402397,-0.0025072074495255947
1633780789189859600,6.324859619140625,0.009408269077539444,0.029628101736307144,0.02692348323762417
1633780789209738800,6.34473876953125,0.03698950260877609,0.055662814527750015,0.04969923570752144
1633780789229618000,6.364617919921875,0.05607876181602478,0.06592077016830444,0.047094207257032394
1633780789249497600,6.38449755859375,0.05125640705227852,0.058224454522132874,0.03189868479967117
1633780789269376800,6.404376708984375,0.05310240760445595,0.06826018542051315,0.024075821042060852
1633780789289256000,6.424255859375,0.05651266872882843,0.0525040328502655,0.016921335831284523
1633780789309134800,6.444134765625,0.054377421736717224,0.051342371851205826,0.01031504012644291
1633780789329013500,6.464013427734375,0.060201868414878845,0.07541760802268982,0.007466902956366539
1633780789348893700,6.483893798828125,0.07989541441202164,0.06506963074207306,-0.008283830247819424
1633780789368772900,6.50377294921875,0.08733642846345901,0.04926794022321701,-0.03436218947172165
1633780789388651500,6.523651611328125,0.06950695812702179,0.03233715891838074,-0.06436239182949066
1633780789408530700,6.54353076171875,0.04963379725813866,0.02560850977897644,-0.07370182871818542
1633780789428409600,6.56340966796875,0.04043896496295929,0.022381912916898727,-0.051822785288095474
1633780789448288800,6.583288818359375,0.03525364771485329,0.020733412355184555,-0.03118751011788845
1633780789468168700,6.603168701171875,0.025217784568667412,0.02511289156973362,-0.02286224067211151
1633780789488047600,6.623047607421875,0.010093237273395061,0.05110853910446167,-0.007643396500498056
1633780789507926800,6.6429267578125,-0.016929244622588158,0.05778518691658974,-0.013068009167909622
1633780789527805400,6.662805419921875,-0.04782833531498909,0.07133179157972336,-0.018111923709511757
1633780789547685600,6.682685546875,-0.07170451432466507,0.08722766488790512,-0.007356178015470505
1633780789567564800,6.702564697265625,-0.08035950362682343,0.0801822692155838,0.0016644076677039266
1633780789587443700,6.722443603515625,-0.07718269526958466,0.059591151773929596,-0.008421307429671288
1633780789607322600,6.742322509765625,-0.06393272429704666,0.05520226061344147,-0.02605765126645565
1633780789627201500,6.762201416015625,-0.04636770486831665,0.05953478440642357,-0.04403790831565857
1633780789647080700,6.782080810546875,-0.035905152559280396,0.0598461888730526,-0.05305816978216171
1633780789666960600,6.801960693359375,-0.02059503085911274,0.05559046193957329,-0.03386799991130829
1633780789686839600,6.821839599609375,-0.002693019574508071,0.04101116955280304,0.012027355842292309
1633780789706718700,6.84171875,0.011226944625377655,0.02421780303120613,0.03205953910946846
1633780789726597600,6.86159765625,-0.0027229769621044397,0.03807725012302399,0.012981642037630081
1633780789746476500,6.8814765625,-0.02991771697998047,0.03315164893865585,-0.007219842169433832
1633780789766356700,6.901356689453125,-0.03838500380516052,-0.004345560446381569,-0.0018979120068252087
1633780789786235600,6.921235595703125,-0.04542376101016998,-0.01437370851635933,0.01368199847638607
1633780789806114600,6.941114501953125,-0.06963275372982025,0.0038126641884446144,0.023325173184275627
1633780789825993700,6.96099365234375,-0.08826882392168045,-0.0010926127433776855,0.023264775052666664
1633780789845872600,6.98087255859375,-0.10087071359157562,-0.018535250797867775,0.02150261588394642
1633780789865752600,7.000752685546875,-0.10629003494977951,-0.011694302782416344,0.03233131393790245
1633780789885631500,7.020631591796875,-0.11608483642339706,-0.002673279494047165,0.029098179191350937
1633780789905510700,7.0405107421875,-0.10797141492366791,-0.014403089880943298,0.015815572813153267
1633780789925389800,7.060389892578125,-0.09843730926513672,-0.023172082379460335,-0.0030150325037539005
1633780789945268700,7.080268798828125,-0.09327644854784012,-0.013895224779844284,-0.02500922605395317
1633780789965148700,7.100148681640625,-0.09293940663337708,-0.010311323218047619,-0.0440945029258728
1633780789985027600,7.120027587890625,-0.0843668207526207,-0.02152296155691147,-0.039319224655628204
1633780790004906800,7.13990673828125,-0.06791128218173981,-0.024388346821069717,-0.023262303322553635
1633780790024785700,7.15978564453125,-0.045089054852724075,-0.030132252722978592,-0.004620442166924477
1633780790044664600,7.17966455078125,-0.01809358410537243,-0.022135041654109955,-0.00008540222188457847
1633780790064544800,7.199544677734375,-0.0031349461060017347,-0.0020415829494595528,-0.0032783232163637877
1633780790084423700,7.219423583984375,0.010115870274603367,-0.0028334325179457664,0.002337446203455329
1633780790104302600,7.239302490234375,0.013470789417624474,-0.013751505874097347,0.005905891768634319
1633780790124181800,7.259181640625,0.01254739984869957,-0.0018704337999224663,0.013247637078166008
1633780790144060700,7.279060791015625,0.015178253874182701,-0.002094312570989132,0.015117878094315529
1633780790163940600,7.298940673828125,0.0202091783285141,-0.00715210335329175,0.01198255829513073
1633780790183819800,7.31881982421875,0.021957334131002426,0.005316640250384808,0.0031114351004362106
1633780790203698700,7.33869873046875,0.012695277109742165,0.0037209615111351013,-0.005393101833760738
1633780790223577900,7.358577880859375,0.007988518103957176,-0.0000071926042437553406,-0.0036116018891334534
1633780790243456500,7.37845654296875,-0.000009058741852641106,-0.002651623450219631,-0.0031083370558917522
1633780790263336700,7.398336669921875,-0.014836951158940792,-0.022356711328029633,-0.019686535000801086
1633780790283216000,7.4182158203125,-0.03198404610157013,-0.012214062735438347,-0.05513722449541092
1633780790303094500,7.438094482421875,-0.035107266157865524,-0.0022565918043255806,-0.07927299290895462
1633780790322973700,7.4579736328125,-0.018206382170319557,-0.01241433247923851,-0.07238676398992538
1633780790342852900,7.477852783203125,0.009175913408398628,-0.015138566493988037,-0.02726336009800434
1633780790362732800,7.49773291015625,0.021312864497303963,0.002314191311597824,0.004739084746688604
1633780790382611700,7.51761181640625,0.0202071163803339,0.010737325996160507,0.003441173816099763
1633780790402491000,7.537490966796875,0.015549232251942158,-0.020857879891991615,-0.005617494694888592
1633780790422369800,7.557369873046875,0.024579036980867386,-0.046440742909908295,-0.005323612131178379
1633780790442248700,7.577248779296875,0.04466871917247772,-0.023200932890176773,0.008290771394968033
1633780790462129000,7.59712890625,0.06084237992763519,-0.005424680653959513,0.030639830976724625
1633780790482007800,7.6170078125,0.05719209089875221,-0.04895946756005287,0.04438767582178116
1633780790501886700,7.63688671875,0.029425116255879402,0.0019414369016885757,0.062271203845739365
1633780790521765600,7.656765625,0.01683649979531765,-0.005159256514161825,0.057086557149887085
1633780790541644800,7.676644775390625,0.020578699186444283,-0.018063873052597046,0.02843952551484108
1633780790561525000,7.69652490234375,0.010244052857160568,-0.011204265058040619,-0.008451951667666435
1633780790581403600,7.716403564453125,0.0011200502049177885,-0.018536405637860298,-0.04457620903849602
1633780790601282800,7.73628271484375,-0.007384218275547028,-0.00834936834871769,-0.057852715253829956
1633780790621161700,7.75616162109375,-0.011985767632722855,-0.009574426338076591,-0.054692838340997696
1633780790641041000,7.776041015625,0.0012237697374075651,-0.025881849229335785,-0.0453513041138649
1633780790660919800,7.795919921875,0.017849471420049667,-0.03392903134226799,-0.0463130846619606
1633780790680799700,7.8157998046875,0.04188863933086395,-0.015306170098483562,-0.049837663769721985
1633780790700679000,7.835678955078125,0.07114573568105698,0.015378151088953018,-0.03086572326719761
1633780790720557600,7.8555576171875,0.0772179588675499,0.011136184446513653,0.008172888308763504
1633780790740436700,7.875436767578125,0.07177076488733292,0.006127392873167992,0.04545548930764198
1633780790760316000,7.89531591796875,0.054002102464437485,0.00436162855476141,0.06652282178401947
1633780790780195800,7.91519580078125,0.04483417049050331,-0.010724911466240883,0.05380569398403168
1633780790800074800,7.93507470703125,0.039201732724905014,0.007477539591491222,0.02543892338871956
1633780790819953700,7.95495361328125,0.04425227642059326,0.005157827399671078,0.005214611534029245
1633780790839832800,7.974832763671875,0.044085144996643066,0.001092156395316124,0.007544077001512051
1633780790859712000,7.9947119140625,0.03641071170568466,0.011281675659120083,0.020712608471512794
1633780790879591700,8.014591796875,0.021596508100628853,0.000949423760175705,0.022547870874404907
1633780790899470800,8.034470947265625,0.009491232223808765,-0.0469026193022728,0.0014524399302899837
1633780790919349800,8.054349853515625,0.018031245097517967,-0.04997892677783966,-0.01708957366645336
1633780790939228700,8.074228759765624,0.04122359678149223,-0.02777162380516529,-0.024916430935263634
1633780790959107800,8.09410791015625,0.049959346652030945,-0.005362370517104864,-0.016654033213853836
1633780790978987800,8.11398779296875,0.03441840782761574,-0.007772797718644142,0.009728820063173771
1633780790998866700,8.13386669921875,0.02797243930399418,-0.02447827160358429,0.03863973543047905
1633780791018745900,8.153745849609376,0.03198881447315216,-0.013700373470783234,0.052790042012929916
1633780791038624800,8.173624755859375,0.00712899025529623,-0.011429494246840477,0.01581878401339054
1633780791058504000,8.19350390625,-0.018984220921993256,-0.01724255457520485,-0.02359972521662712
1633780791078383600,8.213383544921875,-0.018888767808675766,-0.02668106183409691,-0.022686682641506195
1633780791098262800,8.2332626953125,-0.027454087510704994,-0.03563966974616051,-0.014439957216382027
1633780791118142000,8.253141845703125,-0.05391405522823334,-0.028110291808843613,-0.010792681016027927
1633780791138020900,8.273020751953124,-0.0663941502571106,-0.010149757377803326,-0.008794092573225498
1633780791157899800,8.292899658203124,-0.057697854936122894,-0.022171884775161743,0.006431276910007
1633780791177779700,8.31277978515625,-0.03908902406692505,-0.030548684298992157,0.016803452745079994
1633780791197659000,8.332658935546876,-0.02892468497157097,-0.007993660867214203,0.022875458002090454
1633780791217537800,8.352537841796876,-0.02030542865395546,-0.004125420935451984,0.01732754148542881
1633780791237416700,8.372416748046875,-0.02076946385204792,-0.015128000639379025,0.0020073289051651955
1633780791257296000,8.3922958984375,-0.02809949219226837,-0.03724564611911774,-0.009782505221664906
1633780791277174800,8.4121748046875,-0.023763403296470642,-0.03955638408660889,-0.021084865555167198
1633780791297054700,8.4320546875,-0.006016299594193697,-0.024905800819396973,-0.022764502093195915
1633780791316934000,8.451933837890625,0.019032277166843414,-0.014607086777687073,-0.017117897048592567
1633780791336817000,8.47181689453125,0.042589206248521805,-0.017206061631441116,-0.007928145118057728
1633780791356695600,8.491695556640625,0.04756272956728935,-0.014013721607625484,-0.00907735712826252
1633780791376574700,8.51157470703125,0.04241648316383362,-0.009837724268436432,-0.010128183290362358
1633780791396455000,8.531454833984375,0.03471643477678299,-0.007081877905875444,-0.001608292805030942
1633780791416333600,8.55133349609375,0.03117176704108715,-0.006994260009378195,0.010302162729203701
1633780791436212700,8.571212646484375,0.025784045457839966,-0.016387857496738434,0.021745232865214348
1633780791456091600,8.591091552734374,0.023549038916826248,-0.0207806508988142,0.017709646373987198
1633780791475970800,8.610970703125,0.014151575043797493,-0.016269955784082413,0.003919687587767839
1633780791495850800,8.630850830078124,0.017114318907260895,-0.009457867592573166,0.009567338041961193
1633780791515729700,8.650729736328126,0.023429011926054955,-0.005991675425320864,0.013341361656785011
1633780791535608800,8.67060888671875,0.02647748589515686,0.005289764143526554,0.014157981611788273
1633780791555487700,8.69048779296875,0.030009964480996132,0.005984213203191757,0.015188606455922127
1633780791575366700,8.71036669921875,0.021399088203907013,-0.012014946900308132,0.013811657205224037
1633780791595246800,8.730246826171875,0.010263146832585335,-0.01580205000936985,0.020546963438391685
1633780791615125800,8.750125732421875,0.01158427819609642,-0.021079368889331818,0.022647112607955933
1633780791635004700,8.770004638671875,0.027818497270345688,-0.019156746566295624,0.0061103650368750095
1633780791654883800,8.7898837890625,0.019896678626537323,0.003029082901775837,-0.031400296837091446
1633780791674762800,8.8097626953125,0.0073412018828094006,0.009386132471263409,-0.031533338129520416
1633780791694642000,8.829641845703126,0.012176095508038998,-0.023707643151283264,-0.000261114037130028
1633780791714521600,8.849521484375,0.017473384737968445,-0.02821948379278183,0.026549575850367546
1633780791734400800,8.86940087890625,0.0015023488085716963,-0.010054945945739746,0.028138551861047745
1633780791754280000,8.889280029296875,0.0027565055061131716,0.0036755194887518883,0.026810642331838608
1633780791774158600,8.90915869140625,0.01569526456296444,-0.0018469076603651047,0.02893129736185074
1633780791794037800,8.929037841796875,0.020055722445249557,0.003609907813370228,0.030888738110661507
1633780791813917700,8.948917724609375,0.011769376695156097,-0.010374248959124088,0.02845725603401661
1633780791833796900,8.968796875,0.018640318885445595,-0.014357996173202991,0.029128827154636383
1633780791853675800,8.98867578125,0.025693843141198158,-0.013853675685822964,0.026406925171613693
1633780791873554700,9.0085546875,0.02524036355316639,0.0051548071205616,0.020248079672455788
1633780791893433900,9.028433837890624,0.021441694349050522,0.009600687772035599,0.006097391713410616
1633780791913313500,9.0483134765625,0.005999959073960781,-0.005247675813734531,-0.015104241669178009
1633780791933192700,9.068192626953126,-0.020139696076512337,-0.027284976094961166,-0.03243976831436157
1633780791953071900,9.08807177734375,-0.030696198344230652,-0.04684615880250931,-0.03632984682917595
1633780791972950800,9.10795068359375,-0.03821330517530441,-0.016535218805074692,-0.026751842349767685
1633780791992829700,9.12782958984375,-0.0343269445002079,0.004097813740372658,-0.012339805252850056
1633780792012710000,9.1477099609375,-0.02289034239947796,-0.015832673758268356,0.003481141058728099
1633780792032588800,9.1675888671875,-0.017346834763884544,-0.0020710518583655357,0.003691492835059762
1633780792052467700,9.1874677734375,-0.018715567886829376,0.02568059042096138,-0.01044730469584465
1633780792072346600,9.2073466796875,-0.009450764395296574,0.031044553965330124,-0.0036111422814428806
1633780792092225800,9.227225830078124,0.005614404566586018,0.018235106021165848,0.020146746188402176
1633780792112104700,9.247104736328126,0.01515137031674385,-0.010824691504240036,0.03225764259696007
1633780792131984600,9.266984619140626,0.012001005001366138,-0.04075923189520836,0.01046796329319477
1633780792151863800,9.28686376953125,0.010679207742214203,-0.0334196537733078,-0.013040349818766117
1633780792171742700,9.30674267578125,0.013681922107934952,-0.030982062220573425,-0.028338078409433365
1633780792191622000,9.326621826171875,0.015062106773257256,-0.048870958387851715,-0.02083481289446354
1633780792211500500,9.34650048828125,0.012753421440720558,-0.023507341742515564,0.0016221008263528347
1633780792231380700,9.366380615234375,0.005357397720217705,0.009704195894300938,0.012470526620745659
1633780792251260000,9.386260009765625,-0.009578926488757133,0.0012461813166737556,0.0059905992820858955
1633780792271138600,9.406138671875,-0.009841715916991234,-0.004290799610316753,0.0044092340394854546
1633780792291017700,9.426017822265624,-0.009401900693774223,0.02987302467226982,0.008487104438245296
1633780792310896600,9.445896728515624,-0.013015277683734894,0.03515380620956421,-0.0074007827788591385
1633780792330773000,9.46577294921875,-0.01104660052806139,0.004463719204068184,-0.013441193848848343
1633780792350652000,9.48565185546875,-0.003379973815754056,-0.004629823379218578,-0.00687926122918725
1633780792370530800,9.50553076171875,-0.0012886563781648874,0.027200544252991676,-0.0011465589050203562
1633780792390410000,9.525409912109374,0.005068594589829445,0.03216477110981941,-0.013844281435012817
1633780792410289000,9.545288818359374,0.0077077168971300125,0.01110067404806614,-0.02706720121204853
1633780792430168800,9.5651689453125,0.008351999334990978,-0.011431533843278885,-0.029754575341939926
1633780792450048000,9.585048095703126,0.02118743024766445,-0.016856839880347252,-0.014316365122795105
1633780792469927000,9.604927001953126,0.03362790867686272,-0.004198922775685787,-0.00026288500521332026
1633780792489805800,9.624805908203125,0.046648059040308,0.010617134161293507,0.01825668103992939
1633780792509684700,9.644684814453125,0.05190180242061615,0.0007145190611481667,0.02676563337445259
1633780792529564000,9.66456396484375,0.05063261091709137,0.01169340405613184,0.03180214762687683
1633780792549443800,9.68444384765625,0.04725572466850281,0.01779523864388466,0.024486443027853966
1633780792569322800,9.70432275390625,0.026630261912941933,0.011670851148664951,0.014504553750157356
1633780792589202000,9.724201904296875,0.009873999282717705,-0.0019196094945073128,0.0036493386141955853
1633780792609081000,9.7440810546875,0.00010451930575072765,-0.017498750239610672,0.005517146550118923
1633780792628960000,9.7639599609375,-0.008488173596560955,-0.025899870321154594,-0.00735273165628314
1633780792648840000,9.78383984375,-0.020580915734171867,-0.002199597656726837,-0.012454320676624775
1633780792668718800,9.80371875,-0.034327954053878784,-0.0033543435856699944,-0.010032461024820805
1633780792688598000,9.823597900390626,-0.0371316522359848,-0.03567960113286972,-0.0015776290092617273
1633780792708477000,9.843476806640625,-0.04342949762940407,-0.039602089673280716,-0.0004717698902823031
1633780792728355800,9.86335595703125,-0.04756560176610947,-0.009383388794958591,0.006124289706349373
1633780792748236000,9.883236083984375,-0.04815443977713585,-0.009469764307141304,0.011862031184136868
1633780792768114700,9.90311474609375,-0.04615846648812294,-0.013509157113730907,0.015285087749361992
1633780792787993900,9.922993896484375,-0.04427399858832359,-0.004227242898195982,0.02868310920894146
1633780792807873000,9.942873046875,-0.03999863564968109,-0.0168435238301754,0.03232039511203766
1633780792827752000,9.962751953125,-0.04577294737100601,-0.03743623197078705,0.015556389465928078
1633780792847631000,9.982631103515626,-0.05514787882566452,-0.009923919104039669,-0.0015487712807953358
1633780792867510800,10.0025107421875,-0.04937202110886574,0.006504940800368786,0.003648234996944666
1633780792887390000,10.022389892578126,-0.036148104816675186,-0.015275543555617332,0.019899604842066765
1633780792907269000,10.04226904296875,-0.044515274465084076,-0.035020217299461365,0.013857596553862095
1633780792927147800,10.062147705078125,-0.0508403405547142,-0.0107274753972888,0.002492956118658185
1633780792947027000,10.08202685546875,-0.04151923581957817,0.0024047382175922394,-0.0027835089713335037
1633780792966907100,10.1019072265625,-0.035576920956373215,-0.005115761887282133,-0.018798427656292915
1633780792986785800,10.121785888671875,-0.03791424632072449,0.006565483286976814,-0.028895460069179535
1633780793006665000,10.1416650390625,-0.027391619980335236,0.013825704343616962,-0.007984718307852745
1633780793026543900,10.1615439453125,-0.008203541859984398,0.0019455235451459885,0.023027945309877396
1633780793046423000,10.181423095703124,-0.005338910035789013,0.015994854271411896,0.018593857064843178
1633780793066303000,10.201302978515624,-0.001919209724292159,0.031755443662405014,-0.002638213336467743
1633780793086182000,10.221181884765626,0.013013603165745735,-0.003744225949048996,-0.03644653037190437
1633780793106061000,10.24106103515625,0.026684660464525223,0.0055697280913591385,-0.05795695632696152
1633780793125940000,10.26093994140625,0.061864420771598816,0.06890449672937393,-0.03022974170744419
1633780793145819000,10.28081884765625,0.09092271327972412,0.06623449921607971,0.016247516497969627
1633780793165699000,10.300698974609375,0.09347107261419296,0.02852848544716835,0.051915958523750305
1633780793185578000,10.320577880859375,0.07234470546245575,0.0051612937822937965,0.04944300279021263
1633780793205457000,10.340456787109375,0.0442546047270298,-0.02976233884692192,0.008073229342699051
1633780793225335800,10.360335693359374,0.020068956539034843,-0.03840882331132889,-0.03094090335071087
1633780793245215000,10.380215087890624,0.007347120903432369,-0.050448354333639145,-0.04884029179811478
1633780793265094000,10.400093994140626,-0.009695075452327728,-0.0681268572807312,-0.05306728556752205
1633780793284973800,10.419973876953126,-0.023202210664749146,-0.06073756515979767,-0.04398350417613983
1633780793304853000,10.43985302734375,-0.02486547827720642,-0.019077293574810028,-0.020020797848701477
1633780793324733000,10.45973291015625,0.0021672549191862345,-0.0035990020260214806,0.007938491180539131
1633780793344612000,10.479612060546875,0.04194004461169243,0.014331527054309845,0.026902539655566216
1633780793364491000,10.499490966796875,0.06736797094345093,0.04060378670692444,0.03572363033890724
1633780793384371000,10.519370849609375,0.07279451191425323,0.0352226123213768,0.025007281452417374
1633780793404250000,10.53925,0.06580975651741028,0.029265468940138817,0.02011309377849102
1633780793424129000,10.55912890625,0.05796629935503006,0.017536653205752373,0.02731681428849697
1633780793444008200,10.57900830078125,0.05602297559380531,0.005269678309559822,0.026708204299211502
1633780793463887000,10.59888720703125,0.04274465888738632,-0.02398115023970604,0.008936379104852676
1633780793483767000,10.61876708984375,0.024736948311328888,-0.024961017072200775,-0.018981292843818665
1633780793503646200,10.638646240234374,0.014423266984522343,-0.017117297276854515,-0.03185408189892769
1633780793523525000,10.658525146484376,0.015392260625958443,-0.025982338935136795,-0.02072332240641117
1633780793543404000,10.678404052734376,0.012900620698928833,-0.031215794384479523,0.0012691384181380272
1633780793563283000,10.698282958984375,-0.0017044309061020613,-0.017394263297319412,0.008665611036121845
1633780793583162000,10.718162109375,-0.014420099556446075,-0.002199600450694561,0.01369050145149231
1633780793603042000,10.7380419921875,-0.016667556017637253,0.01739860326051712,0.028308134526014328
1633780793622921000,10.7579208984375,-0.005745727568864822,0.023435454815626144,0.053576190024614334
1633780793642800000,10.777800048828125,-0.013768482953310013,0.007594355382025242,0.049912553280591965
1633780793662679000,10.797678955078124,-0.039240892976522446,0.0015648659318685532,0.03146398067474365
1633780793682559000,10.81755908203125,-0.05620615556836128,-0.015275808982551098,0.021388255059719086
1633780793702438100,10.837438232421874,-0.06834065914154053,-0.037476278841495514,0.02085716277360916
1633780793722317000,10.857317138671876,-0.0746430903673172,-0.031152866780757904,0.007862516678869724
1633780793742196000,10.877196044921876,-0.0796840563416481,-0.025209933519363403,0.002537868218496442
1633780793762075000,10.897074951171875,-0.08306345343589783,-0.024598538875579834,0.020567238330841064
1633780793781954000,10.9169541015625,-0.08294501900672913,-0.020281927660107613,0.055584099143743515
1633780793801834000,10.936833984375,-0.07936566323041916,-0.011689594015479088,0.07250359654426575
1633780793821713000,10.956712890625,-0.10118754953145981,-0.0015172101557254791,0.05483963340520859
1633780793841592000,10.976592041015625,-0.11867180466651917,0.008342965506017208,0.027143383398652077
1633780793861471000,10.996470947265625,-0.10555964708328247,0.027525365352630615,0.009806035086512566
1633780793881350100,11.01635009765625,-0.0901733934879303,0.029341459274291992,0.005711650475859642
1633780793901230000,11.03622998046875,-0.08592531085014343,0.03184057027101517,-0.0024169054813683033
1633780793921109000,11.05610888671875,-0.09436679631471634,0.03559376299381256,-0.015626469627022743
1633780793940988200,11.07598828125,-0.09654053300619125,0.02282070741057396,-0.016094138845801353
1633780793960866800,11.09586669921875,-0.07784175872802734,0.012257460504770279,-0.004439330659806728
1633780793980746000,11.11574609375,-0.05326390638947487,0.014285188168287277,-0.004214082844555378
1633780794000626200,11.135626220703125,-0.020393453538417816,0.03738021105527878,-0.00025354541139677167
1633780794020504800,11.1555048828125,0.012957204133272171,0.04458983242511749,0.015067127533257008
1633780794040384000,11.175384033203125,0.03175045922398567,0.015161635354161263,0.017774801701307297
1633780794060263000,11.195262939453125,0.03154706209897995,0.009323365055024624,0.011112809181213379
1633780794080142000,11.21514208984375,0.032133229076862335,0.04101329669356346,0.016181491315364838
1633780794100021200,11.235021240234374,0.04163897782564163,0.04182715713977814,0.022097740322351456
1633780794119901000,11.25490087890625,0.03490431606769562,0.013412919826805592,0.010732452385127544
1633780794139780000,11.274780029296876,0.03434523195028305,0.02348312735557556,0.002144689206033945
1633780794159659300,11.2946591796875,0.030149614438414574,0.043617069721221924,0.004748403560370207
1633780794179538000,11.314537841796875,0.019732091575860977,0.012071131728589535,-0.001018307521007955
1633780794199417000,11.3344169921875,0.0024479697458446026,-0.00008584652096033096,-0.013233828358352184
1633780794219297000,11.354297119140625,-0.0047186193987727165,0.015498615801334381,-0.0065806834027171135
1633780794239176000,11.374176025390625,-0.0014113520737737417,0.001867225393652916,-0.0017564790323376656
1633780794259055000,11.39405517578125,-0.004802219569683075,-0.007545361295342445,-0.018095960840582848
1633780794278934000,11.41393408203125,-0.012400480918586254,0.010368037968873978,-0.02778598666191101
1633780794298813200,11.433813232421874,-0.005822286009788513,0.0076069580391049385,-0.019314566627144814
1633780794318692900,11.45369287109375,-0.0008359916973859072,-0.0015491675585508347,-0.004307788796722889
1633780794338575400,11.473575439453125,-0.01010438334196806,0.00004677567631006241,-0.004655996337532997
1633780794358454500,11.49345458984375,-0.0064118471927940845,0.009667978622019291,0.007935181260108948
1633780794378333400,11.51333349609375,0.01473773643374443,0.0026587285101413727,0.011079329997301102
1633780794398212400,11.53321240234375,0.026339581236243248,0.002850818447768688,-0.003912194166332483
1633780794418092500,11.553092529296874,0.01912287436425686,0.009150438010692596,-0.03849286213517189
1633780794437971500,11.572971435546876,0.020436540246009827,-0.00013875681906938553,-0.03395169973373413
1633780794457850400,11.592850341796876,0.03938861936330795,-0.022786982357501984,-0.01242196373641491
1633780794477729300,11.612729248046875,0.045251693576574326,-0.023335065692663193,-0.0038598624523729086
1633780794497608400,11.6326083984375,0.03031327947974205,-0.02084030769765377,-0.0201491080224514
1633780794517488400,11.65248828125,0.02639581635594368,-0.01683863438665867,-0.029283657670021057
1633780794537367300,11.6723671875,0.03146335855126381,-0.003650135360658169,-0.008529698476195335
1633780794557246500,11.69224658203125,0.02172098681330681,0.0015964694321155548,0.014173636212944984
1633780794577125400,11.71212548828125,0.0011306945234537125,-0.015407015569508076,0.016062865033745766
1633780794597004300,11.73200439453125,-0.019030030816793442,-0.019708286970853806,0.004082615487277508
1633780794616884500,11.751884521484374,-0.029671017080545425,-0.007707103155553341,-0.010832817293703556
1633780794636763400,11.771763427734374,-0.020801294595003128,-0.012900269590318203,-0.016354862600564957
1633780794656642600,11.791642578125,0.0039053065702319145,-0.014190305024385452,-0.011652729474008083
1633780794676521200,11.811521240234375,0.03081895411014557,0.003828730434179306,-0.012353101745247841
1633780794696400400,11.831400390625,0.040744222700595856,0.007567631080746651,-0.021823206916451454
1633780794716280600,11.851280517578125,0.051566705107688904,-0.002509060315787792,-0.035817645490169525
1633780794736159200,11.8711591796875,0.053724002093076706,-0.003811079543083906,-0.04103481397032738
1633780794756038400,11.891038330078125,0.04195188358426094,-0.009645620360970497,-0.050595562905073166
1633780794775917600,11.91091748046875,0.0385977141559124,-0.0217369943857193,-0.05084900185465813
1633780794795796500,11.93079638671875,0.039267417043447495,-0.023705778643488884,-0.03342243283987045
1633780794815676400,11.950676513671874,0.046770885586738586,-0.009222889319062233,-0.00745417969301343
1633780794835555300,11.970555419921874,0.04724353924393654,-0.016722524538636208,0.010745616629719734
1633780794855434500,11.9904345703125,0.04272514581680298,-0.026574447751045227,0.015673473477363586
1633780794875313400,12.0103134765625,0.029597295448184013,-0.03143090009689331,0.011460713110864162
1633780794895192300,12.0301923828125,0.019153032451868057,-0.027163095772266388,0.007802213542163372
1633780794915072500,12.050072509765625,0.0048952121287584305,-0.03568858653306961,0.0035696718841791153
1633780794934951400,12.069951416015625,-0.007921399548649788,-0.019385864958167076,0.009797472506761551
1633780794954830300,12.089830322265625,-0.009966232813894749,-0.01259329728782177,0.026869533583521843
1633780794974709500,12.10970947265625,0.010116664692759514,-0.02529630810022354,0.03883085772395134
1633780794994588400,12.12958837890625,0.016841353848576546,-0.00896429643034935,0.023861628025770187
1633780795014467600,12.149467529296874,0.016049468889832497,0.008571824990212917,0.010082927532494068
1633780795034347300,12.16934716796875,0.029286181554198265,-0.015744520351290703,-0.005964863114058971
1633780795054226400,12.189226318359376,0.0296457689255476,-0.03361690789461136,-0.022789249196648598
1633780795074105600,12.209105712890626,0.016556574031710625,-0.016562379896640778,-0.047658342868089676
1633780795093984300,12.228984375,0.016600333154201508,0.00039680395275354385,-0.05118214339017868
1633780795113863400,12.248863525390625,0.039422087371349335,-0.008591897785663605,-0.030647553503513336
1633780795133743600,12.26874365234375,0.05872275307774544,-0.0021832669153809547,-0.00774811627343297
1633780795153622300,12.288622314453125,0.06400853395462036,0.021653272211551666,0.011779112741351128
1633780795173501400,12.30850146484375,0.07928267866373062,0.03954722359776497,0.038128696382045746
1633780795193380400,12.32838037109375,0.09381014853715897,0.02494138851761818,0.06222715973854065
1633780795213259500,12.348259521484374,0.09569068253040314,0.01055392250418663,0.05422936752438545
1633780795233139500,12.368139404296874,0.06972359120845795,0.011352871544659138,0.022697292268276215
1633780795253018400,12.388018310546874,0.05261017009615898,0.020867202430963516,0.0019299404229968786
1633780795272897500,12.4078974609375,0.045400239527225494,-0.0054640076123178005,-0.017685797065496445
1633780795292776400,12.4277763671875,0.04070745036005974,-0.035331010818481445,-0.03885260224342346
1633780795312655400,12.4476552734375,0.025929387658834457,-0.01741787977516651,-0.057353220880031586
1633780795332531500,12.467531494140625,0.012292775325477123,0.0016129016876220703,-0.06053787097334862
1633780795352410600,12.48741064453125,0.009996552020311356,-0.0136667275801301,-0.045336902141571045
1633780795372289500,12.50728955078125,0.008867830969393253,-0.015682294964790344,-0.025517983362078667
1633780795392168400,12.52716845703125,0.00206532864831388,0.0034613925963640213,0.0015917032724246383
1633780795412047600,12.547047607421876,-0.000017254846170544624,0.0023863622918725014,0.021862393245100975
1633780795431927600,12.566927490234375,-0.01546950452029705,0.005000883713364601,0.0025550266727805138
1633780795451806500,12.586806396484375,-0.013445977121591568,0.0890275165438652,-0.0586971677839756
1633780795471685600,12.606685546875,0.020648721605539322,0.00026569049805402756,-0.08676277846097946
1633780795491564500,12.626564453125,0.003628946840763092,-0.012969511561095715,-0.03321134299039841
1633780795511443700,12.646443603515625,-0.024096839129924774,-0.00043703150004148483,0.015849944204092026
1633780795531323400,12.666323486328125,-0.008086347952485085,-0.017963891848921776,0.02597149647772312
1633780795551202600,12.68620263671875,0.007531258277595043,-0.006205791607499123,0.007761314511299133
1633780795571081700,12.706081787109374,0.026881931349635124,-0.011048042215406895,-0.027623457834124565
1633780795590960400,12.72596044921875,0.03929000720381737,-0.018218334764242172,-0.0435049906373024
1633780795610839600,12.745839599609376,0.030420057475566864,-0.020091688260436058,-0.025386672466993332
1633780795630718500,12.765718505859375,0.012672225013375282,-0.02579493820667267,0.005852626636624336
1633780795650598400,12.785598388671875,-0.012766411527991295,-0.03197116777300835,0.016351189464330673
1633780795670477600,12.8054775390625,-0.02987688221037388,-0.012073802761733532,0.017846878618001938
1633780795690356500,12.8253564453125,-0.03550681471824646,-0.014320267364382744,0.019106248393654823
1633780795710235600,12.845235595703125,-0.04605985805392265,-0.02898762747645378,0.014334130100905895
1633780795730114600,12.865114501953125,-0.07077939063310623,-0.024811968207359314,-0.009817450307309628
1633780795749994500,12.884994384765625,-0.09163285791873932,-0.011141963303089142,-0.024549296125769615
1633780795769873700,12.904873779296874,-0.09030314534902573,-0.03310070186853409,-0.025834688916802406
1633780795789752600,12.924752685546874,-0.08993609249591827,-0.05165068060159683,-0.031392764300107956
1633780795809631500,12.944631591796876,-0.08610621094703674,-0.04941842332482338,-0.042443208396434784
1633780795829510400,12.964510498046875,-0.06756213307380676,-0.04286012053489685,-0.04366942122578621
1633780795849390600,12.984390625,-0.03964510187506676,-0.0313839390873909,-0.01538754627108574
1633780795869269500,13.00426953125,-0.004129378125071526,-0.020126935094594955,0.025477387011051178
1633780795889148400,13.0241484375,0.017146149650216103,-0.017920328304171562,0.044102106243371964
1633780795909027600,13.044027587890625,0.020526757463812828,0.001433306373655796,0.04737589508295059
1633780795928906500,13.063906494140625,0.010482655838131905,-0.0016422895714640617,0.04234255477786064
1633780795948786400,13.083786376953125,0.0059301238507032394,-0.030411969870328903,0.04086887836456299
1633780795968665600,13.10366552734375,0.0024036222603172064,-0.007769069634377956,0.040073104202747345
1633780795988544500,13.12354443359375,-0.0043423050083220005,-0.002746613696217537,0.030664196237921715
1633780796008423700,13.143423583984376,-0.00633481377735734,-0.02091904729604721,0.009881856851279736
1633780796028302300,13.16330224609375,-0.016990987583994865,-0.032639533281326294,-0.017340879887342453
1633780796048182500,13.1831826171875,-0.014575093984603882,-0.027586981654167175,-0.027671851217746735
1633780796068061700,13.203061767578125,-0.010424820706248283,-0.03191470727324486,-0.010578465647995472
1633780796087940400,13.2229404296875,-0.012019660323858261,-0.043753258883953094,0.009768654592335224
1633780796107819500,13.242819580078125,-0.014990150928497314,-0.04546140879392624,0.02019253373146057
1633780796127698400,13.262698486328125,-0.0004704610910266638,-0.02629934437572956,0.031093725934624672
1633780796147578400,13.282578369140625,0.021994441747665405,-0.016680801287293434,0.05412016063928604
1633780796167457500,13.30245751953125,0.024633754044771194,-0.025695428252220154,0.06360314041376114
1633780796187336400,13.32233642578125,0.007869760505855083,-0.03743268921971321,0.06210889667272568
1633780796207215600,13.342215576171874,-0.0039568012580275536,-0.033410072326660156,0.05806850269436836
1633780796227094500,13.362094482421876,-0.01691596582531929,-0.03885055333375931,0.029463699087500572
1633780796246973400,13.381973388671875,-0.020586267113685608,-0.033045485615730286,-0.02578873187303543
1633780796266853600,13.401853515625,-0.021884148940443993,0.0005329810082912445,-0.055329617112874985
1633780796286732500,13.421732666015625,-0.011857479810714722,0.012135396711528301,-0.04620448499917984
1633780796306611500,13.441611572265625,-0.006678859703242779,0.01323245745152235,-0.02820848487317562
1633780796326491000,13.461490966796875,0.001462198793888092,0.020799104124307632,0.002091522328555584
1633780796346370000,13.4813701171875,0.02518461085855961,0.025607626885175705,0.017987985163927078
1633780796366249700,13.501249755859375,0.03664393723011017,0.014767576940357685,0.005912985187023878
1633780796386129000,13.52112890625,0.028085287660360336,0.008160275407135487,-0.025963280349969864
1633780796406007800,13.5410078125,0.028488624840974808,0.018883848562836647,-0.0138961561024189
1633780796425887000,13.560886962890624,0.03057820163667202,-0.007730098441243172,0.005380468908697367
1633780796445766000,13.580765869140626,0.029557082802057266,-0.0485164076089859,0.00969610270112753
1633780796465645800,13.600645751953126,0.011851264163851738,-0.05273289978504181,-0.009826979599893093
1633780796485525000,13.62052490234375,-0.014730957336723804,-0.05050818994641304,-0.028885891661047935
1633780796505403600,13.640403564453125,-0.01503550074994564,-0.04508883133530617,-0.022298678755760193
1633780796525282800,13.66028271484375,-0.005350891035050154,-0.02192305400967598,0.003150338539853692
1633780796545162000,13.680161865234375,-0.008920544758439064,0.004104633815586567,0.021033406257629395
1633780796565041700,13.700041748046875,-0.01583702117204666,0.018035724759101868,0.030283328145742416
1633780796584920800,13.7199208984375,-0.021262358874082565,0.03625386953353882,0.023158667609095573
1633780796604800000,13.739800048828124,-0.035389360040426254,0.04712960124015808,0.003335047047585249
1633780796624679000,13.759678955078124,-0.04363543540239334,0.04219955950975418,-0.017522869631648064
1633780796644558000,13.77955810546875,-0.040944866836071014,0.024988612160086632,-0.025171317160129547
1633780796664437800,13.799437744140626,-0.04141279309988022,0.0043936837464571,-0.0380111038684845
1633780796684317000,13.81931689453125,-0.046658676117658615,-0.012443803250789642,-0.05020514130592346
1633780796704196000,13.839196044921875,-0.033443208783864975,-0.015314157120883465,-0.05700124427676201
1633780796724074800,13.85907470703125,-0.014550870284438133,-0.011182531714439392,-0.0448245108127594
1633780796743954000,13.878953857421875,0.004056150559335947,0.012883134186267853,-0.02040456421673298
1633780796763833900,13.898833740234375,0.023172670975327492,0.014551240019500256,0.011701004579663277
1633780796783712800,13.918712646484375,0.041416704654693604,0.01693255454301834,0.028551070019602776
1633780796803592000,13.938592041015625,0.04742300882935524,0.021973740309476852,0.02307087555527687
1633780796823470800,13.958470947265624,0.05941684544086456,0.02433285117149353,0.007981636561453342
1633780796843350000,13.97835009765625,0.058058761060237885,0.00817651767283678,-0.003721854416653514
1633780796863228700,13.998228759765626,0.05038797855377197,0.005802311934530735,-0.008962366729974747
1633780796883108900,14.01810888671875,0.0338408425450325,0.003437246195971966,-0.017251454293727875
1633780796902988000,14.037988037109375,0.018204156309366226,-0.01871386170387268,-0.028323793783783913
1633780796922867000,14.057866943359375,0.009090064093470573,-0.008209725841879845,-0.02556641586124897
1633780796942745900,14.077745849609375,0.022617673501372337,0.004611433483660221,-0.013453197665512562
1633780796962624800,14.097624755859375,0.015169793739914894,-0.0022032326087355614,-0.01678916998207569
1633780796982505000,14.1175048828125,-0.004412888549268246,-0.0010081883519887924,-0.027426576241850853
1633780797002384000,14.1373837890625,-0.0036473602522164583,0.004012224264442921,-0.013671539723873138
1633780797022262800,14.1572626953125,0.008928782306611538,-0.003334096632897854,0.010830951854586601
1633780797042142000,14.177141845703124,-0.00401412695646286,0.00042387936264276505,-0.006375370547175407
1633780797062020900,14.197020751953126,-0.020221402868628502,-0.006280095782130957,-0.0303213931620121
1633780797081900800,14.21690087890625,-0.014182811602950096,-0.020051833242177963,-0.040135182440280914
1633780797101780000,14.236780029296876,0.0009595742449164391,-0.012928321026265621,-0.034908559173345566
1633780797121659000,14.256658935546875,0.020744342356920242,0.006186426617205143,-0.018736928701400757
1633780797141537800,14.276537841796875,0.04869866371154785,-0.003718041814863682,-0.003780180122703314
1633780797161416700,14.296416748046875,0.0711824893951416,-0.012333104386925697,0.007744519505649805
1633780797181297000,14.316296875,0.07457250356674194,-0.001495812088251114,0.003690180368721485
1633780797201175800,14.33617578125,0.07897581160068512,0.012790890410542488,0.0017855418846011162
1633780797221054700,14.3560546875,0.08243640512228012,0.017384398728609085,0.008640502579510212
1633780797240934000,14.375933837890624,0.07288650423288345,-0.003699847497045994,0.01866895705461502
1633780797260812800,14.395812744140626,0.04279698431491852,-0.026155978441238403,0.009247626177966595
1633780797280692700,14.415692626953126,0.012685278430581093,-0.013953018002212048,0.010323161259293556
1633780797300572000,14.435572021484376,-0.006718571297824383,-0.0030727628618478775,0.020926671102643013
1633780797320450800,14.455450927734375,-0.004901885986328125,-0.011262067593634129,0.030135463923215866
1633780797340329500,14.47532958984375,-0.002523158211261034,-0.011713032610714436,0.034308597445487976
1633780797360208400,14.49520849609375,-0.008546042256057262,0.006625582464039326,0.024863317608833313
1633780797380088300,14.51508837890625,-0.023834316059947014,0.000516379252076149,0.006538448389619589
1633780797399967500,14.534967529296875,-0.016937600448727608,-0.0187615305185318,0.010870554484426975
1633780797419846400,14.554846435546875,0.009333568625152111,-0.01789458468556404,0.019455788657069206
1633780797439725300,14.574725341796874,0.028889834880828857,-0.03104162961244583,-0.0038169282488524914
1633780797459604200,14.594604248046876,0.014472788199782372,-0.04468021169304848,-0.06651797890663147
1633780797479484400,14.614484375,-0.007065386977046728,-0.0350094772875309,-0.10154017806053162
1633780797499363300,14.63436328125,0.006509074009954929,0.004472150467336178,-0.06106889992952347
1633780797519242200,14.6542421875,0.03382645919919014,0.008320950902998447,0.01096899900585413
1633780797539121400,14.674121337890625,0.033728040754795074,0.002125285565853119,0.04739811271429062
1633780797559000300,14.694000244140625,0.020724166184663773,0.011158016510307789,0.04214401915669441
1633780797578879200,14.713879150390625,0.007476482540369034,0.02093270607292652,0.031023742631077766
1633780797598759400,14.733759521484375,0.003755564335733652,0.011716038919985294,0.04098672419786453
1633780797618638300,14.753638427734375,-0.019244873896241188,-0.0010147569701075554,0.054865576326847076
1633780797638517500,14.773517578125,-0.05709892138838768,-0.0001281052827835083,0.05521007627248764
1633780797658396400,14.793396484375,-0.07435533404350281,-0.007601822726428509,0.052169982343912125
1633780797678275300,14.813275390625,-0.0684315487742424,-0.00976288877427578,0.0408029668033123
1633780797698155500,14.833155517578126,-0.06886869668960571,-0.013670812360942364,0.004015617538243532
1633780797718034200,14.8530341796875,-0.07437346130609512,-0.027314895763993263,-0.04218132421374321
1633780797737913300,14.872913330078125,-0.07319781929254532,-0.044304169714450836,-0.05413610488176346
1633780797757792500,14.89279248046875,-0.07524143904447556,-0.029345467686653137,-0.04039565846323967
1633780797777671400,14.91267138671875,-0.07249940186738968,-0.010166619904339314,-0.016909031197428703
1633780797797551400,14.93255126953125,-0.07117259502410889,-0.0197454821318388,0.012490062043070793
1633780797817430300,14.95243017578125,-0.06382553279399872,0.006076617166399956,0.04172154888510704
1633780797837309400,14.972309326171874,-0.054798342287540436,0.022530069574713707,0.06965901702642441
1633780797857188400,14.992188232421874,-0.05666535720229149,0.02159290388226509,0.0661386251449585
1633780797877067300,15.0120673828125,-0.05778959393501282,0.03261999785900116,0.04748013988137245
1633780797896947500,15.031947509765626,-0.07021933048963547,0.035630784928798676,0.02548004686832428
1633780797916826400,15.051826416015626,-0.0756753459572792,0.012368245981633663,0.010698058642446995
1633780797936705300,15.071705322265625,-0.0650724321603775,0.007664482109248638,0.019896522164344788
1633780797956584400,15.09158447265625,-0.03520872816443443,0.01016962993890047,0.01973123662173748
1633780797976463400,15.11146337890625,-0.002749725477769971,0.014763226732611656,0.015066633000969887
1633780797996343300,15.13134326171875,0.019286789000034332,0.025037433952093124,0.0031479778699576855
1633780798016222500,15.151222412109375,0.04890192300081253,0.01570652611553669,-0.005033178720623255
1633780798036101400,15.171101318359375,0.07686580717563629,0.012131934054195881,-0.0032344383653253317
1633780798055980500,15.19098046875,0.07876863330602646,0.0008570868521928787,-0.006423612590879202
1633780798075859200,15.210859130859374,0.05928187072277069,-0.00409372802823782,-0.02720661833882332
1633780798095739400,15.230739501953124,0.04987545683979988,-0.001989743672311306,-0.04406115412712097
1633780798115618600,15.25061865234375,0.049695223569869995,0.0013844836503267288,-0.03798753023147583
1633780798135497200,15.270497314453126,0.05567549169063568,0.0043195514008402824,-0.01575443521142006
1633780798155376400,15.29037646484375,0.051382604986429214,-0.0011612316593527794,-0.003127552568912506
1633780798175255300,15.31025537109375,0.03683236241340637,0.00995444506406784,0.0030971881933510303
1633780798195135200,15.33013525390625,0.03418271243572235,0.02923670783638954,0.016282441094517708
1633780798215014400,15.350014404296875,0.0365782268345356,0.016550742089748383,0.028499159961938858
1633780798234893300,15.369893310546875,0.041842639446258545,0.0069427648559212685,0.028354931622743607
1633780798254772500,15.3897724609375,0.04191454499959946,0.01649312674999237,0.010406823828816414
1633780798274651400,15.4096513671875,0.02737422287464142,0.021768759936094284,-0.02233738638460636
1633780798294531300,15.42953125,0.02724871225655079,0.012580322101712227,-0.02982560731470585
1633780798314410500,15.449410400390626,0.04568539559841156,-0.005243942141532898,-0.021101204678416252
1633780798334289000,15.469288818359376,0.06190533936023712,-0.0003299657255411148,-0.01696254312992096
1633780798354168000,15.48916796875,0.056503668427467346,-0.0025654304772615433,-0.044917818158864975
1633780798374046700,15.509046630859375,0.04280184581875801,-0.012071849778294563,-0.06890308111906052
1633780798393927000,15.528927001953125,0.038363680243492126,0.015932442620396614,-0.05197112262248993
1633780798413806000,15.54880615234375,0.04434181749820709,0.014605656266212463,-0.019142108038067818
1633780798433684700,15.568684814453125,0.04326355829834938,0.010802839882671833,0.010329210199415684
1633780798453564000,15.58856396484375,0.037088558077812195,0.009457498788833618,0.024818463250994682
1633780798473442800,15.60844287109375,0.038909949362277985,-0.0018642153590917587,0.023137720301747322
1633780798493322800,15.62832275390625,0.042289916425943375,0.015918858349323273,0.018170129507780075
1633780798513202000,15.648201904296876,0.024604249745607376,0.016886476427316666,0.002546844771131873
1633780798533080800,15.668080810546876,0.00842137262225151,-0.005531391128897667,-0.004806426353752613
1633780798552960000,15.6879599609375,-0.0013728849589824677,-0.00910295732319355,-0.0003343526623211801
1633780798572839000,15.7078388671875,0.0006240258226171136,-0.0030620209872722626,0.00455207284539938
1633780798592718800,15.72771875,-0.005260617472231388,0.00816551223397255,-0.000812217069324106
1633780798612598000,15.747597900390625,-0.006395946256816387,0.004177873954176903,-0.011230467818677425
1633780798632477000,15.767476806640625,-0.009838257916271687,0.0033214017748832703,-0.00538389477878809
1633780798652355800,15.78735595703125,-0.008956760168075562,-0.0033648228272795677,0.016735216602683067
1633780798672235000,15.807235107421874,-0.0024846820160746574,-0.006461013108491898,0.03293285146355629
1633780798692115000,15.827114990234374,0.006131093017756939,-0.004476064816117287,0.034573789685964584
1633780798711993900,15.846993896484374,-0.0034126583486795425,0.0036819903180003166,0.0031023244373500347
1633780798731872800,15.866872802734376,-0.008640652522444725,0.010850776918232441,-0.02298746630549431
1633780798751752000,15.886751953125,0.006316720508038998,-0.009346546605229378,-0.023784970864653587
1633780798771631000,15.906631103515625,0.01042085513472557,-0.019725151360034943,-0.009786615148186684
1633780798791510800,15.9265107421875,-0.005465845577418804,-0.004170598462224007,0.006851633545011282
1633780798811390000,15.946389892578125,-0.007047496736049652,-0.006583156064152718,0.01444324105978012
1633780798831269000,15.96626904296875,-0.011361919343471527,-0.005710089113563299,0.012721966952085495
1633780798851147800,15.986147705078125,-0.0190886240452528,0.006796913221478462,0.013622438535094261
1633780798871027000,16.00602685546875,-0.03425559028983116,-0.0003878520801663399,0.021911680698394775
1633780798890907000,16.025906982421876,-0.02389661595225334,-0.0011247452348470688,0.050410907715559006
1633780798910785800,16.045785888671876,-0.033744461834430695,0.02388633042573929,0.05803747475147247
1633780798930665000,16.0656650390625,-0.057976000010967255,0.002418510615825653,0.036217186599969864
1633780798950544000,16.0855439453125,-0.07430390268564224,-0.002526449039578438,0.029628776013851166
1633780798970423000,16.105423095703124,-0.060135144740343094,0.00839028600603342,0.04443821310997009
1633780798990302700,16.125302734375,-0.03949357569217682,-0.008298682048916817,0.06497862190008163
1633780799010182000,16.145181884765623,-0.03978773206472397,0.01011468656361103,0.05453720688819885
1633780799030061000,16.16506103515625,-0.042194023728370667,0.005132438614964485,0.03270457312464714
1633780799049940000,16.18493994140625,-0.031653426587581635,-0.011691903695464134,0.008223905228078365
1633780799069819000,16.20481884765625,-0.015269140712916851,-0.006540368311107159,-0.006049612537026405
1633780799089699000,16.224698974609375,-0.012726495042443275,0.0026102587580680847,-0.013671808876097202
1633780799109578000,16.244577880859374,-0.0017920667305588722,0.00021437834948301315,-0.001923194620758295
1633780799129457000,16.264456787109374,0.004416158888489008,0.0004150932654738426,0.014090316370129585
1633780799149335800,16.284335693359374,0.005167753901332617,-0.014685111120343208,0.013543015345931053
1633780799169215000,16.304215087890626,-0.0009118823800235987,-0.035576820373535156,-0.007245482876896858
1633780799189095000,16.324094970703126,-0.016796302050352097,-0.010527483187615871,-0.03229609131813049
1633780799208973800,16.343973876953125,-0.02534956857562065,-0.0036793379113078117,-0.04519720375537872
1633780799228853000,16.36385302734375,-0.021400054916739464,-0.015050151385366917,-0.03384234011173248
1633780799248732000,16.38373193359375,-0.029130330309271812,-0.010365739464759827,-0.0135790491476655
1633780799268611000,16.403611083984377,-0.043965134769678116,-0.009084667079150677,0.00008861633250489831
1633780799288491000,16.423490966796876,-0.039112865924835205,0.0019192444160580635,0.02162407711148262
1633780799308370000,16.443369873046876,-0.0287298783659935,0.018681537359952927,0.040620021522045135
1633780799328249600,16.46324951171875,-0.013162036426365376,0.026152148842811584,0.04276324063539505
1633780799348128800,16.483128662109376,-0.014578968286514282,0.009056606329977512,0.011077558621764183
1633780799368008000,16.503008056640624,-0.010123688727617264,0.02153617888689041,-0.005104928743094206
1633780799387887600,16.5228876953125,-0.014717718586325645,0.021613411605358124,-0.007420758251100779
1633780799407766800,16.542766845703124,-0.010573836043477058,0.024622689932584763,0.001999261789023876
1633780799427645700,16.562645751953124,0.002445894293487072,0.006106710061430931,0.014806574210524559
1633780799447524900,16.58252490234375,0.020435281097888947,-0.010816346853971481,0.016054531559348106
1633780799467403800,16.60240380859375,0.030608244240283966,0.0025062160566449165,0.014176947064697742
1633780799487283700,16.62228369140625,0.03696226328611374,0.020758889615535736,-0.002320765284821391
1633780799507163000,16.642162841796875,0.04248879849910736,0.026451490819454193,-0.009660150855779648
1633780799527041800,16.662041748046875,0.03887094184756279,0.01598881557583809,-0.013345226645469666
1633780799546920700,16.681920654296874,0.03459329903125763,0.023011216893792152,-0.004885220434516668
1633780799566800000,16.7017998046875,0.019610051065683365,0.024949733167886734,-0.006971975322812796
1633780799586679800,16.7216796875,-0.010497652925550938,0.000645902007818222,-0.002676638774573803
1633780799606558700,16.741558837890626,-0.03990902006626129,-0.014161809347569942,-0.003453389275819063
1633780799626438000,16.76143798828125,-0.033371903002262115,-0.008566416800022125,0.01614416390657425
1633780799646316800,16.78131689453125,-0.02444317564368248,0.0075284820050001144,0.03138945251703262
1633780799666196000,16.801196044921873,-0.035470783710479736,0.0003223251551389694,0.031029431149363518
1633780799686075600,16.82107568359375,-0.03373952955007553,-0.004704389255493879,0.024182958528399467
1633780799705954800,16.840954833984377,-0.012068329378962517,-0.019834432750940323,0.01627226546406746
1633780799725834000,16.860833984375,0.005834291689097881,0.0011248253285884857,0.016690893098711967
1633780799745712600,16.880712646484376,0.008925175294280052,-0.002549361437559128,0.008337434381246567
1633780799765591800,16.900591796875,0.0009111230028793216,-0.01605655997991562,0.008524483069777489
1633780799785470700,16.920470703125,0.003562426893040538,-0.02363991178572178,0.015516117215156555
1633780799805350700,16.9403505859375,0.008345797657966614,-0.027639534324407578,0.012958855368196964
1633780799825229800,16.960229736328124,0.004625222180038691,-0.026307955384254456,-0.0007129778387024999
1633780799845108700,16.980108642578124,-0.003973380662500858,-0.00881489273160696,-0.012083590030670166
1633780799864988000,16.99998779296875,-0.013534685596823692,-0.030815083533525467,-0.021937517449259758
1633780799884867600,17.01986767578125,-0.01986941695213318,-0.017584053799510002,-0.01948508806526661
1633780799904746800,17.039746826171875,-0.022290393710136414,-0.0014703311026096344,-0.006227279547601938
1633780799924626000,17.0596259765625,-0.014294997788965702,-0.012271586805582047,0.004415605682879686
1633780799944504800,17.0795048828125,-0.014928563497960567,-0.019785696640610695,0.004735451191663742
1633780799964383700,17.0993837890625,-0.033245399594306946,-0.009943095035851002,-0.006502671632915735
1633780799984262700,17.1192626953125,-0.03896106779575348,-0.00985583383589983,-0.016078446060419083
1633780800004142800,17.139142822265626,-0.033828675746917725,-0.017589470371603966,-0.013278607279062271
1633780800024021800,17.159021728515626,-0.022836627438664436,-0.013489805161952972,0.005220887716859579
1633780800043900700,17.178900634765625,-0.01628817617893219,-0.0007695723325014114,0.0197115670889616
1633780800063779800,17.19877978515625,-0.0073344288393855095,-0.007810082286596298,0.014864174649119377
1633780800083658800,17.21865869140625,0.007059307768940926,0.0023349719122052193,0.010260522365570068
1633780800103538700,17.23853857421875,0.009166516363620758,0.009893014095723629,0.004971863701939583
1633780800123417900,17.25841796875,0.011978277936577797,0.008813191205263138,0.012036544270813465
1633780800143296800,17.278296875,0.02457721345126629,0.012193192727863789,0.031217141076922417
1633780800163176000,17.298176025390624,0.025493010878562927,0.0006380006670951843,0.03151113539934158
1633780800183054600,17.3180546875,0.017616000026464462,-0.0002340991050004959,0.014466889202594757
1633780800202934800,17.337934814453124,0.02227499708533287,-0.0009065475314855576,-0.0008414742769673467
1633780800222814000,17.35781396484375,0.028474979102611542,0.0015290947631001472,-0.0016219320241361856
1633780800242692600,17.377692626953124,0.010759939439594746,0.009449511766433716,0.0025164084509015083
1633780800262571800,17.39757177734375,-0.004149135667830706,-0.002193550579249859,0.013724913820624352
1633780800282450700,17.41745068359375,-0.004855089355260134,-0.02201591618359089,0.02061977982521057
1633780800302330600,17.43733056640625,-0.010574426501989365,0.000774795189499855,0.015476321801543236
1633780800322209800,17.457209716796875,-0.019571781158447266,0.020713437348604202,0.0023643251042813063
1633780800342088400,17.47708837890625,-0.019910598173737526,-0.0009444504976272583,0.00017145933816209435
1633780800361967600,17.496967529296874,-0.01564839668571949,-0.00866884458810091,0.009177451953291893
1633780800381846500,17.516846435546874,-0.004877992905676365,0.013559122569859028,0.02861698716878891
1633780800401726500,17.5367265625,0.008349239826202393,-0.0014400612562894821,0.036371421068906784
1633780800421605600,17.556605712890626,0.020975591614842415,-0.010847406461834908,0.04630772024393082
1633780800441484500,17.576484619140626,0.03087952919304371,0.011914709582924843,0.055027421563863754
1633780800461363500,17.596363525390625,0.03128740191459656,0.01033066026866436,0.044529736042022705
1633780800481242400,17.616242431640625,0.02322988584637642,-0.00650574779137969,0.03940128535032272
1633780800501122600,17.63612255859375,0.01673002541065216,-0.00044386647641658783,0.038678620010614395
1633780800521001500,17.65600146484375,-0.0004271077923476696,-0.009307485073804855,0.032792843878269196
1633780800540880400,17.67588037109375,-0.024737710133194923,-0.02124510519206524,0.01871672458946705
1633780800560759600,17.695759521484376,-0.03465045616030693,-0.011646181344985962,0.009239655919373035
1633780800580638500,17.715638427734376,-0.033688466995954514,-0.007722641807049513,0.008654540404677391
1633780800600518400,17.735518310546876,-0.03155028447508812,-0.015327208675444126,0.004355228040367365
1633780800620397600,17.7553974609375,-0.03944344446063042,-0.030169356614351273,-0.0031093298457562923
1633780800640276500,17.7752763671875,-0.053376343101263046,-0.015916917473077774,-0.006462151184678078
1633780800660155600,17.79515576171875,-0.055422525852918625,-0.015205503441393375,-0.0049900515004992485
1633780800680034300,17.815034423828124,-0.05245710909366608,-0.027795419096946716,0.0013128124410286546
1633780800699914500,17.83491455078125,-0.0468004047870636,-0.027185197919607162,0.012766005471348763
1633780800719793700,17.854793701171875,-0.032186828553676605,-0.0076477923430502415,0.026008648797869682
1633780800739672300,17.87467236328125,-0.020992856472730637,-0.012860500253736973,0.029453808441758156
1633780800759551500,17.894551513671875,-0.03316403180360794,-0.03125264495611191,0.025483187288045883
1633780800779430400,17.914430419921874,-0.05635957419872284,-0.03259771689772606,0.016870124265551567
1633780800799310300,17.934310302734374,-0.07130371034145355,-0.02578756771981716,0.008233967237174511
1633780800819189500,17.954189453125,-0.06174001097679138,-0.019773978739976883,0.00794269610196352
1633780800839068400,17.974068359375,-0.04775268957018852,-0.026295438408851624,-0.011572073213756084
1633780800858947600,17.993947509765626,-0.04212981462478638,-0.02226535975933075,-0.03654441982507706
1633780800878826500,18.013826416015625,-0.027457483112812042,-0.014500917866826057,-0.03694882243871689
1633780800898705400,18.033705322265625,-0.003273164154961705,-0.005040302406996489,-0.025235818699002266
1633780800918585600,18.053585693359373,0.001412472571246326,-0.004849261604249477,-0.03156449645757675
1633780800938464500,18.073464599609373,0.0010142589453607798,-0.00411804998293519,-0.03031553328037262
1633780800958343400,18.093343505859377,0.024474699050188065,0.0068097831681370735,-0.02001534029841423
1633780800978222600,18.11322265625,0.03718651086091995,0.008060142397880554,-0.01887797936797142
1633780800998101500,18.1331015625,0.01828424446284771,-0.0003416016697883606,-0.04272675886750221
1633780801017981400,18.1529814453125,-0.008076326921582222,-0.005572404712438583,-0.04993759095668793
1633780801037860400,18.1728603515625,-0.01098124124109745,-0.018109234049916267,-0.031638193875551224
1633780801057739500,18.192739501953124,-0.0048681991174817085,-0.010993178002536297,-0.009798179380595684
1633780801077618700,18.21261865234375,-0.010918588377535343,-0.0016267523169517517,-0.000247343850787729
1633780801097497300,18.232497314453123,-0.019624389708042145,-0.01848873682320118,0.004153854213654995
1633780801117377500,18.25237744140625,-0.011800254695117474,-0.005939866416156292,0.028985125944018364
1633780801137256400,18.27225634765625,-0.00028013275004923344,0.017861109226942062,0.046618640422821045
1633780801157135400,18.29213525390625,-0.00025641522370278835,0.022676365450024605,0.036388035863637924
1633780801177014500,18.3120146484375,-0.005270145367830992,0.010484413243830204,0.015877412632107735
1633780801196893400,18.3318935546875,-0.008054404519498348,0.00800101924687624,-0.010441333055496216
1633780801216773600,18.351773681640626,-0.0025919878389686346,0.028436079621315002,-0.0119361262768507
1633780801236652500,18.371652587890626,0.014284162782132626,0.021196454763412476,-0.0047034029848873615
1633780801256531500,18.391531494140626,0.0320640429854393,0.010891789570450783,-0.00952389370650053
1633780801276410600,18.41141064453125,0.04440086707472801,0.03312598913908005,-0.009089798666536808
1633780801296289500,18.43128955078125,0.0662628710269928,0.022427190095186234,-0.0060700420290231705
1633780801316169500,18.45116943359375,0.08879444003105164,0.009217104874551296,-0.0032072551548480988
1633780801336047600,18.471047607421873,0.08640724420547485,0.0178137868642807,-0.006220070645213127
1633780801355926800,18.4909267578125,0.06304765492677689,0.03125707060098648,-0.009327808395028114
1633780801375806000,18.510805908203125,0.03674694895744324,0.010829915292561054,-0.011053727008402348
1633780801395684600,18.5306845703125,0.03372254967689514,0.01607227511703968,0.0005443777772597969
1633780801415564800,18.550564697265624,0.03255652263760567,0.019678089767694473,0.011306571774184704
1633780801435443700,18.570443603515624,0.029049821197986603,0.011045810766518116,0.00740557536482811
1633780801455322600,18.590322509765624,0.021218322217464447,0.01968758925795555,0.0005957387038506567
1633780801475201800,18.610201904296876,0.008864924311637878,0.029889274388551712,-0.006291594821959734
1633780801495080700,18.630080810546875,-0.005260545760393143,0.027739837765693665,0.0009351401822641492
1633780801514960000,18.6499599609375,-0.016093958169221878,0.006962737999856472,0.015164809301495552
1633780801534839600,18.669839599609375,-0.0029328244272619486,0.01087634265422821,0.021222034469246864
1633780801554718700,18.68971875,0.007882204838097095,0.01368580013513565,0.01232184562832117
1633780801574598000,18.709597900390627,0.020429497584700584,0.012005613185465336,-0.006858030334115028
1633780801594476800,18.729476806640626,0.023765981197357178,0.01522964145988226,-0.0225859172642231
1633780801614355700,18.749355712890626,0.024294577538967133,0.02141670137643814,-0.02198328636586666
1633780801634236000,18.76923583984375,0.04288944974541664,0.028542600572109222,0.004119156394153833
1633780801654114800,18.78911474609375,0.07062836736440659,0.018287308514118195,0.02513878606259823
1633780801673993700,18.80899365234375,0.08765260875225067,0.019863711670041084,0.010379736311733723
1633780801693872600,18.82887255859375,0.07084979116916656,0.013348466716706753,-0.03191959485411644
1633780801713751800,18.848751708984373,0.053230658173561096,0.0036087576299905777,-0.05095219984650612
1633780801733631700,18.8686318359375,0.0627809390425682,0.01868952438235283,-0.01530028972774744
1633780801753510700,18.8885107421875,0.07165053486824036,0.010230083018541336,0.014742126688361168
1633780801773389800,18.908389892578125,0.06097877025604248,-0.004464616999030113,0.028414394706487656
1633780801793268700,18.928268798828125,0.05735141411423683,0.004508192650973797,0.0319058783352375
1633780801813148000,18.94814794921875,0.0534198023378849,0.01584162935614586,0.024169165641069412
1633780801833027800,18.96802783203125,0.04104527086019516,0.012941627763211727,0.0052271634340286255
1633780801852906800,18.98790673828125,0.01686040498316288,0.0005819890648126602,-0.019493987783789635
1633780801872786000,19.007785888671876,0.002614616183564067,0.004236817359924316,-0.017405841499567032
1633780801892664600,19.02766455078125,-0.000322168692946434,-0.006177007686346769,-0.004651925526559353
1633780801912543700,19.047543701171875,0.0007116633933037519,-0.022496342658996582,-0.008947260677814484
1633780801932424000,19.067423828125,-0.004547111690044403,-0.011935404501855373,-0.02753310278058052
1633780801952302600,19.087302490234375,-0.010033471509814262,-0.001262878067791462,-0.04520629718899727
1633780801972181800,19.107181640625,-0.012352666817605495,-0.008418329060077667,-0.04902949184179306
1633780801992060700,19.127060791015627,-0.023323463276028633,-0.007547580637037754,-0.035807810723781586
1633780802011939800,19.14693994140625,-0.03203689306974411,-0.01655811257660389,-0.02215343900024891
1633780802031818800,19.16681884765625,-0.03994963318109512,-0.024941574782133102,-0.02268202044069767
1633780802051698700,19.18669873046875,-0.04888666048645973,-0.00990661047399044,-0.029838161543011665
1633780802071577900,19.206577880859374,-0.049133073538541794,0.004253505729138851,-0.03636547550559044
1633780802091456800,19.226456787109374,-0.022108256816864014,0.004524971358478069,-0.023225286975502968
1633780802111335700,19.246335693359374,-0.004516985267400742,0.005390685983002186,-0.0038947309367358685
1633780802131214800,19.26621484375,-0.0037990249693393707,0.01658882573246956,-0.003918967675417662
1633780802151094800,19.2860947265625,0.003160492517054081,0.016644395887851715,-0.003964924719184637
1633780802170973700,19.3059736328125,0.01732158102095127,0.01238049566745758,-0.010118044912815094
1633780802190852600,19.3258525390625,0.027532408013939857,0.018652772530913353,-0.014942627400159836
1633780802210731800,19.345731689453125,0.0321074016392231,0.021541424095630646,-0.011385118588805199
1633780802230611000,19.36561083984375,0.04048977047204971,0.006673706695437431,-0.0021192776039242744
1633780802250490600,19.38549072265625,0.03996777534484863,0.00532729085534811,0.0016178600490093231
1633780802270369800,19.405369873046876,0.01773138903081417,0.015764310956001282,-0.019984617829322815
1633780802290248700,19.425248779296876,-0.0037934076972305775,0.009650496765971184,-0.034542009234428406
1633780802310127600,19.445127685546876,-0.007022564299404621,0.007331676781177521,-0.018459120765328407
1633780802330008300,19.46500830078125,-0.002179411705583334,-0.0012778807431459427,0.007788403891026974
1633780802349888300,19.48488818359375,-0.017553498968482018,0.00762320589274168,-0.0006256435299292207
1633780802369767400,19.504767333984375,-0.046786412596702576,0.008032625541090965,-0.029708903282880783
1633780802389646300,19.524646240234375,-0.06016087904572487,0.005234616808593273,-0.03682306408882141
1633780802409525500,19.544525390625,-0.05456584692001343,0.0009201169013977051,-0.01444440521299839
1633780802429404200,19.564404052734375,-0.042186349630355835,0.00004047248512506485,0.010216751135885715
1633780802449284400,19.584284423828127,-0.02899545431137085,-0.011680986732244492,0.01318267360329628
1633780802469163500,19.60416357421875,-0.017812436446547508,0.004428297281265259,0.012845328077673912
1633780802489042200,19.624042236328126,0.006638993043452501,0.0220352616161108,0.019550787284970284
1633780802508921300,19.64392138671875,0.030905837193131447,0.008649052120745182,0.017803221940994263
1633780802528800500,19.663800537109374,0.03799412399530411,0.004367507994174957,0.004565028473734856
1633780802548679400,19.683679443359374,0.030780939385294914,0.01826803758740425,-0.013462935574352741
1633780802568559400,19.703559326171874,0.033066119998693466,0.0053740739822387695,-0.027582427486777306
1633780802588438300,19.723438232421874,0.02784520573914051,-0.00260945875197649,-0.03388477861881256
1633780802608317400,19.7433173828125,0.023839877918362617,-0.013155930675566196,-0.0302608422935009
1633780802628196400,19.7631962890625,0.021873464807868004,-0.01586117222905159,-0.02672041766345501
1633780802648075300,19.7830751953125,0.018390847370028496,-0.004856990184634924,-0.020276367664337158
1633780802667955500,19.80295556640625,0.012561260722577572,0.0017882203683257103,-0.012567790225148201
1633780802687834400,19.82283447265625,0.0027469824999570847,-0.007340915035456419,-0.0037328675389289856
1633780802707713300,19.84271337890625,-0.014355571940541267,-0.004916905891150236,0.003406801028177142
1633780802727592400,19.862592529296876,-0.03486697003245354,-0.014437440782785416,-0.00010004965588450432
1633780802747471400,19.882471435546876,-0.04115450009703636,-0.010723668150603771,0.005486520007252693
1633780802767351300,19.902351318359376,-0.030393874272704124,0.0032110540196299553,0.01061873510479927
1633780802787230200,19.922230224609375,-0.01452694647014141,0.015117430128157139,0.01615634188055992
1633780802807109400,19.942109375,-0.006435064133256674,-0.0005932636559009552,0.004614544101059437
1633780802826988500,19.961988525390623,-0.0028009088709950447,-0.000047750771045684814,0.0007990711601451039
1633780802846867200,19.9818671875,0.006009744945913553,0.0014124447479844093,-0.000007219845429062843
1633780802866746400,20.001746337890626,0.01289049070328474,-0.01178378239274025,0.003726246999576688
1633780802886626600,20.02162646484375,0.011977952904999256,-0.031914353370666504,-0.01536511816084385
1633780802906505500,20.04150537109375,0.008688867092132568,-0.025267278775572777,-0.033221177756786346
1633780802926384400,20.06138427734375,0.020201122388243675,-0.012910568155348301,-0.037377435714006424
1633780802946263300,20.08126318359375,0.030875155702233315,-0.015482289716601372,-0.027030277997255325
1633780802966142500,20.101142578125,0.016565196216106415,0.00021740887314081192,-0.01836511120200157
1633780802986022400,20.1210224609375,0.005817946046590805,0.050282180309295654,-0.0026796450838446617
1633780803005901300,20.1409013671875,0.017006270587444305,0.01402162667363882,0.010212565772235394
1633780803025780500,20.160780517578125,0.019845526665449142,-0.013094859197735786,0.005688253790140152
1633780803045659400,20.180659423828125,-0.003210738068446517,0.01050066202878952,-0.003907668869942427
1633780803065538300,20.200538330078125,-0.03864273428916931,0.021701032295823097,-0.0023925937712192535
1633780803085418500,20.22041845703125,-0.05434833839535713,-0.006268377881497145,0.010938124731183052
1633780803105297400,20.24029736328125,-0.04833412915468216,-0.007163377944380045,0.015277059748768806
1633780803125176300,20.26017626953125,-0.023765120655298233,-0.019978592172265053,-0.009258565492928028
1633780803145055200,20.28005517578125,0.00579135213047266,0.018612205982208252,-0.0025403439067304134
1633780803164934400,20.299934326171876,0.01332371961325407,-0.025723479688167572,0.017913267016410828
1633780803184814300,20.319814453125,-0.012665802612900734,-0.04459357261657715,0.020132480189204216
1633780803204693200,20.339693359375,-0.03596840798854828,-0.036124277859926224,0.009668366983532906
1633780803224572400,20.359572509765623,-0.017064018175005913,-0.017952285706996918,-0.004228140227496624
1633780803244451300,20.379451416015623,-0.0003674691542983055,-0.028103990480303764,0.008236556313931942
1633780803264330500,20.39933056640625,-0.013931134715676308,-0.03522217273712158,0.01775266043841839
1633780803284209200,20.419209228515626,-0.0023048464208841324,-0.02418186515569687,0.021111400797963142
1633780803304089300,20.43908935546875,0.041715290397405624,-0.04172445088624954,0.03665899112820625
1633780803323968500,20.458968505859374,0.08506334573030472,-0.059595782309770584,0.07262998074293137
1633780803343846000,20.478845947265626,0.03258856013417244,-0.07359334826469421,0.062119245529174805
1633780803363725000,20.49872509765625,-0.03400997444987297,-0.007368439808487892,0.056285955011844635
1633780803383603700,20.518603759765625,-0.08067848533391953,0.013814873993396759,0.07777293026447296
1633780803403484000,20.53848388671875,-0.09319885075092316,0.01647920347750187,0.10098205506801605
1633780803423363000,20.558363037109373,-0.026346322149038315,0.04887539520859718,0.09702349454164505
1633780803443241700,20.57824169921875,0.024436423555016518,0.08323114365339279,0.03922327235341072
1633780803463121000,20.598120849609376,0.004193401895463467,0.1214691624045372,-0.01951131783425808
1633780803482999800,20.617999755859376,-0.028549229726195335,0.0686449259519577,-0.04431086406111717
1633780803502879700,20.637879638671876,-0.02723890356719494,-0.013864067383110523,-0.02836296334862709
1633780803522759000,20.657759033203124,0.0063505577854812145,0.011412258259952068,0.005507330410182476
1633780803542637800,20.677637939453124,0.04573671892285347,0.04796520993113518,0.01049805711954832
1633780803562517000,20.69751708984375,0.07736454904079437,0.020824579522013664,0.0014975612284615636
1633780803582396000,20.71739599609375,0.07060325145721436,-0.003744589164853096,-0.020068887621164322
1633780803602274800,20.73727490234375,0.03028159961104393,-0.03098907880485058,-0.050876468420028687
1633780803622155000,20.757155029296875,-0.03128629922866821,-0.011933277361094952,0.057692769914865494
1633780803642034000,20.777033935546875,-0.03364294022321701,-0.15537947416305542,0.1292145848274231
1633780803661912800,20.796912841796875,-0.03046492673456669,-0.1996377408504486,0.02916789799928665
1633780803681792000,20.8167919921875,-0.01018840353935957,0.009530913084745407,-0.21227888762950897
