 Acc_timestamp,Accx,Accy,Accz,Gyro_timestamp,Gyrox,Gyroy,Gyroz,Baro_timestamp,Pressure_Reading
 28565952.000000, 2.163112 , 3.132205, 8.341379, 0.000000, 0.000000,  0.000000,  0.000000, 0.000000,  0.000000
 19968.000000, 2.390430 , 3.091527, 8.059027, 550373952.000000, -42.420002,  6.300000,  46.830002, 0.000000,  0.000000
 40384.000000, 2.447858 , 2.773281, 8.312666, 550393984.000000, -42.420002,  6.300000,  46.830002, 0.000000,  0.000000 
 60032.000000, 2.328217 , 3.254239, 8.410772, 550414336.000000, -3.290000,  7.070000,  6.020000, 0.000000,  0.000000 
 80000.000000, 2.337788 , 3.759124, 8.224132, 550433984.000000, 1.330000,  1.470000,  2.520000, 0.000000,  0.000000 
 99968.000000, 3.034099 , 3.751946, 7.972885, 550454016.000000, 3.430000,  0.980000,  2.800000, 0.000000,  0.000000 
 119936.000000, 4.297509 , 4.113262, 8.528020, 550473920.000000, -2.800000,  -5.040000,  -1.260000, 0.000000,  0.000000 
 140288.000000, 5.000999 , 4.713861, 9.097511, 550493888.000000, -3.920000,  -12.460000,  -5.670000, 0.000000,  0.000000 
 159872.000000, 5.350351 , 5.836094, 8.863015, 550514304.000000, 28.139999,  -16.030001,  -9.240000, 0.000000,  0.000000 
 179840.000000, 5.917450 , 6.771688, 8.336594, 550533824.000000, 61.740002,  -12.530000,  -6.860000, 0.000000,  0.000000 
 199808.000000, 6.209375 , 6.245267, 8.487342, 550553856.000000, 50.610001,  -13.300000,  -0.560000, 0.000000,  0.000000 
 219840.000000, 5.668597 , 4.893322, 8.803195, 550573824.000000, 21.980000,  -17.850000,  0.420000, 0.000000,  0.000000 
 240128.000000, 5.101498 , 4.902894, 8.513663, 550593792.000000, 12.040000,  -12.530000,  -1.540000, 0.000000,  0.000000 
 259776.000000, 4.950750 , 5.249853, 7.625926, 550614144.000000, 26.389999,  -9.240000,  -0.140000, 0.000000,  0.000000 
 279808.000000, 4.878965 , 5.065606, 6.714260, 550633792.000000, 44.660000,  -9.170000,  4.060000, 0.000000,  0.000000 
 299776.000000, 4.488935 , 4.603791, 6.116055, 550653760.000000, 40.459999,  -1.820000,  10.010000, 0.000000,  0.000000 
 319744.000000, 3.388237 , 4.048656, 5.690133, 550673792.000000, 18.690001,  17.780001,  14.770000, 0.000000,  0.000000 
 340096.000000, 1.619941 , 3.996014, 5.623133, 550693760.000000, -7.700000,  52.990002,  20.790001, 0.000000,  0.000000 
 359744.000000, -0.126820 , 3.976871, 5.056034, 550714048.000000, -30.380001,  101.639999,  25.059999, 0.000000,  0.000000 
 379712.000000, -2.031506 , 3.725625, 4.063013, 550733760.000000, -30.730000,  146.440002,  27.650000, 0.000000,  0.000000 
 399744.000000, -4.668397 , 3.397808, 2.866602, 550753728.000000, -21.700001,  178.360001,  23.240000, 0.000000,  0.000000 
 419712.000000, -7.932207 , 2.957529, 1.639083, 550773696.000000, -24.920000,  209.930008,  22.610001, 610774016.000000,  1010.232422 
 440000.000000, -11.136196 , 2.694318, 0.612563, 550793728.000000, -43.610001,  241.710007,  40.880001, 0.000000,  0.000000 
 459712.000000, -12.739388 , 1.861616, 0.248854, 550814016.000000, -77.279999,  256.899994,  68.110001, 0.000000,  0.000000 
 479680.000000, -13.380664 , 0.993021, 0.291924, 550833664.000000, -115.150002,  255.290009,  77.980003, 0.000000,  0.000000 
 499648.000000, -14.749359 , 0.423530, -1.304088, 550853696.000000, -136.570007,  261.519989,  74.620003, 0.000000,  0.000000 
 519680.000000, -16.819151 , 0.382852, -3.328416, 550873664.000000, -182.630005,  303.170013,  78.889999, 0.000000,  0.000000 
 539968.000000, -19.420149 , -0.691526, -4.156333, 550893632.000000, -238.839996,  346.010010,  94.500000, 0.000000,  0.000000 
 559616.000000, -20.774485 , -1.579263, -4.307081, 550913984.000000, -294.489990,  368.829987,  101.570000, 0.000000,  0.000000 
 579648.000000, -22.616959 , -2.993421, -3.739982, 550933632.000000, -319.200012,  378.489990,  109.129997, 0.000000,  0.000000 
 599616.000000, -23.607588 , -4.003192, -2.574677, 550953600.000000, -316.820007,  389.760010,  113.889999, 0.000000,  0.000000 
 619584.000000, -23.483160 , -3.536592, 1.993221, 550973632.000000, -296.100006,  394.940002,  125.510002, 0.000000,  0.000000 
 639936.000000, -23.447269 , -3.816552, 10.169496, 550993600.000000, -258.790009,  401.100006,  141.330002, 0.000000,  0.000000 
 659584.000000, -19.657038 , -6.843473, 5.742774, 551013888.000000, -141.259995,  393.610016,  150.990005, 0.000000,  0.000000 
 679552.000000, -18.044275 , -5.611169, -3.603590, 551033600.000000, 62.930000,  405.369995,  148.330002, 0.000000,  0.000000 
 699584.000000, -16.596617 , -0.428315, -3.826123, 551053568.000000, 201.320007,  374.989990,  133.139999, 0.000000,  0.000000 
 719552.000000, -14.735002 , 3.000600, -1.397408, 551073536.000000, 176.470001,  253.399994,  135.380005, 0.000000,  0.000000 
 739840.000000, -14.524432 , 3.182454, 0.610170, 551093568.000000, 31.850000,  189.770004,  121.590004, 0.000000,  0.000000 
 759552.000000, -15.862022 , -0.241675, 0.478565, 551113856.000000, -133.139999,  171.850006,  84.559998, 0.000000,  0.000000 
 779520.000000, -16.388443 , -3.134598, 0.370888, 551133504.000000, -246.960007,  186.690002,  41.790001, 0.000000,  0.000000 
 799488.000000, -15.469598 , -4.718646, 1.134198, 551153536.000000, -295.679993,  175.839996,  33.529999, 0.000000,  0.000000 
 819520.000000, -15.208780 , -5.221139, 2.086541, 551173504.000000, -279.019989,  147.139999,  61.040001, 0.000000,  0.000000 
 839808.000000, -14.845071 , -5.594419, 3.041277, 551193472.000000, -243.809998,  127.610001,  74.129997, 0.000000,  0.000000 
 859456.000000, -13.665410 , -6.183054, 3.962514, 551213760.000000, -212.869995,  114.730003,  82.599998, 0.000000,  0.000000 
 879488.000000, -12.720245 , -6.824330, 5.362316, 551233472.000000, -185.779999,  96.809998,  80.639999, 0.000000,  0.000000 
 899456.000000, -11.743973 , -7.128219, 6.474977, 551253440.000000, -150.009995,  80.639999,  61.810001, 0.000000,  0.000000 
 919424.000000, -11.069198 , -7.408179, 6.989435, 551273472.000000, -102.830002,  67.970001,  37.799999, 0.000000,  0.000000 
 939776.000000, -11.320443 , -7.379465, 7.652246, 551293440.000000, -38.990002,  56.349998,  12.250000, 0.000000,  0.000000 
 959424.000000, -12.425928 , -7.156933, 7.228717, 551313728.000000, 30.450001,  43.049999,  -17.850000, 0.000000,  0.000000 
 979392.000000, -14.385650 , -6.549156, 6.065805, 551333440.000000, 102.480003,  32.340000,  -39.340000, 0.000000,  0.000000 
 999424.000000, -15.627523 , -5.137390, 4.405186, 551353408.000000, 170.240005,  17.990000,  -50.959999, 0.000000,  0.000000 
 1019392.000000, -14.268401 , -3.041277, 3.290131, 551373376.000000, 226.309998,  -17.430000,  -55.369999, 0.000000,  0.000000 
 1039680.000000, -12.253645 , -1.402194, 2.608176, 551393408.000000, 255.850006,  -81.199997,  -53.480000, 0.000000,  0.000000 
 1059392.000000, -12.437892 , -0.605384, 1.665405, 551413696.000000, 247.309998,  -142.520004,  -62.650002, 0.000000,  0.000000 
 1079360.000000, -14.895321 , -0.610170, 0.684347, 551433408.000000, 216.860001,  -173.180008,  -85.820000, 0.000000,  0.000000 
 1099328.000000, -17.625532 , -0.885344, -0.222532, 551453376.000000, 175.979996,  -189.000000,  -112.279999, 0.000000,  0.000000 
 1119360.000000, -18.077776 , -1.129412, -0.703490, 551473344.000000, 132.789993,  -217.839996,  -126.489998, 0.000000,  0.000000 
 1139648.000000, -17.747566 , -1.143769, -0.729811, 551493312.000000, 99.190002,  -252.139999,  -122.500000, 0.000000,  0.000000 
 1159296.000000, -17.486748 , -1.490728, -1.739582, 551513600.000000, 76.370003,  -271.529999,  -117.809998, 0.000000,  0.000000 
 1179328.000000, -16.433905 , -1.966900, -2.053042, 551533312.000000, 59.990002,  -271.459991,  -112.000000, 0.000000,  0.000000 
 1199296.000000, -15.153747 , -2.206182, -1.794617, 551553280.000000, 38.849998,  -274.470001,  -106.680000, 0.000000,  0.000000 
 1219264.000000, -14.572289 , -2.273181, -1.485943, 551573312.000000, 27.020000,  -269.989990,  -104.440002, 0.000000,  0.000000 
 1239552.000000, -14.708681 , -2.270789, -1.395016, 551593280.000000, 32.830002,  -257.179993,  -106.889999, 0.000000,  0.000000 
 1259264.000000, -14.617754 , -2.256432, -1.801795, 551613568.000000, 50.820000,  -241.009995,  -109.270004, 0.000000,  0.000000 
 1279232.000000, -13.940585 , -2.306681, -2.340181, 551633280.000000, 71.540001,  -224.770004,  -104.580002, 0.000000,  0.000000 
 1299264.000000, -13.545769 , -2.409572, -2.574677, 551653248.000000, 86.379997,  -212.729996,  -91.000000, 0.000000,  0.000000 
 1319232.000000, -13.038490 , -2.414358, -2.421536, 551673216.000000, 91.699997,  -203.770004,  -73.080002, 0.000000,  0.000000 
 1339520.000000, -12.169895 , -1.916651, -2.823531, 551693248.000000, 94.430000,  -194.110001,  -52.920002, 0.000000,  0.000000 
 1359296.000000, -10.695917 , -0.504886, -4.304688, 551713536.000000, 99.330002,  -181.930008,  -36.049999, 0.000000,  0.000000 
 1380352.000000, -9.202796 , 0.933201, -5.639884, 551733248.000000, 104.580002,  -163.869995,  -23.450001, 0.000000,  0.000000 
 1399680.000000, -8.374879 , 2.151148, -6.142376, 551754368.000000, 85.260002,  -154.070007,  -20.370001, 0.000000,  0.000000 
 1419584.000000, -7.623533 , 2.246860, -5.302495, 551773632.000000, 26.530001,  -139.300003,  -25.410000, 611773952.000000,  1010.236206 
 1439936.000000, -7.247860 , 1.787439, -3.524628, 551793600.000000, -32.200001,  -108.430000,  -34.369999, 0.000000,  0.000000 
 1459584.000000, -7.846066 , 1.251446, -2.455036, 551813952.000000, -55.510002,  -70.629997,  -41.860001, 0.000000,  0.000000 
 1480064.000000, -10.308280 , 0.887737, -2.962314, 551833600.000000, -38.080002,  -17.360001,  -34.580002, 0.000000,  0.000000 
 1499968.000000, -12.284752 , 1.540978, -3.893122, 551854016.000000, -7.490000,  43.610001,  -14.070000, 0.000000,  0.000000 
 1520000.000000, -10.906486 , 1.217947, -3.175276, 551873920.000000, 5.600000,  97.160004,  16.170000, 0.000000,  0.000000 
 1540288.000000, -10.112068 , 0.239282, -2.402394, 551893952.000000, -5.320000,  137.830002,  45.220001, 0.000000,  0.000000 
 1559936.000000, -11.550155 , 0.093320, -1.622334, 551914304.000000, -45.290001,  182.770004,  59.430000, 0.000000,  0.000000 
 1580096.000000, -13.098311 , 0.181855, -0.777667, 551933952.000000, -88.059998,  224.559998,  71.959999, 0.000000,  0.000000 
 1600000.000000, -15.232710 , -0.911665, 1.189233, 551954048.000000, -111.020004,  248.570007,  84.070000, 0.000000,  0.000000 
 1619968.000000, -17.410177 , -2.435893, 2.924029, 551973952.000000, -97.370003,  258.790009,  83.930000, 0.000000,  0.000000 
 1640320.000000, -18.446270 , -2.536392, 3.926622, 551993984.000000, -44.099998,  268.940002,  90.860001, 0.000000,  0.000000 
 1659904.000000, -16.811972 , -1.060020, 1.459622, 552014336.000000, 48.230000,  283.779999,  120.889999, 0.000000,  0.000000 
 1679744.000000, -15.395420 , 1.258625, -0.227318, 552033920.000000, 157.009995,  294.420013,  148.190002, 0.000000,  0.000000 
 1700992.000000, -13.887943 , 3.194418, 0.016750, 552053760.000000, 197.470001,  273.420013,  142.869995, 0.000000,  0.000000 
 1721024.000000, -12.717852 , 4.149154, 0.808774, 552075008.000000, 129.360001,  246.540009,  123.900002, 0.000000,  0.000000 
 1741376.000000, -12.457035 , 3.223132, 1.014557, 552095040.000000, 1.540000,  235.899994,  99.959999, 0.000000,  0.000000 
 1761024.000000, -13.131810 , 1.220340, 1.043271, 552115392.000000, -129.990005,  237.860001,  65.239998, 0.000000,  0.000000 
 1781056.000000, -13.450057 , -0.334995, 1.354338, 552134976.000000, -227.500000,  235.899994,  39.970001, 0.000000,  0.000000 
 1800960.000000, -13.000205 , -1.603191, 2.151148, 552155072.000000, -267.540009,  214.970001,  41.020000, 0.000000,  0.000000 
 1820928.000000, -12.847065 , -2.579463, 2.816352, 552174976.000000, -251.509995,  181.020004,  59.570000, 0.000000,  0.000000 
 1841344.000000, -13.450057 , -3.192025, 3.230310, 552194944.000000, -211.050003,  155.680008,  72.800003, 0.000000,  0.000000 
 1860928.000000, -14.392829 , -3.704089, 3.335595, 552215296.000000, -167.720001,  141.889999,  87.709999, 0.000000,  0.000000 
 1881024.000000, -14.725430 , -4.280759, 3.847659, 552234944.000000, -126.559998,  128.940002,  101.709999, 0.000000,  0.000000 
 1900864.000000, -13.966907 , -4.819145, 4.031906, 552254976.000000, -91.000000,  105.629997,  105.769997, 0.000000,  0.000000 
 1920896.000000, -12.746566 , -4.465007, 3.503092, 552274880.000000, -58.590000,  75.599998,  100.660004, 0.000000,  0.000000 
 1941248.000000, -11.803794 , -3.275774, 3.184847, 552294912.000000, -33.320000,  53.480000,  82.599998, 0.000000,  0.000000 
 1960896.000000, -11.418550 , -2.445465, 3.572484, 552315264.000000, -18.480000,  35.490002,  51.730000, 0.000000,  0.000000 
 1980928.000000, -12.105289 , -2.955136, 4.230510, 552334912.000000, -24.360001,  19.110001,  9.450000, 0.000000,  0.000000 
 2000896.000000, -14.411970 , -4.168297, 5.170890, 552354880.000000, -33.810001,  11.270000,  -35.279999, 0.000000,  0.000000 
 2020864.000000, -16.797615 , -5.350351, 4.902894, 552374848.000000, -16.590000,  11.830000,  -69.580002, 0.000000,  0.000000 
 2041216.000000, -18.032312 , -5.034499, 3.639483, 552394816.000000, 45.570000,  -3.220000,  -83.160004, 0.000000,  0.000000 
 2060864.000000, -15.838093 , -3.060420, 1.823331, 552415168.000000, 129.220001,  -35.209999,  -79.519997, 0.000000,  0.000000 
 2080896.000000, -12.961920 , -1.634298, 0.806381, 552434816.000000, 204.889999,  -89.809998,  -65.590004, 0.000000,  0.000000 
 2100800.000000, -12.842279 , -0.715454, 0.902094, 552454912.000000, 241.080002,  -154.000000,  -63.349998, 0.000000,  0.000000 
 2120768.000000, -15.019747 , -1.325624, -0.184247, 552474752.000000, 244.860001,  -181.649994,  -74.410004, 0.000000,  0.000000 
 2141120.000000, -17.187645 , -1.141376, -0.971486, 552494784.000000, 261.309998,  -193.059998,  -77.559998, 0.000000,  0.000000 
 2160768.000000, -17.771494 , 0.533599, -1.718047, 552515136.000000, 287.700012,  -230.440002,  -72.660004, 0.000000,  0.000000 
 2180864.000000, -17.398212 , 1.966900, -2.959922, 552534784.000000, 309.890015,  -266.420013,  -51.170002, 0.000000,  0.000000 
 2200704.000000, -15.761523 , 2.440679, -3.141776, 552554816.000000, 288.820007,  -286.649994,  -31.500000, 0.000000,  0.000000 
 2220736.000000, -13.954943 , 1.976472, -2.194218, 552574720.000000, 210.910004,  -295.260010,  -24.850000, 0.000000,  0.000000 
 2241088.000000, -12.768101 , 0.983450, -1.840081, 552594752.000000, 110.949997,  -290.500000,  -26.950001, 0.000000,  0.000000 
 2260736.000000, -11.787045 , 0.117248, -2.060220, 552615104.000000, 32.340000,  -271.600006,  -38.990002, 0.000000,  0.000000 
 2280768.000000, -10.999805 , -0.445065, -2.069792, 552634688.000000, -21.770000,  -252.279999,  -53.830002, 0.000000,  0.000000 
 2300736.000000, -10.269995 , -0.966700, -2.041078, 552654720.000000, -52.779999,  -239.190002,  -62.020000, 0.000000,  0.000000 
 2320704.000000, -9.911072 , -1.395016, -1.950150, 552674688.000000, -62.860001,  -228.410004,  -61.950001, 0.000000,  0.000000 
 2341056.000000, -9.793823 , -1.864009, -2.045863, 552694656.000000, -61.599998,  -217.419998,  -53.970001, 0.000000,  0.000000 
 2360640.000000, -10.291530 , -2.366502, -1.564906, 552715008.000000, -50.959999,  -202.509995,  -38.009998, 0.000000,  0.000000 
 2380736.000000, -10.772489 , -3.385844, -0.945165, 552734656.000000, -32.340000,  -185.289993,  -14.140000, 0.000000,  0.000000 
 2400576.000000, -11.009377 , -3.979264, -1.689333, 552754752.000000, 21.210001,  -165.479996,  27.510000, 0.000000,  0.000000 
 2420544.000000, -10.171888 , -2.790031, -2.892922, 552774592.000000, 109.340004,  -150.919998,  68.949997, 612774912.000000,  1010.232727 
 2440896.000000, -8.188239 , -1.141376, -4.850252, 552794560.000000, 184.869995,  -129.639999,  107.449997, 0.000000,  0.000000 
 2460544.000000, -7.123433 , 0.155533, -5.249853, 552814848.000000, 200.270004,  -113.540001,  132.160004, 0.000000,  0.000000 
 2480512.000000, -7.128219 , 1.155733, -2.813959, 552834560.000000, 136.919998,  -77.980003,  114.029999, 0.000000,  0.000000 
 2500544.000000, -7.963314 , 1.593620, -0.476172, 552854528.000000, 45.009998,  -36.470001,  66.010002, 0.000000,  0.000000 
 2520512.000000, -8.829515 , 1.344766, -0.976272, 552874496.000000, -1.120000,  10.780000,  5.670000, 0.000000,  0.000000 
 2540800.000000, -10.384850 , 0.251246, -2.548356, 552894528.000000, 20.790001,  71.680000,  -34.439999, 0.000000,  0.000000 
 2560512.000000, -12.447463 , -0.346959, -2.715853, 552914816.000000, 38.570000,  133.630005,  -73.290001, 0.000000,  0.000000 
 2580480.000000, -12.208181 , 0.040678, -1.907080, 552934464.000000, 1.750000,  172.619995,  -88.620003, 0.000000,  0.000000 
 2600640.000000, -11.188839 , 0.557528, -1.619941, 552954496.000000, -57.889999,  201.389999,  -61.180000, 0.000000,  0.000000 
 2620480.000000, -11.619547 , 0.464208, -1.988436, 552974656.000000, -115.570000,  216.580002,  -37.240002, 0.000000,  0.000000 
 2640768.000000, -13.325629 , -0.485743, -1.710868, 552994432.000000, -170.029999,  234.220001,  -29.120001, 0.000000,  0.000000 
 2660416.000000, -15.151353 , -1.710868, -0.504886, 553014784.000000, -207.690002,  251.160004,  -21.490000, 0.000000,  0.000000 
 2680448.000000, -15.787844 , -2.593820, 1.306481, 553034432.000000, -198.309998,  246.470001,  -6.790000, 0.000000,  0.000000 
 2700416.000000, -15.445671 , -2.775674, 2.380858, 553054400.000000, -128.449997,  228.410004,  15.120000, 0.000000,  0.000000 
 2720384.000000, -14.603395 , -2.084148, 1.708475, 553074432.000000, -19.740000,  216.580002,  36.889999, 0.000000,  0.000000 
 2740736.000000, -13.763516 , -1.036092, 1.009771, 553094400.000000, 87.779999,  211.330002,  51.799999, 0.000000,  0.000000 
 2760384.000000, -12.698709 , 0.339781, 0.653241, 553114688.000000, 128.660004,  204.259995,  52.570000, 0.000000,  0.000000 
 2780352.000000, -11.475977 , 1.505085, 0.545564, 553134400.000000, 174.720001,  185.570007,  46.200001, 0.000000,  0.000000 
 2800384.000000, -10.987842 , 1.636691, 0.701097, 553154368.000000, 165.619995,  163.100006,  33.320000, 0.000000,  0.000000 
 2820352.000000, -9.760324 , 1.122234, 0.581456, 553174336.000000, 124.739998,  148.820007,  14.210000, 0.000000,  0.000000 
 2840640.000000, -9.317651 , 0.311067, 2.060220, 553194368.000000, 71.120003,  137.830002,  -16.100000, 0.000000,  0.000000 
 2860352.000000, -9.544970 , 0.189033, 2.572284, 553214656.000000, 16.660000,  141.750000,  -35.560001, 0.000000,  0.000000 
 2880320.000000, -10.174281 , -0.004786, 2.589034, 553234304.000000, -5.460000,  151.830002,  -45.779999, 0.000000,  0.000000 
 2900288.000000, -10.736595 , 0.370888, 2.242075, 553254336.000000, 8.890000,  160.160004,  -49.420002, 0.000000,  0.000000 
 2920320.000000, -11.172089 , 1.241875, 2.165504, 553274304.000000, 23.799999,  164.430008,  -42.139999, 0.000000,  0.000000 
 2940608.000000, -12.126825 , 1.706082, 2.311467, 553294272.000000, 17.780001,  165.550003,  -26.950001, 0.000000,  0.000000 
 2960256.000000, -13.758730 , 1.351945, 2.002793, 553314560.000000, -5.040000,  165.479996,  -15.260000, 0.000000,  0.000000 
 2980288.000000, -14.916857 , 0.739382, 1.976472, 553334272.000000, -35.070000,  166.250000,  -11.760000, 0.000000,  0.000000 
 3000256.000000, -14.495720 , 0.564706, 2.679961, 553354240.000000, -70.699997,  149.800003,  -6.020000, 0.000000,  0.000000 
 3020224.000000, -14.129619 , 0.425922, 3.572484, 553374272.000000, -101.430000,  117.110001,  5.390000, 0.000000,  0.000000 
 3040576.000000, -14.632111 , 0.148355, 3.979264, 553394240.000000, -113.820000,  86.029999,  9.100000, 0.000000,  0.000000 
 3060288.000000, -15.460027 , -0.133998, 3.311667, 553414528.000000, -111.230003,  59.360001,  -0.070000, 0.000000,  0.000000 
 3080192.000000, -17.101503 , 0.035892, 4.036692, 553434240.000000, -101.360001,  25.969999,  -16.100000, 0.000000,  0.000000 
 3100224.000000, -18.912870 , -0.229711, 3.330809, 553454208.000000, -79.449997,  -4.690000,  -30.450001, 0.000000,  0.000000 
 3120192.000000, -19.300507 , 0.071785, 1.284946, 553474176.000000, -27.090000,  -42.209999,  -40.389999, 0.000000,  0.000000 
 3140480.000000, -15.543776 , 1.095913, -0.002393, 553494144.000000, 27.719999,  -93.309998,  -44.869999, 0.000000,  0.000000 
 3160192.000000, -12.021541 , 1.162912, -0.933201, 553514496.000000, 46.970001,  -178.500000,  -35.000000, 0.000000,  0.000000 
 3180160.000000, -10.906486 , 0.279960, -0.911665, 553534144.000000, 29.960001,  -241.009995,  -34.369999, 0.000000,  0.000000 
 3200128.000000, -11.705689 , -0.818345, 1.201197, 553554112.000000, 10.290000,  -252.770004,  -39.759998, 0.000000,  0.000000 
 3220160.000000, -12.914064 , -1.899901, 1.730011, 553574144.000000, 50.049999,  -241.779999,  -27.160000, 0.000000,  0.000000 
 3240448.000000, -13.981262 , -1.773082, 0.143569, 553594112.000000, 176.750000,  -237.369995,  0.770000, 0.000000,  0.000000 
 3260096.000000, -13.507483 , -0.547956, -1.363909, 553614400.000000, 308.910004,  -230.160004,  38.430000, 0.000000,  0.000000 
 3280128.000000, -12.198609 , 0.141177, -2.143969, 553634112.000000, 361.970001,  -206.850006,  95.199997, 0.000000,  0.000000 
 3300096.000000, -11.818150 , 0.380459, -2.402394, 553654080.000000, 325.709991,  -172.410004,  135.309998, 0.000000,  0.000000 
 3320064.000000, -11.423335 , 0.729811, -2.756532, 553674048.000000, 250.110001,  -136.919998,  147.630005, 0.000000,  0.000000 
 3340416.000000, -10.920842 , 0.650848, -2.897708, 553694080.000000, 150.990005,  -117.739998,  140.770004, 0.000000,  0.000000 
 3360064.000000, -10.049855 , 0.617348, -2.577070, 553714368.000000, 64.680000,  -119.139999,  124.949997, 0.000000,  0.000000 
 3380032.000000, -9.219545 , 0.272782, -2.146362, 553734016.000000, -3.430000,  -135.660004,  105.699997, 0.000000,  0.000000 
 3401472.000000, -9.109475 , -0.251246, -1.921437, 553754048.000000, -50.959999,  -146.229996,  88.129997, 0.000000,  0.000000 
 3420736.000000, -9.621540 , -1.021735, -1.880759, 553775424.000000, -86.870003,  -150.570007,  66.220001, 613775744.000000,  1010.227112 
 3441024.000000, -10.559525 , -1.737189, -1.727618, 553794688.000000, -118.090004,  -148.750000,  52.849998, 0.000000,  0.000000 
 3460736.000000, -11.112268 , -2.175076, -1.500300, 553814976.000000, -139.789993,  -145.600006,  47.250000, 0.000000,  0.000000 
 3480704.000000, -10.870593 , -2.172683, -1.832902, 553834752.000000, -150.570007,  -145.880005,  46.970001, 0.000000,  0.000000 
 3501120.000000, -10.265208 , -1.670190, -3.218346, 553854656.000000, -159.110001,  -147.210007,  47.950001, 0.000000,  0.000000 
 3521088.000000, -9.049655 , -1.378266, -5.714060, 553875136.000000, -174.369995,  -141.050003,  45.709999, 0.000000,  0.000000 
 3541376.000000, -7.594819 , -1.579263, -7.281359, 553895040.000000, -203.630005,  -138.250000,  35.139999, 0.000000,  0.000000 
 3561088.000000, -6.293124 , -2.177469, -6.214160, 553915328.000000, -248.779999,  -142.100006,  13.300000, 0.000000,  0.000000 
 3581056.000000, -6.702296 , -2.708675, -1.679761, 553935104.000000, -279.299988,  -125.440002,  -11.760000, 0.000000,  0.000000 
 3601408.000000, -8.970692 , -3.378666, 1.387837, 553955008.000000, -270.059998,  -87.290001,  -41.160000, 0.000000,  0.000000 
 3621312.000000, -11.583653 , -2.129612, 1.600798, 553975424.000000, -196.000000,  -13.300000,  -55.369999, 0.000000,  0.000000 
 3641600.000000, -12.770494 , -0.595813, 2.038685, 553995264.000000, -99.400002,  73.010002,  -48.650002, 0.000000,  0.000000 
 3661376.000000, -12.349358 , -0.196211, 1.660619, 554015616.000000, -11.410000,  149.729996,  -20.160000, 0.000000,  0.000000 
 3681280.000000, -12.045469 , -0.856631, 0.780060, 554035392.000000, 49.070000,  231.210007,  7.840000, 0.000000,  0.000000 
 3701056.000000, -12.093326 , -1.380659, -0.703490, 554055296.000000, 99.330002,  289.309998,  19.110001, 0.000000,  0.000000 
 3722368.000000, -12.169895 , -1.122234, -1.505085, 554075072.000000, 131.250000,  311.360016,  33.599998, 0.000000,  0.000000 
 3742656.000000, -12.768101 , -0.653241, -1.502693, 554096320.000000, 143.919998,  302.119995,  54.040001, 0.000000,  0.000000 
 3762432.000000, -13.718053 , -0.277567, -0.820738, 554116608.000000, 136.220001,  291.059998,  57.330002, 0.000000,  0.000000 
 3782336.000000, -14.163116 , 0.081356, -0.641276, 554136384.000000, 119.910004,  273.559998,  56.000000, 0.000000,  0.000000 
 3802368.000000, -14.088940 , 0.868595, -0.820738, 554156288.000000, 123.900002,  244.089996,  51.029999, 0.000000,  0.000000 
 3822336.000000, -13.452450 , 2.081756, -1.423729, 554176384.000000, 147.139999,  203.139999,  33.740002, 0.000000,  0.000000 
 3842624.000000, -12.344571 , 3.541377, -1.603191, 554196288.000000, 158.899994,  159.600006,  9.870000, 0.000000,  0.000000 
 3862336.000000, -10.679168 , 4.505685, -1.550549, 554216576.000000, 128.449997,  115.919998,  -17.080000, 0.000000,  0.000000 
 3882304.000000, -8.908479 , 4.261617, -0.844666, 554236352.000000, 54.040001,  82.879997,  -37.029999, 0.000000,  0.000000 
 3902336.000000, -7.970492 , 2.991028, 0.179462, 554256256.000000, -45.570000,  65.309998,  -54.040001, 0.000000,  0.000000 
 3922240.000000, -8.003991 , 1.179662, 1.124627, 554276352.000000, -149.240005,  68.389999,  -73.849998, 0.000000,  0.000000 
 3942528.000000, -8.669197 , -0.543171, 1.852045, 554296256.000000, -233.240005,  88.480003,  -84.559998, 0.000000,  0.000000 
 3962304.000000, -9.430114 , -1.794617, 2.139183, 554316544.000000, -274.329987,  108.430000,  -76.440002, 0.000000,  0.000000 
 3982208.000000, -10.021141 , -2.129612, 2.411965, 554336320.000000, -260.610016,  119.209999,  -48.580002, 0.000000,  0.000000 
 4002304.000000, -10.992627 , -2.232504, 2.746960, 554356224.000000, -205.520004,  120.470001,  -13.440001, 0.000000,  0.000000 
 4022144.000000, -12.401999 , -1.871187, 2.464607, 554376256.000000, -131.740005,  117.459999,  19.250000, 0.000000,  0.000000 
 4042496.000000, -13.701303 , -1.543371, 1.883151, 554396160.000000, -66.220001,  122.570000,  45.709999, 0.000000,  0.000000 
 4062272.000000, -13.954943 , -1.304088, 2.045863, 554416448.000000, -19.040001,  121.309998,  68.250000, 0.000000,  0.000000 
 4082112.000000, -14.024333 , -1.177269, 2.962314, 554436288.000000, 7.210000,  104.580002,  81.269997, 0.000000,  0.000000 
 4102208.000000, -14.447863 , -0.811167, 3.519842, 554456128.000000, 24.920000,  89.599998,  85.260002, 0.000000,  0.000000 
 4122176.000000, -14.735002 , -0.363709, 3.254239, 554476224.000000, 41.439999,  79.239998,  75.599998, 0.000000,  0.000000 
 4142528.000000, -15.562919 , -0.193819, 2.921637, 554496128.000000, 51.869999,  58.380001,  56.770000, 0.000000,  0.000000 
 4162176.000000, -17.680567 , -0.162712, 2.529213, 554516544.000000, 53.549999,  29.960001,  28.630001, 0.000000,  0.000000 
 4182144.000000, -19.080368 , 0.284746, 1.026521, 554536128.000000, 62.720001,  0.840000,  -0.070000, 0.000000,  0.000000 
 4202176.000000, -16.541582 , 1.928615, -0.282353, 554556096.000000, 76.510002,  -47.880001,  -19.250000, 0.000000,  0.000000 
 4222080.000000, -12.114861 , 2.452643, -0.981057, 554576128.000000, 69.090004,  -130.410004,  -25.969999, 0.000000,  0.000000 
 4242368.000000, -9.631111 , 1.971686, -0.366102, 554596096.000000, 16.660000,  -214.199997,  -35.630001, 0.000000,  0.000000 
 4262144.000000, -9.664611 , 1.117448, 0.504886, 554616384.000000, -57.680000,  -247.309998,  -63.209999, 0.000000,  0.000000 
 4282048.000000, -11.483156 , -0.282353, 0.586242, 554636096.000000, -106.470001,  -238.279999,  -96.040001, 0.000000,  0.000000 
 4302144.000000, -14.041083 , -1.749153, 0.746561, 554656064.000000, -111.090004,  -219.309998,  -121.590004, 0.000000,  0.000000 
 4321984.000000, -14.833108 , -2.677568, 1.239482, 554676096.000000, -82.739998,  -215.180008,  -130.479996, 0.000000,  0.000000 
 4342336.000000, -14.124832 , -2.620141, 2.105684, 554696000.000000, -24.010000,  -221.970001,  -107.590004, 0.000000,  0.000000 
 4362112.000000, -12.524034 , -1.964507, 0.454636, 554716288.000000, 53.619999,  -217.000000,  -69.160004, 0.000000,  0.000000 
 4382016.000000, -11.813366 , -1.191626, -1.265803, 554736064.000000, 134.470001,  -188.369995,  -30.240000, 0.000000,  0.000000 
 4402048.000000, -10.303494 , -0.894916, -2.285146, 554776000.000000, 172.059998,  -175.070007,  13.300000, 614776320.000000,  1010.222900 
 4421888.000000, -8.800802 , -0.241675, -1.928615, 0.000000, 0.000000,  0.000000,  0.000000, 0.000000,  0.000000 
 4442240.000000, -7.604390 , 0.378066, -1.387837, 554795904.000000, 149.449997,  -189.000000,  22.190001, 0.000000,  0.000000 
 4461888.000000, -7.250252 , 0.765703, -1.143769, 554816192.000000, 115.849998,  -191.869995,  20.510000, 0.000000,  0.000000 
 4481856.000000, -7.750352 , 0.153141, -1.392623, 554835904.000000, 77.279999,  -179.690002,  11.970000, 0.000000,  0.000000 
 4501888.000000, -8.597411 , -0.669990, -1.564906, 554855872.000000, 44.310001,  -161.000000,  2.590000, 0.000000,  0.000000 
 4521856.000000, -9.288938 , -1.071985, -1.739582, 554875840.000000, 15.050000,  -146.789993,  3.710000, 0.000000,  0.000000 
 4542144.000000, -9.793823 , -0.952343, -1.593620, 554895872.000000, -2.310000,  -139.300003,  15.400000, 0.000000,  0.000000 
 4561856.000000, -9.999605 , -0.760918, -1.651048, 554916160.000000, -12.670000,  -129.919998,  30.450001, 0.000000,  0.000000 
 4581824.000000, -9.985250 , -1.067199, -2.565106, 554935808.000000, -37.099998,  -113.050003,  44.520000, 0.000000,  0.000000 
 4601792.000000, -10.454242 , -1.488336, -2.995814, 554955840.000000, -78.889999,  -90.019997,  49.630001, 0.000000,  0.000000 
 4621824.000000, -10.432706 , -1.646262, -3.486342, 554975808.000000, -130.479996,  -64.330002,  43.400002, 0.000000,  0.000000 
 4642112.000000, -11.102697 , -0.949951, -3.096312, 554995776.000000, -168.630005,  -42.840000,  31.360001, 0.000000,  0.000000 
 4661760.000000, -11.863614 , -0.387637, -2.646462, 555016064.000000, -188.930008,  -25.480000,  5.950000, 0.000000,  0.000000 
 4681792.000000, -12.803994 , -0.569492, -1.253839, 555035776.000000, -191.869995,  2.310000,  -21.000000, 0.000000,  0.000000 
 4701760.000000, -13.050454 , -1.349552, 0.296710, 555055744.000000, -181.440002,  32.619999,  -40.320000, 0.000000,  0.000000 
 4721728.000000, -12.437892 , -2.282753, 0.772882, 555075776.000000, -145.600006,  75.320000,  -30.940001, 0.000000,  0.000000 
 4742080.000000, -11.205588 , -2.663212, 0.145962, 555095744.000000, -85.470001,  124.529999,  -3.990000, 0.000000,  0.000000 
 4761728.000000, -9.975677 , -2.014757, -0.768096, 555116032.000000, -27.650000,  163.520004,  29.820000, 0.000000,  0.000000 
 4781696.000000, -9.980463 , -1.397408, -0.148355, 555135744.000000, 14.000000,  184.100006,  69.160004, 0.000000,  0.000000 
 4801728.000000, -11.598011 , -0.524028, 1.213161, 555155712.000000, 33.040001,  205.660004,  88.410004, 0.000000,  0.000000 
 4821696.000000, -13.593626 , -0.638884, 0.983450, 555175680.000000, 41.509998,  224.350006,  91.559998, 0.000000,  0.000000 
 4841984.000000, -14.306686 , -0.270389, 0.689133, 555195648.000000, 69.300003,  235.199997,  95.900002, 0.000000,  0.000000 
 4861696.000000, -13.600803 , 0.863809, 0.404387, 555216000.000000, 109.129997,  220.220001,  108.500000, 0.000000,  0.000000 
 4881664.000000, -12.701102 , 1.335195, 0.610170, 555235648.000000, 148.119995,  190.680008,  119.910004, 0.000000,  0.000000 
 4901632.000000, -11.459228 , 2.493321, 0.629312, 555255616.000000, 145.949997,  153.440002,  105.559998, 0.000000,  0.000000 
 4921664.000000, -10.198210 , 4.476971, 2.103291, 555275648.000000, 86.730003,  125.650002,  91.910004, 0.000000,  0.000000 
 4941952.000000, -8.157133 , 4.072584, 3.074777, 555295616.000000, 8.190000,  98.139999,  73.849998, 0.000000,  0.000000 
 4961600.000000, -7.874779 , 2.074577, 3.096312, 555315904.000000, -32.900002,  76.930000,  56.490002, 0.000000,  0.000000 
 4981632.000000, -8.571091 , 1.103091, 2.756532, 555335616.000000, -91.980003,  86.029999,  6.300000, 0.000000,  0.000000 
 5001600.000000, -8.867801 , 1.040878, 2.598605, 555355584.000000, -148.470001,  103.389999,  -1.400000, 0.000000,  0.000000 
 5021568.000000, -9.434900 , 0.492921, 2.720639, 555375552.000000, -170.309998,  107.940002,  25.830000, 0.000000,  0.000000 
 5041856.000000, -10.171888 , -0.342174, 3.349952, 555395584.000000, -166.180008,  108.430000,  37.660000, 0.000000,  0.000000 
 5061632.000000, -11.349157 , -0.734596, 4.072584, 555415872.000000, -156.380005,  111.510002,  48.439999, 0.000000,  0.000000 
 5081536.000000, -12.062220 , -0.715454, 3.450450, 555435584.000000, -126.209999,  116.129997,  68.389999, 0.000000,  0.000000 
 5101568.000000, -12.375679 , -0.545564, 3.294917, 555455552.000000, -100.169998,  122.779999,  95.340004, 0.000000,  0.000000 
 5121536.000000, -13.153346 , -1.703690, 3.160919, 555475520.000000, -48.580002,  137.899994,  102.900002, 0.000000,  0.000000 
 5141824.000000, -14.522040 , -2.395216, 4.206582, 555495488.000000, -14.070000,  142.380005,  95.480003, 0.000000,  0.000000 
 5161536.000000, -15.017354 , -2.912065, 4.869394, 555515840.000000, 7.840000,  138.669998,  75.040001, 0.000000,  0.000000 
 5181504.000000, -15.244674 , -3.402594, 5.276174, 555535488.000000, 22.120001,  117.879997,  62.090000, 0.000000,  0.000000 
 5201472.000000, -14.629718 , -1.899901, 3.694518, 555555456.000000, 48.020000,  71.470001,  37.939999, 0.000000,  0.000000 
 5221504.000000, -15.814165 , 0.346959, 3.364309, 555575488.000000, 86.379997,  24.290001,  15.610000, 0.000000,  0.000000 
 5241792.000000, -17.458033 , 1.194018, 3.550949, 555595456.000000, 104.160004,  -25.549999,  -23.799999, 0.000000,  0.000000 
 5261440.000000, -17.178074 , 0.751346, 2.739782, 555615744.000000, 87.290001,  -65.590004,  -53.970001, 0.000000,  0.000000 
 5281472.000000, -13.519447 , 0.744168, 1.713261, 555635456.000000, 76.580002,  -113.330002,  -73.010002, 0.000000,  0.000000 
 5301440.000000, -10.971091 , 1.079163, 1.426122, 555655424.000000, 59.430000,  -164.990005,  -73.709999, 0.000000,  0.000000 
 5321408.000000, -11.040483 , 1.060020, 1.804188, 555675456.000000, 38.009998,  -197.330002,  -76.930000, 0.000000,  0.000000 
 5341696.000000, -12.677175 , 0.650848, 1.938186, 555695424.000000, 23.170000,  -200.899994,  -98.910004, 0.000000,  0.000000 
 5361408.000000, -14.098512 , 0.478565, 1.093520, 555715712.000000, 21.770000,  -195.509995,  -115.360001, 0.000000,  0.000000 
 5381376.000000, -14.328221 , 0.315853, 0.282353, 555735424.000000, 40.040001,  -199.220001,  -111.440002, 0.000000,  0.000000 
 5401408.000000, -13.737194 , 0.229711, 0.244068, 555755392.000000, 67.620003,  -211.750000,  -93.800003, 0.000000,  0.000000 
 5421376.000000, -12.605389 , 0.153141, 0.059821, 555775360.000000, 84.349998,  -225.119995,  -72.099998, 615775680.000000,  1010.215088 
 5441728.000000, -11.602797 , -0.122034, 0.055035, 555795328.000000, 82.599998,  -225.680008,  -54.180000, 0.000000,  0.000000 
 5461440.000000, -10.758131 , -0.093320, -0.251246, 555815680.000000, 73.639999,  -221.199997,  -48.160000, 0.000000,  0.000000 
 5482112.000000, -9.810574 , -0.165105, -0.528814, 555835392.000000, 65.660004,  -215.880005,  -48.299999, 0.000000,  0.000000 
 5501376.000000, -8.973085 , -0.198604, -0.564706, 555856064.000000, 56.420002,  -215.250000,  -49.279999, 0.000000,  0.000000 
 5521856.000000, -8.286345 , -0.545564, -0.507278, 555875328.000000, 38.009998,  -214.270004,  -54.250000, 0.000000,  0.000000 
 5542080.000000, -7.996813 , -0.562313, -0.344566, 555895808.000000, 21.000000,  -208.809998,  -57.189999, 0.000000,  0.000000 
 5561728.000000, -7.812566 , 0.014357, -0.449851, 555916032.000000, 10.990000,  -197.119995,  -58.450001, 0.000000,  0.000000 
 5581760.000000, -7.594819 , 0.375673, -0.902094, 555935744.000000, 12.390000,  -179.690002,  -47.740002, 0.000000,  0.000000 
 5601728.000000, -7.850852 , 0.043071, -1.028914, 555955776.000000, 16.240000,  -156.029999,  -34.090000, 0.000000,  0.000000 
 5622144.000000, -8.401200 , -0.638884, -1.057628, 555975744.000000, 0.070000,  -129.430008,  -21.490000, 0.000000,  0.000000 
 5642368.000000, -8.906086 , -1.055235, -1.438086, 555996160.000000, -27.370001,  -97.440002,  -2.450000, 0.000000,  0.000000 
 5662016.000000, -8.642875 , -0.787239, -2.411965, 556016384.000000, -47.180000,  -68.879997,  17.150000, 0.000000,  0.000000 
 5682112.000000, -8.350951 , -0.404387, -3.019742, 556036032.000000, -59.290001,  -46.200001,  33.110001, 0.000000,  0.000000 
 5702016.000000, -8.630912 , -0.488136, -2.835495, 556056128.000000, -82.110001,  -26.320000,  35.700001, 0.000000,  0.000000 
 5721792.000000, -9.698111 , -0.741775, -1.782653, 556076032.000000, -113.260002,  3.990000,  24.360001, 0.000000,  0.000000 
 5743360.000000, -11.511869 , -0.818345, -0.847059, 556095808.000000, -132.860001,  40.599998,  10.710000, 0.000000,  0.000000 
 5763072.000000, -13.751552 , -1.079163, -0.277567, 556117376.000000, -119.559998,  81.550003,  8.960000, 0.000000,  0.000000 
 5783104.000000, -15.471991 , -2.421536, 0.232104, 556137088.000000, -73.150002,  126.279999,  18.480000, 0.000000,  0.000000 
 5803072.000000, -15.605989 , -3.201597, 1.332802, 556157120.000000, -5.250000,  163.100006,  33.950001, 0.000000,  0.000000 
 5823104.000000, -13.706088 , -2.598605, 1.684547, 556177024.000000, 53.480000,  197.190002,  66.500000, 0.000000,  0.000000 
 5843328.000000, -11.837293 , -1.454836, 0.839881, 556197120.000000, 109.830002,  225.889999,  106.470001, 0.000000,  0.000000 
 5863040.000000, -11.542977 , -0.382852, 0.260818, 556217344.000000, 158.130005,  235.690002,  121.169998, 0.000000,  0.000000 
 5883072.000000, -12.588640 , 0.229711, 0.713061, 556236992.000000, 173.460007,  234.290009,  113.820000, 0.000000,  0.000000 
 5902976.000000, -13.313664 , 0.478565, 1.660619, 556257088.000000, 151.479996,  226.940002,  88.129997, 0.000000,  0.000000 
 5923072.000000, -13.651052 , 0.428315, 2.435893, 556276928.000000, 108.570000,  217.559998,  58.590000, 0.000000,  0.000000 
 5943296.000000, -14.167902 , 0.203390, 2.043471, 556297024.000000, 71.889999,  211.399994,  30.520000, 0.000000,  0.000000 
 5962944.000000, -14.304294 , 0.768096, 1.512264, 556317248.000000, 49.700001,  208.320007,  4.620000, 0.000000,  0.000000 
 5982976.000000, -13.679767 , 1.990828, 0.717847, 556336960.000000, 40.459999,  193.550003,  -7.280000, 0.000000,  0.000000 
 6002944.000000, -11.916256 , 2.383251, 0.014357, 556356992.000000, 40.670002,  151.199997,  -13.510000, 0.000000,  0.000000 
 6022976.000000, -9.655040 , 2.423929, 0.622134, 556376960.000000, 8.890000,  106.470001,  -28.420000, 0.000000,  0.000000 
 6043200.000000, -7.585248 , 1.672583, 1.172483, 556396992.000000, -77.910004,  70.209999,  -36.189999, 0.000000,  0.000000 
 6062912.000000, -7.087541 , 0.691526, 2.031506, 556417216.000000, -170.029999,  60.130001,  -36.959999, 0.000000,  0.000000 
 6082944.000000, -7.654640 , -0.210568, 2.761317, 556436928.000000, -231.559998,  69.300003,  -45.009998, 0.000000,  0.000000 
 6102848.000000, -8.068598 , -1.031307, 2.998207, 556456960.000000, -243.740005,  81.830002,  -40.389999, 0.000000,  0.000000 
 6122944.000000, -7.968100 , -1.251446, 3.254239, 556476864.000000, -212.660004,  81.970001,  -21.350000, 0.000000,  0.000000 
 6143168.000000, -7.695317 , -1.406980, 3.230310, 556496896.000000, -169.259995,  72.099998,  5.250000, 0.000000,  0.000000 
 6162880.000000, -8.571091 , -1.495514, 3.395415, 556517120.000000, -127.330002,  71.680000,  38.150002, 0.000000,  0.000000 
 6182912.000000, -11.126624 , -1.160519, 3.641876, 556536832.000000, -93.309998,  83.930000,  64.889999, 0.000000,  0.000000 
 6202816.000000, -14.069797 , -1.263410, 3.163311, 556556864.000000, -60.830002,  105.980003,  82.809998, 0.000000,  0.000000 
 6222912.000000, -14.746965 , -1.421337, 3.579663, 556576768.000000, -24.080000,  109.480003,  95.690002, 0.000000,  0.000000 
 6243072.000000, -13.651052 , -1.526621, 4.070191, 556596864.000000, 0.560000,  83.019997,  98.769997, 0.000000,  0.000000 
 6262784.000000, -13.753943 , -1.081556, 3.641876, 556617088.000000, 16.799999,  57.540001,  97.019997, 0.000000,  0.000000 
 6282816.000000, -13.962120 , -0.557528, 2.852244, 556636800.000000, 32.060001,  48.860001,  74.410004, 0.000000,  0.000000 
 6302784.000000, -14.723038 , 0.105284, 3.263810, 556656832.000000, 44.939999,  19.460001,  37.869999, 0.000000,  0.000000 
 6322816.000000, -16.314266 , -0.057428, 2.967100, 556676800.000000, 49.070000,  -21.980000,  -3.990000, 0.000000,  0.000000 
 6343360.000000, -19.032511 , -0.378066, 2.289931, 556696832.000000, 55.790001,  -53.340000,  -40.180000, 0.000000,  0.000000 
 6362688.000000, -18.139988 , -0.421137, 0.993021, 556717312.000000, 62.299999,  -78.820000,  -61.599998, 0.000000,  0.000000 
 6382976.000000, -13.512270 , 0.148355, 0.727418, 556736704.000000, 76.300003,  -118.160004,  -55.790001, 0.000000,  0.000000 
 6402752.000000, -10.619347 , 0.483350, 0.550349, 556756928.000000, 75.879997,  -171.850006,  -41.160000, 0.000000,  0.000000 
 6422784.000000, -10.712667 , 0.294317, 0.641276, 556776704.000000, 60.410000,  -199.009995,  -46.200001, 616777024.000000,  1010.205139 
 6443008.000000, -12.806387 , 0.052642, 0.559920, 556796736.000000, 41.090000,  -197.820007,  -66.639999, 0.000000,  0.000000 
 6462592.000000, -14.311473 , -0.035892, 0.105284, 556816960.000000, 36.049999,  -186.270004,  -80.779999, 0.000000,  0.000000 
 6482624.000000, -13.588840 , -0.294317, -0.007178, 556836608.000000, 45.290001,  -193.759995,  -82.040001, 0.000000,  0.000000 
 6502592.000000, -12.045469 , -0.540778, 0.110070, 556856576.000000, 50.540001,  -206.710007,  -70.279999, 0.000000,  0.000000 
 6522624.000000, -11.246266 , -0.653241, 0.040678, 556876608.000000, 48.930000,  -206.990005,  -51.660000, 0.000000,  0.000000 
 6542912.000000, -10.794022 , -0.129212, -0.047856, 556896576.000000, 52.639999,  -197.610001,  -40.180000, 0.000000,  0.000000 
 6562560.000000, -9.927821 , 0.172283, -0.334995, 556916864.000000, 58.939999,  -195.720001,  -32.130001, 0.000000,  0.000000 
 6582528.000000, -8.769694 , 0.153141, 0.083749, 556936576.000000, 61.180000,  -199.009995,  -25.900000, 0.000000,  0.000000 
 6602560.000000, -7.783852 , -0.114855, 0.428315, 556956544.000000, 44.660000,  -199.430008,  -24.990000, 0.000000,  0.000000 
 6622528.000000, -7.479963 , -0.332602, 0.777667, 556976512.000000, 22.190001,  -188.089996,  -22.750000, 0.000000,  0.000000 
 6642816.000000, -7.645068 , -0.617348, 0.373280, 556996544.000000, 11.830000,  -169.259995,  -19.600000, 0.000000,  0.000000 
 6662528.000000, -8.015956 , -1.203590, -0.267996, 557016832.000000, 17.430000,  -150.080002,  -11.480000, 0.000000,  0.000000 
 6682496.000000, -8.274381 , -1.325624, -0.425922, 557036480.000000, 19.040001,  -135.449997,  -1.820000, 0.000000,  0.000000 
 6702464.000000, -8.590233 , -1.234696, -0.433101, 557056512.000000, 8.680000,  -125.930000,  9.170000, 0.000000,  0.000000 
 6722496.000000, -9.090333 , -1.186840, -0.832702, 557076480.000000, -0.490000,  -109.410004,  17.570000, 0.000000,  0.000000 
 6742784.000000, -8.903693 , -0.921237, -2.237289, 557096448.000000, -9.590000,  -87.919998,  19.320000, 0.000000,  0.000000 
 6762432.000000, -8.441878 , -0.342174, -3.268596, 557116800.000000, -20.370001,  -69.300003,  19.600000, 0.000000,  0.000000 
 6782464.000000, -8.362915 , 0.174676, -3.448057, 557136448.000000, -40.389999,  -58.310001,  11.900000, 0.000000,  0.000000 
 6802432.000000, -9.458827 , -0.009571, -2.725425, 557156416.000000, -75.529999,  -39.340000,  -2.800000, 0.000000,  0.000000 
 6822464.000000, -10.935200 , -0.406780, -1.337588, 557176448.000000, -116.410004,  -7.770000,  -25.760000, 0.000000,  0.000000 
 6842752.000000, -12.457035 , -0.746561, -0.461815, 557196416.000000, -137.479996,  30.309999,  -42.279999, 0.000000,  0.000000 
 6862400.000000, -14.234902 , -0.847059, -0.870987, 557216704.000000, -119.910004,  72.870003,  -38.920002, 0.000000,  0.000000 
 6882432.000000, -15.058033 , -0.863809, -0.796810, 557236416.000000, -78.680000,  128.589996,  -19.600000, 0.000000,  0.000000 
 6902400.000000, -13.600803 , -1.730011, -0.315853, 557256384.000000, -33.040001,  164.080002,  10.640000, 0.000000,  0.000000 
 6922368.000000, -11.818150 , -1.576870, 0.416351, 557276352.000000, 23.520000,  172.339996,  44.310001, 0.000000,  0.000000 
 6942656.000000, -11.399406 , -0.634098, 0.315853, 557296384.000000, 69.370003,  173.669998,  75.250000, 0.000000,  0.000000 
 6962368.000000, -12.401999 , 0.368495, 0.308674, 557316672.000000, 96.949997,  185.360001,  92.050003, 0.000000,  0.000000 
 6982336.000000, -13.342380 , 0.638884, 0.894916, 557336320.000000, 97.160004,  199.850006,  87.150002, 0.000000,  0.000000 
 7002304.000000, -13.806586 , 0.751346, 1.895115, 557356352.000000, 76.090004,  203.770004,  69.440002, 0.000000,  0.000000 
 7022336.000000, -14.266008 , 1.438086, 2.656033, 557376320.000000, 60.619999,  206.710007,  52.430000, 0.000000,  0.000000 
 7042624.000000, -13.737194 , 2.074577, 1.045663, 557396288.000000, 65.449997,  205.869995,  37.240002, 0.000000,  0.000000 
 7062336.000000, -12.143576 , 2.916851, 0.081356, 557416576.000000, 80.709999,  193.059998,  23.590000, 0.000000,  0.000000 
 7082304.000000, -9.860823 , 3.608376, 0.323031, 557436352.000000, 55.720001,  154.210007,  8.190000, 0.000000,  0.000000 
 7102272.000000, -7.968100 , 3.512664, 1.150948, 557456256.000000, -18.690001,  113.610001,  -2.030000, 0.000000,  0.000000 
 7122240.000000, -7.427321 , 2.316252, 1.730011, 557476288.000000, -108.779999,  96.809998,  -11.270000, 0.000000,  0.000000 
 7142592.000000, -7.948956 , 0.693919, 2.206182, 557496256.000000, -177.029999,  103.389999,  -23.170000, 0.000000,  0.000000 
 7162240.000000, -8.499306 , -0.763310, 2.732604, 557516544.000000, -207.199997,  116.760002,  -27.090000, 0.000000,  0.000000 
 7182208.000000, -8.762517 , -1.272982, 3.476771, 557536256.000000, -191.800003,  119.279999,  -7.910000, 0.000000,  0.000000 
 7202240.000000, -9.248260 , -0.966700, 3.359523, 557556224.000000, -141.960007,  114.730003,  27.650000, 0.000000,  0.000000 
 7222208.000000, -10.794022 , -0.480957, 3.074777, 557576192.000000, -79.029999,  116.480003,  64.330002, 0.000000,  0.000000 
 7242496.000000, -12.854243 , -0.241675, 3.081956, 557596160.000000, -31.850000,  124.529999,  89.809998, 0.000000,  0.000000 
 7262208.000000, -14.574683 , -0.236889, 3.342773, 557616512.000000, -15.820000,  129.149994,  108.290001, 0.000000,  0.000000 
 7282176.000000, -15.046068 , -0.526421, 3.393023, 557636160.000000, -16.240000,  125.440002,  120.680000, 0.000000,  0.000000 
 7302144.000000, -14.775680 , -0.765703, 3.113062, 557656192.000000, -18.760000,  111.090004,  122.989998, 0.000000,  0.000000 
 7322176.000000, -14.093725 , -1.107877, 2.957529, 557676160.000000, -24.639999,  91.910004,  110.110001, 0.000000,  0.000000 
 7342464.000000, -13.227524 , -0.803988, 3.692125, 557696128.000000, -31.010000,  78.959999,  97.300003, 0.000000,  0.000000 
 7362112.000000, -13.466805 , -0.957129, 4.005585, 557716416.000000, -52.639999,  41.090000,  59.220001, 0.000000,  0.000000 
 7382144.000000, -14.534004 , -1.363909, 4.369294, 557736128.000000, -66.919998,  5.600000,  15.400000, 0.000000,  0.000000 
 7402112.000000, -17.259430 , -2.297110, 4.536791, 557756096.000000, -58.730000,  -14.140000,  -34.369999, 0.000000,  0.000000 
 7422080.000000, -18.214167 , -2.744568, 3.354738, 557776128.000000, -29.610001,  -31.780001,  -63.770000, 617776384.000000,  1010.190979 
 7442432.000000, -15.409778 , -2.060220, 1.646262, 557796096.000000, 28.420000,  -58.450001,  -62.439999, 0.000000,  0.000000 
 7462080.000000, -11.607583 , -0.507278, 1.509871, 557816384.000000, 89.180000,  -100.169998,  -47.040001, 0.000000,  0.000000 
 7482112.000000, -9.487542 , 0.126820, 1.332802, 557836032.000000, 114.099998,  -142.309998,  -38.570000, 0.000000,  0.000000 
 7502848.000000, -9.611969 , -0.007178, 1.562513, 557856128.000000, 110.739998,  -162.820007,  -50.680000, 0.000000,  0.000000 
 7522112.000000, -11.303694 , -0.428315, 1.476372, 557876864.000000, 99.400002,  -161.279999,  -73.080002, 0.000000,  0.000000 
 7542848.000000, -12.782458 , -0.830309, 1.122234, 557896128.000000, 96.669998,  -154.000000,  -87.639999, 0.000000,  0.000000 
 7562496.000000, -13.284950 , -0.866202, 0.634098, 557916864.000000, 102.340004,  -158.619995,  -85.260002, 0.000000,  0.000000 
 7582464.000000, -12.997812 , -1.074377, -0.102891, 557936448.000000, 111.300003,  -168.630005,  -72.870003, 0.000000,  0.000000 
 7602560.000000, -12.275180 , -1.040878, -0.497707, 557956480.000000, 121.169998,  -178.710007,  -56.560001, 0.000000,  0.000000 
 7622400.000000, -11.306087 , -0.799203, -0.619741, 557976512.000000, 123.340004,  -187.460007,  -43.189999, 0.000000,  0.000000 
 7643200.000000, -10.375278 , -0.373280, -0.569492, 557996416.000000, 115.709999,  -194.809998,  -35.630001, 0.000000,  0.000000 
 7662848.000000, -9.772287 , -0.160319, -0.851845, 558017216.000000, 99.680000,  -199.990005,  -36.959999, 0.000000,  0.000000 
 7682816.000000, -9.336794 , -0.303888, -0.899701, 558036800.000000, 77.910004,  -201.110001,  -45.849998, 0.000000,  0.000000 
 7702848.000000, -8.817552 , -0.646062, -0.811167, 558056832.000000, 46.340000,  -199.990005,  -58.799999, 0.000000,  0.000000 
 7722816.000000, -8.204988 , -0.552742, 0.174676, 558076800.000000, 10.990000,  -196.350006,  -70.419998, 0.000000,  0.000000 
 7743168.000000, -7.812566 , -0.842274, 0.440279, 558096768.000000, -20.230000,  -187.110001,  -79.029999, 0.000000,  0.000000 
 7764096.000000, -7.769495 , -1.253839, 2.309074, 558117120.000000, -35.279999,  -173.949997,  -86.940002, 0.000000,  0.000000 
 7784064.000000, -7.499106 , -1.028914, 5.044070, 558138048.000000, -54.810001,  -154.490005,  -94.709999, 0.000000,  0.000000 
 7804160.000000, -7.326823 , -1.655833, 5.321638, 558158080.000000, -76.090004,  -144.550003,  -92.190002, 0.000000,  0.000000 
 7824064.000000, -8.099705 , -2.536392, 6.125626, 558178176.000000, -58.170002,  -133.910004,  -82.250000, 0.000000,  0.000000 
 7844416.000000, -8.465806 , -2.361716, 5.927022, 558198080.000000, -24.080000,  -106.470001,  -66.430000, 0.000000,  0.000000 
 7864000.000000, -8.197811 , -1.019342, 5.711668, 558218432.000000, 14.630000,  -86.029999,  -26.950001, 0.000000,  0.000000 
 7884032.000000, -7.721639 , -0.330210, 4.761717, 558238016.000000, 51.799999,  -80.220001,  11.550000, 0.000000,  0.000000 
 7904128.000000, -7.776673 , 0.236889, 4.120440, 558258048.000000, 68.250000,  -69.090004,  27.930000, 0.000000,  0.000000 
 7924032.000000, -8.243275 , 0.378066, 4.532006, 558278080.000000, 45.080002,  -47.250000,  25.760000, 0.000000,  0.000000 
 7944384.000000, -8.145168 , -0.351745, 4.146761, 558297984.000000, 9.730000,  -24.850000,  15.400000, 0.000000,  0.000000 
 7964032.000000, -9.260223 , -1.323231, 2.864209, 558318336.000000, -9.380000,  -9.800000,  4.480000, 0.000000,  0.000000 
 7984000.000000, -10.899307 , -1.368695, 1.316052, 558337984.000000, -12.250000,  16.030001,  1.820000, 0.000000,  0.000000 
 8004032.000000, -12.074183 , -0.942772, 0.684347, 558357952.000000, -18.830000,  47.810001,  16.240000, 0.000000,  0.000000 
 8023936.000000, -11.375479 , -0.880559, 0.019143, 558378048.000000, -33.740002,  59.220001,  34.090000, 0.000000,  0.000000 
 8044352.000000, -10.308280 , -1.435694, -1.251446, 558397952.000000, -47.950001,  55.790001,  46.130001, 0.000000,  0.000000 
 8064000.000000, -10.006784 , -1.672583, -2.711068, 558418304.000000, -55.790001,  59.779999,  54.880001, 0.000000,  0.000000 
 8083904.000000, -10.296316 , -1.127020, -2.806781, 558457920.000000, -58.869999,  73.570000,  60.970001, 0.000000,  0.000000 
 8104000.000000, -10.382458 , -0.385244, -2.584249, 0.000000, 0.000000,  0.000000,  0.000000, 0.000000,  0.000000 
 8123904.000000, -10.638489 , 0.361316, -1.875973, 558477952.000000, -43.959999,  85.190002,  58.869999, 0.000000,  0.000000 
 8144256.000000, -10.870593 , 0.428315, -1.715654, 558497920.000000, -25.690001,  100.099998,  48.439999, 0.000000,  0.000000 
 8163840.000000, -11.117055 , 0.502493, -0.631705, 558518272.000000, -13.160000,  124.739998,  39.759998, 0.000000,  0.000000 
 8183872.000000, -10.679168 , 0.830309, -0.016750, 558537856.000000, -14.350000,  148.470001,  36.330002, 0.000000,  0.000000 
 8203968.000000, -10.243673 , 1.423729, 0.516850, 558557888.000000, -1.050000,  169.190002,  44.099998, 0.000000,  0.000000 
 8223872.000000, -10.073784 , 2.414358, 0.337388, 558577920.000000, 32.759998,  179.130005,  48.230000, 0.000000,  0.000000 
 8244224.000000, -9.760324 , 3.000600, -0.490529, 558597824.000000, 60.270000,  180.039993,  50.470001, 0.000000,  0.000000 
 8263872.000000, -9.439686 , 3.448057, -0.729811, 558618176.000000, 55.650002,  172.830002,  55.790001, 0.000000,  0.000000 
 8283840.000000, -9.343972 , 3.014957, -0.612563, 558637824.000000, 5.040000,  162.960007,  68.529999, 0.000000,  0.000000 
 8303872.000000, -10.090532 , 1.749153, -0.342174, 558657792.000000, -67.480003,  159.180008,  77.910004, 0.000000,  0.000000 
 8323776.000000, -11.351551 , 0.612563, -0.217747, 558677888.000000, -143.850006,  163.029999,  79.029999, 0.000000,  0.000000 
 8344128.000000, -12.555140 , -0.550349, -0.045464, 558697792.000000, -200.759995,  166.180008,  85.750000, 0.000000,  0.000000 
 8363776.000000, -13.359130 , -1.773082, 0.234497, 558718144.000000, -225.889999,  163.100006,  95.830002, 0.000000,  0.000000 
 8383808.000000, -14.225330 , -2.715853, 0.476172, 558737792.000000, -233.309998,  155.470001,  105.279999, 0.000000,  0.000000 
 8403776.000000, -15.481563 , -3.337988, 0.617348, 558757760.000000, -219.449997,  151.199997,  120.820000, 0.000000,  0.000000 
 8423744.000000, -16.512869 , -3.739982, 0.866202, 558777792.000000, -184.940002,  148.539993,  135.100006, 618778112.000000,  1010.177856 
 8444096.000000, -16.127625 , -3.902694, 1.954936, 558797760.000000, -146.229996,  143.990005,  142.800003, 0.000000,  0.000000 
 8463744.000000, -14.928822 , -4.113262, 2.849852, 558818112.000000, -121.730003,  140.139999,  147.559998, 0.000000,  0.000000 
 8483712.000000, -13.981262 , -4.840680, 4.058227, 558837696.000000, -99.889999,  138.880005,  142.940002, 0.000000,  0.000000 
 8503616.000000, -12.904492 , -5.185246, 5.235496, 558857664.000000, -72.870003,  132.509995,  122.220001, 0.000000,  0.000000 
 8523648.000000, -11.495120 , -4.297509, 6.230910, 558877632.000000, -41.160000,  115.849998,  90.300003, 0.000000,  0.000000 
 8543936.000000, -10.368099 , -3.515057, 7.039684, 558897600.000000, -14.840000,  96.949997,  58.380001, 0.000000,  0.000000 
 8563584.000000, -11.576476 , -5.065606, 9.482756, 558917888.000000, -13.300000,  75.599998,  21.210001, 0.000000,  0.000000 
 8583616.000000, -15.354744 , -6.881758, 10.411172, 558937600.000000, -19.670000,  62.650002,  -15.190001, 0.000000,  0.000000 
 8603584.000000, -15.538989 , -6.948757, 6.125626, 558957568.000000, 22.680000,  65.590004,  -39.410000, 0.000000,  0.000000 
 8623552.000000, -13.696517 , -3.364309, 4.388437, 558977600.000000, 146.160004,  19.879999,  -33.250000, 0.000000,  0.000000 
 8643904.000000, -12.246466 , -0.447458, 4.089334, 558997568.000000, 227.850006,  -50.330002,  -20.930000, 0.000000,  0.000000 
 8663552.000000, -11.042876 , 0.397209, 3.594020, 559017856.000000, 233.029999,  -97.090004,  -31.570000, 0.000000,  0.000000 
 8683520.000000, -12.430713 , -0.574277, 3.160919, 559037568.000000, 210.910004,  -134.889999,  -50.119999, 0.000000,  0.000000 
 8703552.000000, -17.367105 , -1.938186, 3.266203, 559057536.000000, 194.460007,  -148.050003,  -73.430000, 0.000000,  0.000000 
 8723520.000000, -22.463820 , -3.136991, 0.801596, 559077504.000000, 193.970001,  -144.130005,  -76.300003, 0.000000,  0.000000 
 8743808.000000, -22.372892 , -2.677568, -1.686940, 559097536.000000, 236.250000,  -164.430008,  -58.310001, 0.000000,  0.000000 
 8763520.000000, -20.161924 , -1.088734, -3.163311, 559117824.000000, 290.360016,  -215.250000,  -20.230000, 0.000000,  0.000000 
 8783488.000000, -18.352949 , 0.021535, -3.665804, 559137472.000000, 308.700012,  -250.809998,  19.879999, 0.000000,  0.000000 
 8803456.000000, -16.165909 , 0.552742, -3.613162, 559157504.000000, 273.489990,  -274.329987,  30.870001, 0.000000,  0.000000 
 8823488.000000, -15.203994 , 0.708275, -3.469593, 559177472.000000, 201.320007,  -289.730011,  32.480000, 0.000000,  0.000000 
 8843776.000000, -15.543776 , 0.660419, -3.409772, 559197440.000000, 124.599998,  -295.750000,  16.170000, 0.000000,  0.000000 
 8863424.000000, -15.617953 , 0.078963, -3.065206, 559217728.000000, 54.599998,  -294.420013,  -6.090000, 0.000000,  0.000000 
 8883456.000000, -14.809179 , -0.725025, -3.412165, 559237440.000000, -8.820000,  -292.250000,  -24.290001, 0.000000,  0.000000 
 8903424.000000, -15.572490 , -1.217947, -3.404987, 559257408.000000, -61.250000,  -285.179993,  -36.750000, 0.000000,  0.000000 
 8923392.000000, -15.067604 , -1.909473, -3.069991, 559277440.000000, -97.860001,  -262.290009,  -48.580002, 0.000000,  0.000000 
 8943744.000000, -15.558132 , -1.172483, -4.460221, 559297408.000000, -109.410004,  -253.330002,  -51.939999, 0.000000,  0.000000 
 8963392.000000, -13.744373 , -0.595813, -5.898308, 559317696.000000, -104.019997,  -235.410004,  -51.939999, 0.000000,  0.000000 
 8983360.000000, -10.908878 , -0.200997, -5.548956, 559337408.000000, -76.860001,  -224.770004,  -38.920002, 0.000000,  0.000000 
 9002816.000000, -8.618947 , -0.296710, -5.051248, 559357376.000000, -65.099998,  -221.550003,  -33.529999, 0.000000,  0.000000 
 9023360.000000, -7.606783 , 0.741775, -3.481557, 559376832.000000, -44.240002,  -189.070007,  -24.360001, 0.000000,  0.000000 
 9043648.000000, -7.243074 , 2.644069, -2.529213, 559397376.000000, -11.200000,  -149.589996,  -30.450001, 0.000000,  0.000000 
 9063360.000000, -6.845865 , 3.452843, -3.567699, 559417664.000000, 36.330002,  -91.489998,  -28.630001, 0.000000,  0.000000 
 9083328.000000, -7.427321 , 3.086741, -3.785445, 559437376.000000, 72.169998,  -41.020000,  -19.110001, 0.000000,  0.000000 
 9103296.000000, -8.566305 , 1.919044, -3.079563, 559457344.000000, 53.410000,  13.300000,  -16.100000, 0.000000,  0.000000 
 9123328.000000, -9.705289 , 0.952343, -2.828316, 559477312.000000, -8.120000,  75.110001,  5.110000, 0.000000,  0.000000 
 9143744.000000, -10.880164 , 0.748954, -2.804388, 559497280.000000, -76.019997,  134.190002,  38.920002, 0.000000,  0.000000 
 9163264.000000, -11.966506 , 0.208176, -2.323431, 559517696.000000, -124.459999,  174.930008,  67.480003, 0.000000,  0.000000 
 9183296.000000, -13.875979 , -0.622134, -0.959522, 559537280.000000, -150.149994,  196.139999,  84.419998, 0.000000,  0.000000 
 9203264.000000, -15.852450 , -1.686940, 0.521635, 559557248.000000, -149.309998,  207.550003,  83.230003, 0.000000,  0.000000 
 9223232.000000, -16.048662 , -1.880759, 2.318645, 559577280.000000, -105.419998,  212.589996,  71.610001, 0.000000,  0.000000 
 9243520.000000, -14.691931 , -1.079163, 2.522035, 559597248.000000, -42.700001,  216.930008,  71.330002, 0.000000,  0.000000 
 9263232.000000, -13.115060 , -0.043071, 1.390230, 559617536.000000, 19.670000,  232.540009,  90.650002, 0.000000,  0.000000 
 9283200.000000, -11.758330 , 0.665205, 0.748954, 559637248.000000, 64.120003,  238.279999,  100.519997, 0.000000,  0.000000 
 9303168.000000, -10.518847 , 1.138984, 0.483350, 559657216.000000, 66.360001,  225.680008,  98.209999, 0.000000,  0.000000 
 9323200.000000, -9.887143 , 1.450050, 0.378066, 559677184.000000, 27.440001,  208.949997,  89.529999, 0.000000,  0.000000 
 9343488.000000, -9.860823 , 1.239482, 0.421137, 559697152.000000, -37.869999,  200.410004,  75.459999, 0.000000,  0.000000 
 9363136.000000, -10.506885 , 0.318245, 0.392423, 559717504.000000, -109.340004,  197.889999,  62.860001, 0.000000,  0.000000 
 9383168.000000, -11.480762 , -0.789631, 0.531207, 559737152.000000, -163.729996,  196.419998,  54.810001, 0.000000,  0.000000 
 9403136.000000, -12.387643 , -1.517050, 0.557528, 559757120.000000, -192.850006,  190.610001,  53.900002, 0.000000,  0.000000 
 9423104.000000, -13.959727 , -1.763510, 0.416351, 559777152.000000, -199.430008,  183.259995,  65.870003, 619777472.000000,  1010.159180 
 9443456.000000, -16.610975 , -2.495714, 0.758525, 559797120.000000, -189.419998,  182.279999,  83.860001, 0.000000,  0.000000 
 9463104.000000, -18.290737 , -3.811767, 1.562513, 559817408.000000, -171.009995,  181.440002,  99.610001, 0.000000,  0.000000 
 9483072.000000, -17.446070 , -5.379066, 3.701697, 559837120.000000, -151.899994,  171.990005,  115.220001, 0.000000,  0.000000 
 9503104.000000, -16.146767 , -7.255038, 4.721039, 559857088.000000, -125.860001,  153.860001,  127.120003, 0.000000,  0.000000 
 9523072.000000, -14.136796 , -5.716454, 3.907479, 559877056.000000, -86.379997,  136.710007,  115.220001, 0.000000,  0.000000 
 9543424.000000, -11.504691 , -1.899901, 4.067799, 559897088.000000, -20.580000,  113.120003,  89.599998, 0.000000,  0.000000 
 9563072.000000, -9.994821 , 1.098306, 4.625326, 559917376.000000, 58.170002,  66.290001,  56.279999, 0.000000,  0.000000 
 9583040.000000, -9.470792 , 0.598206, 4.680361, 559937024.000000, 40.599998,  30.450001,  -11.550000, 0.000000,  0.000000 
 9603008.000000, -11.370694 , -2.665605, 4.792823, 559957056.000000, -26.040001,  14.910000,  -66.290001, 0.000000,  0.000000 
 9623040.000000, -15.151353 , -5.084748, 6.209375, 559977024.000000, -52.849998,  17.850000,  -99.330002, 0.000000,  0.000000 
 9643328.000000, -18.496519 , -5.041678, 5.063213, 559996992.000000, -62.720001,  19.110001,  -103.389999, 0.000000,  0.000000 
 9662976.000000, -17.582460 , -1.560120, 2.287539, 560017344.000000, 31.430000,  1.680000,  -84.070000, 0.000000,  0.000000 
 9683008.000000, -15.854843 , -0.078963, 1.569692, 560036992.000000, 159.039993,  -35.560001,  -52.779999, 0.000000,  0.000000 
 9702976.000000, -12.323036 , 1.931008, 1.624727, 560056960.000000, 231.490005,  -92.540001,  -23.730000, 0.000000,  0.000000 
 9722944.000000, -10.796415 , 2.086541, 1.710868, 560076992.000000, 209.369995,  -147.630005,  -29.680000, 0.000000,  0.000000 
 9743296.000000, -13.105491 , 1.521835, 1.308874, 560096960.000000, 163.729996,  -170.029999,  -61.529999, 0.000000,  0.000000 
 9762944.000000, -16.175482 , 0.509671, 0.454636, 560117248.000000, 129.710007,  -165.619995,  -99.889999, 0.000000,  0.000000 
 9782912.000000, -16.666008 , 0.093320, -0.083749, 560136960.000000, 110.180000,  -176.539993,  -107.940002, 0.000000,  0.000000 
 9802944.000000, -15.175282 , 0.184247, -0.279960, 560156928.000000, 103.949997,  -215.669998,  -94.430000, 0.000000,  0.000000 
 9822912.000000, -14.072189 , 0.411566, -0.674776, 560176896.000000, 115.080002,  -241.779999,  -74.340004, 0.000000,  0.000000 
 9843200.000000, -13.026526 , 0.038285, -1.335195, 560196928.000000, 126.279999,  -246.820007,  -61.250000, 0.000000,  0.000000 
 9862912.000000, -11.526227 , -0.093320, -1.272982, 560217216.000000, 122.430000,  -243.600006,  -52.220001, 0.000000,  0.000000 
 9882880.000000, -10.332209 , -0.090927, -1.122234, 560236864.000000, 100.940002,  -241.149994,  -42.910000, 0.000000,  0.000000 
 9902848.000000, -9.645468 , -0.145962, -0.746561, 560256896.000000, 78.120003,  -231.000000,  -37.660000, 0.000000,  0.000000 
 9922880.000000, -9.281759 , -0.488136, -0.930808, 560276864.000000, 56.349998,  -215.949997,  -38.849998, 0.000000,  0.000000 
 9943168.000000, -9.147761 , -1.033699, -1.112662, 560296832.000000, 40.810001,  -200.059998,  -39.689999, 0.000000,  0.000000 
 9962816.000000, -9.190832 , -1.182054, -0.933201, 560317120.000000, 29.190001,  -181.649994,  -38.080002, 0.000000,  0.000000 
 9982848.000000, -9.245867 , -1.387837, -1.091127, 560336832.000000, 22.889999,  -166.180008,  -25.969999, 0.000000,  0.000000 
 10002816.000000, -9.667004 , -1.593620, -1.237089, 560356800.000000, 27.440001,  -145.529999,  -6.090000, 0.000000,  0.000000 
 10022784.000000, -10.030712 , -1.694118, -1.466800, 560376832.000000, 30.309999,  -122.919998,  8.960000, 0.000000,  0.000000 
 10043136.000000, -9.346365 , -1.469193, -1.875973, 560396800.000000, 31.990000,  -101.150002,  29.680000, 0.000000,  0.000000 
 10062848.000000, -8.738588 , -1.201197, -3.378666, 560417088.000000, 30.870001,  -84.980003,  48.580002, 0.000000,  0.000000 
 10082752.000000, -9.372685 , -0.595813, -4.022335, 560436800.000000, 17.920000,  -78.540001,  54.810001, 0.000000,  0.000000 
 10102784.000000, -9.815358 , -0.284746, -4.484150, 560456768.000000, -23.590000,  -50.049999,  44.660000, 0.000000,  0.000000 
 10122752.000000, -9.391829 , -0.279960, -3.567699, 560476736.000000, -78.680000,  -36.400002,  26.530001, 0.000000,  0.000000 
 10143040.000000, -9.561719 , -0.591027, -2.531606, 560496704.000000, -128.309998,  -23.030001,  -0.910000, 0.000000,  0.000000 
 10162752.000000, -11.806188 , -0.820738, -2.050649, 560517056.000000, -152.460007,  8.120000,  -25.620001, 0.000000,  0.000000 
 10182720.000000, -14.225330 , -1.459622, -0.155533, 560536704.000000, -160.509995,  66.779999,  -42.840000, 0.000000,  0.000000 
 10202688.000000, -13.177275 , -2.177469, 1.627119, 560556672.000000, -150.220001,  117.739998,  -41.020000, 0.000000,  0.000000 
 10222720.000000, -11.418550 , -2.467000, 1.629512, 560576704.000000, -106.190002,  152.039993,  -9.520000, 0.000000,  0.000000 
 10243008.000000, -10.401600 , -2.081756, 0.370888, 560596672.000000, -24.710001,  184.520004,  32.970001, 0.000000,  0.000000 
 10262656.000000, -10.657632 , -1.275374, -0.598206, 560616960.000000, 59.920002,  203.699997,  65.449997, 0.000000,  0.000000 
 10282688.000000, -11.602797 , 0.122034, -0.133998, 560636672.000000, 114.520004,  206.009995,  82.599998, 0.000000,  0.000000 
 10302656.000000, -12.157932 , 1.363909, 0.641276, 560656640.000000, 122.779999,  206.919998,  91.419998, 0.000000,  0.000000 
 10322624.000000, -12.820745 , 2.134398, 1.131805, 560676608.000000, 115.849998,  204.119995,  97.090004, 0.000000,  0.000000 
 10342912.000000, -13.098311 , 2.385644, 0.282353, 560696640.000000, 112.770004,  199.639999,  82.110001, 0.000000,  0.000000 
 10362624.000000, -12.674782 , 3.089134, -0.181855, 560716928.000000, 103.180000,  195.020004,  60.900002, 0.000000,  0.000000 
 10382784.000000, -11.631511 , 3.773481, -0.016750, 560736576.000000, 57.750000,  182.419998,  45.709999, 0.000000,  0.000000 
 10402624.000000, -10.442278 , 3.550949, 0.550349, 560776576.000000, -89.739998,  153.649994,  15.470000, 620776896.000000,  1010.142578 
 10422592.000000, -9.652647 , 2.110470, 0.947558, 0.000000, 0.000000,  0.000000,  0.000000, 0.000000,  0.000000 
 10442880.000000, -9.389436 , 0.547956, 1.354338, 560796544.000000, -149.729996,  146.089996,  -0.910000, 0.000000,  0.000000 
 10462592.000000, -9.370294 , -0.449851, 1.773082, 560816896.000000, -180.320007,  141.470001,  -6.300000, 0.000000,  0.000000 
 10482560.000000, -9.571291 , -0.703490, 2.294717, 560836544.000000, -178.430008,  132.789993,  2.240000, 0.000000,  0.000000 
 10502528.000000, -10.035499 , -0.638884, 2.160719, 560856512.000000, -151.130005,  122.849998,  20.299999, 0.000000,  0.000000 
 10522560.000000, -10.801201 , -0.636491, 1.596013, 560876544.000000, -109.830002,  118.090004,  38.639999, 0.000000,  0.000000 
 10542848.000000, -11.837293 , -0.734596, 1.217947, 560896512.000000, -81.340004,  114.730003,  51.310001, 0.000000,  0.000000 
 10562496.000000, -13.464413 , -1.093520, 1.179662, 560916800.000000, -75.739998,  113.680000,  63.420002, 0.000000,  0.000000 
 10582528.000000, -15.180067 , -1.612763, 1.789831, 560936512.000000, -82.250000,  116.270004,  72.379997, 0.000000,  0.000000 
 10602496.000000, -15.237494 , -2.522035, 2.792424, 560956480.000000, -85.050003,  114.449997,  78.540001, 0.000000,  0.000000 
 10622464.000000, -13.598411 , -3.275774, 3.629912, 560996480.000000, -49.560001,  81.550003,  79.519997, 0.000000,  0.000000 
 10642752.000000, -12.232110 , -3.165704, 4.326223, 0.000000, 0.000000,  0.000000,  0.000000, 0.000000,  0.000000 
 10662464.000000, -11.258230 , -2.529213, 3.814159, 561016768.000000, -16.170000,  65.590004,  65.730003, 0.000000,  0.000000 
 10682432.000000, -10.777272 , -1.349552, 3.570091, 561036416.000000, 24.920000,  45.779999,  41.930000, 0.000000,  0.000000 
 10702464.000000, -11.827723 , -0.485743, 3.340380, 561056448.000000, 54.110001,  16.309999,  10.990000, 0.000000,  0.000000 
 10722432.000000, -14.947963 , -0.851845, 3.113062, 561076416.000000, 58.170002,  -2.100000,  -21.280001, 0.000000,  0.000000 
 10742720.000000, -18.623339 , -1.385444, 2.333002, 561096448.000000, 53.270000,  -10.920000,  -48.580002, 0.000000,  0.000000 
 10762432.000000, -20.063820 , -0.796810, 1.150948, 561116736.000000, 61.529999,  -35.630001,  -60.130001, 0.000000,  0.000000 
 10782400.000000, -16.682758 , 0.260818, 0.827917, 561136384.000000, 80.010002,  -78.680000,  -55.790001, 0.000000,  0.000000 
 10802368.000000, -12.593425 , 0.629312, 1.107877, 561156352.000000, 83.790001,  -136.149994,  -46.970001, 0.000000,  0.000000 
 10822400.000000, -10.849058 , 0.354138, 0.835095, 561176384.000000, 62.230000,  -180.880005,  -57.820000, 0.000000,  0.000000 
 10842688.000000, -12.459428 , -0.373280, 0.452243, 561196352.000000, 40.529999,  -192.430008,  -86.029999, 0.000000,  0.000000 
 10862336.000000, -15.321243 , -0.861416, -0.086142, 561216640.000000, 40.110001,  -180.949997,  -116.970001, 0.000000,  0.000000 
 10882368.000000, -15.845272 , -1.117448, -0.667598, 561236352.000000, 57.610001,  -178.990005,  -129.360001, 0.000000,  0.000000 
 10902336.000000, -14.557933 , -1.282553, -0.787239, 561256320.000000, 84.000000,  -208.110001,  -119.699997, 0.000000,  0.000000 
 10922304.000000, -13.569696 , -1.462015, -0.899701, 561276288.000000, 113.330002,  -226.729996,  -103.040001, 0.000000,  0.000000 
 10942592.000000, -12.801601 , -1.261017, -0.914058, 561296320.000000, 145.460007,  -223.440002,  -86.309998, 0.000000,  0.000000 
 10962304.000000, -11.746366 , -0.555135, -1.402194, 561316608.000000, 174.020004,  -217.000000,  -69.720001, 0.000000,  0.000000 
 10982272.000000, -10.561919 , -0.095713, -1.931008, 561336256.000000, 189.910004,  -212.240005,  -52.849998, 0.000000,  0.000000 
 11002304.000000, -9.329616 , 0.258425, -1.883151, 561356288.000000, 181.509995,  -208.880005,  -41.860001, 0.000000,  0.000000 
 11022272.000000, -8.080563 , 0.334995, -1.519442, 561376256.000000, 146.089996,  -208.320007,  -34.790001, 0.000000,  0.000000 
 11042560.000000, -7.305287 , 0.323031, -0.799203, 561396224.000000, 101.080002,  -200.970001,  -31.290001, 0.000000,  0.000000 
 11062272.000000, -7.020542 , 0.272782, -0.363709, 561416576.000000, 64.330002,  -186.479996,  -28.350000, 0.000000,  0.000000 
 11083008.000000, -7.020542 , -0.055035, 0.681954, 561436288.000000, 45.639999,  -166.600006,  -20.020000, 0.000000,  0.000000 
 11102272.000000, -7.161718 , 0.569492, 2.993421, 561457024.000000, 39.060001,  -144.759995,  -3.080000, 0.000000,  0.000000 
 11122752.000000, -6.635297 , 1.375873, 3.835695, 561496704.000000, 57.889999,  -105.910004,  67.129997, 0.000000,  0.000000 
 11142912.000000, -6.333801 , 0.981057, 2.062613, 0.000000, 0.000000,  0.000000,  0.000000, 0.000000,  0.000000 
 11162624.000000, -7.336394 , 0.653241, 0.720240, 561516928.000000, 91.980003,  -77.209999,  105.840004, 0.000000,  0.000000 
 11182720.000000, -9.030513 , 0.648455, -0.119641, 561536640.000000, 75.529999,  -35.700001,  127.120003, 0.000000,  0.000000 
 11202624.000000, -9.961320 , 1.055235, 0.179462, 561556672.000000, 13.440001,  1.610000,  137.830002, 0.000000,  0.000000 
 11223040.000000, -9.044869 , 0.882952, 1.012164, 561576640.000000, -62.299999,  9.450000,  128.520004, 0.000000,  0.000000 
 11243264.000000, -7.592427 , 0.399601, 1.134198, 561597056.000000, -124.529999,  -6.020000,  96.389999, 0.000000,  0.000000 
 11262976.000000, -7.561320 , -0.686740, -0.291924, 561617280.000000, -159.110001,  -4.060000,  57.260002, 0.000000,  0.000000 
 11283072.000000, -8.975478 , -1.584049, -1.292124, 561636992.000000, -153.580002,  16.940001,  12.390000, 0.000000,  0.000000 
 11302912.000000, -11.492726 , -2.014757, -1.406980, 561657024.000000, -122.919998,  40.389999,  -21.840000, 0.000000,  0.000000 
 11323136.000000, -14.117653 , -1.471586, -2.179861, 561676928.000000, -87.779999,  57.049999,  -34.790001, 0.000000,  0.000000 
 11343360.000000, -15.201601 , -0.634098, -2.074577, 561697152.000000, -56.630001,  72.029999,  -28.840000, 0.000000,  0.000000 
 11363072.000000, -13.160524 , -0.930808, -0.868595, 561717376.000000, -33.880001,  90.650002,  -14.000000, 0.000000,  0.000000 
 11383104.000000, -11.320443 , -1.373480, 0.043071, 561737024.000000, -17.570000,  108.150002,  4.760000, 0.000000,  0.000000 
 11403008.000000, -10.368099 , -1.337588, 0.320638, 561777024.000000, 16.030001,  174.300003,  28.559999, 621777344.000000,  1010.126770 
 11422784.000000, -10.466206 , -1.112662, 0.143569, 0.000000, 0.000000,  0.000000,  0.000000, 0.000000,  0.000000 
 11444352.000000, -11.531013 , -0.538385, -0.100499, 561796800.000000, 37.660000,  194.949997,  31.150000, 0.000000,  0.000000 
 11464064.000000, -12.330215 , -0.289532, 0.045464, 561818368.000000, 41.650002,  213.850006,  32.970001, 0.000000,  0.000000 
 11484096.000000, -11.818150 , -0.454636, 0.591027, 561838016.000000, 36.820000,  217.559998,  32.060001, 0.000000,  0.000000 
 11504064.000000, -11.416157 , -0.306281, 1.057628, 561858112.000000, 27.860001,  207.410004,  28.350000, 0.000000,  0.000000 
 11524096.000000, -11.645866 , -0.227318, 1.375873, 561878016.000000, 16.870001,  206.570007,  27.230000, 0.000000,  0.000000 
 11544320.000000, -12.117253 , -0.019143, 1.859223, 561898112.000000, 17.010000,  209.369995,  20.510000, 0.000000,  0.000000 
 11564032.000000, -11.779866 , 0.459422, 2.088934, 561918336.000000, 27.580000,  203.350006,  6.230000, 0.000000,  0.000000 
 11584064.000000, -11.102697 , 1.674976, 2.313859, 561937984.000000, 38.779999,  183.889999,  -6.860000, 0.000000,  0.000000 
 11603968.000000, -10.284351 , 2.210968, 1.689333, 561958080.000000, 36.680000,  159.039993,  -20.020000, 0.000000,  0.000000 
 11624000.000000, -9.801002 , 2.148755, 1.543371, 561977984.000000, 19.600000,  136.850006,  -30.100000, 0.000000,  0.000000 
 11644288.000000, -9.518648 , 1.911865, 1.835295, 561998016.000000, -22.889999,  115.709999,  -42.070000, 0.000000,  0.000000 
 11663936.000000, -9.839286 , 1.849652, 2.249253, 562018240.000000, -70.279999,  105.000000,  -43.610001, 0.000000,  0.000000 
 11684032.000000, -10.480563 , 1.708475, 2.261217, 562037952.000000, -105.769997,  101.849998,  -35.139999, 0.000000,  0.000000 
 11703936.000000, -10.978271 , 1.141376, 2.179861, 562057984.000000, -129.149994,  103.739998,  -21.280001, 0.000000,  0.000000 
 11723968.000000, -11.794223 , 0.251246, 2.481357, 562077888.000000, -153.369995,  100.870003,  -3.780000, 0.000000,  0.000000 
 11744192.000000, -13.536198 , -0.667598, 3.156133, 562097984.000000, -173.250000,  103.320000,  17.500000, 0.000000,  0.000000 
 11763904.000000, -15.330814 , -1.533799, 4.012764, 562118208.000000, -174.789993,  112.840004,  37.590000, 0.000000,  0.000000 
 11783936.000000, -15.309279 , -1.978864, 4.498507, 562137920.000000, -148.820007,  112.980003,  54.950001, 0.000000,  0.000000 
 11803904.000000, -13.533805 , -1.768296, 4.945964, 562157888.000000, -94.919998,  93.519997,  68.809998, 0.000000,  0.000000 
 11823936.000000, -11.739187 , -0.674776, 4.476971, 562177856.000000, -30.940001,  63.209999,  73.989998, 0.000000,  0.000000 
 11844160.000000, -10.590633 , 0.605384, 3.103491, 562197952.000000, 28.559999,  31.430000,  64.050003, 0.000000,  0.000000 
 11863808.000000, -10.557133 , 1.741975, 2.189433, 562237824.000000, 63.209999,  -31.360001,  9.240000, 0.000000,  0.000000 
 11883904.000000, -11.626726 , 2.115255, 1.686940, 0.000000, 0.000000,  0.000000,  0.000000, 0.000000,  0.000000 
 11903808.000000, -13.641481 , 1.189233, 1.261017, 562257920.000000, 33.320000,  -41.720001,  -6.020000, 0.000000,  0.000000 
 11923904.000000, -17.237894 , -0.069392, 2.289931, 562277824.000000, -18.690001,  -57.959999,  -34.790001, 0.000000,  0.000000 
 11944064.000000, -19.513470 , -1.146162, 2.390430, 562297856.000000, -60.549999,  -69.650002,  -55.160000, 0.000000,  0.000000 
 11963776.000000, -19.099510 , -1.524228, 1.794617, 562318080.000000, -70.139999,  -76.790001,  -59.639999, 0.000000,  0.000000 
 11983872.000000, -15.960127 , -2.086541, 0.911665, 562337792.000000, -40.040001,  -97.440002,  -44.240002, 0.000000,  0.000000 
 12003712.000000, -12.882957 , -1.785046, 0.854238, 562357824.000000, 5.600000,  -125.160004,  -26.320000, 0.000000,  0.000000 
 12023808.000000, -11.105090 , -1.220340, 0.583849, 562377728.000000, 45.779999,  -151.759995,  -18.830000, 0.000000,  0.000000 
 12044032.000000, -11.557333 , -0.825524, 0.208176, 562397760.000000, 74.690002,  -166.460007,  -25.340000, 0.000000,  0.000000 
 12063808.000000, -13.737194 , -0.638884, -0.198604, 562418048.000000, 96.320000,  -166.110001,  -44.240002, 0.000000,  0.000000 
 12083776.000000, -15.227923 , -0.648455, -0.825524, 562437760.000000, 110.040001,  -160.300003,  -58.380001, 0.000000,  0.000000 
 12103616.000000, -14.519648 , -0.832702, -1.134198, 562457728.000000, 112.699997,  -172.550003,  -64.889999, 0.000000,  0.000000 
 12123648.000000, -13.105491 , -0.825524, -0.856631, 562477632.000000, 108.360001,  -195.160004,  -63.000000, 0.000000,  0.000000 
 12143936.000000, -12.265609 , -0.631705, -0.646062, 562497600.000000, 101.010002,  -206.990005,  -61.040001, 0.000000,  0.000000 
 12163584.000000, -11.475977 , -0.289532, -0.799203, 562517952.000000, 91.419998,  -206.779999,  -66.779999, 0.000000,  0.000000 
 12183616.000000, -10.415956 , -0.428315, -0.607777, 562537600.000000, 67.760002,  -210.279999,  -75.250000, 0.000000,  0.000000 
 12203584.000000, -9.190832 , -0.796810, 0.545564, 562557568.000000, 31.850000,  -213.850006,  -88.760002, 0.000000,  0.000000 
 12223552.000000, -8.133204 , -0.916451, 1.832902, 562577600.000000, -4.760000,  -219.660004,  -103.180000, 0.000000,  0.000000 
 12243904.000000, -7.441679 , -1.002593, 2.703890, 562597568.000000, -19.110001,  -220.430008,  -112.070000, 0.000000,  0.000000 
 12263552.000000, -6.798009 , -1.363909, 3.912265, 562617856.000000, -4.060000,  -210.490005,  -112.000000, 0.000000,  0.000000 
 12283520.000000, -6.166305 , -1.442872, 5.565705, 562637568.000000, 28.000000,  -204.259995,  -90.860001, 0.000000,  0.000000 
 12303552.000000, -6.498906 , -1.036092, 6.199803, 562657536.000000, 55.720001,  -195.300003,  -55.230000, 0.000000,  0.000000 
 12323520.000000, -8.080563 , -0.464208, 4.692325, 562677504.000000, 87.290001,  -164.430008,  -6.930000, 0.000000,  0.000000 
 12343808.000000, -10.107283 , 0.124427, 2.711068, 562697536.000000, 120.260002,  -110.040001,  47.250000, 0.000000,  0.000000 
 12363520.000000, -10.600205 , 0.736989, 1.387837, 562717824.000000, 117.389999,  -77.209999,  89.250000, 0.000000,  0.000000 
 12383488.000000, -9.332008 , 0.196211, 1.191626, 562737472.000000, 66.290001,  -83.440002,  108.010002, 0.000000,  0.000000 
 12403456.000000, -8.271988 , -0.313460, 1.308874, 562757504.000000, -14.350000,  -96.110001,  90.930000, 0.000000,  0.000000 
 12423488.000000, -7.235896 , -0.701097, 0.263210, 562777472.000000, -91.980003,  -86.660004,  55.230000, 622777792.000000,  1010.109680 
 12443776.000000, -6.187840 , -0.468993, 0.459422, 562797440.000000, -115.290001,  -70.629997,  16.240000, 0.000000,  0.000000 
 12463424.000000, -5.472386 , -0.260818, 1.469193, 562817792.000000, -97.790001,  -66.989998,  -30.660000, 0.000000,  0.000000 
 12483456.000000, -6.833901 , -0.387637, 1.505085, 562837440.000000, -47.810001,  -54.599998,  -50.610001, 0.000000,  0.000000 
 12503424.000000, -10.035499 , 0.296710, 0.095713, 562857408.000000, 8.610000,  5.600000,  -50.049999, 0.000000,  0.000000 
 12523392.000000, -11.516656 , 0.545564, -2.868994, 562877440.000000, 46.900002,  77.910004,  -45.360001, 0.000000,  0.000000 
 12543744.000000, -10.293922 , 1.124627, -3.192025, 562897408.000000, 62.790001,  89.669998,  -17.990000, 0.000000,  0.000000 
 12563392.000000, -8.800802 , 0.961915, -2.191825, 562917696.000000, 20.020000,  75.389999,  8.120000, 0.000000,  0.000000 
 12583360.000000, -8.932407 , 0.430708, -0.315853, 562937408.000000, -36.680000,  87.849998,  25.340000, 0.000000,  0.000000 
 12603392.000000, -10.073784 , -0.299103, 0.447458, 562957376.000000, -87.500000,  126.629997,  24.570000, 0.000000,  0.000000 
 12623360.000000, -11.174481 , -1.478764, 0.454636, 562977344.000000, -101.709999,  170.940002,  24.850000, 0.000000,  0.000000 
 12643648.000000, -11.705689 , -2.234896, 0.957129, 562997376.000000, -80.080002,  205.169998,  35.980000, 0.000000,  0.000000 
 12663360.000000, -11.851650 , -2.067399, 2.127219, 563017664.000000, -40.320000,  224.350006,  55.510002, 0.000000,  0.000000 
 12683328.000000, -12.428321 , -1.225125, 2.548356, 563037312.000000, 20.930000,  236.949997,  73.500000, 0.000000,  0.000000 
 12703296.000000, -12.756138 , -0.026321, 1.605584, 563057344.000000, 105.279999,  248.990005,  81.760002, 0.000000,  0.000000 
 12723328.000000, -12.629318 , 1.921437, -0.145962, 563077312.000000, 186.059998,  248.639999,  78.260002, 0.000000,  0.000000 
 12743616.000000, -12.078968 , 3.945765, -1.325624, 563097280.000000, 215.880005,  230.300003,  63.349998, 0.000000,  0.000000 
 12763264.000000, -10.997414 , 4.878965, -1.280160, 563117568.000000, 176.820007,  198.940002,  44.730000, 0.000000,  0.000000 
 12783296.000000, -10.147961 , 4.103691, -0.519243, 563137280.000000, 70.980003,  171.289993,  17.780001, 0.000000,  0.000000 
 12803264.000000, -10.980663 , 2.627320, 0.799203, 563157248.000000, -62.720001,  164.430008,  -7.910000, 0.000000,  0.000000 
 12823232.000000, -12.411572 , 1.363909, 0.976272, 563177280.000000, -166.529999,  177.169998,  -26.180000, 0.000000,  0.000000 
 12843584.000000, -13.100704 , -0.119641, 0.540778, 563197248.000000, -209.720001,  184.869995,  -24.570000, 0.000000,  0.000000 
 12863232.000000, -13.263416 , -0.835095, 0.741775, 563217536.000000, -211.820007,  176.960007,  -9.800000, 0.000000,  0.000000 
 12883200.000000, -13.887943 , -0.882952, 1.253839, 563237248.000000, -210.279999,  165.130005,  21.770000, 0.000000,  0.000000 
 12903232.000000, -15.371492 , -0.870987, 1.560120, 563257216.000000, -204.539993,  166.740005,  55.090000, 0.000000,  0.000000 
 12923200.000000, -16.747364 , -1.308874, 1.512264, 563277184.000000, -193.970001,  169.470001,  75.949997, 0.000000,  0.000000 
 12943488.000000, -17.115860 , -2.117648, 2.404787, 563297152.000000, -177.940002,  168.210007,  91.139999, 0.000000,  0.000000 
 12963200.000000, -16.340586 , -2.854637, 4.127619, 563317504.000000, -161.419998,  157.080002,  99.820000, 0.000000,  0.000000 
 12983168.000000, -14.813965 , -3.538985, 5.828916, 563337152.000000, -137.270004,  144.690002,  104.790001, 0.000000,  0.000000 
 13003136.000000, -12.325430 , -3.026921, 5.343173, 563357120.000000, -95.900002,  125.510002,  96.320000, 0.000000,  0.000000 
 13023168.000000, -10.420743 , -1.103091, 4.888536, 563377152.000000, -39.900002,  90.860001,  75.739998, 0.000000,  0.000000 
 13043456.000000, -10.346564 , 0.744168, 4.505685, 563417408.000000, 33.599998,  25.129999,  4.340000, 0.000000,  0.000000 
 13063168.000000, -12.275180 , 0.669990, 3.991228, 0.000000, 0.000000,  0.000000,  0.000000, 0.000000,  0.000000 
 13083136.000000, -16.429121 , -1.122234, 4.237689, 563437120.000000, 0.560000,  15.470000,  -34.299999, 0.000000,  0.000000 
 13103104.000000, -18.269201 , -2.739782, 3.275774, 563457088.000000, -34.439999,  7.210000,  -59.220001, 0.000000,  0.000000 
 13123136.000000, -15.723237 , -1.837688, 2.368894, 563477056.000000, -25.480000,  -33.040001,  -54.250000, 0.000000,  0.000000 
 13143424.000000, -12.119646 , -0.133998, 2.316252, 563497152.000000, 18.410000,  -89.739998,  -34.860001, 0.000000,  0.000000 
 13163840.000000, -9.779467 , 0.437887, 2.084148, 563517440.000000, 53.340000,  -135.169998,  -35.000000, 0.000000,  0.000000 
 13183104.000000, -9.712467 , 0.004786, 1.691726, 563537856.000000, 54.529999,  -157.500000,  -57.049999, 0.000000,  0.000000 
 13203136.000000, -11.885150 , -1.105484, 1.442872, 563557056.000000, 42.279999,  -153.160004,  -88.269997, 0.000000,  0.000000 
 13223104.000000, -14.038691 , -2.043471, 1.222732, 563577152.000000, 39.970001,  -138.180008,  -113.680000, 0.000000,  0.000000 
 13243392.000000, -14.646468 , -2.512464, 1.019342, 563597056.000000, 58.310001,  -144.059998,  -115.150002, 0.000000,  0.000000 
 13263104.000000, -14.806787 , -1.756332, 0.416351, 563617344.000000, 102.690002,  -164.009995,  -101.430000, 0.000000,  0.000000 
 13283072.000000, -14.679967 , -0.870987, -1.146162, 563637120.000000, 159.600006,  -175.630005,  -79.169998, 0.000000,  0.000000 
 13303104.000000, -13.363914 , -0.196211, -1.703690, 563657024.000000, 200.270004,  -183.680008,  -58.520000, 0.000000,  0.000000 
 13323072.000000, -11.485549 , 0.583849, -0.940379, 563677120.000000, 190.539993,  -201.039993,  -39.900002, 0.000000,  0.000000 
 13343360.000000, -10.569098 , 1.387837, -0.717847, 563697024.000000, 148.330002,  -214.199997,  -30.520000, 0.000000,  0.000000 
 13363072.000000, -10.140782 , 1.196411, -1.392623, 563717312.000000, 105.769997,  -214.059998,  -34.509998, 0.000000,  0.000000 
 13383040.000000, -9.367901 , 0.624527, -1.469193, 563737088.000000, 60.760002,  -211.119995,  -48.860001, 0.000000,  0.000000 
 13403072.000000, -8.544770 , -0.160319, -0.890130, 563756992.000000, -1.820000,  -215.880005,  -60.549999, 0.000000,  0.000000 
 13422976.000000, -8.571091 , -0.205783, 0.100499, 563777088.000000, -50.049999,  -213.149994,  -66.080002, 623777408.000000,  1010.088745 
 13443328.000000, -8.858230 , -0.449851, -0.196211, 563796928.000000, -68.040001,  -199.149994,  -73.360001, 0.000000,  0.000000 
 13463040.000000, -9.190832 , -0.825524, -0.440279, 563817344.000000, -52.990002,  -180.320007,  -70.980003, 0.000000,  0.000000 
 13482944.000000, -9.013763 , -0.593420, 1.275374, 563836992.000000, -39.830002,  -161.839996,  -61.459999, 0.000000,  0.000000 
 13502976.000000, -8.262416 , 0.179462, 2.768496, 563856896.000000, -34.439999,  -142.449997,  -37.939999, 0.000000,  0.000000 
 13522944.000000, -7.712067 , 0.102891, 2.349752, 563876992.000000, -8.400000,  -123.199997,  -13.440001, 0.000000,  0.000000 
 13543296.000000, -7.786245 , -0.074178, 1.758725, 563896896.000000, 39.549999,  -93.730003,  2.590000, 0.000000,  0.000000 
 13563008.000000, -7.738388 , 0.535992, 1.581656, 563917248.000000, 71.050003,  -64.610001,  17.360001, 0.000000,  0.000000 
 13582848.000000, -7.365108 , 1.818545, 1.454836, 563936960.000000, 74.620003,  -40.459999,  31.570000, 0.000000,  0.000000 
 13602944.000000, -7.295716 , 2.593820, 1.875973, 563956864.000000, 63.840000,  -21.070000,  41.160000, 0.000000,  0.000000 
 13622912.000000, -8.231310 , 2.055435, 2.019542, 563976960.000000, 47.529999,  2.590000,  40.529999, 0.000000,  0.000000 
 13643136.000000, -10.332209 , 0.583849, 1.275374, 563996864.000000, 22.750000,  40.110001,  33.180000, 0.000000,  0.000000 
 13662912.000000, -13.134203 , -0.686740, 0.066999, 564017152.000000, -0.910000,  84.910004,  34.230000, 0.000000,  0.000000 
 13682816.000000, -14.639289 , -1.024128, -0.382852, 564036864.000000, -9.590000,  119.139999,  43.540001, 0.000000,  0.000000 
 13702912.000000, -13.890336 , -0.081356, 0.303888, 564056832.000000, -1.820000,  116.760002,  57.820000, 0.000000,  0.000000 
 13722816.000000, -12.071791 , 0.866202, 0.011964, 564076864.000000, 5.670000,  107.309998,  70.209999, 0.000000,  0.000000 
 13743168.000000, -10.164711 , 0.760918, -0.461815, 564096832.000000, 9.730000,  107.800003,  67.410004, 0.000000,  0.000000 
 13762880.000000, -8.705089 , 0.186640, -0.691526, 564117120.000000, -6.090000,  102.129997,  44.099998, 0.000000,  0.000000 
 13782784.000000, -8.752945 , -0.284746, -0.272782, 564156800.000000, -70.279999,  100.379997,  16.240000, 0.000000,  0.000000 
 13802816.000000, -10.492528 , -0.500100, 0.040678, 0.000000, 0.000000,  0.000000,  0.000000, 0.000000,  0.000000 
 13822720.000000, -11.643474 , -1.088734, 0.220140, 564176832.000000, -105.980003,  123.129997,  1.400000, 0.000000,  0.000000 
 13843136.000000, -10.961520 , -1.706082, 0.897308, 564196736.000000, -117.459999,  139.720001,  -12.110000, 0.000000,  0.000000 
 13862848.000000, -10.336994 , -1.873580, 1.335195, 564217088.000000, -110.669998,  129.149994,  -14.980000, 0.000000,  0.000000 
 13882688.000000, -9.985250 , -1.280160, 1.957329, 564236800.000000, -83.090004,  122.639999,  -4.340000, 0.000000,  0.000000 
 13902784.000000, -10.277173 , -0.555135, 1.433301, 564256704.000000, -38.360001,  131.880005,  5.040000, 0.000000,  0.000000 
 13922688.000000, -9.990034 , 0.356531, 1.256232, 564276736.000000, 14.630000,  141.470001,  10.500000, 0.000000,  0.000000 
 13943872.000000, -8.583055 , 1.363909, 2.029114, 564296704.000000, 34.790001,  131.669998,  12.460000, 0.000000,  0.000000 
 13963456.000000, -8.267202 , 1.792224, 1.744368, 564317888.000000, 23.520000,  118.230003,  16.030001, 0.000000,  0.000000 
 13983424.000000, -8.207381 , 1.686940, 1.062413, 564337472.000000, -1.120000,  115.570000,  15.190001, 0.000000,  0.000000 
 14003520.000000, -8.207381 , 1.268196, 1.115055, 564357440.000000, -23.100000,  119.279999,  14.840000, 0.000000,  0.000000 
 14023488.000000, -8.185846 , 0.725025, 1.607977, 564377536.000000, -59.080002,  114.029999,  14.630000, 0.000000,  0.000000 
 14044224.000000, -9.827322 , 0.777667, 2.330609, 564397440.000000, -95.550003,  111.370003,  24.080000, 0.000000,  0.000000 
 14063808.000000, -10.849058 , 0.684347, 2.103291, 564418240.000000, -115.849998,  120.330002,  37.170002, 0.000000,  0.000000 
 14083840.000000, -12.935599 , 0.205783, 2.108077, 564437824.000000, -117.040001,  140.699997,  50.680000, 0.000000,  0.000000 
 14103872.000000, -14.648861 , -0.229711, 3.349952, 564457792.000000, -119.770004,  146.509995,  63.209999, 0.000000,  0.000000 
 14123776.000000, -15.763916 , -0.045464, 4.223332, 564477888.000000, -119.070000,  138.039993,  78.190002, 0.000000,  0.000000 
 14144128.000000, -15.984055 , -0.205783, 3.720839, 564497728.000000, -92.470001,  130.759995,  94.290001, 0.000000,  0.000000 
 14163712.000000, -14.428720 , 0.172283, 3.955336, 564518144.000000, -43.330002,  115.779999,  98.419998, 0.000000,  0.000000 
 14183680.000000, -12.612568 , 1.289732, 4.218546, 564537664.000000, -12.880000,  77.980003,  91.349998, 0.000000,  0.000000 
 14203712.000000, -11.672189 , 1.818545, 3.400201, 564557696.000000, -5.180000,  45.220001,  78.610001, 0.000000,  0.000000 
 14223680.000000, -11.904292 , 1.014557, 2.522035, 564577664.000000, -15.610000,  24.570000,  52.080002, 0.000000,  0.000000 
 14243968.000000, -12.636496 , -0.287139, 1.887937, 564597632.000000, -46.200001,  4.340000,  20.440001, 0.000000,  0.000000 
 14263680.000000, -15.247066 , -1.026521, 2.471786, 564617984.000000, -77.489998,  -16.660000,  -0.490000, 0.000000,  0.000000 
 14283648.000000, -17.383856 , -1.782653, 2.622534, 564637632.000000, -87.290001,  -24.430000,  -14.630000, 0.000000,  0.000000 
 14303616.000000, -15.486347 , -2.380858, 2.201397, 564657600.000000, -72.590004,  -35.349998,  -21.980000, 0.000000,  0.000000 
 14323648.000000, -12.758532 , -2.481357, 2.151148, 564677632.000000, -39.759998,  -63.560001,  -18.549999, 0.000000,  0.000000 
 14343936.000000, -10.602598 , -1.962115, 2.129612, 564697600.000000, 10.430000,  -83.090004,  -19.320000, 0.000000,  0.000000 
 14363584.000000, -9.848858 , -1.560120, 1.744368, 564717888.000000, 60.060001,  -99.750000,  -28.700001, 0.000000,  0.000000 
 14383744.000000, -11.236694 , -1.421337, 1.351945, 564737600.000000, 95.480003,  -108.430000,  -41.230000, 0.000000,  0.000000 
 14403584.000000, -13.134203 , -1.761117, 0.777667, 564757760.000000, 112.629997,  -98.840004,  -53.130001, 0.000000,  0.000000 
 14423552.000000, -13.028918 , -2.062613, 0.267996, 564777536.000000, 123.270004,  -97.720001,  -54.180000, 624777856.000000,  1010.068665 
 14443840.000000, -11.545370 , -1.677369, 0.007178, 564797568.000000, 141.750000,  -124.459999,  -46.060001, 0.000000,  0.000000 
 14463552.000000, -10.880164 , -0.830309, -0.653241, 564817856.000000, 165.759995,  -148.539993,  -35.700001, 0.000000,  0.000000 
 14483520.000000, -10.399208 , -0.215354, -1.012164, 564837504.000000, 180.250000,  -155.470001,  -32.130001, 0.000000,  0.000000 
 14503488.000000, -9.614362 , 0.181855, -0.870987, 564857536.000000, 164.009995,  -163.449997,  -34.860001, 0.000000,  0.000000 
 14523520.000000, -8.968300 , 0.279960, -0.502493, 564877504.000000, 121.800003,  -174.229996,  -42.770000, 0.000000,  0.000000 
 14543808.000000, -8.599805 , 0.215354, -0.299103, 564897472.000000, 76.650002,  -176.820007,  -56.840000, 0.000000,  0.000000 
 14563456.000000, -8.444271 , -0.186640, -0.569492, 564917824.000000, 41.299999,  -175.839996,  -73.150002, 0.000000,  0.000000 
 14583488.000000, -8.298308 , -0.610170, -0.483350, 564937472.000000, 16.940001,  -174.509995,  -86.449997, 0.000000,  0.000000 
 14603456.000000, -8.190632 , -0.681954, -0.102891, 564957440.000000, -3.920000,  -173.110001,  -91.349998, 0.000000,  0.000000 
 14623424.000000, -8.630912 , -0.380459, 0.090927, 564977472.000000, -16.240000,  -166.880005,  -89.949997, 0.000000,  0.000000 
 14643776.000000, -9.430114 , -0.198604, -0.380459, 564997440.000000, -15.190001,  -154.979996,  -85.610001, 0.000000,  0.000000 
 14663424.000000, -9.748360 , -0.366102, -0.894916, 565017728.000000, -8.190000,  -140.559998,  -78.330002, 0.000000,  0.000000 
 14683456.000000, -9.394222 , -0.418744, -0.629312, 565037440.000000, -15.400000,  -131.039993,  -65.449997, 0.000000,  0.000000 
 14703424.000000, -8.913264 , 0.043071, -0.512064, 565057408.000000, -36.959999,  -121.099998,  -51.310001, 0.000000,  0.000000 
 14723392.000000, -8.336594 , 0.787239, -1.009771, 565077376.000000, -45.990002,  -100.730003,  -40.880001, 0.000000,  0.000000 
 14743680.000000, -7.558927 , 1.038485, -1.239482, 565097408.000000, -43.750000,  -76.370003,  -36.820000, 0.000000,  0.000000 
 14763392.000000, -6.984650 , 0.918844, -0.404387, 565117696.000000, -47.670002,  -53.549999,  -32.410000, 0.000000,  0.000000 
 14783360.000000, -7.317252 , 0.421137, 0.660419, 565137344.000000, -58.939999,  -26.950001,  -27.650000, 0.000000,  0.000000 
 14803392.000000, -9.298509 , 0.416351, 1.249053, 565157376.000000, -45.639999,  14.490000,  -15.960000, 0.000000,  0.000000 
 14823360.000000, -11.669796 , 0.538385, -0.088534, 565177344.000000, -9.170000,  70.699997,  1.400000, 0.000000,  0.000000 
 14843648.000000, -14.124832 , -0.110070, -2.385644, 565197312.000000, 40.810001,  118.860001,  27.510000, 0.000000,  0.000000 
 14863296.000000, -16.529619 , -0.311067, -3.352344, 565217600.000000, 67.970001,  139.789993,  46.200001, 0.000000,  0.000000 
 14883328.000000, -17.405392 , -0.311067, -3.613162, 565237312.000000, 58.939999,  151.619995,  56.209999, 0.000000,  0.000000 
 14903296.000000, -16.232908 , 0.562313, -3.632305, 565257280.000000, 46.759998,  153.089996,  66.220001, 0.000000,  0.000000 
 14923264.000000, -14.615361 , 0.246461, -3.543770, 565277312.000000, 31.360001,  147.910004,  61.459999, 0.000000,  0.000000 
 14943616.000000, -12.803994 , -0.409173, -2.531606, 565297280.000000, -2.240000,  145.460007,  44.170002, 0.000000,  0.000000 
 14963264.000000, -11.435300 , -0.622134, -1.457229, 565317568.000000, -50.540001,  147.139999,  27.930000, 0.000000,  0.000000 
 14983232.000000, -11.837293 , -0.744168, -0.531207, 565337280.000000, -85.680000,  150.430008,  17.710001, 0.000000,  0.000000 
 15003264.000000, -13.399807 , -0.626920, 0.373280, 565357248.000000, -100.169998,  170.520004,  9.100000, 0.000000,  0.000000 
 15023232.000000, -14.115260 , -0.741775, 1.246661, 565377216.000000, -100.239998,  189.770004,  11.760000, 0.000000,  0.000000 
 15043520.000000, -12.954741 , -0.497707, 2.206182, 565397248.000000, -80.989998,  199.009995,  28.280001, 0.000000,  0.000000 
 15063232.000000, -11.416157 , -0.141177, 2.438286, 565417536.000000, -50.049999,  194.110001,  52.360001, 0.000000,  0.000000 
 15083200.000000, -10.382458 , 0.153141, 2.790031, 565437248.000000, -13.300000,  188.860001,  70.910004, 0.000000,  0.000000 
 15103168.000000, -9.863215 , 0.363709, 3.321238, 565457216.000000, 15.330000,  180.250000,  77.349998, 0.000000,  0.000000 
 15123200.000000, -9.499505 , 0.792024, 3.656233, 565477184.000000, 32.830002,  172.059998,  74.830002, 0.000000,  0.000000 
 15143488.000000, -9.351151 , 1.162912, 3.608376, 565497152.000000, 43.959999,  162.470001,  68.110001, 0.000000,  0.000000 
 15163264.000000, -9.140583 , 1.234696, 3.122634, 565517440.000000, 51.869999,  144.270004,  58.240002, 0.000000,  0.000000 
 15183936.000000, -8.958728 , 1.356731, 2.801995, 565537216.000000, 47.250000,  121.449997,  48.930000, 0.000000,  0.000000 
 15203200.000000, -9.150154 , 1.725225, 2.567499, 565557952.000000, 21.559999,  99.889999,  42.070000, 0.000000,  0.000000 
 15223232.000000, -9.623933 , 1.686940, 2.179861, 565577216.000000, -15.330000,  81.620003,  37.240002, 0.000000,  0.000000 
 15243520.000000, -10.183852 , 0.993021, 2.093720, 565597184.000000, -54.110001,  65.029999,  30.450001, 0.000000,  0.000000 
 15263168.000000, -11.148161 , 0.160319, 2.280360, 565617472.000000, -92.959999,  47.529999,  21.700001, 0.000000,  0.000000 
 15283200.000000, -12.303895 , -0.394816, 2.117648, 565637184.000000, -120.540001,  35.000000,  14.770000, 0.000000,  0.000000 
 15303104.000000, -12.796815 , -0.624527, 1.426122, 565677120.000000, -131.740005,  -1.820000,  5.600000, 0.000000,  0.000000 
 15323200.000000, -12.698709 , -0.753739, 1.050449, 0.000000, 0.000000,  0.000000,  0.000000, 0.000000,  0.000000 
 15343424.000000, -12.696317 , -0.473779, 0.823131, 565697152.000000, -133.559998,  -30.030001,  -3.850000, 0.000000,  0.000000 
 15363136.000000, -11.990433 , -0.533599, -0.007178, 565717440.000000, -136.850006,  -53.480000,  -21.700001, 0.000000,  0.000000 
 15383168.000000, -10.968699 , -0.892523, -0.057428, 565737088.000000, -139.580002,  -80.150002,  -46.759998, 0.000000,  0.000000 
 15403072.000000, -10.308280 , -0.930808, 0.251246, 565757120.000000, -144.410004,  -103.529999,  -76.720001, 0.000000,  0.000000 
 15423168.000000, -10.258030 , -0.964308, -0.062213, 565777088.000000, -133.419998,  -118.930000,  -104.300003, 625777408.000000,  1010.047302 
 15443392.000000, -11.038091 , -0.981057, -0.133998, 565797120.000000, -100.800003,  -119.209999,  -128.589996, 0.000000,  0.000000 
 15463040.000000, -11.755937 , -0.849452, 0.167498, 565817344.000000, -70.559998,  -110.949997,  -141.259995, 0.000000,  0.000000 
 15483136.000000, -12.468999 , -1.284946, 0.959522, 565836992.000000, -42.770000,  -95.340004,  -129.009995, 0.000000,  0.000000 
 15503040.000000, -13.124631 , -2.072184, 1.966900, 565857088.000000, -12.180000,  -73.360001,  -104.720001, 0.000000,  0.000000 
 15523072.000000, -12.564712 , -2.935993, 2.524428, 565877056.000000, 21.980000,  -41.860001,  -70.629997, 0.000000,  0.000000 
 15543296.000000, -11.499906 , -3.488736, 3.215954, 565897088.000000, 73.849998,  -14.560000,  -26.320000, 0.000000,  0.000000 
 15563008.000000, -11.799009 , -4.223332, 4.094120, 565917312.000000, 134.190002,  -0.980000,  13.230000, 0.000000,  0.000000 
 15583040.000000, -14.404793 , -5.458029, 5.740381, 565937024.000000, 193.690002,  12.040000,  33.320000, 0.000000,  0.000000 
 15603008.000000, -17.503498 , -6.144768, 2.615355, 565957056.000000, 242.830002,  19.809999,  25.830000, 0.000000,  0.000000 
 15623040.000000, -19.008583 , -4.594220, -1.344766, 565976960.000000, 252.210007,  1.680000,  -16.379999, 0.000000,  0.000000 
 15643264.000000, -16.938791 , -1.686940, -2.727818, 565996992.000000, 181.789993,  -71.260002,  -75.949997, 0.000000,  0.000000 
 15662976.000000, -14.009976 , -1.373480, -1.150948, 566017216.000000, 57.750000,  -162.050003,  -122.150002, 0.000000,  0.000000 
 15683008.000000, -11.609976 , -3.132205, 0.351745, 566036928.000000, -46.759998,  -244.089996,  -196.559998, 0.000000,  0.000000 
 15702912.000000, -10.234102 , -3.780660, 1.318445, 566057024.000000, -65.590004,  -277.829987,  -273.279999, 0.000000,  0.000000 
 15723008.000000, -8.472985 , -4.177868, 1.024128, 566076928.000000, -27.440001,  -270.970001,  -303.799988, 0.000000,  0.000000 
 15743168.000000, -7.429714 , -4.134798, 1.258625, 566096960.000000, 23.030001,  -249.410004,  -278.600006, 0.000000,  0.000000 
 15762880.000000, -6.585048 , -3.701697, 1.880759, 566117184.000000, 52.080002,  -232.190002,  -250.740005, 0.000000,  0.000000 
 15782912.000000, -6.147161 , -3.282953, 1.356731, 566136896.000000, 85.540001,  -204.820007,  -204.119995, 0.000000,  0.000000 
 15802880.000000, -6.173482 , -2.481357, 0.052642, 566156928.000000, 133.699997,  -173.320007,  -152.110001, 0.000000,  0.000000 
 15822912.000000, -6.415157 , -1.433301, -1.215554, 566176832.000000, 182.070007,  -145.110001,  -105.769997, 0.000000,  0.000000 
 15843136.000000, -6.467800 , -0.703490, -1.550549, 566196928.000000, 205.940002,  -127.120003,  -57.820000, 0.000000,  0.000000 
 15862784.000000, -6.561120 , -0.210568, -0.600598, 566217152.000000, 196.630005,  -115.709999,  -15.400000, 0.000000,  0.000000 
 15882880.000000, -6.747760 , -0.277567, -0.284746, 566236800.000000, 183.190002,  -102.269997,  16.590000, 0.000000,  0.000000 
 15902848.000000, -7.125826 , -0.725025, -0.674776, 566256896.000000, 151.830002,  -91.559998,  29.190001, 0.000000,  0.000000 
 15922880.000000, -7.357929 , -0.701097, -0.741775, 566276800.000000, 131.460007,  -60.549999,  49.070000, 0.000000,  0.000000 
 15943104.000000, -7.180861 , -0.454636, -0.602991, 566296832.000000, 108.080002,  -29.540001,  61.599998, 0.000000,  0.000000 
 15962816.000000, -6.989435 , -0.344566, -0.349352, 566317056.000000, 78.610001,  -1.540000,  68.389999, 0.000000,  0.000000 
 15982848.000000, -6.441479 , -0.160319, 0.102891, 566336768.000000, 47.110001,  24.850000,  62.230000, 0.000000,  0.000000 
 16002752.000000, -6.252446 , -0.200997, 0.045464, 566356800.000000, 21.420000,  52.920002,  47.599998, 0.000000,  0.000000 
 16022784.000000, -7.180861 , -0.667598, -0.117248, 566376768.000000, 8.820000,  86.169998,  31.920000, 0.000000,  0.000000 
 16043008.000000, -9.449257 , -0.808774, -0.265603, 566396800.000000, 5.180000,  127.540001,  19.110001, 0.000000,  0.000000 
 16062848.000000, -12.540783 , -0.914058, -0.260818, 566417024.000000, 6.510000,  176.259995,  18.900000, 0.000000,  0.000000 
 16082752.000000, -15.780666 , -0.997807, -0.768096, 566436800.000000, 14.770000,  220.149994,  35.209999, 0.000000,  0.000000 
 16102720.000000, -17.666210 , -1.002593, -1.435694, 566456768.000000, 20.370001,  250.880005,  56.209999, 0.000000,  0.000000 
 16122752.000000, -19.104296 , -0.543171, -0.583849, 566476672.000000, 25.760000,  271.950012,  82.250000, 0.000000,  0.000000 
 16142976.000000, -19.618752 , -0.485743, -0.117248, 566496768.000000, 41.230000,  285.950012,  109.760002, 0.000000,  0.000000 
 16162624.000000, -18.075382 , -0.057428, 0.969093, 566536640.000000, 95.830002,  295.820007,  123.059998, 0.000000,  0.000000 
 16182592.000000, -16.185053 , 0.557528, 1.464408, 0.000000, 0.000000,  0.000000,  0.000000, 0.000000,  0.000000 
 16202560.000000, -15.574883 , 1.036092, 2.067399, 566556608.000000, 109.340004,  286.299988,  114.029999, 0.000000,  0.000000 
 16222592.000000, -15.407385 , 1.529014, 2.232504, 566576576.000000, 102.340004,  270.760010,  86.940002, 0.000000,  0.000000 
 16242880.000000, -14.610575 , 2.234896, 1.529014, 566596544.000000, 78.959999,  249.550003,  56.490002, 0.000000,  0.000000 
 16262528.000000, -12.997812 , 3.031706, 0.409173, 566616832.000000, 55.580002,  210.210007,  26.110001, 0.000000,  0.000000 
 16282560.000000, -11.763116 , 3.684947, -0.241675, 566636544.000000, 24.850000,  155.119995,  -1.400000, 0.000000,  0.000000 
 16302528.000000, -10.887343 , 3.519842, -0.208176, 566656512.000000, -27.930000,  106.540001,  -27.299999, 0.000000,  0.000000 
 16322496.000000, -10.033106 , 2.859423, 0.277567, 566676544.000000, -100.660004,  70.209999,  -52.360001, 0.000000,  0.000000 
 16342848.000000, -8.898908 , 1.658226, 0.533599, 566696512.000000, -171.360001,  38.990002,  -68.389999, 0.000000,  0.000000 
 16362496.000000, -7.793423 , 0.445065, 1.093520, 566716800.000000, -223.720001,  12.740000,  -73.709999, 0.000000,  0.000000 
 16382464.000000, -6.805188 , -0.480957, 1.734797, 566736512.000000, -260.750000,  -7.980000,  -73.290001, 0.000000,  0.000000 
 16402496.000000, -6.288338 , -0.993021, 2.115255, 566756480.000000, -275.450012,  -17.500000,  -59.990002, 0.000000,  0.000000 
 16422464.000000, -6.195018 , -1.442872, 2.009971, 566776448.000000, -265.369995,  -15.400000,  -37.799999, 626776768.000000,  1010.024963 
 16442752.000000, -6.563512 , -1.648655, 1.801795, 566796480.000000, -241.500000,  -6.440000,  -11.900000, 0.000000,  0.000000 
 16462464.000000, -7.156933 , -1.758725, 1.875973, 566816768.000000, -218.119995,  2.030000,  14.980000, 0.000000,  0.000000 
 16482432.000000, -7.874779 , -1.957329, 1.210768, 566836416.000000, -193.619995,  8.750000,  40.459999, 0.000000,  0.000000 
 16502400.000000, -8.999406 , -2.105684, 0.619741, 566856448.000000, -164.149994,  17.430000,  63.279999, 0.000000,  0.000000 
 16522432.000000, -10.779665 , -2.153540, 0.346959, 566876416.000000, -137.759995,  27.580000,  79.309998, 0.000000,  0.000000 
 16542720.000000, -13.095919 , -2.074577, 0.208176, 566896384.000000, -120.400002,  42.560001,  89.949997, 0.000000,  0.000000 
 16562368.000000, -14.225330 , -2.277967, 1.217947, 566916672.000000, -106.680000,  51.310001,  93.660004, 0.000000,  0.000000 
 16582400.000000, -12.638889 , -2.397608, 3.280560, 566936384.000000, -87.150002,  38.360001,  90.860001, 0.000000,  0.000000 
 16602368.000000, -10.408779 , -1.859223, 4.175476, 566956352.000000, -54.389999,  15.680000,  78.750000, 0.000000,  0.000000 
 16622336.000000, -9.384650 , -0.866202, 3.596412, 566976384.000000, -4.900000,  12.320000,  56.000000, 0.000000,  0.000000 
 16642688.000000, -10.470992 , -0.452243, 2.428715, 566996352.000000, 59.709999,  19.460001,  24.080000, 0.000000,  0.000000 
 16662336.000000, -12.394822 , -0.220140, 1.548156, 567016640.000000, 117.320000,  12.880000,  -18.059999, 0.000000,  0.000000 
 16682304.000000, -14.723038 , 0.122034, 1.682154, 567036352.000000, 129.289993,  -9.310000,  -45.779999, 0.000000,  0.000000 
 16702336.000000, -15.967306 , 0.313460, 2.182254, 567056320.000000, 95.970001,  -29.680000,  -50.540001, 0.000000,  0.000000 
 16722304.000000, -14.703895 , -0.129212, 2.167897, 567076288.000000, 52.220001,  -38.920002,  -44.170002, 0.000000,  0.000000 
 16742592.000000, -13.337594 , -0.311067, 2.313859, 567096320.000000, 22.330000,  -49.139999,  -42.980000, 0.000000,  0.000000 
 16762304.000000, -11.729616 , -0.509671, 2.847459, 567116608.000000, 8.890000,  -47.529999,  -52.009998, 0.000000,  0.000000 
 16782272.000000, -10.430314 , -1.103091, 2.845066, 567136256.000000, 16.379999,  -54.320000,  -69.019997, 0.000000,  0.000000 
 16802240.000000, -11.081161 , -2.002793, 3.127419, 567156288.000000, 40.740002,  -68.180000,  -90.230003, 0.000000,  0.000000 
 16822272.000000, -13.282558 , -2.507678, 2.931208, 567176256.000000, 84.070000,  -73.709999,  -108.709999, 0.000000,  0.000000 
 16842560.000000, -14.610575 , -2.289931, 1.655833, 567196224.000000, 148.050003,  -75.110001,  -108.639999, 0.000000,  0.000000 
 16862208.000000, -14.143975 , -1.395016, -0.033500, 567216512.000000, 223.020004,  -91.209999,  -90.160004, 0.000000,  0.000000 
 16882240.000000, -13.083955 , -0.607777, -1.014557, 567236224.000000, 282.309998,  -119.980003,  -68.320000, 0.000000,  0.000000 
 16902208.000000, -12.193825 , 0.129212, -1.323231, 567256192.000000, 296.100006,  -145.039993,  -49.980000, 0.000000,  0.000000 
 16922176.000000, -11.282159 , 0.667598, -1.387837, 567276160.000000, 264.880005,  -161.630005,  -40.670002, 0.000000,  0.000000 
 16942464.000000, -10.303494 , 0.744168, -1.095913, 567296192.000000, 208.949997,  -171.779999,  -40.180000, 0.000000,  0.000000 
 16962176.000000, -9.257831 , 0.378066, -0.961915, 567316480.000000, 146.649994,  -178.080002,  -48.650002, 0.000000,  0.000000 
 16982144.000000, -8.480164 , -0.155533, -0.911665, 567336128.000000, 90.300003,  -179.830002,  -60.340000, 0.000000,  0.000000 
 17002112.000000, -7.968100 , -0.535992, -0.815953, 567356160.000000, 47.459999,  -177.729996,  -70.489998, 0.000000,  0.000000 
 17022144.000000, -7.685746 , -0.885344, -0.617348, 567376128.000000, 20.440001,  -171.639999,  -74.970001, 0.000000,  0.000000 
 17042432.000000, -7.465607 , -1.098306, -0.495314, 567396096.000000, 6.510000,  -162.889999,  -72.519997, 0.000000,  0.000000 
 17062144.000000, -7.262216 , -1.294517, -0.758525, 567416448.000000, -1.750000,  -150.220001,  -66.010002, 0.000000,  0.000000 
 17082112.000000, -7.003791 , -1.507478, -0.435494, 567436160.000000, -9.450000,  -133.070007,  -55.790001, 0.000000,  0.000000 
 17102080.000000, -6.798009 , -1.713261, 0.567099, 567456064.000000, -15.050000,  -116.270004,  -42.139999, 0.000000,  0.000000 
 17122048.000000, -6.455836 , -1.579263, 1.713261, 567476096.000000, -18.900000,  -102.480003,  -32.970001, 0.000000,  0.000000 
 17142400.000000, -5.958128 , -1.617548, 3.235096, 567496064.000000, -29.120001,  -89.669998,  -35.139999, 0.000000,  0.000000 
 17162048.000000, -5.556134 , -1.670190, 6.546762, 567516352.000000, -51.099998,  -79.940002,  -46.340000, 0.000000,  0.000000 
 17182016.000000, -5.565705 , -1.840081, 9.714860, 567536064.000000, -82.669998,  -75.110001,  -63.910000, 0.000000,  0.000000 
 17202816.000000, -5.938986 , -2.952743, 11.095518, 567556032.000000, -86.660004,  -59.150002,  -73.360001, 0.000000,  0.000000 
 17222080.000000, -6.317052 , -2.868994, 11.552547, 567576832.000000, -41.930000,  -40.670002,  -64.330002, 0.000000,  0.000000 
 17242432.000000, -6.049056 , -1.643869, 10.782058, 567596096.000000, 20.580000,  -32.480000,  -34.860001, 0.000000,  0.000000 
 17262016.000000, -6.400801 , -0.397209, 9.638289, 567616448.000000, 86.660004,  -36.820000,  11.480000, 0.000000,  0.000000 
 17282048.000000, -7.446464 , 0.758525, 8.322237, 567656064.000000, 104.090004,  -32.549999,  50.400002, 0.000000,  0.000000 
 17302080.000000, -8.343772 , 1.485943, 6.580262, 0.000000, 0.000000,  0.000000,  0.000000, 0.000000,  0.000000 
 17322048.000000, -8.932407 , 1.134198, 4.929214, 567676096.000000, 35.700001,  -23.030001,  50.889999, 0.000000,  0.000000 
 17342400.000000, -9.791430 , -0.069392, 4.031906, 567696000.000000, -52.990002,  -14.700000,  38.570000, 0.000000,  0.000000 
 17362048.000000, -11.035697 , -1.509871, 4.175476, 567716352.000000, -133.630005,  2.100000,  22.120001, 0.000000,  0.000000 
 17382016.000000, -12.141183 , -2.912065, 4.177868, 567736000.000000, -176.399994,  21.490000,  23.799999, 0.000000,  0.000000 
 17402048.000000, -12.268002 , -3.751946, 3.275774, 567776064.000000, -113.050003,  51.869999,  66.150002, 627776384.000000,  1010.006470 
 17421952.000000, -10.944772 , -3.462414, 2.081756, 0.000000, 0.000000,  0.000000,  0.000000, 0.000000,  0.000000 
 17442304.000000, -10.083356 , -3.196811, 1.318445, 567795968.000000, -57.330002,  50.119999,  94.010002, 0.000000,  0.000000 
 17461952.000000, -10.583455 , -3.019742, 1.002593, 567816320.000000, -9.100000,  51.939999,  108.779999, 0.000000,  0.000000 
 17481984.000000, -11.121840 , -2.443072, 0.739382, 567835968.000000, 23.799999,  67.550003,  105.629997, 0.000000,  0.000000 
 17501952.000000, -10.296316 , -1.818545, -0.081356, 567855936.000000, 48.930000,  77.000000,  97.230003, 0.000000,  0.000000 
 17521920.000000, -8.989835 , -1.170090, -0.787239, 567875968.000000, 74.059998,  71.540001,  85.750000, 0.000000,  0.000000 
 17542272.000000, -8.571091 , -0.026321, -1.634298, 567895936.000000, 83.860001,  62.160000,  67.480003, 0.000000,  0.000000 
 17561920.000000, -8.956335 , 1.663012, -2.060220, 567916288.000000, 76.860001,  62.860001,  47.740002, 0.000000,  0.000000 
 17581888.000000, -8.812766 , 2.734996, -1.811367, 567935872.000000, 48.860001,  70.910004,  30.520000, 0.000000,  0.000000 
 17601920.000000, -7.716853 , 2.139183, -0.591027, 567955840.000000, 7.140000,  71.540001,  18.620001, 0.000000,  0.000000 
 17621888.000000, -6.867401 , 0.746561, 0.401994, 567975936.000000, -34.580002,  67.830002,  8.400000, 0.000000,  0.000000 
 17642240.000000, -6.867401 , -0.473779, 1.430908, 567995840.000000, -60.689999,  79.169998,  6.090000, 0.000000,  0.000000 
 17661824.000000, -7.456036 , -1.880759, 2.141576, 568016192.000000, -58.170002,  106.750000,  22.120001, 0.000000,  0.000000 
 17681856.000000, -8.169096 , -1.990828, 1.306481, 568035840.000000, -1.260000,  136.850006,  56.980000, 0.000000,  0.000000 
 17701888.000000, -7.889136 , 0.052642, -0.198604, 568055808.000000, 93.940002,  148.889999,  78.470001, 0.000000,  0.000000 
 17721792.000000, -7.546963 , 2.210968, -1.100698, 568075904.000000, 161.070007,  146.860001,  92.540001, 0.000000,  0.000000 
 17742144.000000, -8.563912 , 3.019742, -1.000200, 568095744.000000, 143.430008,  146.440002,  90.930000, 0.000000,  0.000000 
 17761792.000000, -10.344172 , 2.256432, -0.571885, 568116160.000000, 57.260002,  162.330002,  61.389999, 0.000000,  0.000000 
 17781760.000000, -11.475977 , 0.602991, -0.251246, 568135808.000000, 7.700000,  172.759995,  25.549999, 0.000000,  0.000000 
 17801856.000000, -12.361321 , -0.229711, -0.095713, 568155776.000000, -71.260002,  180.110001,  14.210000, 0.000000,  0.000000 
 17821760.000000, -12.971491 , -0.476172, -0.253639, 568175808.000000, -123.199997,  174.020004,  4.130000, 0.000000,  0.000000 
 17842112.000000, -13.318451 , -0.717847, 0.382852, 568195712.000000, -157.430008,  177.800003,  9.380000, 0.000000,  0.000000 
 17861760.000000, -13.335200 , -0.894916, 0.957129, 568216064.000000, -182.070007,  180.740005,  19.670000, 0.000000,  0.000000 
 17881728.000000, -13.938192 , -1.270589, 2.282753, 568235712.000000, -193.339996,  173.529999,  26.460001, 0.000000,  0.000000 
 17901760.000000, -14.744574 , -1.275374, 2.979064, 568255680.000000, -178.360001,  172.830002,  35.070000, 0.000000,  0.000000 
 17921728.000000, -14.155938 , -0.808774, 3.426522, 568275712.000000, -139.509995,  175.559998,  43.119999, 0.000000,  0.000000 
 17942080.000000, -12.892529 , -0.090927, 4.127619, 568295680.000000, -96.180000,  166.740005,  51.730000, 0.000000,  0.000000 
 17961664.000000, -11.909079 , 0.246461, 4.733003, 568316032.000000, -65.519997,  150.220001,  59.639999, 0.000000,  0.000000 
 17981632.000000, -11.538191 , -0.002393, 5.010571, 568335616.000000, -41.930000,  138.809998,  61.110001, 0.000000,  0.000000 
 18001728.000000, -11.514263 , -0.198604, 5.395815, 568355648.000000, -17.639999,  125.860001,  55.230000, 0.000000,  0.000000 
 18021632.000000, -11.748759 , -0.239282, 5.737988, 568375744.000000, 1.890000,  110.809998,  48.650002, 0.000000,  0.000000 
 18041984.000000, -11.710474 , -0.253639, 5.192425, 568395648.000000, 18.620001,  89.320000,  44.450001, 0.000000,  0.000000 
 18061632.000000, -12.504892 , -0.619741, 5.374279, 568416000.000000, 27.510000,  60.760002,  39.619999, 0.000000,  0.000000 
 18081600.000000, -15.656239 , -1.033699, 6.319445, 568435648.000000, 27.020000,  30.520000,  28.350000, 0.000000,  0.000000 
 18101696.000000, -17.599211 , -1.517050, 4.335794, 568455616.000000, 34.369999,  19.040001,  14.630000, 0.000000,  0.000000 
 18121600.000000, -15.397814 , -1.124627, 2.093720, 568475648.000000, 57.680000,  -17.010000,  5.320000, 0.000000,  0.000000 
 18141952.000000, -12.961920 , -0.387637, 1.710868, 568495552.000000, 68.669998,  -90.090004,  1.960000, 0.000000,  0.000000 
 18161600.000000, -12.741781 , 0.155533, 2.096112, 568515904.000000, 57.049999,  -146.789993,  -10.430000, 0.000000,  0.000000 
 18181568.000000, -13.574483 , 0.124427, 1.720440, 568535552.000000, 36.119999,  -165.759995,  -38.290001, 0.000000,  0.000000 
 18201600.000000, -15.187245 , -0.813560, 0.859023, 568555584.000000, 24.500000,  -176.259995,  -64.680000, 0.000000,  0.000000 
 18221504.000000, -17.534603 , -2.110470, -0.031107, 568575552.000000, 25.410000,  -185.080002,  -86.029999, 0.000000,  0.000000 
 18241792.000000, -19.348364 , -2.433501, -0.425922, 568595456.000000, 39.200001,  -191.940002,  -94.639999, 0.000000,  0.000000 
 18261440.000000, -19.123438 , -1.112662, -1.136591, 568615744.000000, 74.550003,  -210.419998,  -85.750000, 0.000000,  0.000000 
 18281472.000000, -17.285749 , 0.208176, -2.593820, 568635456.000000, 123.550003,  -241.779999,  -66.360001, 0.000000,  0.000000 
 18301440.000000, -15.034104 , 0.880559, -2.586641, 568655424.000000, 144.130005,  -266.910004,  -50.750000, 0.000000,  0.000000 
 18321408.000000, -13.239488 , 1.306481, -1.887937, 568675456.000000, 105.629997,  -284.410004,  -52.290001, 0.000000,  0.000000 
 18341696.000000, -12.739388 , 1.469193, -1.445265, 568695424.000000, 41.580002,  -287.350006,  -64.120003, 0.000000,  0.000000 
 18361408.000000, -13.036098 , 0.624527, -1.567299, 568715712.000000, -12.460000,  -277.760010,  -88.410004, 0.000000,  0.000000 
 18381568.000000, -12.945170 , -0.315853, -1.385444, 568735360.000000, -51.799999,  -265.230011,  -114.099998, 0.000000,  0.000000 
 18401408.000000, -12.430713 , -0.899701, -0.899701, 568755520.000000, -83.160004,  -255.009995,  -126.349998, 0.000000,  0.000000 
 18421376.000000, -11.923435 , -1.208375, -0.461815, 568775360.000000, -91.209999,  -240.940002,  -122.080002, 628775680.000000,  1009.988464 
 18441664.000000, -11.100305 , -0.835095, -0.552742, 568795392.000000, -74.340004,  -222.600006,  -113.680000, 0.000000,  0.000000 
 18461376.000000, -9.889536 , 0.284746, -0.832702, 568815680.000000, -41.230000,  -206.220001,  -98.209999, 0.000000,  0.000000 
 18481344.000000, -8.441878 , 1.770689, -1.112662, 568835328.000000, -1.120000,  -193.130005,  -79.800003, 0.000000,  0.000000 
 18501312.000000, -6.879365 , 2.912065, -1.378266, 568855296.000000, 20.719999,  -180.949997,  -61.599998, 0.000000,  0.000000 
 18521344.000000, -5.467600 , 3.235096, -1.342373, 568875328.000000, 15.400000,  -169.119995,  -45.570000, 0.000000,  0.000000 
 18541632.000000, -5.029713 , 2.670390, -0.789631, 568895296.000000, -3.290000,  -147.279999,  -35.420002, 0.000000,  0.000000 
 18561280.000000, -5.757132 , 1.478764, -0.076570, 568915584.000000, -26.880001,  -110.529999,  -32.200001, 0.000000,  0.000000 
 18581312.000000, -7.424929 , 0.567099, 0.868595, 568935296.000000, -43.470001,  -52.570000,  -21.700001, 0.000000,  0.000000 
 18601280.000000, -9.071191 , 0.502493, 0.648455, 568955264.000000, -40.880001,  3.780000,  -2.450000, 0.000000,  0.000000 
 18621248.000000, -9.198010 , 0.672383, -0.696311, 568975232.000000, -16.730000,  52.500000,  25.620001, 0.000000,  0.000000 
 18641536.000000, -9.588040 , 0.531207, -1.383051, 568995264.000000, 9.170000,  94.080002,  58.590000, 0.000000,  0.000000 
 18661248.000000, -12.074183 , 0.531207, -1.301696, 569015552.000000, 17.990000,  125.230003,  76.860001, 0.000000,  0.000000 
 18681216.000000, -15.129817 , 0.145962, -1.234696, 569035200.000000, 11.900000,  173.809998,  84.699997, 0.000000,  0.000000 
 18701248.000000, -15.522241 , -0.765703, -0.911665, 569055232.000000, 6.860000,  211.050003,  100.590004, 0.000000,  0.000000 
 18721216.000000, -14.545969 , -1.471586, -0.552742, 569075200.000000, 5.600000,  221.830002,  119.279999, 0.000000,  0.000000 
 18741504.000000, -14.766108 , -1.758725, -0.363709, 569095168.000000, 8.540000,  231.630005,  137.690002, 0.000000,  0.000000 
 18761152.000000, -15.273388 , -1.722832, -0.081356, 569115520.000000, 13.440001,  248.009995,  146.580002, 0.000000,  0.000000 
 18781184.000000, -15.460027 , -1.282553, 0.880559, 569135168.000000, 14.070000,  256.480011,  143.710007, 0.000000,  0.000000 
