time,seconds_elapsed,z,y,x
1633779802741295400,0.01729541015625,10.935943603515625,-34.710693359375,9.95370864868164
1633779802761174500,0.037174560546875,10.610809326171875,-34.653892517089844,10.01253890991211
1633779802781054500,0.057054443359375,10.7802734375,-34.73151397705078,10.072250366210938
1633779802800933400,0.076933349609375,10.53204345703125,-34.747581481933594,9.950691223144531
1633779802820812500,0.0968125,10.665802001953125,-34.52885818481445,9.581375122070312
1633779802840692200,0.116692138671875,10.554901123046875,-34.82015609741211,9.562004089355469
1633779802860571400,0.1365712890625,11.11700439453125,-34.96955871582031,9.423545837402344
1633779802880450600,0.156450439453125,10.9033203125,-34.773406982421875,9.464595794677734
1633779802900329500,0.17632958984375,11.055389404296875,-34.87096405029297,9.011444091796875
1633779802920209400,0.19620947265625,10.8250732421875,-35.035709381103516,8.787750244140625
1633779802940088600,0.216088623046875,10.985321044921875,-35.22813034057617,8.749320983886719
1633779802959967500,0.235967529296875,10.953125,-35.30808639526367,8.530712127685547
1633779802979847400,0.255847412109375,11.119415283203125,-34.994972229003906,8.272480010986328
1633779802999726300,0.275726318359375,10.5662841796875,-35.050498962402344,8.166244506835938
1633779803019605500,0.29560546875,10.8614501953125,-35.23744583129883,7.733985900878906
1633779803039485400,0.3154853515625,10.9117431640625,-35.01251983642578,7.763725280761719
1633779803059364400,0.3353642578125,11.114654541015625,-35.2147216796875,7.7463531494140625
1633779803079243500,0.355243408203125,10.719085693359375,-35.347164154052734,7.521492004394531
1633779803099123500,0.37512353515625,10.700592041015625,-35.23517990112305,6.965167999267578
1633779803119002400,0.39500244140625,10.540863037109375,-35.216575622558594,6.754295349121094
1633779803138881500,0.414881591796875,10.683013916015625,-35.58495330810547,6.4733428955078125
1633779803158761500,0.434761474609375,10.40325927734375,-35.68103790283203,6.163555145263672
1633779803178640400,0.454640380859375,10.559173583984375,-35.677207946777344,6.367164611816406
1633779803198519600,0.47451953125,10.716217041015625,-35.55830001831055,6.135852813720703
1633779803218398200,0.494398193359375,10.393707275390625,-35.7044677734375,5.875820159912109
1633779803238278400,0.5142783203125,10.680389404296875,-35.58015060424805,5.281898498535156
1633779803258157600,0.534157470703125,10.688446044921875,-35.770469665527344,4.675544738769531
1633779803278036500,0.554036376953125,10.705474853515625,-36.10270690917969,4.250209808349609
1633779803297916400,0.57391650390625,10.247344970703125,-35.790870666503906,3.9049758911132812
1633779803317795600,0.593795654296875,10.324005126953125,-35.90748596191406,3.6468772888183594
1633779803337674500,0.613674560546875,10.324554443359375,-35.841575622558594,2.8388900756835938
1633779803357554400,0.633554443359375,10.516510009765625,-35.80162811279297,2.2140769958496094
1633779803377433300,0.653433349609375,10.60595703125,-36.20854187011719,1.5105056762695312
1633779803397312300,0.673312255859375,10.333099365234375,-35.814884185791016,1.1304855346679688
1633779803417191200,0.693191162109375,10.1273193359375,-36.03201675415039,0.4697532653808594
1633779803437071400,0.7130712890625,10.08843994140625,-36.1021728515625,-0.2808265686035156
1633779803456950300,0.7329501953125,10.189300537109375,-35.99282455444336,-0.8602333068847656
1633779803476829200,0.7528291015625,9.7967529296875,-35.994720458984375,-1.3151741027832031
1633779803496709400,0.77270947265625,9.708221435546875,-36.22544860839844,-2.011638641357422
1633779803516588300,0.79258837890625,9.574188232421875,-35.74999237060547,-2.679523468017578
1633779803536467200,0.81246728515625,9.39031982421875,-35.97399139404297,-3.627796173095703
1633779803556347400,0.832347412109375,9.465301513671875,-35.95751953125,-4.314838409423828
1633779803576226300,0.852226318359375,9.677520751953125,-35.67768859863281,-5.156505584716797
1633779803596105200,0.872105224609375,9.774688720703125,-35.77079391479492,-5.8429718017578125
1633779803615985400,0.8919853515625,9.365936279296875,-35.9501838684082,-6.547267913818359
1633779803635864300,0.9118642578125,9.70928955078125,-35.630706787109375,-7.297233581542969
1633779803655743500,0.931743408203125,9.441650390625,-35.61260223388672,-7.911098480224609
1633779803675622100,0.9516220703125,9.3809814453125,-35.360931396484375,-8.848655700683594
1633779803695502300,0.97150244140625,9.496551513671875,-35.35646438598633,-9.543231964111328
1633779803715381500,0.991381591796875,9.493438720703125,-34.865966796875,-10.037406921386719
1633779803735260200,1.01126025390625,9.50238037109375,-34.625736236572266,-10.50302505493164
1633779803755140400,1.031140380859375,9.11785888671875,-34.56183624267578,-11.053607940673828
1633779803775019300,1.051019287109375,9.39337158203125,-34.38651657104492,-11.801593780517578
1633779803794898200,1.070898193359375,9.694610595703125,-33.954227447509766,-12.352550506591797
1633779803814778400,1.0907783203125,9.46624755859375,-34.02641296386719,-13.13663101196289
1633779803834657300,1.1106572265625,9.56878662109375,-33.81828689575195,-13.904544830322266
1633779803854536200,1.1305361328125,9.4384765625,-33.61648178100586,-14.208667755126953
1633779803874415000,1.1504150390625,8.78717041015625,-33.54129409790039,-14.90530776977539
1633779803894295300,1.17029541015625,8.782196044921875,-33.37894058227539,-15.64077377319336
1633779803914174200,1.19017431640625,8.505126953125,-32.92566680908203,-16.469356536865234
1633779803934053000,1.21005322265625,7.971649169921875,-32.76485824584961,-17.235286712646484
1633779803953933300,1.229933349609375,8.103851318359375,-32.51140594482422,-18.175800323486328
1633779803973812200,1.249812255859375,8.081451416015625,-31.685161590576172,-19.323284149169922
1633779803993691100,1.269691162109375,7.891021728515625,-31.461021423339844,-20.60519027709961
1633779804013571300,1.2895712890625,7.505462646484375,-30.65544891357422,-21.737659454345703
1633779804033450200,1.3094501953125,7.162933349609375,-30.044841766357422,-23.361774444580078
1633779804053329200,1.3293291015625,6.708984375,-29.273849487304688,-24.488300323486328
1633779804073209300,1.349209228515625,6.42529296875,-28.374038696289062,-25.602970123291016
1633779804093088500,1.369088623046875,5.9683837890625,-27.6256103515625,-26.536197662353516
1633779804112967200,1.38896728515625,5.546905517578125,-26.608680725097656,-27.597644805908203
1633779804132846300,1.408846435546875,5.293609619140625,-25.80242156982422,-28.827838897705078
1633779804152726300,1.428726318359375,5.075592041015625,-24.824146270751953,-29.572681427001953
1633779804172605200,1.448605224609375,5.25201416015625,-24.066871643066406,-30.741085052490234
1633779804192484400,1.468484375,4.813934326171875,-23.069568634033203,-31.833629608154297
1633779804212364300,1.4883642578125,4.72845458984375,-21.929264068603516,-32.562259674072266
1633779804232243200,1.5082431640625,4.57080078125,-20.81528091430664,-33.183841705322266
1633779804252122000,1.5281220703125,4.56964111328125,-19.931777954101562,-33.976985931396484
1633779804272002300,1.548002197265625,4.315582275390625,-18.93618392944336,-34.38657760620117
1633779804291881200,1.567881103515625,4.30767822265625,-18.060611724853516,-35.217777252197266
1633779804311760100,1.587760009765625,3.7794189453125,-17.28839874267578,-35.75092697143555
1633779804331640300,1.607640380859375,3.738555908203125,-16.666732788085938,-36.03556442260742
1633779804351519200,1.627519287109375,3.319580078125,-15.906604766845703,-36.603511810302734
1633779804371398100,1.647398193359375,3.180938720703125,-15.10385513305664,-37.18940353393555
1633779804391273000,1.66727294921875,2.71234130859375,-14.578182220458984,-37.30440139770508
1633779804411153200,1.687153076171875,2.455291748046875,-13.75185775756836,-37.76045608520508
1633779804431032000,1.707031982421875,2.4656982421875,-12.887374877929688,-38.01747512817383
1633779804450911000,1.726910888671875,1.78173828125,-12.234024047851562,-38.25327682495117
1633779804470791200,1.746791259765625,1.6405029296875,-11.305774688720703,-38.5258674621582
1633779804490670000,1.766670166015625,1.27972412109375,-10.591667175292969,-38.90153121948242
1633779804510549000,1.786549072265625,1.260711669921875,-9.823810577392578,-39.24770736694336
1633779804530429200,1.80642919921875,0.689727783203125,-9.588531494140625,-39.55727767944336
1633779804550308000,1.82630810546875,0.547607421875,-8.99142074584961,-39.53738021850586
1633779804570187000,1.84618701171875,-0.49945068359375,-8.402694702148438,-39.7374382019043
1633779804590066000,1.86606591796875,-1.231414794921875,-7.900753021240234,-39.87184524536133
1633779804609946000,1.885946044921875,-1.97735595703125,-7.7651214599609375,-39.95273971557617
1633779804629825000,1.905824951171875,-2.34228515625,-7.737968444824219,-40.07377243041992
1633779804649704000,1.925703857421875,-1.7237548828125,-7.880535125732422,-40.148983001708984
1633779804669584100,1.945584228515625,-1.46038818359375,-7.874629974365234,-40.114131927490234
1633779804689463000,1.965463134765625,-1.781219482421875,-8.07718276977539,-40.12485122680664
1633779804709342000,1.985342041015625,-2.109344482421875,-7.481910705566406,-40.09684371948242
1633779804729222100,2.00522216796875,-3.488037109375,-7.4767608642578125,-40.41866683959961
1633779804749101000,2.02510107421875,-4.8431396484375,-7.103185653686523,-40.12888717651367
1633779804768980000,2.04497998046875,-5.16387939453125,-7.511447906494141,-40.110660552978516
1633779804788859100,2.064859130859375,-5.47576904296875,-7.288373947143555,-39.96342849731445
1633779804808739000,2.084739013671875,-5.90625,-7.22526741027832,-40.139896392822266
1633779804828618000,2.104617919921875,-6.42706298828125,-7.370429992675781,-40.385074615478516
1633779804848497200,2.1244970703125,-6.08111572265625,-7.307096481323242,-40.47581100463867
1633779804868377000,2.144377197265625,-6.091766357421875,-7.134180068969727,-40.61533737182617
1633779804888256000,2.164256103515625,-6.2315673828125,-6.620126724243164,-40.81794357299805
1633779804908135200,2.18413525390625,-6.2939453125,-6.408639907836914,-40.96815872192383
1633779804928015000,2.20401513671875,-6.639801025390625,-5.7648162841796875,-41.16118240356445
1633779804947894000,2.22389404296875,-7.049163818359375,-5.640438079833984,-41.14749526977539
1633779804967773000,2.24377294921875,-7.49725341796875,-5.188165664672852,-41.1247673034668
1633779804987652000,2.263652099609375,-8.16009521484375,-4.603401184082031,-41.21653366088867
1633779805007532000,2.283531982421875,-8.31719970703125,-3.966714859008789,-41.491947174072266
1633779805027411000,2.303410888671875,-8.39727783203125,-3.598926544189453,-41.32162857055664
1633779805047290000,2.3232900390625,-8.277801513671875,-2.9442481994628906,-41.39920425415039
1633779805067170000,2.343170166015625,-8.6722412109375,-2.226686477661133,-41.31137466430664
1633779805087049000,2.363049072265625,-9.47509765625,-1.4111061096191406,-41.41830825805664
1633779805106928000,2.38292822265625,-9.89520263671875,-0.7397747039794922,-41.56056594848633
1633779805126807000,2.40280712890625,-9.799102783203125,0.15923500061035156,-41.70924758911133
1633779805146687000,2.42268701171875,-10.114166259765625,0.9201488494873047,-42.01913833618164
1633779805166566100,2.442566162109375,-9.911773681640625,1.5927715301513672,-41.90078353881836
1633779805186445000,2.462445068359375,-10.339813232421875,2.2641849517822266,-41.78511428833008
1633779805206325000,2.482324951171875,-10.44635009765625,2.6468124389648438,-41.722103118896484
1633779805226204200,2.5022041015625,-10.802703857421875,3.3298492431640625,-41.734432220458984
1633779805246083000,2.5220830078125,-11.319671630859375,4.043741226196289,-41.49343490600586
1633779805265963000,2.541962890625,-11.5489501953125,4.716522216796875,-41.72726821899414
1633779805285842200,2.56184228515625,-12.02294921875,5.388032913208008,-41.79887771606445
1633779805305721000,2.58172119140625,-12.007049560546875,5.643423080444336,-41.654850006103516
1633779805325601000,2.60160107421875,-12.550537109375,6.06683349609375,-41.468753814697266
1633779805345480000,2.62147998046875,-13.17626953125,6.061468124389648,-41.44766616821289
1633779805365359000,2.641359130859375,-13.770721435546875,6.109249114990234,-41.47736740112305
1633779805385238800,2.66123876953125,-13.73370361328125,6.234468460083008,-41.86690902709961
1633779805405118700,2.68111865234375,-14.005157470703125,6.3114776611328125,-41.86478042602539
1633779805424998000,2.700997802734375,-13.824737548828125,6.31782341003418,-41.68095779418945
1633779805444876500,2.72087646484375,-14.643310546875,6.620197296142578,-41.43112564086914
1633779805464756700,2.7407568359375,-14.33502197265625,6.757844924926758,-41.429927825927734
1633779805484636000,2.760635986328125,-14.49560546875,6.670263290405273,-41.80144119262695
1633779805504514800,2.780514892578125,-13.904754638671875,6.569063186645508,-42.06467056274414
1633779805524393700,2.800393798828125,-13.676727294921875,5.978658676147461,-42.51853561401367
1633779805544274000,2.82027392578125,-13.630462646484375,5.387454986572266,-42.8237419128418
1633779805564152800,2.84015283203125,-13.735382080078125,4.982646942138672,-42.392765045166016
1633779805584031700,2.86003173828125,-14.191741943359375,4.819250106811523,-42.5977668762207
1633779805603912000,2.879911865234375,-14.2122802734375,4.689214706420898,-42.3578987121582
1633779805623790800,2.899790771484375,-15.02215576171875,4.094409942626953,-42.54670333862305
1633779805643669800,2.919669677734375,-15.03839111328125,3.5526180267333984,-42.27626419067383
1633779805663549700,2.9395498046875,-15.380828857421875,3.4632797241210938,-42.75052261352539
1633779805683428900,2.959428955078125,-15.26458740234375,3.0830860137939453,-42.69595718383789
1633779805703307800,2.979307861328125,-15.304931640625,2.475881576538086,-42.68861770629883
1633779805723187700,2.999187744140625,-15.30999755859375,1.8260841369628906,-42.58212661743164
1633779805743067000,3.01906689453125,-15.631256103515625,1.5011348724365234,-42.75100326538086
1633779805762945800,3.03894580078125,-15.071533203125,1.16058349609375,-42.73978042602539
1633779805782824700,3.05882470703125,-14.615478515625,1.027069091796875,-42.60580062866211
1633779805802705000,3.078704833984375,-14.571075439453125,0.5982265472412109,-42.876033782958984
1633779805822583600,3.09858349609375,-13.79425048828125,0.5575313568115234,-42.87904739379883
1633779805842462700,3.118462646484375,-13.597900390625,0.47959327697753906,-43.24080276489258
1633779805862343000,3.138343017578125,-13.734130859375,0.41356468200683594,-43.14029312133789
1633779805882221800,3.158221923828125,-13.2684326171875,0.6198387145996094,-43.22553634643555
1633779805902100700,3.178100830078125,-13.43560791015625,0.56292724609375,-43.00089645385742
1633779805921979600,3.197979736328125,-13.192230224609375,0.5115299224853516,-43.30275344848633
1633779805941859800,3.21785986328125,-12.765838623046875,0.5766620635986328,-43.32749557495117
1633779805961738800,3.23773876953125,-12.479400634765625,0.753265380859375,-43.352413177490234
1633779805981617700,3.25761767578125,-12.701812744140625,1.015951156616211,-43.30630111694336
1633779806001497900,3.277497802734375,-12.794525146484375,0.7860908508300781,-43.80244064331055
1633779806021376800,3.297376708984375,-12.816314697265625,0.9672260284423828,-43.70988845825195
1633779806041255700,3.317255615234375,-13.052001953125,0.8396968841552734,-43.72346878051758
1633779806061136000,3.337135986328125,-12.934478759765625,0.7884120941162109,-43.8790397644043
1633779806081014800,3.357014892578125,-12.879638671875,0.7158432006835938,-43.91313552856445
1633779806100893700,3.376893798828125,-13.10198974609375,0.48746299743652344,-43.68436813354492
1633779806120774000,3.39677392578125,-12.51397705078125,0.5134563446044922,-43.65583419799805
1633779806140652500,3.416652587890625,-12.850982666015625,0.3888263702392578,-43.96226119995117
1633779806160531700,3.43653173828125,-12.7398681640625,0.5565929412841797,-43.9992561340332
1633779806180411000,3.456410888671875,-12.609649658203125,0.4258899688720703,-44.01473617553711
1633779806200290600,3.47629052734375,-12.7646484375,0.4822540283203125,-44.33316421508789
1633779806220169700,3.496169677734375,-13.0245361328125,0.5987224578857422,-44.30398178100586
1633779806240049000,3.516048828125,-12.762176513671875,0.08118629455566406,-44.16939163208008
1633779806259928600,3.535928466796875,-12.759979248046875,0.5847949981689453,-44.40841293334961
1633779806279807700,3.555807861328125,-13.10711669921875,0.6067523956298828,-44.57439041137695
1633779806299686700,3.575686767578125,-13.09527587890625,0.9221897125244141,-44.43912124633789
1633779806319565800,3.59556591796875,-12.698486328125,1.4876518249511719,-44.56486892700195
1633779806339445800,3.61544580078125,-12.47967529296875,1.3239631652832031,-44.76572799682617
1633779806359324700,3.63532470703125,-11.8154296875,1.5576591491699219,-44.99892044067383
1633779806379203800,3.655203857421875,-11.618560791015625,1.5589733123779297,-45.56410598754883
1633779806399084000,3.675083984375,-10.54119873046875,1.574310302734375,-45.44987869262695
1633779806418963000,3.694962890625,-10.17657470703125,1.8597335815429688,-45.4264030456543
1633779806438842000,3.714842041015625,-11.09429931640625,1.8527374267578125,-45.29153823852539
1633779806458722000,3.73472216796875,-11.30242919921875,1.870431900024414,-45.35842514038086
1633779806478601000,3.75460107421875,-12.500732421875,2.233041763305664,-45.48068618774414
1633779806498480000,3.774480224609375,-13.353668212890625,2.5680274963378906,-44.77646255493164
1633779806518359000,3.794359130859375,-14.21343994140625,2.960378646850586,-44.38772964477539
1633779806538239000,3.814239013671875,-14.812835693359375,3.0638465881347656,-44.473079681396484
1633779806558118100,3.8341181640625,-14.9163818359375,3.4709625244140625,-44.26688766479492
1633779806577997000,3.8539970703125,-15.040863037109375,3.5129623413085938,-44.4519157409668
1633779806597877000,3.873876953125,-14.94671630859375,3.73468017578125,-44.68043899536133
1633779806617756200,3.893756103515625,-14.840606689453125,3.961496353149414,-44.733768463134766
1633779806637635000,3.913635009765625,-14.806549072265625,3.6757259368896484,-44.56497573852539
1633779806657515000,3.933514892578125,-15.056549072265625,3.8953819274902344,-44.39394760131836
1633779806677394000,3.953393798828125,-15.276153564453125,3.884641647338867,-44.45856857299805
1633779806697273000,3.973273193359375,-15.935821533203125,3.756694793701172,-44.12808609008789
1633779806717152000,3.993152099609375,-16.422210693359375,3.7759170532226562,-43.894779205322266
1633779806737032000,4.013031982421875,-16.934844970703125,3.8916187286376953,-43.80515670776367
1633779806756911000,4.0329111328125,-17.492645263671875,3.476940155029297,-43.559017181396484
1633779806776790000,4.0527900390625,-17.769134521484375,3.3396129608154297,-43.763301849365234
1633779806796670000,4.072669921875,-18.733489990234375,3.5327091217041016,-43.634952545166016
1633779806816549000,4.092549072265625,-18.748443603515625,3.7155208587646484,-43.49116897583008
1633779806836428000,4.112427978515625,-19.161956787109375,3.608509063720703,-43.774471282958984
1633779806856307000,4.132306884765625,-19.139984130859375,3.6662044525146484,-43.9088020324707
1633779806876187100,4.152187255859375,-18.851654052734375,4.370906829833984,-43.53055953979492
1633779806896066000,4.172066162109375,-18.96173095703125,4.7014007568359375,-43.68465042114258
1633779806915945000,4.191945068359375,-18.51495361328125,5.142353057861328,-43.55488967895508
1633779806935825200,4.2118251953125,-17.915283203125,5.31916618347168,-43.787837982177734
1633779806955704000,4.2317041015625,-18.176605224609375,5.804067611694336,-43.96397018432617
1633779806975583000,4.2515830078125,-18.15277099609375,6.34991455078125,-44.004817962646484
1633779806995463200,4.271463134765625,-17.76751708984375,6.637687683105469,-43.830265045166016
1633779807015342000,4.291342041015625,-18.180999755859375,7.31135368347168,-43.77766799926758
1633779807035221000,4.311220947265625,-18.17578125,7.654806137084961,-43.78519058227539
1633779807055100000,4.331099853515625,-17.996795654296875,8.377168655395508,-43.74384689331055
1633779807074980000,4.35097998046875,-18.466156005859375,8.73673152923584,-43.734737396240234
1633779807094859000,4.37085888671875,-17.6663818359375,8.956202507019043,-43.77956771850586
1633779807114738000,4.390738037109375,-17.95758056640625,9.28600025177002,-43.73818588256836
1633779807134618000,4.4106181640625,-18.063629150390625,9.796629905700684,-43.89162063598633
1633779807154497000,4.4304970703125,-17.783111572265625,10.301857948303223,-43.831302642822266
1633779807174376000,4.4503759765625,-17.6964111328125,10.505142211914062,-43.941768646240234
1633779807194255000,4.470255126953125,-17.652191162109375,9.919541358947754,-44.28074264526367
1633779807214135000,4.490135009765625,-17.5802001953125,9.42921257019043,-44.49789810180664
1633779807234014000,4.510013916015625,-17.31549072265625,9.043628692626953,-44.74290084838867
1633779807253893000,4.52989306640625,-17.325592041015625,8.649885177612305,-44.68471908569336
1633779807273773000,4.54977294921875,-17.64239501953125,8.064619064331055,-45.08583450317383
1633779807293652000,4.56965185546875,-17.5147705078125,7.435579299926758,-44.96696853637695
1633779807313531000,4.58953076171875,-17.5828857421875,7.059331893920898,-44.97502517700195
1633779807333411000,4.6094111328125,-17.740997314453125,6.781667709350586,-45.172122955322266
1633779807353290000,4.6292900390625,-17.905303955078125,6.566366195678711,-45.02640151977539
1633779807373169000,4.6491689453125,-17.526763916015625,5.8425140380859375,-45.18037796020508
1633779807393047800,4.6690478515625,-17.935516357421875,5.962888717651367,-45.32180404663086
1633779807412927700,4.688927734375,-17.603118896484375,5.788082122802734,-45.27180862426758
1633779807432806700,4.708806640625,-17.626678466796875,5.691076278686523,-45.505435943603516
1633779807452685800,4.728685791015625,-17.6092529296875,5.527017593383789,-45.58102035522461
1633779807472566000,4.74856591796875,-17.523284912109375,5.334911346435547,-45.5232048034668
1633779807492444700,4.768444580078125,-17.09613037109375,5.5121917724609375,-45.7281379699707
1633779807512323800,4.78832373046875,-16.2991943359375,5.867000579833984,-45.79774856567383
1633779807532202800,4.80820263671875,-16.160430908203125,5.506902694702148,-45.99794387817383
1633779807552082700,4.828082763671875,-15.401031494140625,5.574960708618164,-46.195674896240234
1633779807571961900,4.8479619140625,-14.87872314453125,5.495944976806641,-46.54507064819336
1633779807591840800,4.8678408203125,-14.590240478515625,5.409856796264648,-46.68039321899414
1633779807611720700,4.887720703125,-14.352691650390625,5.186412811279297,-46.94400405883789
1633779807631599600,4.907599609375,-14.427764892578125,5.241510391235352,-47.12172317504883
1633779807651478800,4.927478759765625,-14.384521484375,5.121038436889648,-46.93001174926758
1633779807671358700,4.947358642578125,-14.331634521484375,4.890745162963867,-47.20808029174805
1633779807691237600,4.967237548828125,-14.135894775390625,4.473457336425781,-47.03364944458008
1633779807711116800,4.98711669921875,-14.705841064453125,4.352300643920898,-47.05475997924805
1633779807730995700,5.00699560546875,-14.406951904296875,3.9271717071533203,-47.31373977661133
1633779807750875600,5.026875732421875,-14.68548583984375,4.107997894287109,-47.289859771728516
1633779807770754800,5.0467548828125,-14.5413818359375,3.9656333923339844,-47.27500534057617
1633779807790633700,5.0666337890625,-15.13006591796875,3.7054214477539062,-47.46635055541992
1633779807810513700,5.086513671875,-14.518035888671875,3.7948970794677734,-47.56899642944336
1633779807830392800,5.106392822265625,-15.014190673828125,4.003988265991211,-47.59836959838867
1633779807850271700,5.126271728515625,-15.345672607421875,3.9601783752441406,-47.56735610961914
1633779807870151700,5.146151611328125,-15.8499755859375,4.031949996948242,-47.33089065551758
1633779807890030800,5.16603076171875,-16.314208984375,4.2332611083984375,-47.21828079223633
1633779807909909800,5.18590966796875,-16.06304931640625,4.154752731323242,-47.289119720458984
1633779807929789000,5.205788818359375,-16.090301513671875,4.012798309326172,-47.37800216674805
1633779807949668900,5.2256689453125,-16.293121337890625,4.260074615478516,-47.6868782043457
1633779807969547800,5.2455478515625,-16.450897216796875,4.355157852172852,-47.46452713012695
1633779807989427000,5.265427001953125,-17.483917236328125,5.017061233520508,-47.247196197509766
1633779808009306600,5.285306640625,-18.1556396484375,5.775936126708984,-46.8093147277832
1633779808029185800,5.305185791015625,-18.434051513671875,6.344093322753906,-46.73904800415039
1633779808049065000,5.32506494140625,-18.388214111328125,7.022068023681641,-46.71757125854492
1633779808068944600,5.344944580078125,-18.178375244140625,7.9859161376953125,-46.6035041809082
1633779808088823800,5.36482373046875,-17.88970947265625,8.738734245300293,-46.97177505493164
1633779808108702700,5.38470263671875,-17.523895263671875,9.189108848571777,-47.22989273071289
1633779808128582700,5.404582763671875,-17.404327392578125,9.539973258972168,-47.25925064086914
1633779808148461800,5.4244619140625,-17.302459716796875,10.12695598602295,-47.265201568603516
1633779808168340700,5.4443408203125,-17.481781005859375,10.531742095947266,-47.20637130737305
1633779808188220000,5.464219970703125,-17.212371826171875,11.184408187866211,-47.17267990112305
1633779808208099800,5.484099853515625,-17.619659423828125,11.331414222717285,-47.01009750366211
1633779808227978800,5.503978759765625,-18.273345947265625,11.501338005065918,-46.855472564697266
1633779808247858000,5.52385791015625,-18.510284423828125,12.145390510559082,-46.820919036865234
1633779808267737900,5.54373779296875,-18.2139892578125,12.510001182556152,-46.596378326416016
1633779808287616800,5.56361669921875,-18.525146484375,12.890040397644043,-46.25765609741211
1633779808307496000,5.583495849609375,-18.70416259765625,13.471992492675781,-46.52009201049805
1633779808327376000,5.6033759765625,-18.7987060546875,13.873379707336426,-46.131099700927734
1633779808347254800,5.6232548828125,-19.096832275390625,14.128299713134766,-45.81308364868164
1633779808367134000,5.643134033203125,-19.03533935546875,14.858604431152344,-45.62460708618164
1633779808387012600,5.6630126953125,-19.17584228515625,15.042856216430664,-45.2746696472168
1633779808406892500,5.682892578125,-19.2686767578125,15.73999309539795,-45.322940826416016
1633779808426771500,5.702771484375,-18.9710693359375,16.2734317779541,-45.35133743286133
1633779808446650600,5.722650634765625,-18.57177734375,16.738449096679688,-45.18873977661133
1633779808466530300,5.7425302734375,-18.015625,17.2769775390625,-45.02797317504883
1633779808486409500,5.762409423828125,-18.079315185546875,17.8013973236084,-45.031551361083984
1633779808506288600,5.78228857421875,-17.7071533203125,18.17261505126953,-45.1733512878418
1633779808526167300,5.802167236328125,-17.16668701171875,18.90602684020996,-45.259883880615234
1633779808546047500,5.822047607421875,-16.3375244140625,19.055095672607422,-45.36587142944336
1633779808565926700,5.8419267578125,-16.282684326171875,19.210941314697266,-45.567867279052734
1633779808585805300,5.861805419921875,-15.68603515625,18.907573699951172,-46.16904067993164
1633779808605685500,5.881685546875,-14.853271484375,18.377559661865234,-46.42971420288086
1633779808625564400,5.901564453125,-14.34893798828125,17.955520629882812,-46.784969329833984
1633779808645443300,5.921443359375,-14.8441162109375,17.397563934326172,-46.83729934692383
1633779808665323500,5.941323486328125,-15.13055419921875,17.06455421447754,-46.9089241027832
1633779808685202400,5.961202392578125,-16.008331298828125,16.294723510742188,-47.27323532104492
1633779808705081300,5.981081298828125,-16.285736083984375,15.657142639160156,-47.0307731628418
1633779808724960300,6.000960205078125,-16.28448486328125,14.967151641845703,-47.69813919067383
1633779808744840400,6.02084033203125,-15.69232177734375,13.806376457214355,-48.21518325805664
1633779808764719400,6.04071923828125,-15.32904052734375,12.95770263671875,-48.748600006103516
1633779808784598300,6.060598388671875,-15.02642822265625,11.631499290466309,-49.52756118774414
1633779808804478500,6.080478515625,-14.97320556640625,10.82000732421875,-49.701786041259766
1633779808824357600,6.100357666015625,-15.411407470703125,9.892118453979492,-49.81547927856445
1633779808844236300,6.120236328125,-15.017181396484375,9.168152809143066,-49.9318733215332
1633779808864116500,6.140116455078125,-14.85400390625,8.232612609863281,-50.43831253051758
1633779808883995600,6.15999560546875,-14.61029052734375,7.355810165405273,-50.843074798583984
1633779808903874300,6.179874267578125,-14.120880126953125,6.919267654418945,-51.10293197631836
1633779808923754500,6.19975439453125,-13.643707275390625,6.359828948974609,-51.298526763916016
1633779808943633700,6.219633544921875,-13.0838623046875,5.8670654296875,-51.58877944946289
1633779808963512300,6.23951220703125,-13.17254638671875,5.393999099731445,-51.71445083618164
1633779808983391500,6.2593916015625,-12.7086181640625,5.241861343383789,-51.72993850708008
1633779809003271400,6.279271484375,-12.288970947265625,4.363716125488281,-51.8221321105957
1633779809023150300,6.299150390625,-12.503692626953125,3.856983184814453,-51.92097091674805
1633779809043029500,6.319029541015625,-12.491729736328125,3.500640869140625,-51.67166519165039
1633779809062909400,6.338909423828125,-12.7744140625,3.3157901763916016,-51.762088775634766
1633779809082788400,6.358788330078125,-12.951995849609375,2.808748245239258,-51.89079666137695
1633779809102667300,6.378667236328125,-13.257843017578125,2.2849349975585938,-51.9306755065918
1633779809122547500,6.39854736328125,-13.43756103515625,1.7192573547363281,-52.08249282836914
1633779809142426400,6.41842626953125,-13.564178466796875,1.167776107788086,-52.15410232543945
1633779809162305300,6.43830517578125,-13.889434814453125,0.9447841644287109,-51.8684196472168
1633779809182184400,6.458184326171875,-13.892822265625,0.6250534057617188,-51.9500846862793
1633779809202064600,6.478064697265625,-14.054840087890625,0.4118480682373047,-52.17808151245117
1633779809221943300,6.497943359375,-14.15533447265625,0.45720672607421875,-51.8418083190918
1633779809241822500,6.517822509765625,-14.38116455078125,0.22476577758789062,-51.87922286987305
1633779809261702700,6.53770263671875,-14.68798828125,0.5877189636230469,-52.12875747680664
1633779809281581300,6.557581298828125,-15.29327392578125,0.9590854644775391,-52.19404983520508
1633779809301460500,6.57746044921875,-15.087127685546875,1.3977184295654297,-52.35446548461914
1633779809321340400,6.59734033203125,-14.848114013671875,1.6605758666992188,-52.2867546081543
1633779809341219300,6.61721923828125,-14.542510986328125,2.5392894744873047,-52.38456344604492
1633779809361098500,6.637098388671875,-14.692047119140625,3.5182132720947266,-52.34941482543945
1633779809380977400,6.656977294921875,-14.80889892578125,4.631343841552734,-52.354488372802734
1633779809400858400,6.6768583984375,-15.232940673828125,5.336557388305664,-52.136478424072266
1633779809420737500,6.696737548828125,-15.477081298828125,6.162446975708008,-52.24238204956055
1633779809440616400,6.716616455078125,-15.754364013671875,7.628299713134766,-52.094303131103516
1633779809460496400,6.736496337890625,-15.5216064453125,8.543161392211914,-51.9047737121582
1633779809480375300,6.756375244140625,-14.46929931640625,8.987682342529297,-51.76925277709961
1633779809500254500,6.77625439453125,-14.3897705078125,9.935564041137695,-52.00038528442383
1633779809520134400,6.796134521484375,-14.31787109375,10.15837287902832,-52.17514419555664
1633779809540013300,6.816013427734375,-14.406890869140625,10.59522819519043,-51.896053314208984
1633779809559892500,6.835892578125,-14.747283935546875,10.746343612670898,-51.828975677490234
1633779809579771400,6.855771484375,-14.9287109375,10.883678436279297,-51.54499435424805
1633779809599651300,6.8756513671875,-15.25006103515625,11.136031150817871,-51.52328872680664
1633779809619530500,6.895530517578125,-15.535736083984375,11.268771171569824,-51.4107780456543
1633779809639409400,6.915409423828125,-15.984527587890625,11.405488014221191,-51.4528923034668
1633779809659289300,6.935289306640625,-16.356231689453125,11.776093482971191,-51.174251556396484
1633779809679168500,6.95516845703125,-16.636016845703125,12.110456466674805,-50.87393569946289
1633779809699047400,6.97504736328125,-17.161773681640625,12.55656623840332,-50.947994232177734
1633779809718927400,6.99492724609375,-17.057861328125,13.215283393859863,-50.43622970581055
1633779809738806500,7.014806640625,-17.26727294921875,13.598153114318848,-50.252925872802734
1633779809758685400,7.034685546875,-17.54901123046875,14.307486534118652,-49.97079849243164
1633779809778565400,7.0545654296875,-17.50225830078125,14.893964767456055,-49.995609283447266
1633779809798444500,7.074444580078125,-17.946868896484375,15.362369537353516,-49.556278228759766
1633779809818323500,7.094323486328125,-17.18548583984375,16.118083953857422,-49.23508071899414
1633779809838202400,7.114202392578125,-17.0826416015625,16.717391967773438,-49.2077751159668
1633779809858082300,7.134082275390625,-16.54937744140625,16.812252044677734,-49.39985275268555
1633779809877961500,7.15396142578125,-15.5682373046875,16.633630752563477,-49.70021438598633
1633779809897840400,7.17384033203125,-15.61285400390625,16.188323974609375,-50.07205581665039
1633779809917720300,7.19372021484375,-15.989227294921875,15.459098815917969,-50.296817779541016
1633779809937599500,7.213599609375,-16.557403564453125,14.438605308532715,-50.31089401245117
1633779809957478400,7.233478515625,-16.71661376953125,13.338898658752441,-50.49624252319336
1633779809977358300,7.2533583984375,-16.669677734375,12.949917793273926,-50.811344146728516
1633779809997237500,7.273237548828125,-15.69244384765625,12.418335914611816,-51.2210807800293
1633779810017116400,7.293116455078125,-15.291046142578125,12.252634048461914,-51.84035110473633
1633779810036996400,7.312996337890625,-15.095001220703125,12.127755165100098,-51.81460952758789
1633779810056875500,7.33287548828125,-15.543212890625,11.885048866271973,-52.015987396240234
1633779810076754400,7.35275439453125,-15.869537353515625,12.075244903564453,-51.612422943115234
1633779810096633300,7.37263330078125,-16.613250732421875,12.15614128112793,-51.8423957824707
1633779810116513500,7.392513427734375,-16.265960693359375,11.996079444885254,-51.56279373168945
1633779810136392400,7.412392333984375,-15.81451416015625,11.677774429321289,-51.71144485473633
1633779810156271400,7.432271240234375,-15.60125732421875,11.263287544250488,-51.8855094909668
1633779810176151600,7.452151611328125,-15.15875244140625,10.815362930297852,-51.737979888916016
1633779810196030500,7.472030517578125,-14.7794189453125,10.503493309020996,-51.706722259521484
1633779810215909400,7.491909423828125,-14.969024658203125,9.933552742004395,-52.109676361083984
1633779810235789300,7.511789306640625,-14.764801025390625,9.380599021911621,-52.684207916259766
1633779810255668500,7.53166845703125,-14.1483154296875,8.982933044433594,-52.3862419128418
1633779810275547400,7.55154736328125,-14.193634033203125,8.576481819152832,-52.378536224365234
1633779810295426300,7.57142626953125,-14.060821533203125,8.03941535949707,-52.54475784301758
1633779810315306500,7.591306396484375,-14.6884765625,7.666479110717773,-52.64299392700195
1633779810335185400,7.611185302734375,-14.2791748046875,7.151638031005859,-52.58684158325195
1633779810355064300,7.631064208984375,-14.415069580078125,7.02978515625,-52.722171783447266
1633779810374944500,7.650944580078125,-14.427093505859375,6.412897109985352,-52.6607780456543
1633779810394822700,7.67082275390625,-14.685546875,6.278059005737305,-52.679386138916016
1633779810414701800,7.690701904296875,-15.015655517578125,6.298246383666992,-52.73408889770508
1633779810434581800,7.710581787109375,-15.003021240234375,6.231801986694336,-52.58528518676758
1633779810454460700,7.730460693359375,-14.713897705078125,6.203405380249023,-52.54941940307617
1633779810474339800,7.75033984375,-14.9644775390625,6.549110412597656,-52.56277847290039
1633779810494218500,7.770218505859375,-15.24212646484375,6.637523651123047,-52.520694732666016
1633779810514098700,7.7900986328125,-14.73565673828125,6.862483978271484,-52.50173568725586
1633779810533977900,7.809977783203125,-15.009796142578125,7.514560699462891,-52.68960189819336
1633779810553856500,7.8298564453125,-14.997467041015625,7.936676025390625,-52.59428024291992
1633779810573736700,7.84973681640625,-15.012359619140625,8.418285369873047,-52.28445053100586
1633779810593616000,7.869615966796875,-15.232635498046875,9.244068145751953,-52.14584732055664
1633779810613494500,7.88949462890625,-15.4664306640625,9.88317584991455,-51.8987922668457
1633779810633374700,7.909374755859375,-16.086517333984375,10.336329460144043,-51.53847122192383
1633779810653254000,7.92925390625,-16.37591552734375,10.373772621154785,-51.4711799621582
1633779810673132500,7.949132568359375,-15.907379150390625,10.627459526062012,-51.52413558959961
1633779810693012700,7.9690126953125,-15.3665771484375,10.475325584411621,-51.98173904418945
1633779810712891600,7.9888916015625,-15.333587646484375,10.464604377746582,-51.95261001586914
1633779810732770600,8.0087705078125,-15.760467529296875,10.367581367492676,-51.675960540771484
1633779810752649700,8.028649658203125,-17.210235595703125,10.36860179901123,-51.5062141418457
1633779810772529700,8.04852978515625,-17.70074462890625,10.4190673828125,-51.122371673583984
1633779810792408800,8.068408935546875,-18.6468505859375,10.57401180267334,-50.69124984741211
1633779810812287700,8.088287841796875,-18.917755126953125,10.872332572937012,-50.263004302978516
1633779810832167700,8.108167724609375,-19.0474853515625,10.698512077331543,-50.60066604614258
1633779810852046800,8.128046875,-18.83746337890625,10.72530746459961,-50.69712448120117
1633779810871925500,8.147925537109375,-18.7115478515625,10.48200798034668,-50.49602127075195
1633779810891805700,8.1678056640625,-18.81396484375,9.972328186035156,-50.80732345581055
1633779810911684900,8.187684814453124,-18.96905517578125,9.472488403320312,-50.69575119018555
1633779810931563500,8.2075634765625,-19.602294921875,9.063467979431152,-50.73103713989258
1633779810951442700,8.227442626953126,-19.334747314453125,8.588509559631348,-50.77205276489258
1633779810971323000,8.247322998046876,-19.71575927734375,8.475013732910156,-50.60268783569336
1633779810991201500,8.267201416015626,-20.16351318359375,8.364343643188477,-50.431095123291016
1633779811011080700,8.287080810546875,-20.272705078125,8.021514892578125,-50.62681198120117
1633779811030961000,8.3069609375,-20.32354736328125,8.013336181640625,-50.450626373291016
1633779811050839600,8.326839599609375,-20.38623046875,7.785478591918945,-50.096866607666016
1633779811070718700,8.34671875,-20.345916748046875,7.992275238037109,-50.29037857055664
1633779811090598700,8.3665986328125,-20.82012939453125,8.248077392578125,-50.3314094543457
1633779811110477600,8.3864775390625,-20.623626708984375,8.16634750366211,-50.433223724365234
1633779811130356700,8.406356689453125,-19.54010009765625,8.268806457519531,-50.614620208740234
1633779811150236700,8.426236572265625,-19.063751220703125,8.197072982788086,-50.954837799072266
1633779811170115600,8.446115478515624,-19.162567138671875,8.149572372436523,-50.79094314575195
1633779811189994500,8.465994384765626,-18.476776123046875,8.169292449951172,-50.836055755615234
1633779811209873700,8.485873779296876,-17.872802734375,8.607304573059082,-50.93156814575195
1633779811229753900,8.50575390625,-17.555816650390625,8.626291275024414,-51.20333480834961
1633779811249632500,8.525632568359375,-16.852386474609375,8.735577583312988,-51.05012893676758
1633779811269511700,8.54551171875,-16.443023681640625,8.571569442749023,-51.288028717041016
1633779811289391900,8.565391845703125,-16.240234375,8.709362030029297,-51.36196517944336
1633779811309270500,8.5852705078125,-16.173065185546875,8.880859375,-51.552364349365234
1633779811329149700,8.605149658203125,-15.670562744140625,8.964533805847168,-51.3439826965332
1633779811349030000,8.62502978515625,-15.327606201171875,9.231654167175293,-51.02494430541992
1633779811368908500,8.644908447265625,-15.246307373046875,9.710164070129395,-51.06741714477539
1633779811388787700,8.66478759765625,-15.573699951171875,10.741277694702148,-50.91007614135742
1633779811408668000,8.68466796875,-15.385406494140625,11.169103622436523,-50.75197982788086
1633779811428546800,8.704546875,-15.418914794921875,12.092630386352539,-50.67741012573242
1633779811448426000,8.724426025390626,-14.5504150390625,13.125758171081543,-50.16337203979492
1633779811468305000,8.744304931640626,-14.22711181640625,13.95271110534668,-50.209903717041016
1633779811488184800,8.764184814453126,-13.854248046875,14.834251403808594,-50.090824127197266
1633779811508063700,8.784063720703125,-13.106964111328125,15.641664505004883,-50.06696701049805
1633779811527943000,8.80394287109375,-13.30413818359375,16.737594604492188,-49.59556198120117
1633779811547822800,8.82382275390625,-13.6656494140625,17.21243667602539,-49.38212203979492
1633779811567701800,8.84370166015625,-14.43780517578125,17.89254379272461,-48.653194427490234
1633779811587581000,8.863580810546875,-14.76568603515625,18.342336654663086,-48.12643051147461
1633779811607460900,8.8834609375,-14.70233154296875,18.878772735595703,-47.89070510864258
1633779811627339800,8.90333984375,-15.15130615234375,19.105262756347656,-47.555973052978516
1633779811647219000,8.923218994140624,-15.593231201171875,19.23885726928711,-47.367305755615234
1633779811667099000,8.943098876953124,-15.469970703125,19.627948760986328,-47.132930755615234
1633779811686977800,8.962977783203126,-16.25628662109375,19.945852279663086,-46.82113265991211
1633779811706857000,8.98285693359375,-17.342437744140625,20.295106887817383,-46.54740524291992
1633779811726736000,9.00273583984375,-17.1917724609375,20.544864654541016,-46.025028228759766
1633779811746615800,9.02261572265625,-18.002044677734375,20.533321380615234,-45.6966667175293
1633779811766495000,9.042494873046875,-18.253631591796875,20.02570915222168,-45.67107009887695
1633779811786374000,9.062373779296875,-17.762359619140625,19.511260986328125,-46.19990158081055
1633779811806253800,9.08225390625,-16.885528564453125,18.890907287597656,-46.804691314697266
1633779811826133000,9.102133056640625,-16.344329833984375,18.362321853637695,-47.1588020324707
1633779811846012000,9.122011962890625,-15.604156494140625,17.630069732666016,-47.66366958618164
1633779811865891800,9.141891845703125,-15.30499267578125,17.43170166015625,-47.6768913269043
1633779811885770800,9.161770751953124,-15.1614990234375,16.93116569519043,-47.900569915771484
1633779811905650000,9.18164990234375,-14.66815185546875,16.78610610961914,-47.97226333618164
1633779811925529900,9.20152978515625,-14.531890869140625,16.62903594970703,-48.1301383972168
1633779811945408800,9.22140869140625,-13.8138427734375,16.738819122314453,-48.0799674987793
1633779811965288000,9.241287841796876,-12.77093505859375,16.45813751220703,-48.415523529052734
1633779811985166800,9.261166748046875,-12.357696533203125,16.49129867553711,-48.483890533447266
1633779812005046800,9.281046875,-12.364227294921875,16.148069381713867,-48.58780288696289
1633779812024926000,9.300926025390625,-11.659820556640625,16.110137939453125,-48.7070198059082
1633779812044804900,9.320804931640625,-11.42999267578125,15.817447662353516,-48.82252883911133
1633779812064684800,9.340684814453125,-11.031829833984375,15.473847389221191,-48.81289291381836
1633779812084564000,9.36056396484375,-10.58746337890625,15.368978500366211,-48.775028228759766
1633779812104443000,9.38044287109375,-10.201080322265625,15.128934860229492,-48.97409439086914
1633779812124322800,9.40032275390625,-9.90936279296875,14.796136856079102,-49.29439163208008
1633779812144202000,9.420201904296874,-9.842926025390625,14.596060752868652,-49.12257766723633
1633779812164081000,9.440080810546876,-9.21868896484375,14.62602424621582,-49.1990852355957
1633779812183960000,9.4599599609375,-8.615814208984375,14.651344299316406,-49.24179458618164
1633779812203840000,9.479840087890626,-8.28466796875,15.115349769592285,-49.422794342041016
1633779812223719000,9.499718994140625,-8.23370361328125,15.429567337036133,-49.11271286010742
1633779812243598000,9.51959814453125,-8.440216064453125,15.382498741149902,-49.1436653137207
1633779812263477800,9.539477783203125,-8.368499755859375,15.706685066223145,-48.92698287963867
1633779812283357000,9.55935693359375,-8.8634033203125,16.012958526611328,-48.68134689331055
1633779812303236000,9.579236083984375,-9.03875732421875,16.41979217529297,-48.31159591674805
1633779812323115800,9.59911572265625,-9.703338623046875,16.759624481201172,-47.84469985961914
1633779812342995000,9.618994873046875,-10.461395263671875,17.611446380615234,-47.23482894897461
1633779812362873900,9.638873779296874,-11.7347412109375,18.199726104736328,-46.660396575927734
1633779812382753800,9.65875390625,-12.455230712890625,18.972246170043945,-46.0328254699707
1633779812402636800,9.67863671875,-13.7210693359375,20.12636947631836,-45.058895111083984
1633779812422515700,9.698515625,-14.53485107421875,20.944686889648438,-44.5012321472168
1633779812442394600,9.71839453125,-14.71746826171875,21.58585548400879,-43.6423225402832
1633779812462274800,9.73827490234375,-14.6866455078125,22.10613441467285,-43.102420806884766
1633779812482153700,9.75815380859375,-14.760833740234375,22.58451271057129,-43.33554458618164
1633779812502032600,9.77803271484375,-14.24542236328125,23.060256958007812,-43.09690475463867
1633779812521912600,9.79791259765625,-13.763153076171875,23.196548461914062,-42.4814338684082
1633779812541791700,9.817791748046876,-13.63201904296875,24.053287506103516,-42.24467849731445
1633779812561670700,9.837670654296875,-14.00311279296875,24.390609741210938,-41.68854904174805
1633779812581550600,9.857550537109375,-13.597625732421875,24.837299346923828,-41.55960464477539
1633779812601429800,9.8774296875,-13.873931884765625,24.949783325195312,-41.125797271728516
1633779812621309000,9.897308837890625,-14.0179443359375,25.21312713623047,-40.93361282348633
1633779812641188600,9.917188720703125,-14.717010498046875,25.545974731445312,-40.58925247192383
1633779812661067800,9.93706787109375,-14.99725341796875,25.876649856567383,-40.275203704833984
1633779812680946700,9.95694677734375,-14.90997314453125,26.158140182495117,-39.78189468383789
1633779812700825600,9.97682568359375,-14.912017822265625,26.356971740722656,-39.597713470458984
1633779812720705800,9.996705810546874,-14.906463623046875,26.401206970214844,-39.46554183959961
1633779812740584700,10.016584716796874,-15.284332275390625,26.641231536865234,-38.94523239135742
1633779812760463600,10.036463623046876,-15.430511474609375,26.824382781982422,-38.42802810668945
1633779812780343800,10.05634375,-15.67657470703125,26.869247436523438,-38.24813461303711
1633779812800222700,10.07622265625,-15.00286865234375,27.30987548828125,-38.29811477661133
1633779812820101600,10.0961015625,-14.611724853515625,27.57632827758789,-38.04389572143555
1633779812839981800,10.11598193359375,-14.46087646484375,27.923568725585938,-37.633914947509766
1633779812859860700,10.13586083984375,-14.345458984375,28.370534896850586,-37.28435134887695
1633779812879739600,10.15573974609375,-13.79278564453125,28.701398849487305,-37.05366897583008
1633779812899618600,10.17561865234375,-13.32232666015625,28.865083694458008,-36.806819915771484
1633779812919498800,10.195498779296875,-12.4730224609375,28.904403686523438,-37.094173431396484
1633779812939377700,10.215377685546875,-11.89447021484375,28.688190460205078,-37.40377426147461
1633779812959256600,10.235256591796874,-11.682708740234375,28.429636001586914,-37.73470687866211
1633779812979136800,10.25513671875,-12.0223388671875,28.27994155883789,-38.00399398803711
1633779812999016000,10.275015869140624,-12.3094482421875,27.717044830322266,-37.66862869262695
1633779813018894600,10.29489453125,-12.7501220703125,27.77986717224121,-37.323978424072266
1633779813038774800,10.31477490234375,-12.979583740234375,27.66836929321289,-37.1393928527832
1633779813058653700,10.33465380859375,-13.400909423828125,27.67544937133789,-36.8279914855957
1633779813078532600,10.35453271484375,-13.565582275390625,27.514949798583984,-37.01417922973633
1633779813098412800,10.374412841796875,-13.466888427734375,27.425003051757812,-37.41628646850586
1633779813118291700,10.394291748046875,-13.055450439453125,26.61395835876465,-37.582393646240234
1633779813138170600,10.414170654296875,-12.702728271484375,26.397756576538086,-38.34172439575195
1633779813158050800,10.43405078125,-12.796966552734375,25.6361083984375,-38.7020149230957
1633779813177929700,10.4539296875,-12.26080322265625,25.20393180847168,-39.25028610229492
1633779813197808600,10.47380859375,-12.09930419921875,24.933406829833984,-39.39436721801758
1633779813217687600,10.4936875,-12.1712646484375,24.86351203918457,-39.884586334228516
1633779813237567700,10.513567626953124,-11.805999755859375,24.637435913085938,-39.588619232177734
1633779813257446700,10.53344677734375,-12.288970947265625,24.809368133544922,-39.6662483215332
1633779813277325600,10.55332568359375,-12.339324951171875,24.650875091552734,-39.79421615600586
1633779813297205800,10.573205810546876,-12.223114013671875,24.428058624267578,-39.72964096069336
1633779813317084700,10.593084716796875,-11.848602294921875,24.170522689819336,-39.95748519897461
1633779813336963600,10.612963623046875,-12.197235107421875,24.083126068115234,-40.11246109008789
1633779813356843800,10.63284375,-12.0272216796875,23.946985244750977,-40.11643600463867
1633779813376722700,10.65272265625,-12.259033203125,24.2003116607666,-40.08957290649414
1633779813396601300,10.672601318359375,-11.769683837890625,24.120336532592773,-40.27260208129883
1633779813416481500,10.6924814453125,-11.3311767578125,24.067167282104492,-40.444149017333984
1633779813436360700,10.712360595703124,-11.357147216796875,23.68803596496582,-40.55751419067383
1633779813456239400,10.7322392578125,-10.791656494140625,23.68162727355957,-40.91865158081055
1633779813476118500,10.752118408203126,-11.016357421875,24.152311325073242,-41.22330856323242
1633779813495998700,10.771998779296876,-10.64324951171875,24.057851791381836,-41.21725082397461
1633779813515877400,10.79187744140625,-10.38128662109375,24.12647247314453,-40.89321517944336
1633779813535756500,10.811756591796875,-10.2003173828125,23.946422576904297,-41.30534744262695
1633779813555636500,10.831636474609375,-10.44830322265625,23.99223518371582,-41.307064056396484
1633779813575515400,10.851515380859375,-10.7755126953125,23.984542846679688,-41.00868606567383
1633779813595394600,10.87139453125,-11.341339111328125,24.28868865966797,-40.58527755737305
1633779813615274500,10.8912744140625,-12.246368408203125,24.409576416015625,-39.98161697387695
1633779813635153400,10.9111533203125,-12.77099609375,24.879478454589844,-40.044986724853516
1633779813655032600,10.931032470703125,-12.71710205078125,25.18567657470703,-39.640506744384766
1633779813674911500,10.950911376953124,-13.063507080078125,25.485624313354492,-39.06782150268555
1633779813694791700,10.970791748046874,-13.102020263671875,25.58100700378418,-38.91096878051758
1633779813714670300,10.99067041015625,-13.271026611328125,25.51624870300293,-38.993350982666016
1633779813734549500,11.010549560546876,-13.252685546875,25.800817489624023,-38.86650466918945
1633779813754429700,11.0304296875,-13.4376220703125,25.292863845825195,-39.149600982666016
1633779813774308400,11.050308349609375,-14.33197021484375,25.056711196899414,-38.97488021850586
1633779813794187500,11.0701875,-14.00506591796875,24.942689895629883,-38.62717056274414
1633779813814067700,11.090067626953125,-14.35345458984375,24.976850509643555,-38.23418045043945
1633779813833946400,11.1099462890625,-15.299652099609375,25.051042556762695,-37.78286361694336
1633779813853825500,11.129825439453125,-15.3677978515625,25.61740493774414,-37.59145736694336
1633779813873705700,11.149705810546875,-15.617919921875,25.800127029418945,-37.23954391479492
1633779813893584400,11.16958447265625,-16.0025634765625,25.88806915283203,-37.1607780456543
1633779813913463600,11.189463623046874,-15.821807861328125,25.99575424194336,-36.77206802368164
1633779813933342500,11.209342529296874,-15.745208740234375,26.70186424255371,-36.65346908569336
1633779813953222400,11.229222412109374,-15.69598388671875,26.52398681640625,-36.47896194458008
1633779813973101600,11.2491015625,-15.47515869140625,26.87141227722168,-36.43716812133789
1633779813992980500,11.26898046875,-15.307281494140625,26.77854347229004,-36.14506149291992
1633779814012860400,11.2888603515625,-15.8009033203125,26.900617599487305,-35.725528717041016
1633779814032739600,11.308739501953125,-15.834442138671875,27.443479537963867,-35.4349250793457
1633779814052618500,11.328618408203125,-16.405029296875,27.659290313720703,-34.699153900146484
1633779814072498400,11.34849853515625,-15.6923828125,27.81351089477539,-34.392757415771484
1633779814092377300,11.36837744140625,-15.775970458984375,28.157480239868164,-34.189640045166016
1633779814112256500,11.388256591796875,-14.717681884765625,28.43762969970703,-33.98537063598633
1633779814132135700,11.4081357421875,-13.836639404296875,28.860559463500977,-34.101497650146484
1633779814152015400,11.428015380859375,-12.57196044921875,29.232845306396484,-34.393123626708984
1633779814171894500,11.44789453125,-11.397308349609375,29.07060432434082,-34.7078971862793
1633779814191773400,11.4677734375,-10.684600830078125,28.886993408203125,-35.33488845825195
1633779814211653400,11.4876533203125,-9.999908447265625,28.72270965576172,-35.6414680480957
1633779814231532500,11.507532470703126,-9.93798828125,28.570655822753906,-35.5936393737793
1633779814251411500,11.527411376953125,-10.125274658203125,28.141315460205078,-35.53627395629883
1633779814271291400,11.54729150390625,-10.863250732421875,28.08966827392578,-35.59860610961914
1633779814291170600,11.567170654296875,-11.22552490234375,27.91565704345703,-35.4379997253418
1633779814311049500,11.587049560546875,-11.948577880859375,27.673221588134766,-35.6181526184082
1633779814330929400,11.606929443359375,-11.910919189453125,27.444608688354492,-35.77412033081055
1633779814350808600,11.62680859375,-12.02703857421875,27.01344871520996,-36.005558013916016
1633779814370687500,11.6466875,-12.009490966796875,26.42363739013672,-36.53463363647461
1633779814390566700,11.666566650390624,-11.858367919921875,25.85804557800293,-36.80678176879883
1633779814410442800,11.68644287109375,-11.92962646484375,25.687559127807617,-37.00981521606445
1633779814430322000,11.706322021484375,-11.5399169921875,25.672937393188477,-37.39754867553711
1633779814450200800,11.726200927734375,-11.289581298828125,24.866167068481445,-37.7604866027832
1633779814470080800,11.746080810546875,-11.6396484375,24.688249588012695,-38.0468635559082
1633779814489959700,11.765959716796875,-11.063262939453125,24.469343185424805,-38.38908767700195
1633779814509838800,11.7858388671875,-10.97296142578125,24.25015640258789,-38.61087417602539
1633779814529718800,11.80571875,-11.107421875,23.702972412109375,-39.08137130737305
1633779814549597700,11.82559765625,-11.15985107421875,23.594615936279297,-39.17403030395508
1633779814569476900,11.845476806640624,-11.4073486328125,23.11485481262207,-39.25644302368164
1633779814589356800,11.865356689453124,-11.623565673828125,22.75360107421875,-39.701541900634766
1633779814609235700,11.885235595703126,-11.888885498046875,22.347421646118164,-39.971065521240234
1633779814629115000,11.905114990234376,-12.135101318359375,21.972095489501953,-40.08614730834961
1633779814648993800,11.924993896484375,-12.287872314453125,21.592405319213867,-40.448177337646484
1633779814668873700,11.944873779296875,-12.481353759765625,21.14471435546875,-40.75717544555664
1633779814688753000,11.9647529296875,-12.852630615234375,21.02519416809082,-40.60258865356445
1633779814708631800,11.9846318359375,-12.811187744140625,20.744516372680664,-40.86880111694336
1633779814728511700,12.00451171875,-13.274322509765625,20.773176193237305,-40.43917465209961
1633779814748391000,12.024390869140625,-13.057403564453125,20.936798095703125,-40.83677291870117
1633779814768269800,12.044269775390624,-12.33099365234375,20.639362335205078,-40.99021530151367
1633779814788149800,12.064149658203124,-11.71014404296875,20.75729751586914,-41.3138313293457
1633779814808028700,12.084028564453124,-12.138214111328125,20.8272762298584,-41.393123626708984
1633779814827907800,12.103907958984376,-12.307525634765625,20.9334774017334,-41.006900787353516
1633779814847787000,12.123787109375,-13.016632080078125,21.385570526123047,-40.48415756225586
1633779814867666700,12.143666748046876,-13.137664794921875,21.878307342529297,-39.6537971496582
1633779814887545900,12.1635458984375,-13.31207275390625,22.32646369934082,-39.56582260131836
1633779814907425000,12.183425048828125,-13.349639892578125,22.556228637695312,-39.55521011352539
1633779814927304700,12.2033046875,-13.08843994140625,22.21587562561035,-39.616329193115234
1633779814947183900,12.223183837890625,-13.55328369140625,22.129215240478516,-39.57663345336914
1633779814967062800,12.243062744140625,-13.3294677734375,22.032337188720703,-39.57869338989258
1633779814986942700,12.262942626953125,-12.6845703125,22.087722778320312,-39.72560501098633
1633779815006822000,12.28282177734375,-12.78594970703125,21.895427703857422,-40.042850494384766
1633779815026700800,12.30270068359375,-12.8282470703125,22.272565841674805,-39.66191482543945
1633779815046580700,12.322580810546874,-13.02978515625,21.87509536743164,-39.39542007446289
1633779815066460000,12.3424599609375,-13.4190673828125,22.287107467651367,-38.980289459228516
1633779815086338800,12.3623388671875,-13.70855712890625,22.082347869873047,-38.90396499633789
1633779815106218000,12.382218017578126,-13.34234619140625,22.58327865600586,-38.761173248291016
1633779815126098000,12.402097900390626,-13.027130126953125,22.8071346282959,-38.17502212524414
1633779815145976800,12.421976806640625,-12.80487060546875,23.315217971801758,-37.60585403442383
1633779815165856000,12.44185595703125,-13.158172607421875,23.598756790161133,-37.273006439208984
1633779815185735700,12.461735595703125,-13.184600830078125,23.801013946533203,-36.53986740112305
1633779815205614800,12.48161474609375,-13.557037353515625,23.974838256835938,-36.363162994384766
1633779815225494000,12.501493896484375,-13.484344482421875,24.363849639892578,-35.74607467651367
1633779815245373700,12.521373779296875,-13.537200927734375,24.433073043823242,-35.22164535522461
1633779815265252900,12.5412529296875,-13.80633544921875,24.922964096069336,-35.06747817993164
1633779815285132000,12.561132080078124,-13.8271484375,24.792184829711914,-34.47830581665039
1633779815305011700,12.58101171875,-13.39923095703125,25.27238655090332,-34.00002670288086
1633779815324891000,12.600890869140626,-13.541839599609375,25.10892105102539,-33.83491134643555
1633779815344769800,12.620769775390626,-12.72137451171875,25.409399032592773,-34.15689468383789
1633779815364648700,12.640648681640625,-11.39453125,25.628795623779297,-34.14290237426758
1633779815384529000,12.66052880859375,-10.513580322265625,25.27328872680664,-34.49531173706055
1633779815404407600,12.680407470703125,-9.998291015625,24.776626586914062,-34.90840530395508
1633779815424286700,12.70028662109375,-10.190277099609375,24.899675369262695,-34.86490249633789
1633779815444166700,12.720166748046875,-10.78759765625,24.26679229736328,-34.695499420166016
1633779815464045600,12.740045654296875,-11.1026611328125,23.83098602294922,-34.456356048583984
1633779815483924700,12.7599248046875,-11.5152587890625,23.70646858215332,-34.09452438354492
1633779815503804700,12.7798046875,-11.863739013671875,23.424528121948242,-34.0532112121582
1633779815523683600,12.79968359375,-12.200897216796875,23.07637596130371,-34.3360481262207
1633779815543562800,12.819562744140624,-12.308258056640625,22.81590461730957,-34.30744552612305
1633779815563442400,12.8394423828125,-12.42974853515625,22.315914154052734,-34.69880294799805
1633779815583321600,12.859321533203126,-12.193084716796875,21.737266540527344,-34.79246139526367
1633779815603200800,12.87920068359375,-12.660003662109375,21.175764083862305,-34.95016860961914
1633779815623079400,12.899079345703125,-12.22186279296875,21.00599479675293,-35.110530853271484
1633779815642959600,12.918959716796875,-11.899200439453125,20.560916900634766,-35.26255416870117
1633779815662838500,12.938838623046875,-11.37542724609375,20.397737503051758,-35.52195358276367
1633779815682717400,12.958717529296875,-11.72259521484375,20.16396713256836,-35.63923263549805
1633779815702597600,12.97859765625,-11.28729248046875,19.61893653869629,-35.548763275146484
1633779815722476500,12.9984765625,-11.5013427734375,19.148578643798828,-35.85342788696289
1633779815742355700,13.018355712890624,-11.48779296875,18.987972259521484,-35.94401931762695
1633779815762235600,13.038235595703124,-11.03704833984375,18.448440551757812,-36.005680084228516
1633779815782114600,13.058114501953124,-11.375244140625,17.942729949951172,-35.82748031616211
1633779815801993700,13.07799365234375,-11.120513916015625,17.422685623168945,-36.29537582397461
1633779815821873700,13.097873779296876,-10.900177001953125,16.919387817382812,-36.37724685668945
1633779815841752600,13.117752685546876,-11.26287841796875,16.618045806884766,-36.69919967651367
1633779815861631700,13.1376318359375,-11.12408447265625,16.22478485107422,-36.5345573425293
1633779815881510400,13.157510498046875,-11.060028076171875,16.093433380126953,-36.42280960083008
1633779815901390600,13.177390625,-11.592926025390625,15.729576110839844,-36.41547775268555
1633779815921269800,13.197269775390625,-11.8912353515625,15.679917335510254,-36.17305374145508
1633779815941148400,13.2171484375,-11.923370361328125,15.665771484375,-35.61837387084961
1633779815961028600,13.237028564453125,-12.32977294921875,15.49384880065918,-35.2535514831543
1633779815980907800,13.25690771484375,-11.8070068359375,15.45464038848877,-35.26162338256836
1633779816000786400,13.276786376953124,-11.766326904296875,15.25961685180664,-35.01508712768555
1633779816020666600,13.29666650390625,-11.91326904296875,15.344106674194336,-34.58969497680664
1633779816040545500,13.316545654296876,-12.19061279296875,15.022957801818848,-33.9418830871582
1633779816060424400,13.336424560546876,-12.89739990234375,14.935439109802246,-33.066097259521484
1633779816080304600,13.3563046875,-12.83648681640625,14.782977104187012,-32.81565475463867
1633779816100183600,13.37618359375,-13.140350341796875,14.61341381072998,-32.45070266723633
1633779816120062500,13.3960625,-13.488739013671875,14.524292945861816,-31.92226791381836
1633779816139941400,13.41594140625,-12.861968994140625,14.319570541381836,-31.547122955322266
1633779816159821600,13.435821533203125,-13.117034912109375,14.178577423095703,-31.210529327392578
1633779816179700700,13.45570068359375,-13.143157958984375,13.342921257019043,-30.712177276611328
1633779816199579400,13.475579345703125,-13.492431640625,13.233415603637695,-30.551952362060547
1633779816219459600,13.49545947265625,-13.50140380859375,12.804667472839355,-30.00045394897461
1633779816239338800,13.5153388671875,-13.574127197265625,12.24329662322998,-29.185291290283203
1633779816259217400,13.535217529296874,-13.545379638671875,12.025542259216309,-29.241230010986328
1633779816279097600,13.55509765625,-13.86309814453125,11.443994522094727,-28.57998275756836
1633779816298976800,13.574976806640626,-14.520782470703125,11.524629592895508,-27.958744049072266
1633779816318855400,13.59485546875,-14.92767333984375,10.75590991973877,-27.509227752685547
1633779816338735600,13.614735595703126,-15.52197265625,10.461325645446777,-26.965801239013672
1633779816358614800,13.63461474609375,-15.893218994140625,9.910036087036133,-26.53171157836914
1633779816378493400,13.654493408203125,-15.568359375,9.814183235168457,-26.079959869384766
1633779816398376700,13.674376708984376,-15.7418212890625,9.55598258972168,-25.789432525634766
1633779816418256600,13.694256591796876,-16.076812744140625,9.200065612792969,-25.161602020263672
1633779816438135600,13.714135498046875,-15.92218017578125,9.087718963623047,-24.58865737915039
1633779816458014700,13.7340146484375,-16.463897705078125,8.940352439880371,-24.389781951904297
1633779816477894700,13.753894775390625,-16.441009521484375,8.71955394744873,-24.22012710571289
1633779816497773600,13.773773681640625,-16.23272705078125,8.50819206237793,-24.087574005126953
1633779816517652700,13.79365283203125,-16.443756103515625,8.377571105957031,-23.464824676513672
1633779816537533000,13.813532958984375,-16.618621826171875,8.477434158325195,-23.209850311279297
1633779816557411600,13.83341162109375,-16.386322021484375,8.233535766601562,-22.96383285522461
1633779816577290800,13.853290771484374,-16.189361572265625,8.115617752075195,-22.81930923461914
1633779816597169700,13.873169677734374,-16.016204833984375,7.849996566772461,-22.51987075805664
1633779816617049600,13.893049560546874,-16.226165771484375,7.624799728393555,-22.409374237060547
1633779816636928800,13.9129287109375,-15.843597412109375,7.420875549316406,-22.34157943725586
1633779816656807700,13.9328076171875,-16.205169677734375,7.250944137573242,-22.116436004638672
1633779816676687600,13.9526875,-16.118377685546875,6.755212783813477,-21.985050201416016
1633779816696566500,13.97256640625,-15.954071044921875,6.677801132202148,-21.343997955322266
1633779816716445700,13.99244580078125,-16.290557861328125,6.351284027099609,-21.202991485595703
1633779816736325600,14.01232568359375,-15.867462158203125,5.855201721191406,-21.123027801513672
1633779816756204500,14.03220458984375,-15.6129150390625,5.4415283203125,-21.055103302001953
1633779816776083700,14.052083740234375,-15.43731689453125,4.789304733276367,-20.490825653076172
1633779816795963600,14.071963623046875,-15.339996337890625,4.427034378051758,-20.222652435302734
1633779816815842600,14.091842529296875,-15.594268798828125,3.9469833374023438,-19.96670913696289
1633779816835721700,14.1117216796875,-15.40277099609375,3.7576065063476562,-19.859485626220703
1633779816855600600,14.1316005859375,-15.222930908203125,3.6334152221679688,-19.452877044677734
1633779816875480600,14.15148046875,-15.080963134765625,3.327838897705078,-19.420337677001953
1633779816895359700,14.17135986328125,-15.359283447265625,2.9590816497802734,-19.157222747802734
1633779816915238700,14.19123876953125,-15.240478515625,2.5907135009765625,-18.430797576904297
1633779816935118600,14.21111865234375,-14.970001220703125,2.039949417114258,-17.856578826904297
1633779816954997800,14.230997802734375,-14.880523681640625,1.5473670959472656,-17.35422134399414
1633779816974876700,14.250876708984375,-14.337677001953125,1.1812973022460938,-17.09939956665039
1633779816994756600,14.270756591796875,-14.08624267578125,0.9693737030029297,-16.479000091552734
1633779817014635800,14.2906357421875,-13.575897216796875,0.4682788848876953,-15.984066009521484
1633779817034514700,14.3105146484375,-13.233428955078125,0.48784828186035156,-15.300281524658203
1633779817054393900,14.330393798828124,-13.26116943359375,0.06873893737792969,-14.658557891845703
1633779817074273500,14.3502734375,-12.566436767578125,-0.05862617492675781,-14.000354766845703
1633779817094152700,14.370152587890624,-12.819915771484375,-0.5808391571044922,-13.834003448486328
1633779817114031900,14.390031982421876,-12.719696044921875,-0.7265300750732422,-13.085071563720703
1633779817133911600,14.40991162109375,-12.745452880859375,-0.9421100616455078,-12.504619598388672
1633779817153790700,14.429790771484376,-12.3038330078125,-0.9375114440917969,-12.056621551513672
1633779817173669600,14.449669677734375,-12.340301513671875,-0.9464702606201172,-11.534542083740234
1633779817193549600,14.469549560546875,-12.39483642578125,-1.433603286743164,-10.97317123413086
1633779817213428700,14.4894287109375,-12.307861328125,-1.6009845733642578,-10.325862884521484
1633779817233307600,14.5093076171875,-12.21307373046875,-1.263162612915039,-9.99283218383789
1633779817253186800,14.529186767578125,-11.78515625,-1.5591373443603516,-9.617534637451172
1633779817273066800,14.549066650390625,-11.866729736328125,-1.754302978515625,-9.234451293945312
1633779817292945700,14.568945556640625,-11.344390869140625,-1.7706890106201172,-8.708145141601562
1633779817312824800,14.588824951171874,-11.24066162109375,-1.9153423309326172,-8.25726318359375
1633779817332704800,14.608704833984374,-11.059539794921875,-2.219846725463867,-7.5225372314453125
1633779817352583700,14.628583740234374,-10.315338134765625,-2.6379261016845703,-6.973552703857422
1633779817372462800,14.648462890625,-10.52935791015625,-3.1461105346679688,-6.569393157958984
1633779817392342800,14.6683427734375,-10.098388671875,-3.373472213745117,-6.0485992431640625
1633779817412218000,14.688218017578125,-9.934478759765625,-3.7317962646484375,-5.872344970703125
1633779817432097000,14.708096923828125,-9.571624755859375,-4.280088424682617,-5.614742279052734
1633779817451977000,14.72797705078125,-9.625885009765625,-4.5777435302734375,-5.316490173339844
1633779817471856000,14.747856201171874,-9.019744873046875,-4.663106918334961,-4.666587829589844
1633779817491735000,14.767735107421874,-9.1217041015625,-5.346918106079102,-4.417594909667969
1633779817511614200,14.7876142578125,-9.18353271484375,-5.502828598022461,-3.9591293334960938
1633779817531494100,14.807494140625,-8.577667236328125,-6.305421829223633,-3.373870849609375
1633779817551373000,14.827373046875,-8.0552978515625,-7.137668609619141,-3.484569549560547
1633779817571252200,14.847252197265625,-7.6390380859375,-7.7928466796875,-3.219646453857422
1633779817591132000,14.8671318359375,-7.5640869140625,-8.463020324707031,-2.483997344970703
1633779817611011000,14.887010986328125,-7.66448974609375,-9.268104553222656,-2.339771270751953
1633779817630890200,14.90689013671875,-7.69598388671875,-10.12063980102539,-1.7159233093261719
1633779817650770000,14.92677001953125,-7.05963134765625,-10.450469970703125,-0.8908500671386719
1633779817670649000,14.946649169921875,-7.2816162109375,-11.209815979003906,-0.3529701232910156
1633779817690528000,14.966528076171874,-6.511383056640625,-11.911972045898438,-0.051937103271484375
1633779817710407000,14.986406982421874,-6.65625,-12.904594421386719,0.49908447265625
1633779817730287000,15.006287109375,-6.357666015625,-13.600814819335938,1.0717926025390625
1633779817750166000,15.026166015625,-5.995758056640625,-14.446723937988281,1.6360702514648438
1633779817770045000,15.046044921875,-5.841644287109375,-15.195640563964844,2.32659912109375
1633779817789925000,15.065925048828126,-5.3609619140625,-16.07358169555664,3.232868194580078
1633779817809804000,15.085803955078125,-5.619110107421875,-16.759662628173828,3.8568458557128906
1633779817829683000,15.105682861328125,-4.799102783203125,-17.255393981933594,4.521091461181641
1633779817849563100,15.125563232421875,-4.887451171875,-18.378650665283203,5.5965728759765625
1633779817869442000,15.145442138671875,-4.571533203125,-19.471153259277344,6.6744384765625
1633779817889321200,15.1653212890625,-4.535400390625,-20.004985809326172,7.832969665527344
1633779817909200000,15.185199951171874,-4.48828125,-20.553985595703125,9.145198822021484
1633779817929080000,15.205080078125,-4.32012939453125,-21.22979736328125,10.42025375366211
1633779817948959200,15.224959228515624,-3.80963134765625,-21.324432373046875,11.846519470214844
1633779817968838000,15.244837890625,-3.07305908203125,-21.311115264892578,13.382282257080078
1633779817988718000,15.264718017578126,-2.2459716796875,-20.96094512939453,14.717041015625
1633779818008597200,15.28459716796875,-1.44207763671875,-20.83480453491211,16.392005920410156
1633779818028476000,15.304475830078125,-0.833526611328125,-20.208206176757812,17.584060668945312
1633779818048356000,15.324356201171875,-0.117156982421875,-19.46453857421875,18.85916519165039
1633779818068235000,15.344235107421875,0.182220458984375,-18.796894073486328,20.136478424072266
1633779818088114000,15.364114013671875,-0.292755126953125,-17.949905395507812,21.541297912597656
1633779818107993000,15.3839931640625,-0.2745361328125,-16.753520965576172,23.031545639038086
1633779818127873000,15.403873046875,-0.811767578125,-15.915393829345703,23.718978881835938
1633779818147752000,15.423751953125,-0.814971923828125,-14.762672424316406,24.895931243896484
1633779818167630800,15.443630859375,-1.930206298828125,-13.242881774902344,26.43174171447754
1633779818187511000,15.463510986328124,-2.445281982421875,-11.558464050292969,27.227176666259766
1633779818207390000,15.483389892578124,-2.050018310546875,-10.053119659423828,27.91142463684082
1633779818227268900,15.503268798828126,-2.691314697265625,-8.419055938720703,28.87156105041504
1633779818247149000,15.523149169921876,-2.85693359375,-6.978878021240234,29.240514755249023
1633779818267028000,15.543028076171876,-3.332611083984375,-5.498319625854492,29.815372467041016
1633779818286907000,15.562906982421875,-3.34344482421875,-4.238565444946289,29.874643325805664
1633779818306786000,15.5827861328125,-4.048431396484375,-3.1544857025146484,30.266172409057617
1633779818326666200,15.602666259765625,-4.434844970703125,-2.4162654876708984,30.843891143798828
1633779818346545000,15.622544921875,-4.633819580078125,-1.2681045532226562,30.888479232788086
1633779818366424000,15.642424072265625,-5.215057373046875,-0.4570274353027344,31.443666458129883
1633779818386304300,15.66230419921875,-4.900177001953125,0.4999580383300781,31.67210578918457
1633779818406182400,15.682182373046874,-4.9532470703125,1.3259620666503906,32.40089416503906
1633779818426061600,15.7020615234375,-4.716094970703125,2.1884021759033203,32.87348175048828
1633779818445941500,15.72194140625,-4.916839599609375,3.476083755493164,33.401451110839844
1633779818465820700,15.741820556640626,-4.714111328125,4.786001205444336,33.72868347167969
1633779818485699300,15.76169921875,-4.6817626953125,6.062671661376953,34.164451599121094
1633779818505578500,15.78157861328125,-4.461212158203125,6.82684326171875,34.694435119628906
1633779818525458700,15.801458740234375,-4.62445068359375,7.824108123779297,35.156829833984375
1633779818545337300,15.82133740234375,-4.31182861328125,9.068532943725586,35.43882751464844
1633779818565216500,15.841216552734375,-3.534637451171875,9.861685752868652,35.95686340332031
1633779818585096700,15.8610966796875,-2.960723876953125,10.366491317749023,36.24721908569336
1633779818604975400,15.880975341796875,-2.4580078125,10.900096893310547,36.550514221191406
1633779818624854500,15.9008544921875,-1.87310791015625,11.292675971984863,36.84150695800781
1633779818644733400,15.9207333984375,-1.36712646484375,11.397659301757812,37.36888885498047
1633779818664613400,15.94061328125,-1.3074951171875,11.851462364196777,37.88810729980469
1633779818684492500,15.960492431640626,-0.93914794921875,12.227948188781738,38.696414947509766
1633779818704371500,15.980371337890626,-0.652099609375,12.388653755187988,39.35865783691406
1633779818724251400,16.00025146484375,-0.195220947265625,12.305438041687012,40.20240783691406
1633779818744130600,16.020130615234375,0.376678466796875,12.227293968200684,40.91078567504883
1633779818764009500,16.040009521484375,0.841705322265625,12.055628776550293,41.72389221191406
1633779818783889400,16.059889404296875,0.988311767578125,12.238444328308105,42.15025329589844
1633779818803768600,16.0797685546875,1.3858642578125,12.5587739944458,43.182430267333984
1633779818823647500,16.0996474609375,1.437255859375,12.627198219299316,43.512760162353516
1633779818843526700,16.119526611328126,1.65435791015625,12.938079833984375,44.27861022949219
1633779818863406300,16.13940625,1.51617431640625,13.531554222106934,44.72954559326172
1633779818883285500,16.159285400390626,1.232574462890625,14.06799602508545,45.042869567871094
1633779818903164700,16.17916455078125,0.74578857421875,14.450005531311035,45.62404251098633
1633779818923044400,16.19904443359375,0.437774658203125,15.136878967285156,45.611141204833984
1633779818942923500,16.218923583984374,-0.241912841796875,16.353775024414062,45.4947509765625
1633779818962802400,16.238802490234374,-0.791229248046875,16.873939514160156,45.32596969604492
1633779818982682400,16.258682373046874,-1.102294921875,17.94987678527832,44.803184509277344
1633779819002561500,16.2785615234375,-1.07098388671875,18.95732879638672,44.67061996459961
1633779819022440400,16.2984404296875,-1.688629150390625,20.363758087158203,44.32502365112305
1633779819042319600,16.318319580078125,-1.7393798828125,20.91886329650879,43.85954666137695
1633779819062199600,16.338199462890625,-2.0174560546875,21.690929412841797,43.47811508178711
1633779819082078500,16.358078369140625,-2.675384521484375,22.425031661987305,42.886138916015625
1633779819101957600,16.37795751953125,-2.41424560546875,22.958772659301758,42.6093864440918
1633779819121837600,16.397837646484376,-2.8538818359375,23.684688568115234,42.465328216552734
1633779819141716500,16.417716552734376,-3.376953125,24.298606872558594,42.15537643432617
1633779819161595600,16.437595703125,-3.490692138671875,24.433443069458008,42.132591247558594
1633779819181474600,16.457474609375,-3.2650146484375,24.624788284301758,41.83269500732422
1633779819201354500,16.4773544921875,-3.072479248046875,24.579484939575195,41.935298919677734
1633779819221233700,16.497233642578124,-3.900726318359375,24.86626434326172,41.81101989746094
1633779819241112600,16.517112548828123,-3.7066650390625,24.654142379760742,41.95478820800781
1633779819260992500,16.536992431640623,-3.82940673828125,24.576732635498047,42.14078903198242
1633779819280871700,16.55687158203125,-4.212646484375,24.526836395263672,42.345523834228516
1633779819300750600,16.57675048828125,-4.42864990234375,24.692800521850586,42.5068359375
1633779819320630500,16.596630615234375,-4.36651611328125,24.230361938476562,42.67274475097656
1633779819340509400,16.616509521484375,-4.110443115234375,24.257726669311523,42.69927978515625
1633779819360388600,16.636388671875,-4.274200439453125,23.861722946166992,42.66400146484375
1633779819380267500,16.656267578125,-3.87359619140625,23.91069221496582,42.624916076660156
1633779819400151000,16.676151123046875,-3.89404296875,23.696365356445312,42.53253173828125
1633779819420030000,16.696030029296875,-3.542266845703125,23.56715202331543,42.4442024230957
1633779819439908900,16.715908935546874,-3.501312255859375,23.85694694519043,42.01040267944336
1633779819459789000,16.7357890625,-3.65362548828125,24.111299514770508,41.541908264160156
1633779819479668000,16.75566796875,-3.478729248046875,24.37744903564453,41.510963439941406
1633779819499547000,16.775546875,-3.10791015625,24.111492156982422,41.45484924316406
1633779819519425800,16.79542578125,-3.463592529296875,24.315595626831055,40.79969787597656
1633779819539306000,16.815305908203126,-3.095947265625,24.555456161499023,40.51287078857422
1633779819559185200,16.83518505859375,-2.596038818359375,24.96221160888672,39.804168701171875
1633779819579063800,16.855063720703125,-2.29998779296875,25.239133834838867,39.22614288330078
1633779819598944000,16.874944091796873,-1.35369873046875,25.77328109741211,38.56911087036133
1633779819618823200,16.8948232421875,-1.223846435546875,26.000946044921875,38.00801086425781
1633779819638701800,16.914701904296876,-1.549407958984375,26.323278427124023,37.53419494628906
1633779819658582000,16.93458203125,-1.0518798828125,26.704973220825195,36.69352722167969
1633779819678461000,16.9544609375,-1.265625,27.17584228515625,36.202762603759766
1633779819698339800,16.97433984375,-1.117523193359375,27.294321060180664,35.890113830566406
1633779819718219000,16.994218994140624,-1.446044921875,27.381376266479492,35.536598205566406
1633779819738099000,17.014098876953124,-1.56005859375,27.157184600830078,35.397796630859375
1633779819757977900,17.033977783203124,-1.82037353515625,27.122573852539062,35.16881561279297
1633779819777856800,17.053856689453124,-1.97039794921875,27.197303771972656,35.028160095214844
1633779819797737000,17.073737060546875,-2.069061279296875,27.28583526611328,34.81211853027344
1633779819817616000,17.093615966796875,-1.8701171875,27.100154876708984,34.656829833984375
1633779819837494800,17.113494873046875,-1.9482421875,27.26253890991211,34.151512145996094
1633779819857374000,17.1333740234375,-2.210906982421875,27.148216247558594,33.91434097290039
1633779819877254000,17.15325390625,-1.74591064453125,27.200435638427734,33.99588394165039
1633779819897132800,17.1731328125,-1.379852294921875,27.04364013671875,33.90508270263672
1633779819917012000,17.193011962890626,-1.69378662109375,26.935527801513672,33.55291748046875
1633779819936892200,17.21289208984375,-1.363800048828125,26.984045028686523,33.477691650390625
1633779819956770800,17.232770751953126,-1.563995361328125,27.100488662719727,33.29882049560547
1633779819976650000,17.25264990234375,-1.6895751953125,26.721176147460938,33.361236572265625
1633779819996529000,17.27252880859375,-1.611480712890625,26.78157615661621,33.362701416015625
1633779820016408800,17.292408935546874,-1.589599609375,26.855876922607422,33.35483169555664
1633779820036288000,17.3122880859375,-2.0198974609375,26.744157791137695,33.1663818359375
1633779820056167000,17.3321669921875,-2.409576416015625,26.58420753479004,32.86343002319336
1633779820076046800,17.352046875,-2.219573974609375,26.77114486694336,32.97954559326172
1633779820095926000,17.371926025390625,-2.5684814453125,26.800546646118164,32.95195770263672
1633779820115805000,17.391804931640625,-2.429473876953125,26.802778244018555,32.831050872802734
1633779820135684900,17.411684814453125,-2.386444091796875,26.519643783569336,32.51517868041992
1633779820155563800,17.431563720703124,-2.378509521484375,26.548078536987305,32.63018035888672
1633779820175443000,17.45144287109375,-2.084503173828125,26.270347595214844,32.435203552246094
1633779820195322000,17.471322021484376,-2.132354736328125,26.609291076660156,32.648887634277344
1633779820215201800,17.491201904296876,-1.620330810546875,26.405296325683594,32.70487976074219
1633779820235081000,17.5110810546875,-0.862884521484375,26.02899169921875,32.88422393798828
1633779820254960000,17.530960205078124,-1.486236572265625,25.72627067565918,33.016685485839844
1633779820274839800,17.55083984375,-1.633880615234375,25.744401931762695,33.145355224609375
1633779820294719000,17.570718994140623,-1.486236572265625,25.79501724243164,33.37790298461914
1633779820314598000,17.590597900390627,-1.73114013671875,25.944679260253906,33.61233139038086
1633779820334477000,17.61047705078125,-2.071044921875,25.745609283447266,33.76368713378906
1633779820354357000,17.63035693359375,-1.50543212890625,25.746028900146484,33.713714599609375
1633779820374236000,17.65023583984375,-1.726287841796875,25.72368049621582,34.047874450683594
1633779820394115000,17.670114990234374,-1.609344482421875,25.935956954956055,34.019073486328125
1633779820413991200,17.6899912109375,-1.483154296875,25.957252502441406,34.05500411987305
1633779820433870000,17.7098701171875,-1.3526611328125,25.875791549682617,34.599327087402344
1633779820453749200,17.729749267578125,-1.19427490234375,26.00088882446289,34.84888458251953
1633779820473629200,17.749629150390625,-1.182861328125,25.989063262939453,34.753318786621094
1633779820493508000,17.769508056640625,-1.025726318359375,25.922529220581055,35.003334045410156
1633779820513387300,17.78938720703125,-1.212738037109375,25.965362548828125,35.154571533203125
1633779820533266200,17.80926611328125,-1.15972900390625,26.06239891052246,34.969085693359375
1633779820553146000,17.82914599609375,-0.454376220703125,25.877498626708984,35.279048919677734
1633779820573025300,17.849025390625,-0.836639404296875,25.89588165283203,35.56285095214844
1633779820592904200,17.868904296875,-1.16583251953125,25.710800170898438,35.51701354980469
1633779820612784000,17.8887841796875,-0.900115966796875,25.817398071289062,35.95018768310547
1633779820632663300,17.908663330078124,-1.080780029296875,25.594449996948242,35.90272521972656
1633779820652542200,17.928542236328123,-0.989349365234375,25.70327377319336,36.0634765625
1633779820672422100,17.948422119140623,-0.95843505859375,25.582565307617188,35.85506820678711
1633779820692301000,17.968301025390623,-0.80316162109375,25.49881362915039,35.971187591552734
1633779820712180200,17.98818017578125,-0.81768798828125,25.401275634765625,35.97929382324219
1633779820732059100,18.00805908203125,-0.388580322265625,25.472639083862305,36.153343200683594
1633779820751939000,18.02793896484375,-0.47003173828125,25.354467391967773,36.091796875
1633779820771818200,18.047818359375,-0.462921142578125,24.931062698364258,36.058650970458984
1633779820791697200,18.067697265625,-0.07269287109375,25.03762435913086,35.86378479003906
1633779820811577000,18.0875771484375,-0.078125,24.99623680114746,35.97701644897461
1633779820831456300,18.107456298828126,-0.25885009765625,25.343992233276367,36.08781814575195
1633779820851335200,18.127335205078126,-0.418060302734375,25.175617218017578,35.833038330078125
1633779820871214000,18.147214111328125,-0.714263916015625,25.079349517822266,35.74745178222656
1633779820891094300,18.16709423828125,-0.65850830078125,25.012174606323242,35.726806640625
1633779820910973200,18.18697314453125,-0.235260009765625,25.138322830200195,35.715065002441406
1633779820930852000,18.20685205078125,-0.556854248046875,24.864967346191406,35.656524658203125
1633779820950732300,18.226732177734377,-0.5250244140625,25.128448486328125,35.296295166015625
1633779820970611200,18.246611083984376,-0.342254638671875,24.770462036132812,35.522247314453125
1633779820990490000,18.266489990234376,-0.085479736328125,25.293054580688477,35.390052795410156
1633779821010370300,18.286370361328125,-0.60125732421875,24.914487838745117,35.290611267089844
1633779821030249200,18.306249267578124,-0.618072509765625,24.666725158691406,35.351104736328125
1633779821050128100,18.326128173828124,-0.319061279296875,24.578405380249023,35.298831939697266
1633779821070007000,18.346007080078124,-0.112335205078125,24.43747329711914,35.56256103515625
1633779821089887200,18.36588720703125,-0.46759033203125,24.33917808532715,35.682945251464844
1633779821109766100,18.38576611328125,-0.435577392578125,24.203834533691406,35.62062072753906
1633779821129645000,18.40564501953125,-0.419647216796875,24.319969177246094,35.42943572998047
1633779821149525200,18.425525146484375,-0.4189453125,23.98116683959961,35.804412841796875
1633779821169404200,18.445404052734375,-0.43719482421875,24.000333786010742,35.792396545410156
1633779821189283000,18.465282958984375,-0.28936767578125,24.012569427490234,35.72816467285156
1633779821209163300,18.485163330078127,0.16448974609375,24.15134620666504,35.75799560546875
1633779821229042200,18.505042236328126,-0.03717041015625,24.207805633544922,35.8997917175293
1633779821248921000,18.524921142578126,0.25933837890625,24.11042594909668,35.81330108642578
1633779821268800300,18.54480029296875,0.32952880859375,24.0385799407959,36.08104705810547
1633779821288680200,18.56468017578125,0.5245361328125,23.765531539916992,36.233558654785156
1633779821308559000,18.58455908203125,0.49169921875,23.928579330444336,36.299320220947266
1633779821328438000,18.60443798828125,0.3563232421875,23.83783531188965,36.092132568359375
1633779821348318200,18.624318115234374,0.455322265625,23.893325805664062,35.978187561035156
1633779821368197000,18.644197021484374,0.61376953125,23.788307189941406,36.25206756591797
1633779821388076000,18.664075927734373,0.2786865234375,23.646976470947266,36.422576904296875
1633779821407957500,18.68395751953125,0.561492919921875,23.421640396118164,36.415531158447266
1633779821427836700,18.703836669921873,0.328857421875,23.582578659057617,36.443504333496094
1633779821447715800,18.7237158203125,0.677490234375,23.545604705810547,36.230133056640625
1633779821467594500,18.743594482421877,0.62030029296875,23.539854049682617,36.127445220947266
1633779821487474700,18.763474609375,0.462432861328125,23.42957878112793,36.31614685058594
1633779821507353600,18.783353515625,0.269805908203125,23.224016189575195,36.43433380126953
1633779821527232800,18.803232666015624,0.0810546875,23.273744583129883,36.43537139892578
1633779821547112700,18.82311279296875,0.46856689453125,23.165002822875977,36.16392517089844
1633779821566991600,18.84299169921875,0.267578125,23.21537971496582,36.236328125
1633779821586870800,18.862870849609376,0.271331787109375,23.167036056518555,36.347938537597656
1633779821606750700,18.882750732421876,0.17315673828125,23.051223754882812,36.430938720703125
1633779821626629600,18.902629638671876,0.11419677734375,22.91888999938965,36.18414306640625
1633779821646508800,18.9225087890625,0.55267333984375,22.88721466064453,36.488861083984375
1633779821666387500,18.942387451171875,0.062713623046875,22.654077529907227,36.595584869384766
1633779821686267600,18.962267578125,0.269744873046875,22.659461975097656,36.515811920166016
1633779821706146800,18.982146728515627,0.24212646484375,22.821985244750977,36.4407958984375
1633779821726025500,19.002025390625,-0.055389404296875,22.600866317749023,36.671112060546875
1633779821745905700,19.02190576171875,0.39178466796875,22.86908721923828,36.86931610107422
1633779821765784800,19.041784912109375,0.123382568359375,22.71273422241211,36.907920837402344
1633779821785663500,19.06166357421875,0.047760009765625,22.592453002929688,37.17546844482422
1633779821805542700,19.081542724609374,-0.045257568359375,22.498071670532227,37.209476470947266
1633779821825422800,19.1014228515625,0.042724609375,22.547372817993164,37.23308181762695
1633779821845301500,19.121301513671874,0.17144775390625,22.463274002075195,37.048912048339844
1633779821865180700,19.1411806640625,0.131103515625,22.65118408203125,37.21392822265625
1633779821885060600,19.161060546875,0.1600341796875,22.576208114624023,37.52471923828125
1633779821904939800,19.180939697265625,0.588470458984375,22.374418258666992,37.309181213378906
1633779821924818700,19.200818603515625,-0.125244140625,22.656776428222656,37.24762725830078
1633779821944698600,19.22069873046875,0.06488037109375,22.780454635620117,37.20568084716797
1633779821964577800,19.240577880859377,0.03631591796875,22.540313720703125,36.713050842285156
1633779821984456400,19.26045654296875,0.374969482421875,23.018051147460938,36.94896697998047
1633779822004335600,19.280335693359376,0.299163818359375,22.98591423034668,37.20001220703125
1633779822024215800,19.3002158203125,0.229400634765625,23.090845108032227,36.94169235229492
1633779822044094500,19.320094482421876,0.431610107421875,23.24897575378418,36.78675079345703
1633779822063973600,19.3399736328125,0.3048095703125,22.980152130126953,36.523170471191406
1633779822083853800,19.359853759765624,0.48187255859375,23.25381088256836,36.585784912109375
1633779822103732500,19.379732421875,0.23974609375,23.26774024963379,36.524742126464844
1633779822123611600,19.399611572265623,0.56524658203125,23.30642318725586,36.16212463378906
1633779822143491800,19.419491943359375,0.458587646484375,23.197681427001953,36.29637145996094
1633779822163370500,19.43937060546875,0.815338134765625,23.25233268737793,36.292091369628906
1633779822183249700,19.459249755859375,0.798614501953125,23.133636474609375,36.38276290893555
1633779822203128600,19.479128662109375,0.67669677734375,23.106857299804688,36.40216827392578
1633779822223008500,19.499008544921875,0.78790283203125,23.292701721191406,36.531768798828125
1633779822242887700,19.5188876953125,0.6561279296875,23.19569206237793,36.609344482421875
1633779822262766600,19.5387666015625,0.648529052734375,23.04397201538086,36.51858139038086
1633779822282646800,19.558646728515626,0.563720703125,22.674331665039062,36.97679138183594
1633779822302525700,19.578525634765626,0.663177490234375,22.759971618652344,36.949893951416016
1633779822322404600,19.598404541015626,0.55517578125,22.72173500061035,36.913734436035156
1633779822342283800,19.61828369140625,0.42620849609375,22.75797462463379,37.150203704833984
1633779822362163500,19.63816357421875,0.72528076171875,22.998321533203125,37.05183410644531
1633779822382042600,19.658042724609373,0.444671630859375,22.679931640625,37.0839958190918
1633779822401920500,19.67792041015625,0.7105712890625,22.978851318359375,37.29005432128906
1633779822421800700,19.69780078125,0.5863037109375,22.691423416137695,37.672428131103516
1633779822441679400,19.717679443359376,0.531402587890625,22.533693313598633,37.73230743408203
1633779822461558500,19.73755859375,0.491424560546875,22.692012786865234,37.643924713134766
1633779822481438700,19.757438720703124,0.38360595703125,22.593976974487305,37.6335563659668
1633779822501317400,19.7773173828125,0.515869140625,22.906496047973633,37.65751647949219
1633779822521196500,19.797196533203124,0.740234375,22.677038192749023,37.687068939208984
1633779822541075500,19.817075439453124,0.699493408203125,22.520763397216797,37.60401916503906
1633779822560955600,19.83695556640625,0.6695556640625,22.613908767700195,37.665687561035156
1633779822580834600,19.85683447265625,0.779937744140625,22.57455062866211,37.61316680908203
1633779822600713500,19.87671337890625,1.318511962890625,22.70092010498047,37.8514518737793
1633779822620593700,19.89659375,0.8857421875,22.61961555480957,37.70420837402344
1633779822640472300,19.916472412109375,0.765106201171875,22.866718292236328,37.58906555175781
1633779822660351500,19.9363515625,0.783935546875,22.459531784057617,37.761878967285156
1633779822680231700,19.956231689453126,0.35223388671875,22.520252227783203,37.77490234375
1633779822700110300,19.9761103515625,0.4183349609375,22.59658432006836,37.607688903808594
1633779822719989500,19.995989501953126,0.155853271484375,22.61711311340332,37.56496810913086
1633779822739868700,20.01586865234375,0.363006591796875,22.528173446655273,37.79877471923828
1633779822759748400,20.035748291015626,0.625518798828125,22.55289649963379,37.620784759521484
1633779822779627500,20.05562744140625,0.871856689453125,22.222043991088867,37.57207489013672
1633779822799506400,20.07550634765625,0.83599853515625,22.37710952758789,37.50719451904297
1633779822819386400,20.095386474609374,1.02520751953125,22.310461044311523,37.68568801879883
1633779822839265500,20.115265625,0.88775634765625,22.21283531188965,37.755496978759766
1633779822859144400,20.13514453125,1.09716796875,22.25682830810547,37.691688537597656
1633779822879023600,20.155023681640625,0.71978759765625,22.2027645111084,37.92491912841797
1633779822898903600,20.174903564453125,0.74359130859375,22.097301483154297,38.136234283447266
