time,seconds_elapsed,z,y,x
1633779863720009200,0.02000927734375,0.09669862525463103,0.03395721465945244,-0.04814063831269741
1633779863739888000,0.03988818359375,-0.010544774889945983,0.08930062395781278,-0.03209317435324192
1633779863759767300,0.059767333984375,0.020973229923844337,0.1539534211322665,-0.12289660408943891
1633779863779647200,0.079647216796875,0.08403320494890212,0.14323153610974548,-0.16032587877362967
1633779863799526100,0.099526123046875,0.051499885612726205,0.07063888584673404,-0.1647128616861999
1633779863819405300,0.1194052734375,0.055417935839295385,-0.0016015899777412413,-0.17442425449192522
1633779863839285200,0.13928515625,0.041598669323325156,-0.04897592009305954,-0.18156550454869866
1633779863859164200,0.1591640625,-0.025512042397260664,-0.0836462514579296,-0.1813997925929725
1633779863879043300,0.179043212890625,-0.1639081211745739,-0.03613543548136949,-0.18507862723618745
1633779863898923300,0.19892333984375,-0.16632979536354542,-0.05236380896568298,-0.11673778919875621
1633779863918802200,0.21880224609375,-0.20622867503166198,-0.08608224643319845,-0.048515335110295564
1633779863938681300,0.238681396484375,-0.25577859562039373,-0.04706161090433597,-0.004068272352218628
1633779863958560300,0.258560302734375,-0.2661532746404409,0.06394347986131906,-0.08247941790195182
1633779863978440200,0.278440185546875,-0.16774842998981473,0.12293605931699275,-0.1558233066573739
1633779863998319400,0.2983193359375,-0.05567687903642654,0.0437666610121727,-0.20374884091466663
1633779864018198300,0.3181982421875,-0.014890695139765738,-0.06625672523975372,-0.14150604575769976
1633779864038078200,0.338078125,-0.02866319990456104,-0.00849836375415325,-0.12305135625973343
1633779864057957000,0.35795703125,-0.03023614830970764,0.13794453561753034,-0.09844839153140783
1633779864077836300,0.377836181640625,0.054746904709935186,0.25978929256647826,-0.11294336535185574
1633779864097716200,0.39771630859375,0.19419453836679457,0.382397142842412,-0.17961305530667304
1633779864117595100,0.41759521484375,0.2460112348437309,0.41304041064828634,-0.2028058792424388
1633779864137474300,0.437474365234375,0.268883576387167,0.3970771178409457,-0.24476035799980161
1633779864157354200,0.457354248046875,0.2567377960413694,0.4113952737897634,-0.22862611080603673
1633779864177233200,0.477233154296875,0.14428455229401588,0.44159342817664143,-0.16173136165738106
1633779864197112300,0.4971123046875,0.13376257375776768,0.3498085861876607,-0.08571023478303104
1633779864216991200,0.5169912109375,0.22266426152586935,0.2619128605917096,0.0068159636251628394
1633779864236871200,0.53687109375,0.2474099957257509,0.10779255845993757,0.1394612237907946
1633779864256750300,0.556750244140625,0.21054186205565928,-0.07975655054301023,0.414823750401102
1633779864276629200,0.576629150390625,0.13445990837216376,-0.41108226231783623,0.770203597382456
1633779864296509200,0.59650927734375,0.13907938486635685,-0.6927990167930722,1.0133046438679099
1633779864316388400,0.616388427734375,0.28791034841835494,-0.8994611148059367,1.1477912941165267
1633779864336267300,0.636267333984375,0.4397258807390928,-1.0228969403386114,1.1620881150163709
1633779864356146400,0.656146484375,0.49676235769093036,-1.0312924282401799,1.167071456386894
1633779864376026400,0.6760263671875,0.36566111209690566,-0.9428875840783119,1.055414477583766
1633779864395905300,0.6959052734375,0.38833822332918644,-0.736153297612071,0.8288573002725839
1633779864415784400,0.715784423828125,0.3577449321448803,-0.39603579209446904,0.5065110137671232
1633779864435664100,0.7356640625,0.19180209027230738,0.06895370923876762,0.16497969592884182
1633779864455543000,0.75554296875,0.12386077294647693,0.47262452625632284,-0.08867679297104478
1633779864475422200,0.775422119140625,0.32135552190244193,0.32049276759326456,-0.37350996243376283
1633779864495302100,0.79530224609375,0.30293489907085897,0.1744219164043665,-0.634110534850508
1633779864515181000,0.81518115234375,0.19240531686246393,0.21340485027134418,-0.9853035611338913
1633779864535060200,0.835060302734375,0.12106734283566474,0.1569236691147089,-1.3579285208940506
1633779864554940200,0.854940185546875,0.04387070590853691,-0.14803659830391405,-1.3395764332540332
1633779864574819000,0.874819091796875,-0.19868249743580818,-0.53824061550498,-1.3300059102237223
1633779864594698200,0.8946982421875,-0.4187503127276897,-0.5434171413600445,-1.1080224705688655
1633779864614577200,0.9145771484375,0.1066997947871685,1.512499489402771,-0.29787308563664555
1633779864634457000,0.93445703125,-0.7519651992499828,-0.7947188838273286,-1.0992946819730103
1633779864654336300,0.954336181640625,0.19035715216100216,0.34476679262816906,-0.7768728460133075
1633779864674215200,0.974215087890625,0.7913847709685563,-0.14357552724182604,-0.97169603767246
1633779864694095000,0.99409521484375,1.3241577687174082,-0.2841974653750658,-1.2076114835027605
1633779864713974000,1.01397412109375,1.5158406165242195,-0.5558090054214,-1.3592007327869533
1633779864733853200,1.033853271484375,1.4740607454150914,-0.6913958719968796,-1.3972197900578378
1633779864753733000,1.053733154296875,1.3454197524547575,-0.6659381901353597,-1.2349915847942232
1633779864773612000,1.073612060546875,1.4237182131439448,-0.7391010415017605,-0.7947104813251644
1633779864793491200,1.0934912109375,1.1464233667641877,-0.4453197552233934,-0.6401702732808887
1633779864813370000,1.1133701171875,0.5015735573649406,0.10231763418018817,-0.45438072129637
1633779864833250000,1.13325,1.4868968461126089,1.3203379181683064,-0.7002014020040631
1633779864853129200,1.153129150390625,2.1602181322366,1.617495402881503,-0.6912088249921798
1633779864873008000,1.173008056640625,2.0183236899495123,0.6748842976570129,-0.6438815488889813
1633779864892888000,1.19288818359375,1.007056397128105,0.36026772862076756,-0.23697788743004203
1633779864912767200,1.212767333984375,-0.20377777474820613,0.6936708311915397,0.30591800653487444
1633779864932646100,1.232646240234375,-0.8880097464650869,0.6301221958667039,0.7374716867342591
1633779864952526000,1.252526123046875,-1.5271604674398898,0.520446600139141,0.6186927470967173
1633779864972405200,1.2724052734375,-1.706814439278841,0.26173253558874127,0.8668927241563796
1633779864992284200,1.2922841796875,-1.766977523818612,0.16637480354905126,0.955147930714488
1633779865012163000,1.3121630859375,-1.7363257804453371,0.3175672355353832,0.6650327657282352
1633779865032043300,1.332043212890625,-1.0605950950920582,0.4657581476181745,0.29611528218388555
1633779865051922200,1.351922119140625,-0.17686171077191828,0.39919045673310755,-0.31265286774784323
1633779865071801000,1.371801025390625,0.6967933471262454,0.5136702378720045,-0.7994625712230801
1633779865091681000,1.391680908203125,1.3251076167881488,0.594263531500101,-1.1751520331203937
1633779865111560200,1.411560302734375,1.6170172639757394,0.9252420372724532,-1.2783631090089678
1633779865131439000,1.431439208984375,1.9033137474566697,0.9826222130954265,-1.4891984010532497
1633779865151319000,1.451319091796875,2.083642257556319,0.9537059152126312,-1.888628219500184
1633779865171198200,1.4711982421875,2.130913127297163,1.1085714827537536,-1.9532555899724364
1633779865191077000,1.4910771484375,2.011803932791948,1.0047270773977042,-2.246135543496907
1633779865210956000,1.5109560546875,1.709380490374565,1.0479115546077489,-2.1243933701395985
1633779865230836200,1.530836181640625,1.3031775245308874,0.6974404128581285,-2.1330989469036457
1633779865250715100,1.550715087890625,1.0798130057811737,0.4645657229632139,-2.0653572438031436
1633779865270594000,1.570593994140625,0.48362990439534187,0.13624270013570786,-1.8902397463500498
1633779865290474200,1.59047412109375,-0.43668227525949477,0.027491233515739438,-1.2310220966413616
1633779865310353200,1.610353271484375,-1.1991864041805267,-0.5715186157286167,-0.6164607502609492
1633779865330232000,1.630232177734375,-0.7161293312370777,-1.1177625049471855,-0.5099515096098184
1633779865350112300,1.6501123046875,-0.961048679190874,-2.9150556720525023,-0.11806173127889633
1633779865369991200,1.6699912109375,-2.820329223653674,-4.168822392204404,0.28516806397289035
1633779865389870000,1.6898701171875,-4.141233543533087,-2.8918285257220266,1.727424388848245
1633779865409750300,1.709750244140625,-4.697869062906503,-1.7926701834797858,2.6968682636797427
1633779865429629200,1.729629150390625,-4.34203142568767,-1.3933277510553597,2.9495784116402266
1633779865449508600,1.749508544921875,-2.921910944774747,-1.0785156594470142,2.640885387434065
1633779865469387800,1.7693876953125,-1.4808493826419113,-0.7379743755593895,2.3199951449558136
1633779865489267700,1.789267822265625,0.5901695401847362,-0.5970113689035177,1.2554258855357765
1633779865509146600,1.809146728515625,1.6487544644981622,-0.5381798252284526,0.40198417910486456
1633779865529025800,1.82902587890625,2.1371295175939795,-0.4916916302978992,-0.17679653658121824
1633779865548905700,1.84890576171875,2.2104934444904325,-0.4422784878313541,-0.548994356970489
1633779865568784600,1.86878466796875,1.8224936593353747,-0.14854396330416203,-0.7889020142421126
1633779865588663800,1.888663818359375,1.7713590999037025,0.22260873194634914,-0.6420303680643439
1633779865608544000,1.9085439453125,1.9294652568012476,0.39999943502843377,-0.6397247214704752
1633779865628422700,1.928422607421875,2.001457310822606,0.6018979719012976,-0.8191913540437817
1633779865648301800,1.9483017578125,2.072892315483093,0.74814710226655,-0.9107976245954632
1633779865668180700,1.9681806640625,1.8018565294981002,1.0045271709114312,-0.6781158269241452
1633779865688060700,1.988060791015625,1.7509353205561637,0.9101584499090909,-0.6707458826780319
1633779865707939800,2.00793994140625,1.6951584882766007,0.5946054768055677,-0.6204974584311247
1633779865727818800,2.02781884765625,1.1250246049046515,0.5802993035554885,-0.4282946784034371
1633779865747698700,2.04769873046875,0.6992991924673319,0.8691174144685267,-0.09947715005725621
1633779865767577900,2.067577880859375,0.5920464399725198,1.0276888507902622,0.028485797511041164
1633779865787456800,2.087456787109375,0.729765642401576,0.9930576823920011,0.09850742824226617
1633779865807336700,2.107336669921875,0.6997381684064865,0.588597760823369,0.13783815263360738
1633779865827215600,2.127215576171875,0.3839554782003164,0.2758651058375835,0.23368512949496506
1633779865847094800,2.1470947265625,-0.5745002618879079,-0.08450783672332764,0.7436182266652583
1633779865866974700,2.166974609375,-1.6697002218931913,-1.0029635748565195,1.1160466409400105
1633779865886853600,2.186853515625,-3.550439733970165,-1.726148669824004,1.67831899715662
1633779865906732800,2.20673291015625,-4.929159698480367,-1.8334569518983364,2.130379751072824
1633779865926611700,2.22661181640625,-5.351362782010436,-1.5147107357114553,2.2336440184533597
1633779865946491600,2.24649169921875,-5.308398085030913,-0.9482195927560328,2.3249340626627206
1633779865966370800,2.266370849609375,-4.673156061932445,-0.24937632736265658,2.308641976292431
1633779865986249700,2.286249755859375,-3.2223920209527015,0.22466157282292842,1.9480691272452473
1633779866006129700,2.306129638671875,-1.1589181066781282,0.500517326310277,1.1041998435407876
1633779866026008800,2.3260087890625,0.9866700271815061,0.6346054787606,0.1449590905547142
1633779866045887700,2.3458876953125,2.5331436823785305,0.4749743042528629,-0.7961305041909217
1633779866065767700,2.365767578125,3.254224498543143,0.3780518071144819,-1.4293471589416265
1633779866085646800,2.385646728515625,3.243627701205015,0.41125089688301086,-1.6991586638286709
1633779866105525800,2.40552587890625,2.8210405867934227,0.6230775380522012,-1.726909717324376
1633779866125405000,2.425405029296875,2.505771691328287,0.8015712339401244,-1.663247977013886
1633779866145284900,2.445284912109375,2.5174124447613955,0.9571335515737533,-1.7471359282732009
1633779866165163800,2.465163818359375,2.575450207710266,1.1528519385069609,-1.8592174160987138
1633779866185043000,2.48504296875,2.5578058299481867,1.1776572939395904,-1.9923586430877447
1633779866204922600,2.504922607421875,2.447851417279243,1.079096381944418,-2.1456714282289147
1633779866224801800,2.5248017578125,2.1752771696805953,1.2020832946658133,-2.12269416500628
1633779866244681000,2.544680908203125,1.8173381762683392,1.1449638156056403,-2.1644646837651726
1633779866264560600,2.564560546875,1.5998457644224167,0.9497679912418127,-2.3581813754871486
1633779866284439800,2.584439697265625,1.3185475276201963,0.7655436427474022,-2.42010708578527
1633779866304318700,2.604318603515625,0.7379010180622338,0.8512959265738725,-2.216138464640081
1633779866324198700,2.62419873046875,-0.028287936851382253,1.0179805267244577,-1.7294135168388485
1633779866344077800,2.644077880859375,-0.9817360779106616,1.0252338588535785,-0.9927028776049613
1633779866363956700,2.663956787109375,-1.7660738529771565,0.5858154366284608,-0.2884033926323056
1633779866383836000,2.6838359375,-1.989375827884674,-0.13520926543474196,0.32873101910650726
1633779866403715800,2.7037158203125,-2.3757705159306526,-1.2278589564353226,0.9369880046457052
1633779866423594800,2.7235947265625,-2.8413866247296333,-2.631532744938135,1.47921096778512
1633779866443473200,2.74347314453125,-4.212074673953652,-4.052123765972256,2.4722733263522385
1633779866463352800,2.763352783203125,-5.9249394993126385,-3.853351836687326,3.949757616475224
1633779866483232000,2.78323193359375,-6.902009923499822,-2.8010183739840984,4.642380692179501
1633779866503111200,2.803111083984375,-5.683930018278956,-1.3921937785893679,4.487312003281712
1633779866522990800,2.822990966796875,-2.4826760624229904,-1.3704074787169693,3.172071408252418
1633779866542870000,2.8428701171875,0.8251526005357503,-1.677688590298593,1.9882601217277347
1633779866562749000,2.8627490234375,2.678741655358672,-1.8892595031410455,1.0837624740593135
1633779866582628000,2.882628173828125,3.109101157337427,-1.4957716419637201,0.7255702365383505
1633779866602508000,2.902508056640625,2.952147677606344,-0.9332926572591066,0.5818428797356784
1633779866622387000,2.922386962890625,2.960825489580631,-0.5484051589056849,0.4149231556549668
1633779866642266000,2.94226611328125,3.219738876095414,-0.48001288294196126,0.24706395876705645
1633779866662146000,2.96214599609375,3.462857312107086,-0.3320385362192988,0.07998013016581534
1633779866682025000,2.98202490234375,3.0873060896366833,-0.09429360993951559,-0.018705869513750074
1633779866701904100,3.001904052734375,2.7731062847077843,0.3583990121394396,-0.05346183333545923
1633779866721784000,3.0217841796875,2.2379466840833424,0.7455570857733488,-0.08893412873297929
1633779866741663000,3.0416630859375,2.1197738936454056,0.9319856663137673,-0.12269786664694547
1633779866761542100,3.061542236328125,2.5621827298581596,1.0240531246364115,-0.30662440123856066
1633779866781421000,3.081421142578125,2.986374356856942,0.9319055868148803,-0.48614071817249055
1633779866801301000,3.101301025390625,2.7833938699662686,0.8387187690734863,-0.6655602967336773
1633779866821180200,3.12118017578125,2.0492764620959756,0.9722194770246744,-0.4248696723908186
1633779866841059000,3.14105908203125,1.3091145133644342,0.9792647193610667,-0.13731997397840023
1633779866860939000,3.16093896484375,0.5667512551963328,1.0075690228253602,0.3216162186652422
1633779866880818200,3.180818115234375,-0.07600187418460845,1.2333031933158636,0.6664201284334064
1633779866900697000,3.200697021484375,-0.536422167906165,1.364067169779539,1.107267122156918
1633779866920577000,3.220576904296875,-1.0933902802348137,1.1162404099464416,1.2460966239154339
1633779866940456000,3.2404560546875,-1.8798305805385112,0.2938017445445061,1.010034828417003
1633779866960335000,3.260335205078125,-2.0924270370364186,-1.2567068652570248,0.6041147711679339
1633779866980215000,3.280215087890625,-3.125422177541256,-2.539285253873467,0.5014858790814877
1633779867000094000,3.300093994140625,-4.815373160302639,-2.4261942967444656,1.242408875313401
1633779867019973000,3.31997314453125,-6.623390550518035,-1.2616402300059795,2.444752866742015
1633779867039851800,3.339851806640625,-7.131573296889663,-0.6713204676955938,2.605476804922521
1633779867059732000,3.35973193359375,-5.34633940089047,-0.8618336872011423,1.6937223179936407
1633779867079611100,3.379611083984375,-2.990259089335799,-1.1917173834741115,0.5104667656555771
1633779867099490000,3.399489990234375,-0.9613076223880052,-0.9693886375129223,-0.20603665959089992
1633779867119370000,3.419369873046875,0.6565203734487295,-0.4545101928949356,-0.6081307288110256
1633779867139249200,3.439249267578125,1.7910773613303899,0.022034137153625486,-1.0556447792083024
1633779867159128000,3.459128173828125,2.5791589991003274,0.47020577467679975,-1.4079443054288625
1633779867179008000,3.479008056640625,3.1311516611039636,0.6232435422688722,-1.8072843997657297
1633779867198887200,3.49888720703125,3.4349148276925083,0.6321826355278491,-2.0812766974687573
1633779867218766000,3.51876611328125,3.432497245156765,0.6593751783579588,-2.140536695688963
1633779867238645000,3.53864501953125,2.974766336649656,1.0005003996133803,-1.873165277430415
1633779867258525200,3.558525146484375,2.5940450180649757,1.1687678850412369,-1.655739501079917
1633779867278404000,3.578404052734375,2.3783815752118826,1.2504203323334455,-1.50326024415344
1633779867298283000,3.598282958984375,2.2455384543865917,1.1439496701270342,-1.3974948076069353
1633779867318163000,3.618162841796875,2.239747011503577,0.8656196354806422,-1.4991840807557104
1633779867338042000,3.6380419921875,1.8960609998494387,0.8083931889146566,-1.393151809966564
1633779867357921000,3.657921142578125,1.4222358656316996,0.7892465898960829,-1.4156503497615456
1633779867377801000,3.677801025390625,1.0689292081952095,0.8419915071338414,-1.5061150490626691
1633779867397680000,3.69768017578125,0.9105582628816365,0.7687041526049375,-1.6538307448491454
1633779867417558800,3.717558837890625,0.7451789001107215,0.5865390747278928,-1.8840058203965424
1633779867437438000,3.73743798828125,0.5108242007911205,0.40764147421419616,-1.8483499851256608
1633779867457318400,3.757318359375,0.2549117496579885,0.013508885392546653,-1.5707690152809024
1633779867477197000,3.777197021484375,-0.0014250643670558928,-0.9736047939032315,-1.17452484113276
1633779867497076200,3.797076171875,-0.7964519912302493,-2.0601725346416235,-0.5173085943743586
1633779867516956400,3.816956298828125,-2.135737770974636,-4.4187335570961235,0.11651859349012374
1633779867536835000,3.8368349609375,-4.421964794102311,-4.9925657104641195,1.6323127405241131
1633779867556714200,3.85671435546875,-7.36099170885086,-2.8270687610417604,4.243351563487947
1633779867576594400,3.876594482421875,-8.611668646293879,-0.9288298326313496,5.165341613227128
1633779867596473300,3.896473388671875,-6.788781019204855,-0.0495265397131443,4.435769739831984
1633779867616352300,3.916352294921875,-2.777913392728567,-0.9209738584339618,2.618238963600993
1633779867636231200,3.936231201171875,0.3865665374815464,-1.644172397404909,1.163769638362527
1633779867656111400,3.956111328125,1.891226419299841,-1.7898913664162157,0.37780718470364805
1633779867675990300,3.975990234375,2.1751199332922697,-1.4811708696812391,0.15352642789185048
1633779867695869200,3.995869140625,2.000938839906454,-0.9465765017241239,0.27745295955091714
1633779867715749400,4.015749267578125,1.9023083698064087,-0.41390930243730545,0.23793664945960044
1633779867735628300,4.035628173828125,1.8034417528629303,0.34100247165858744,0.10799012685865163
1633779867755507200,4.055507080078125,1.9166449381947517,1.0926824242264033,-0.1666854769334197
1633779867775387400,4.075387451171875,2.318655713045597,1.8508160829782485,-0.5902130870655179
1633779867795266300,4.095266357421875,2.8243986650496717,2.531772394025326,-0.8908768263339996
1633779867815145200,4.115145263671875,3.3525077626407143,2.9243191749602553,-1.0733186753258108
1633779867835024400,4.1350244140625,3.679639529857039,3.1525451622664926,-1.1970564064145088
1633779867854904000,4.154904052734375,3.735672967246175,3.0919980468451973,-1.218508944287896
1633779867874783200,4.174783203125,3.4359687206596132,2.9306320113688704,-1.2628127809166907
1633779867894662400,4.194662353515625,3.3356729476958513,2.6607635155975817,-1.3189058395385742
1633779867914542000,4.2145419921875,3.370321651750803,2.300902614212036,-1.477062265318632
1633779867934421200,4.234421142578125,2.9792203934490677,2.113864961862564,-1.4084028628513217
1633779867954300200,4.254300048828125,2.217538686826825,1.5639257252573966,-1.0165876110613346
1633779867974180000,4.27418017578125,0.6158458332329988,0.6611755057781934,-0.328498379394412
1633779867994059300,4.294059326171875,-1.3913070588827132,-0.1055582235366106,0.9994061746358871
1633779868013938200,4.313938232421875,-3.318867358845472,-1.1045230841457843,1.9012731815397739
1633779868033817300,4.3338173828125,-4.411813986966013,-1.9485592488497494,2.475672905662656
1633779868053697300,4.353697265625,-4.968584530895948,-2.7863030354112386,2.69973622033149
1633779868073576200,4.373576171875,-4.752127307316661,-3.446721000820398,2.7220328078135845
1633779868093455400,4.393455322265625,-4.6762698100388045,-3.2496997145950792,2.9489760618329046
1633779868113335300,4.413335205078125,-5.194661231213808,-2.344136775782704,3.217019680264592
1633779868133214200,4.433214111328125,-4.913398650246858,-0.9842442613393068,2.9655431657522917
1633779868153093400,4.45309326171875,-3.0320898138493297,-0.14376257424652575,2.026753080120683
1633779868172973000,4.47297314453125,-0.49742462099194523,0.10163082095980644,0.5423240854263305
1633779868192852200,4.492852294921875,1.456453777053952,0.32684652053415775,-0.6586310819923877
1633779868212731400,4.5127314453125,2.6458956168115138,0.4868383450478315,-1.4723527724534273
1633779868232610300,4.5326103515625,2.913167666348815,0.6928530850678682,-1.860917790275812
1633779868252490200,4.552490234375,2.818068877506256,0.7846487407118081,-1.9108987957581876
1633779868272369400,4.572369384765625,2.446904491817951,0.8049474323749541,-1.879342212499678
1633779868292248300,4.592248291015625,2.0071488004624842,0.9926116921901702,-1.8919436276584862
1633779868312128300,4.612128173828125,1.8595885874986648,1.1806938851565123,-1.9356939220577478
1633779868332007200,4.632007080078125,1.6497756242394446,1.4160510395169257,-2.0488836633861065
1633779868351886300,4.65188623046875,1.3288631699293851,1.4182926809638738,-1.9497040349707007
1633779868371766300,4.671766357421875,1.4730103595793247,1.2404992422997951,-1.9495371539711952
1633779868391645200,4.691645263671875,1.8226240077167748,0.6730757869303227,-2.2264237118110057
1633779868411524400,4.7115244140625,1.5737316644787787,0.2670622061789036,-2.2454309023588896
1633779868431404300,4.731404296875,0.7054355032652616,0.022159224838018417,-1.940217829222977
1633779868451283200,4.751283203125,-0.4632920497655868,-0.030253683966398236,-1.277814535215497
1633779868471162000,4.771162109375,-1.0933172149986028,-0.24495383474528787,-0.5400123013526201
1633779868491041300,4.791041259765625,-1.0734943241536616,-0.7934422880202532,-0.24030454763472078
1633779868510921000,4.8109208984375,-1.174134965032339,-1.5687304951906202,0.09250584973990916
1633779868530800000,4.830800048828125,-1.7654080825448035,-1.9701245994478462,0.7180009703278541
1633779868550679300,4.85067919921875,-2.6582646845191715,-1.9745850859880447,1.5645716219455004
1633779868570559000,4.87055908203125,-2.8679379470467565,-2.7425638469278812,1.7813731289178132
1633779868590438100,4.890438232421875,-2.895706828460097,-2.480471245855093,2.5113620586812493
1633779868610317000,4.910317138671875,-3.617164076721668,-1.7569319306224584,3.065169076630473
1633779868630196000,4.930196044921875,-3.7662346942484377,0.08050269273519516,3.5337338061019774
1633779868650076200,4.950076171875,-2.1228514013946054,0.8237538396537304,2.782833313474059
1633779868669955000,4.969955078125,0.5045499428272247,0.6898387056827545,1.3528946183800696
1633779868689834200,4.989834228515625,2.5786381900966164,0.10402677618563175,0.018235037131607533
1633779868709714200,5.009714111328125,3.513032671117782,-0.49206864691674707,-0.5474354370906949
1633779868729593000,5.029593017578125,2.979203442314267,-0.7315069331109524,-0.4050377214565873
1633779868749472300,5.04947216796875,1.8663064975768326,-0.6228203484207392,0.0705947544440627
1633779868769352200,5.069352294921875,1.0836252575457095,-0.36011224579811096,0.28399872793257236
1633779868789231000,5.089231201171875,0.985735961201787,0.04379413354098797,0.22247838356494903
1633779868809110300,5.1091103515625,1.5768974350333214,0.5140612830162048,-0.18671996470242738
1633779868828990200,5.128990234375,2.23983527430892,0.9793389536410569,-0.6370426427796483
1633779868848869000,5.148869140625,2.720456060016155,1.2655810765862465,-0.9233242209523915
1633779868868748300,5.168748291015625,2.744718394613266,1.3010650624215603,-1.1668392550662159
1633779868888627000,5.188626953125,2.4428935026109215,1.3632558533966541,-1.2005790275827048
1633779868908507100,5.208507080078125,2.0189350998461246,1.137955982670188,-1.2129127317160366
1633779868928386300,5.22838623046875,1.5784148538589478,1.0902402917712926,-1.027840241959691
1633779868948265000,5.248264892578125,0.9947031115114688,1.158439383250475,-0.6717813632056117
1633779868968145200,5.268145263671875,0.5346276857048273,1.1614058318406342,-0.35994098088443277
1633779868988024000,5.288024169921875,-0.04125497045218944,0.9711591543167829,-0.13422463831156492
1633779869007903000,5.307903076171875,-0.7671054852366447,0.7546691975116729,0.18377835829257963
1633779869027783200,5.327783203125,-1.1058096168249845,0.5719716201931238,0.5117682036429644
1633779869047662000,5.347662109375,-1.3634902466744183,0.129409054723382,0.7880950817734003
1633779869067541200,5.367541259765625,-1.908410193812847,-0.4298328477561474,1.168401974338293
1633779869087420200,5.387420166015625,-2.6558757435560225,-0.7962292883902787,1.6441513546168802
1633779869107300000,5.407300048828125,-3.386322353959083,-1.2614046676844357,2.3133970618650315
1633779869127179300,5.42717919921875,-4.026410648044943,-2.129980230361223,2.6580390590697527
1633779869147058000,5.447057861328125,-4.595557273945212,-2.1959832731008526,2.9713901382148262
1633779869166938000,5.466938232421875,-4.290920831653476,-2.1953829691201445,2.552387896552682
1633779869186817300,5.4868173828125,-3.190721455925703,-1.8998060315966605,1.7303569351688026
1633779869206696000,5.506696044921875,-1.6246417675048113,-1.1412789896130562,0.7915051824778317
1633779869226576100,5.526576171875,0.052965866512060165,-0.1470458337008953,-0.2014011087447405
1633779869246455300,5.546455322265625,1.6193120969146488,0.6623615006923675,-1.041549910621345
1633779869266334000,5.566333984375,2.810667076817155,0.9969868385344743,-1.842070174203813
1633779869286213000,5.586213134765625,3.317142434749007,1.206923720434308,-2.4946681135118007
1633779869306093300,5.60609326171875,3.3475054243087765,1.5276742621809243,-2.86325066601336
1633779869325972000,5.625971923828125,3.1561271124064922,1.8103467099457977,-3.107780722388625
1633779869345851100,5.64585107421875,2.774060224431753,1.9065151738464832,-3.0012182902455327
1633779869365731000,5.66573095703125,2.1188246300965545,1.8093349025547503,-2.788844244326651
1633779869385610000,5.68560986328125,1.3874158966630696,1.6696265721350907,-2.5458237157315016
1633779869405489200,5.7054892578125,0.737602327376604,1.5613853931248187,-2.3453405986145137
1633779869425369000,5.725369140625,0.3484229770481586,1.5717811149328946,-2.216539154395461
1633779869445248300,5.745248291015625,0.16000585303902626,1.5025953505039213,-1.9892706139445304
1633779869465127400,5.76512744140625,0.18963292953968047,1.3773551058977842,-1.8109873459368944
1633779869485006600,5.785006591796875,0.11892331654429435,1.2995330305486916,-1.3435919525057076
1633779869504886300,5.80488623046875,-0.23911153845787048,0.9591963293224572,-0.705770434308052
1633779869524765400,5.824765380859375,-0.8039858938664197,0.3212052997767925,0.07749386630803347
1633779869544644600,5.84464453125,-1.2923095090359449,-0.951844797515869,0.6348781582221389
1633779869564524300,5.864524169921875,-1.6090777031481265,-2.54761702888906,0.8988122955083847
1633779869584403500,5.884403564453125,-1.842846127012372,-4.468300428819656,1.1385247224688528
1633779869604282400,5.904282470703125,-3.2805507799327374,-5.559665925228596,2.674976165345311
1633779869624161500,5.92416162109375,-5.564104199936986,-4.529973333400488,4.34229329149425
1633779869644041500,5.94404150390625,-7.168461888825893,-2.0885335367292166,5.502120914232731
1633779869663920400,5.96392041015625,-5.8874511879175895,-0.876657162323594,4.66742803967446
1633779869683799600,5.983799560546875,-1.8529548485726117,-0.6389420466601848,2.6876164512097835
1633779869703679500,6.003679443359375,1.5134510910391807,-1.061828436279297,0.7665005050808191
1633779869723558400,6.023558349609375,3.461292547008395,-1.18394324234128,-0.4003811278223991
1633779869743437600,6.0434375,4.099638965862989,-1.075528460329771,-0.9752262576252222
1633779869763317500,6.0633173828125,3.6143379133850333,-0.6244780524998903,-0.7802505057528615
1633779869783196400,6.083196533203125,2.9009733706861733,-0.1336608669489622,-0.5153825947478413
1633779869803075600,6.10307568359375,2.385032849794626,0.5949795708149671,-0.40936493700593707
1633779869822954500,6.12295458984375,2.1762223415762185,1.2267308291882275,-0.5389622077777981
1633779869842834400,6.14283447265625,2.2689280978024002,1.7723177158027887,-0.8797314552024006
1633779869862713600,6.162713623046875,2.7365233977198598,2.381905657684803,-1.2249249488100409
1633779869882592500,6.182592529296875,3.1992379398584365,2.725691038060188,-1.4368895371451973
1633779869902472400,6.202472412109375,3.3665789580911394,2.791829689878225,-1.661815606123209
1633779869922351600,6.2223515625,3.2065076386004683,2.7618226741492746,-1.5860396496489644
1633779869942230500,6.24223046875,2.870285386955738,2.4017794019341467,-1.4180939435213804
1633779869962109400,6.262109375,2.6191893961936232,2.1438030040085314,-1.0186603256821631
1633779869981989400,6.2819892578125,2.1910428940892217,1.7157412575781343,-0.5905491871520877
1633779870001868500,6.30186865234375,1.071346790730953,0.9092249684512614,0.05838263086378574
1633779870021747700,6.321747802734375,-0.41851767301559445,-0.04455635008513927,0.8056468128159642
1633779870041627400,6.34162744140625,-2.0485200907707215,-0.284155964320898,1.8646996469020842
1633779870061506600,6.361506591796875,-3.2527357212901116,-0.9338836088895797,2.377718142867088
1633779870081385500,6.381385498046875,-4.098930525332689,-1.808763240146637,2.5712156388804317
1633779870101265400,6.401265380859375,-4.285733784404397,-2.636827928736806,2.416781156232953
1633779870121144600,6.42114453125,-4.378147279685735,-3.0133862824231383,2.5967975316435097
1633779870141023500,6.4410234375,-4.994780463904142,-3.1795828067958354,2.946711331771314
1633779870160902400,6.46090234375,-5.367405569794774,-2.6876474308699367,3.185316382011771
1633779870180782600,6.480782470703125,-4.757577389416098,-2.1361767469137907,2.6929747633725403
1633779870200661500,6.50066162109375,-3.0828222222208974,-1.6927788996636866,1.4471499421358107
1633779870220540400,6.52054052734375,-1.207727438032627,-1.035833578801155,0.10647796873003244
1633779870240420600,6.540420654296875,0.4945815065205097,-0.21283143429756163,-0.8876748154222964
1633779870260299500,6.560299560546875,1.9643220506489276,0.5376338817834854,-1.6473863910153508
1633779870280178400,6.580178466796875,2.9917502046763893,1.0581658221185206,-2.140782194882631
1633779870300057300,6.600057373046875,3.4528865377128124,1.4025824861347675,-2.5227713414460418
1633779870319937500,6.6199375,3.4812709206759926,1.732023699337244,-2.5789292819976803
1633779870339816400,6.63981640625,3.1600562685489653,1.7728665818572042,-2.573845110601187
1633779870359695400,6.6596953125,2.626789934325218,1.9638333903491496,-2.344224746327102
1633779870379575600,6.679575439453125,2.4899668039530516,2.1472510986357927,-2.190572353968024
1633779870399454700,6.699454833984375,2.520680506646633,2.168203870293498,-2.139405645832419
1633779870419333400,6.71933349609375,2.4476234537422656,1.8589736704707145,-2.2069556257531047
1633779870439213600,6.739213623046875,2.0745155327707527,1.6076093841612338,-2.1708137605309483
1633779870459091700,6.759091796875,1.808246522796154,1.2158172209858893,-2.2303280257731677
1633779870478971000,6.778970947265625,1.5549778641700744,0.7616326067835092,-1.824509090811014
1633779870498849500,6.798849609375,1.0436942291736602,0.26320085457563397,-1.2158897017002106
1633779870518729700,6.818729736328125,0.3459387590169906,-0.19253098906874655,-0.31762159607112406
1633779870538609000,6.83860888671875,-0.6358610317796468,-1.1306477054834365,0.5426902883902192
1633779870558487600,6.858487548828125,-2.2176772185146807,-2.2331080118805167,1.2914496773362159
1633779870578367700,6.87836767578125,-4.639839483264089,-3.9591163964509963,1.974617819213867
1633779870598247000,6.898246826171875,-5.938042726513743,-4.852290393811464,2.7782337107241153
1633779870618125600,6.91812548828125,-7.473123465558886,-3.936463835138082,3.68002999047935
1633779870638004700,6.938004638671875,-8.45873433907628,-1.9409645559370516,4.454679899746179
1633779870657885000,6.957885009765625,-7.233740708944201,-0.06104045189619064,4.163816839002073
1633779870677763600,6.977763671875,-3.4117227526754137,0.8961813624829054,2.902066426619887
1633779870697642800,6.997642822265625,0.7798381255596876,0.7027823584079742,1.1620417916566133
1633779870717522700,7.017522705078125,3.7494150768727064,0.39956338169872757,0.048029725284129375
1633779870737401600,7.037401611328125,5.005442727693915,0.20905191575884818,-0.6547314442053437
1633779870757280800,7.05728076171875,4.876939097377657,0.2079746419161558,-0.6388200277157128
1633779870777159700,7.07715966796875,4.1203357169330115,0.3971592431664467,-0.4523259807236492
1633779870797039900,7.097039794921875,3.2305461013138292,0.6595826836287975,-0.340520241099596
1633779870816918800,7.116918701171875,2.6251556111216545,1.1002823778361082,-0.27053017455041406
1633779870836797700,7.136797607421875,2.350191253516078,1.3661188416123389,-0.47055356520116326
1633779870856678000,7.156677978515625,2.2160142537385226,1.4194535414367913,-0.6314934842199087
1633779870876556500,7.176556640625,2.32168938165307,1.4417553896158932,-0.9909294381916522
1633779870896435700,7.196435791015625,2.4972709894865748,1.4998790772825479,-1.1865621926680208
1633779870916316000,7.21631591796875,2.4723726950734854,1.493911108788848,-1.192380523557961
1633779870936194600,7.236194580078125,2.324085921400785,1.2943430606901645,-1.031038745740056
1633779870956073700,7.25607373046875,1.785189472335577,1.0338017807126045,-0.76001786506325
1633779870975952600,7.27595263671875,1.0154179827600718,0.7499836700439453,-0.3643210956647992
1633779870995832600,7.29583251953125,-0.1320657067120075,0.6367313848733902,0.14388181671202183
1633779871015711700,7.315711669921875,-1.1120055488556624,0.4040595240741968,0.630196722407639
1633779871035590700,7.335590576171875,-1.5600035833775996,0.003745616269111633,0.9050167031064629
1633779871055469800,7.3554697265625,-1.8163994341135024,-0.5106570275306701,1.2202791688308119
1633779871075349800,7.375349853515625,-2.445289457836747,-0.8332640107989311,1.538607744127512
1633779871095228700,7.395228759765625,-3.323945685023069,-1.772777734529972,1.6570613973334432
1633779871115107800,7.41510791015625,-3.7371313493609426,-2.008792476016283,1.7075351547688244
1633779871134987800,7.43498779296875,-4.416716372054815,-2.2111574613571165,1.8856489114284514
1633779871154866700,7.45486669921875,-4.715281970000267,-2.1907488795787096,1.9404443314552307
1633779871174745900,7.474745849609375,-4.486627528148889,-1.6198691462755201,1.8160057586207985
1633779871194624800,7.494624755859375,-2.988599631690979,-1.4506073891133069,0.8380871931716799
1633779871214504700,7.514504638671875,-0.9847866976529359,-1.190136836284399,-0.3518488598436117
1633779871234384000,7.5343837890625,0.7303308750689029,-1.0250397975862025,-1.3322308927968143
1633779871254262800,7.5542626953125,1.8074340373694895,-0.6318272462189197,-1.6996815186589955
1633779871274142700,7.574142822265625,2.261239296865463,-0.19841186380088327,-1.8562763942107556
1633779871294022000,7.59402197265625,2.254422602587938,0.33471126255989075,-1.8195517606645821
1633779871313900800,7.61390087890625,2.1408511684656144,0.7683224598109721,-1.8279641997009515
1633779871333779700,7.63377978515625,2.316910330682993,1.1836696860969065,-1.820758798366785
1633779871353659600,7.65365966796875,2.64124048448205,1.510880363768339,-1.8146201494812964
1633779871373538800,7.673538818359375,2.920586418172717,1.8100410049974918,-1.661537373703718
1633779871393417700,7.693417724609375,3.036940176489949,1.9523931279242037,-1.5156936092689632
1633779871413297700,7.713297607421875,2.9913059680402276,2.0545289757966994,-1.3824109279826282
1633779871433176800,7.7331767578125,2.9412849228084084,2.037846721065044,-1.321511638122797
1633779871453056000,7.753055908203125,2.989415624248981,1.83346864233613,-1.390297005057335
1633779871472935000,7.772934814453125,2.687932093030214,1.6505904477536677,-1.3611103658005594
1633779871492815000,7.792815185546875,1.594514924788475,1.5504963348418472,-1.0580118006005883
1633779871512694000,7.812694091796875,0.4206798194855451,1.0671481699973344,-0.6070806352362036
1633779871532573000,7.832572998046875,-0.28477029682695865,0.06451309644281863,-0.220281458042562
1633779871552453000,7.852453125,-0.6123930624306202,-1.5703098733365535,-0.27777240076363086
1633779871572332000,7.87233203125,-2.383684942317009,-2.1304373264789582,0.5584716487593948
1633779871592211000,7.8922109375,-5.155871189570426,-2.7928344830065965,1.7870850768238304
1633779871612090000,7.912090087890625,-7.388336227372288,-2.923161821618676,2.975449350477755
1633779871631970000,7.931969970703125,-8.49086959900558,-2.207292018100619,3.5900498598247763
1633779871651849000,7.951848876953125,-7.760269259345531,-1.257206046950817,3.6142666017144918
1633779871671728000,7.97172802734375,-5.307819408360123,-0.8413847734123467,2.860552220709622
1633779871691608000,7.991608154296875,-2.4962346321761606,-0.9749392573773861,1.5392331825494765
1633779871711487000,8.011487060546875,-0.23185294563174247,-0.8349211303561925,0.7081051608659327
1633779871731366000,8.031365966796875,1.3379367032229899,-0.6315092663109302,0.1077238771378994
1633779871751245000,8.0512451171875,2.3295003476649523,-0.2944143234848976,-0.038503041395545
1633779871771125000,8.071125,2.837074606749415,-0.06319616862535476,-0.0385334365338087
1633779871791004000,8.09100390625,2.8600714514553545,0.13631810345947742,-0.013480536080896853
1633779871810883000,8.110883056640626,2.517268067854643,0.5105208339303732,-0.0327715120062232
1633779871830763000,8.130762939453126,2.152315980809927,0.89339377759099,-0.056471536545455454
1633779871850642000,8.150641845703126,1.8556401421338318,1.2603630496770142,-0.06218465349525213
1633779871870521000,8.17052099609375,1.8863029914230107,1.6845663671135902,-0.06334113005399704
1633779871890400000,8.19039990234375,2.152669616553187,2.2022505168020725,-0.08274258061647415
1633779871910280000,8.210280029296875,2.584331433302164,2.5513983009934424,-0.008771919998526573
1633779871930159000,8.2301591796875,3.2151182305574415,2.5859265935391185,-0.11035305659770965
1633779871950038000,8.2500380859375,3.5474750389456746,2.373570960059762,-0.28157968409210443
1633779871969918000,8.26991796875,3.557907001110911,1.8387568118721245,-0.48840749406069517
1633779871989797000,8.289797119140625,3.3777450797498223,1.422287303557992,-0.564637916304171
1633779872009676000,8.309676025390624,3.076967650973797,1.0780080021858214,-0.47878947862684723
1633779872029555200,8.32955517578125,2.24805949729681,1.0126567013531922,0.02147884135842323
1633779872049435100,8.34943505859375,1.1896528521597385,0.552394228541851,0.8635153566777706
1633779872069314000,8.36931396484375,0.3382458664268255,-0.5420242256969213,1.3614128558784722
1633779872089193200,8.389193115234375,-1.5550246259212492,-1.5664970370501279,1.914852209559083
1633779872109073000,8.409072998046875,-4.049983246812224,-2.5130764613837004,2.4330340796366334
1633779872128952000,8.4289521484375,-5.898219834691286,-2.8648329667687413,3.1663261425986886
1633779872148831200,8.448831298828125,-6.559847760412096,-2.9021166955024,3.3849922743991017
1633779872168710000,8.4687099609375,-6.112783207347989,-2.9325585955172775,3.1002170091360806
1633779872188590000,8.488590087890625,-4.793542436766624,-2.580681094101071,2.3887305352687833
1633779872208469000,8.508468994140625,-2.965166149133444,-2.440263154107332,1.1663777750343083
1633779872228348000,8.528347900390624,-1.2637842562973498,-2.074635944280028,0.08674597103893757
1633779872248228000,8.54822802734375,0.1423281575292349,-1.598386213263869,-0.706320469406247
1633779872268107000,8.56810693359375,1.4497504800230263,-1.149453528240323,-1.3328949096634983
1633779872287986000,8.58798583984375,2.4833050079762935,-0.7211129648685455,-1.8567650545105336
1633779872307864800,8.60786474609375,3.2685335944026708,-0.4259317486643791,-2.2701658229038117
1633779872327745000,8.6277451171875,3.7529765687465666,0.02289806050658226,-2.4870704979896545
1633779872347624000,8.6476240234375,3.800550220826268,0.4772860883265733,-2.098285553806275
1633779872367502800,8.6675029296875,4.064178360903263,0.6961386826097965,-1.6250057785116134
1633779872387382000,8.687382080078125,3.9964907260775564,0.7415624631792307,-1.3683072915673256
1633779872407262200,8.70726220703125,3.184337307846546,0.7373755328834056,-1.1774544648438692
1633779872427140900,8.727140869140625,2.1840087576687335,0.5120487741500139,-1.178349952378869
1633779872447020300,8.747020263671875,1.4513713592231272,0.30970541611909863,-1.2516212325558065
1633779872466900200,8.766900146484375,0.8408394144892692,0.053421209064126014,-1.3824883771330116
1633779872486779100,8.786779052734374,0.46871524385809893,-0.17345803980827332,-1.7232570400357246
1633779872506658300,8.806658203125,0.14877309588491916,-0.01376782858967781,-1.9203548986285923
1633779872526537200,8.826537109375,-0.04630407053530216,0.2708896555125713,-2.033317260941863
1633779872546417200,8.846417236328126,-0.4632926342874765,0.7724445081770419,-1.9364739665195345
1633779872566296300,8.86629638671875,-0.6304945363104343,1.2830933524012564,-1.6630851876676083
1633779872586175200,8.88617529296875,-0.38587563260793684,1.7609569483548402,-1.3593553388267754
1633779872606055200,8.90605517578125,-0.07028992627859115,1.154877306854725,-1.1671911372438073
1633779872625934000,8.92593408203125,-0.2855786906003952,0.08107552418708801,-0.44305648646652696
1633779872645813200,8.945813232421875,-1.406184894540906,-1.3492027781248093,0.2150292366027832
1633779872665692400,8.9656923828125,-2.7169775702506302,-2.201366719704866,1.0676726322628558
1633779872685572000,8.985572021484375,-3.751638598141074,-3.756860716703534,1.257279550578445
1633779872705451300,9.005451171875,-4.278974957793951,-4.9518414858877655,1.6977365220710634
1633779872725330200,9.025330078125,-6.0769239584594965,-5.170562562745809,2.4473735706344244
1633779872745210000,9.045210205078124,-7.510425898993015,-2.9050439811259507,3.979730145412683
1633779872765089300,9.06508935546875,-7.236104515466094,-0.5187982484102249,4.254388213548064
1633779872784968200,9.08496826171875,-3.737798288837075,1.0084539889663457,3.4087545505195855
1633779872804847400,9.104847412109375,0.41815117779076094,1.1583172181755303,2.068981571780145
1633779872824727300,9.124727294921875,3.382195629417896,1.0741805528521537,1.3223399056404828
1633779872844606200,9.144606201171875,4.704813767477869,0.914777926403284,0.8281155419945716
1633779872864485400,9.1644853515625,4.437705968591571,0.8959837940841913,0.8064628053739666
1633779872884364000,9.184364013671875,3.8309915363192557,0.8209674238055944,0.7709098459556698
1633779872904244200,9.204244140625,3.2032267172336577,0.5203413861989975,0.7848363722383975
1633779872924123400,9.224123291015625,2.8207296211481094,0.345850496211648,0.5352842499174177
1633779872944002000,9.244001953125,2.6665976285785433,0.4468178848266601,0.44503786954209207
1633779872963882200,9.26388232421875,2.55552444101274,0.6005652619928121,0.160213358309865
1633779872983761400,9.283761474609374,2.177062884053588,0.7367769824683665,-0.028095629149675366
1633779873003640000,9.30364013671875,1.7753548915416002,0.7335854929506779,-0.1811566314868629
1633779873023519200,9.323519287109375,1.316826695176959,0.7738210572272539,-0.3420300611406564
1633779873043399400,9.3433994140625,0.8746995985150336,0.5853647702515125,-0.3251061066076159
1633779873063278000,9.363278076171875,-0.07454173850417137,0.13135843522548674,-0.2580560390330851
1633779873083157200,9.3831572265625,-1.3058926287084818,-0.3071756053805351,0.0473109094902873
1633779873103037200,9.403037109375,-2.0680817003309726,-0.8335019112080335,0.18768048029765486
1633779873122916000,9.422916015625,-2.5873919899165627,-1.3101175529271363,0.023379560413211584
1633779873142795300,9.442795166015625,-2.77848622418046,-1.6382780786693094,0.050716626280546184
1633779873162674200,9.462674072265624,-3.1139936055541035,-1.1124901175022124,0.5389117927648127
1633779873182554400,9.482554443359374,-3.4639100360304114,-0.06852817730307578,1.153823121626675
1633779873202433300,9.502433349609374,-3.010451398015022,0.7314695237100124,1.08931747783795
1633779873222312200,9.522312255859376,-1.1296253766983746,0.8621995979040861,0.28332623549848795
1633779873242191400,9.54219140625,0.22060440638661383,0.5587088185161352,-0.5643120453506708
1633779873262071000,9.562071044921876,0.9128875826120376,0.11923135958015918,-1.032838488638401
1633779873281950200,9.5819501953125,0.5603010561436415,0.05940203703939914,-0.6850704683676362
1633779873301829400,9.601829345703125,-0.8944552693426608,0.07174713934957981,0.09314370925202965
1633779873321709000,9.621708984375,-2.0803513993173834,0.4516454511135816,0.7657292284473777
1633779873341588200,9.641588134765625,-2.592537536111474,1.0200210926413535,0.9953402403712273
1633779873361467100,9.661467041015625,-1.7253659950137137,1.5080483552128077,0.5769499931275844
1633779873381346300,9.68134619140625,-0.02431494156718254,1.7142776147663592,-0.1454419056355953
1633779873401226200,9.701226318359375,1.227610534632206,1.7327239565610884,-0.671969286993146
1633779873421105200,9.721105224609374,1.7860422897726296,1.6201356882572173,-0.9660475103914737
1633779873440984300,9.740984375,1.7902999472171066,1.5192752671480179,-1.0414987649559975
1633779873460868400,9.760868408203125,1.4434966803252696,1.5115917269080876,-0.9952800346165895
1633779873480747300,9.780747314453125,1.1862182015359402,1.5488251867592333,-0.947668242483586
1633779873500626400,9.80062646484375,1.1021715525835751,1.5900789881676434,-0.9812880418822169
1633779873520505000,9.820505126953124,1.0588391913354396,1.6653624849498272,-0.9529917755939066
1633779873540385300,9.84038525390625,1.2913298503488302,1.5220032308071851,-1.0486901377648115
1633779873560264400,9.860264404296874,1.671336298662424,1.2709423113584517,-1.1085222367845475
1633779873580143000,9.88014306640625,1.824037381646037,1.120101761549711,-1.0465500569961965
1633779873600022300,9.900022216796875,1.5990513991743325,1.0391343739122152,-0.7395880943663418
1633779873619902500,9.91990234375,1.0932844817727803,0.9615630584537982,-0.40918811913430686
1633779873639781000,9.939781005859375,0.9837696295648812,0.8630173440277576,-0.2888561048358679
1633779873659660300,9.959660400390625,1.0283353320002555,0.7714028901696205,-0.3854549229778349
1633779873679540200,9.979540283203125,1.3491355581074953,0.57380643440485,-0.702786450061202
1633779873699419100,9.999419189453125,1.7378712563216685,0.42395489563345906,-1.1255426374293862
1633779873719298300,10.01929833984375,1.7570663706570864,0.24292905091941355,-1.4580862005613744
1633779873739177200,10.03917724609375,1.5089765759736298,0.21183423995375633,-1.5281626302197575
1633779873759057400,10.059057373046874,0.9787953482836484,-0.14402794718444348,-1.5313972282268107
1633779873778936300,10.078936279296874,0.42886546402871606,-0.5969879880279302,-1.5404554178208112
1633779873798815200,10.098815185546876,-0.23031916019320486,-1.4255577035307883,-1.376684805420786
1633779873818695400,10.1186953125,-1.3896230513185261,-2.800498734024167,-0.9832296774692832
1633779873838574000,10.138573974609375,-3.0477205137014387,-5.090561974313855,-0.2748527139246464
1633779873858453200,10.158453369140625,-5.6423664202690125,-4.373745245334506,1.564302888006717
1633779873878332400,10.17833251953125,-8.105581995418667,-2.7477275133013723,3.308426044330001
1633779873898212000,10.198212158203125,-8.684635098305344,-1.2704805390655993,4.123811868610978
1633779873918091300,10.21809130859375,-6.49852030826807,-0.8021785521835089,3.4761911331936717
1633779873937970200,10.23797021484375,-3.147143595483899,-0.6462818880289792,2.4061902041137215
1633779873957849300,10.257849365234375,-0.39108080003559587,-0.02849719568789005,1.630384695070982
1633779873977729300,10.277729248046874,1.6610592347979545,0.6444447357296943,1.1691070538677275
1633779873997608200,10.297608154296874,3.179036863350868,0.9936766910731792,0.7899152829378843
1633779874017487400,10.3174873046875,4.082290940698981,0.8889502421855926,0.3249211784947663
1633779874037367300,10.3373671875,4.472370454737543,0.7243897945821285,-0.13862769557610152
1633779874057246200,10.35724609375,3.80545143687129,0.6640414166033267,-0.12701850632503628
1633779874077125400,10.37712548828125,3.015802111393213,1.0380296275407075,0.05280263877436518
1633779874097004300,10.39700439453125,2.676757203543186,1.468257612094283,0.20581395675092934
1633779874116884200,10.41688427734375,2.352102640095353,1.669724771812558,0.13991262082010505
1633779874136763400,10.436763427734375,2.6827859623134134,2.002929136940837,-0.02173325451090932
1633779874156642300,10.456642333984375,2.8008313269793987,2.1359400155484676,-0.1329189625404775
1633779874176522200,10.476522216796875,2.5217256317853924,2.1495055995643138,-0.01324848089069128
1633779874196401400,10.4964013671875,1.8903063818454742,2.191809202286601,0.1338762632653117
1633779874216280300,10.5162802734375,1.4846505284905434,2.132414764031768,0.28587621224224563
1633779874236159200,10.5361591796875,1.5510872864723204,1.9913409904778003,0.35939810617938633
1633779874256039400,10.556039306640624,1.6484809082537888,1.5297083983570336,0.3599832125909626
1633779874275918300,10.57591845703125,1.3022463811606169,1.3516121773540972,0.6143326521910727
1633779874295797200,10.59579736328125,0.5583762255609035,1.0721779808580876,0.8843291582562028
1633779874315677200,10.61567724609375,-1.0214566784024237,1.303200905406475,1.2847656695276497
1633779874335556400,10.635556396484375,-1.9051199200958013,1.147506485825777,1.5145618287600575
1633779874355435300,10.655435302734375,-1.6784335634469985,0.3788888424605131,1.2867827084384857
1633779874375314200,10.675314208984375,-1.680849392417073,-0.3673603172302246,1.145582385895401
1633779874395194400,10.6951943359375,-2.533102765846252,-1.789154284313321,0.6316986514031887
1633779874415073300,10.7150732421875,-3.0721634655624626,-3.07421922904849,0.14738704835399985
1633779874434952200,10.7349521484375,-3.9978631834745406,-4.3092227965414525,0.38964682170972226
1633779874454827500,10.75482763671875,-5.22660535248518,-4.222920477616786,1.4214121281586587
1633779874474707500,10.77470751953125,-6.623497518023848,-2.8715140519678592,2.2107930119588968
1633779874494586400,10.79458642578125,-5.875318267053365,-1.9463918416827917,1.8438260779604314
1633779874514465500,10.814465576171875,-2.7365608071208,-1.5011878217935561,0.47847427519783375
1633779874534345500,10.834345458984375,0.1099368770122528,-0.7674357401043176,-0.6450465010151266
1633779874554224400,10.854224365234375,2.126464915716648,-0.11020108090639114,-1.4393180794663727
1633779874574103600,10.874103515625,3.2913749562859533,0.601979220443964,-1.7060507614299654
1633779874593982500,10.893982421875,3.6063007374018428,1.1403478462427854,-1.7015224703505634
1633779874613862400,10.9138623046875,3.3792017082989214,1.4656711027324199,-1.5821243759013712
1633779874633741300,10.9337412109375,3.0359511654525995,1.525373584023118,-1.3776380144923925
1633779874653620500,10.953620361328126,2.505688104698062,1.4861100796490907,-1.2205812205173074
1633779874673500400,10.97350048828125,2.24572783947885,1.2878309023171663,-1.2216403741814195
1633779874693379300,10.99337939453125,2.2214883012354374,1.1833259872257709,-1.33711603448987
1633779874713258500,11.013258544921875,2.2215736414313314,1.1913947273910044,-1.3956399735204874
1633779874733137400,11.033137451171875,1.7340028904557228,1.4406196635842323,-1.3189813889928161
1633779874753017300,11.053017333984375,1.0593260980695485,1.6043033283531665,-1.1503683049976825
1633779874772896500,11.072896484375,0.7828501668572425,1.7372382191151379,-1.1291096822611988
1633779874792775400,11.092775390625,1.1030097569733857,1.633948525032401,-1.3158118190459906
1633779874812654600,11.112654541015624,1.5647072310239076,1.446589970165491,-1.4962556260883808
1633779874832534500,11.132534423828124,1.3935504538953303,1.5006711044430732,-1.3615649777002632
1633779874852413400,11.152413330078126,0.7324778239697217,1.5304939957767725,-0.9959174557372927
1633779874872292600,11.172292724609376,0.24050796125233173,0.9329401905596256,-0.6400821566060185
1633779874892172500,11.192172607421876,-0.20167700307667255,0.04624970999956131,-0.3520388294577598
1633779874912051500,11.212051513671875,-0.6315753172844648,-1.0153156914293766,-0.11539280433058738
1633779874931930600,11.2319306640625,-1.7462421943038702,-1.9002654658019542,0.14108809434026479
1633779874951809300,11.251809326171875,-3.4940351251810786,-4.290553751906752,0.04838745268061757
1633779874971689500,11.271689453125,-4.766859597024322,-5.287309704294801,0.4832340369455516
1633779874991568600,11.291568603515625,-6.280303673800826,-4.282327775353193,1.9946660432472825
1633779875011447600,11.311447509765625,-6.5480556158095595,-2.6205302894085643,2.7894144454300402
1633779875031327500,11.331327392578125,-4.7499897107660765,-0.7631792517036199,2.7395588198930025
1633779875051206700,11.35120654296875,-1.3419371710360048,0.2097398980230093,1.880003745148331
1633779875071085600,11.37108544921875,1.838923985132575,0.31042963874042034,0.8638839707944541
1633779875090964500,11.390964599609376,3.8904368279784918,-0.16888415602147577,0.17848383208103477
1633779875110844400,11.410844482421876,4.558214508500695,-0.49428690748810766,-0.0604953852340579
1633779875130723600,11.4307236328125,4.093253064218163,-0.5494844785749912,0.18931699545830488
1633779875150602500,11.4506025390625,2.886101964768767,-0.33195231924057006,0.6846708015255629
1633779875170481400,11.4704814453125,1.9479039998114107,0.023013211318850518,0.8662034267179668
1633779875190361600,11.490361572265625,1.4337994621753691,0.27133681475818155,0.8575951728485525
1633779875210240300,11.510240234375,1.9449147548675536,0.49314884336888787,0.43480552160218355
1633779875230119400,11.530119384765625,2.6089982570469377,0.9075748631566762,-0.061458823438733816
1633779875249999600,11.54999951171875,2.8468466437011957,1.1101689810782671,-0.33766368262469765
1633779875269878300,11.569878173828124,2.73732536175251,1.2942781787604092,-0.35671719653233885
1633779875289757400,11.58975732421875,2.2462720293581486,1.4762982952088117,-0.17703633668646215
1633779875309636600,11.60963671875,1.7603291718453167,1.393728148549795,-0.00595847001299262
1633779875329516300,11.629516357421876,1.0043956534862517,1.3226853580772875,0.1808914046794176
1633779875349395500,11.6493955078125,0.01980184805691242,0.9312333866417407,0.2970204143300652
1633779875369274400,11.6692744140625,-1.1983616437941789,0.4970405901104212,0.5312902118451893
1633779875389154600,11.689154541015625,-2.479905428665876,-0.27512042495012284,0.7843851213395595
1633779875409033500,11.709033447265625,-4.143797841063142,-0.7672253122240305,1.054524543006718
1633779875428912400,11.728912353515625,-5.577067141884565,-1.1884183419287204,1.1445226477093995
1633779875448791600,11.74879150390625,-5.901656238880753,-1.3361615102440119,1.1761337376341223
1633779875468671500,11.76867138671875,-5.218496864831447,-1.9024545002788305,0.8574506498113275
1633779875488550400,11.78855029296875,-4.878859836307168,-2.154173591375351,0.6939829658806324
1633779875508429600,11.8084296875,-4.51987980940938,-1.871224080234766,0.7459050224281847
1633779875528308500,11.82830859375,-3.5426644237935543,-1.0684504847675562,0.7259929919950664
1633779875548188400,11.8481884765625,-1.4453285719275473,-0.2364297520279884,0.42465339929163454
1633779875568067600,11.868067626953126,0.851438549914956,0.3970259721755981,-0.008626374047994613
1633779875587946500,11.887946533203126,2.6302999882727858,0.790063166975975,-0.4533681832529604
1633779875607826400,11.907826416015626,3.4167139850914476,0.9549351647466421,-0.834513718599081
1633779875627705600,11.92770556640625,3.2549528128176926,1.0603203698039054,-1.0072658020950853
1633779875647584500,11.94758447265625,3.004845248571038,1.0876380003184078,-1.004280648804456
1633779875667463400,11.96746337890625,2.866325835675001,0.8752052099496126,-1.0648907464593649
1633779875687343600,11.987343505859375,2.5848358756929635,0.9222147984057665,-1.0886129828304052
1633779875707222500,12.007222412109375,2.2292723792403937,0.8912883297443389,-1.1248711679086087
1633779875727101400,12.027101318359374,2.0090508346915246,1.0554232454121113,-1.119483045129478
1633779875746981400,12.0469814453125,1.8670342273294924,1.2957716321885584,-1.1784624728426336
1633779875766860500,12.066860595703124,1.9478923093736171,1.4617688345968722,-1.334685154081136
1633779875786739700,12.08673974609375,2.2670669801056382,1.4422551558315753,-1.6839323069937526
1633779875806618400,12.106618408203126,2.694920636743307,1.4345190086215733,-2.0802679588176307
1633779875826498600,12.12649853515625,2.8313088828295467,1.230342589944601,-2.221676078892499
1633779875846377500,12.14637744140625,2.308789568069577,1.1254477987527847,-1.8926497301012277
1633779875866256400,12.16625634765625,1.0083201334536076,0.9370511330097914,-1.33498530607149
1633779875886136600,12.186136474609375,-0.527528082832694,0.4160732024729252,-0.8000684281617403
1633779875906015500,12.206015380859375,-1.3729361204117536,-0.7911626526504755,-0.6190460905790328
1633779875925894400,12.225894287109375,-1.611018315821886,-2.3984540569037196,-0.28859862294346095
1633779875945773300,12.245773193359375,-3.551087384223938,-3.167324798247218,0.5918605620115995
1633779875965653500,12.265653564453125,-5.7379000933974975,-4.60844948874414,1.4185069082364439
1633779875985532400,12.285532470703124,-7.234554947936535,-4.572916987591982,2.451082362024486
1633779876005411300,12.305411376953124,-7.399492412158846,-3.57995341322422,3.0156162334322927
1633779876025290500,12.32529052734375,-5.80091330667138,-1.733351148548722,3.0860543360099193
1633779876045170400,12.34517041015625,-2.947376809942722,-0.06610007337331772,2.4569334261402487
1633779876065049300,12.36504931640625,0.4396627523750066,0.5680401259630918,1.3850190646544098
1633779876084928500,12.384928466796875,2.8476281494677065,0.5333125114530325,0.5153334949091076
1633779876104808400,12.404808349609375,3.8597687179923055,0.3486988713800907,0.2426566637188196
1633779876124687400,12.424687255859375,3.6649072401493785,0.37902152892947194,0.38497576115876436
1633779876144566500,12.44456640625,2.9302111556082964,0.6424649600893259,0.6940083195175976
1633779876164445400,12.464445556640625,2.1836206351339817,0.9283826733857393,0.8219888758078217
1633779876184325400,12.484325439453125,2.1763433376073835,1.1403887627750635,0.6538590452849865
1633779876204204500,12.50420458984375,2.536096686965227,1.1545488055527209,0.32651100496947766
1633779876224083500,12.52408349609375,3.001152239271998,1.3080103515148163,-0.061526627977937454
1633779876243963400,12.54396337890625,2.776663100406527,1.5313742857426405,-0.23651684578955173
1633779876263842600,12.563842529296876,2.441792847892642,1.858265814462304,-0.2383056289024651
1633779876283721500,12.583721435546876,2.420419220474362,1.8292606692522764,-0.3348398573756218
1633779876303600600,12.6036005859375,2.3087930752009154,1.4689070159137247,-0.4208623364455998
1633779876323480300,12.623480224609375,1.7866969542890787,1.1066992591410876,-0.43567558243498206
1633779876343359500,12.643359375,0.7771732902646065,1.1190952148556708,-0.17047580912709234
1633779876363238700,12.66323876953125,-0.65935413556993,1.645317475786805,0.34479967198446393
1633779876383117300,12.683117431640625,-1.7118407430082558,1.7245295441895723,0.7155581072203815
1633779876402997500,12.70299755859375,-2.019517868170142,1.3220499827831982,0.783902160128206
1633779876422876700,12.722876708984375,-1.7951532324671744,0.6655138272434473,0.5467145754702389
1633779876442755600,12.742755615234374,-2.0435405487924814,-0.8374959492802619,-0.14750117625296116
1633779876462636000,12.762635986328124,-1.4214227956831453,-2.6201538573116063,-0.726574445144832
1633779876482515200,12.78251513671875,-2.3264181637406347,-4.411330587363243,-1.0051812509059905
1633779876502393900,12.802393798828126,-5.378996054345369,-3.4803041214704513,0.7439765385836362
1633779876522273000,12.82227294921875,-7.982928844696283,-1.5902572673439979,2.312349160247296
1633779876542153200,12.8421533203125,-7.7482783773005,-0.31732173634171484,2.6602193257182836
1633779876562031900,12.862031982421875,-3.753318514052033,-0.5344084899961948,1.2490294624969362
1633779876581911000,12.8819111328125,-0.3525824348151684,-0.6350526380062103,-0.0193561501160264
1633779876601790000,12.9017900390625,1.882725717458129,-0.6387853947937489,-0.6803123140551149
1633779876621670000,12.921669921875,2.7803111015200614,-0.13005436688959598,-0.7463255859278142
1633779876641549000,12.941549072265625,2.99404328404963,0.6784346836149692,-0.5502439186401665
1633779876661428000,12.961427978515625,3.0924779393166304,1.389455878058076,-0.49322439282312985
1633779876681308000,12.981307861328125,3.412802949127555,1.7962649931013583,-0.6629620969340205
1633779876701187000,13.00118701171875,3.588258300232887,1.8467670998483896,-0.9885828750655055
1633779876721066000,13.02106591796875,3.3751375275999305,1.7864701597958803,-1.2735460641160607
1633779876740945200,13.040945068359376,3.1823329822868107,1.6792542321801185,-1.57532843215093
1633779876760824800,13.060824951171876,3.267074627766013,1.265138008993864,-1.870640142866969
1633779876780704000,13.0807041015625,3.245274883890152,0.6000415303796529,-1.9679200751408934
1633779876800583200,13.100583251953125,2.4006121117204424,0.016544307565689087,-1.8049924894362688
1633779876820462000,13.120462158203125,0.8515922791719436,0.01786474251449108,-1.3535986749961972
1633779876840342000,13.140342041015625,-0.2818605468600988,0.3857978911966085,-0.9367248236648738
1633779876860221000,13.160220947265625,-0.7004729124218225,0.9284604147970675,-0.6779477768808603
1633779876880100000,13.18010009765625,-0.2143926922649145,1.3932400727719068,-0.7384918235622346
1633779876899979000,13.19997900390625,0.26420798579156396,1.5369412722200155,-0.8870927777506411
1633779876919859000,13.21985888671875,0.4645651384413242,0.9971920057177543,-1.1233619323894382
1633779876939738000,13.239738037109374,0.1926286042243242,0.06074877547323703,-1.1064319865070282
1633779876959617000,13.259616943359376,-0.40196109049022194,-1.1218670176565646,-1.000510336485505
1633779876979497000,13.2794970703125,-1.6073247220009566,-4.206535744526982,-1.0761154664374888
1633779876999376100,13.299376220703126,-3.2573288942992686,-4.476649739491939,0.013319354169815778
1633779877019255000,13.319255126953125,-5.948551845568418,-2.867182160243392,2.210338984581083
1633779877039134000,13.339134033203125,-8.01116885075271,-1.0125742837667464,3.630806233105063
1633779877059014100,13.35901416015625,-8.038357886451482,0.2113911723613739,3.8119168334931133
1633779877078893000,13.37889306640625,-3.9824622007250783,0.43072307459414005,2.6086995663613077
1633779877098772000,13.39877197265625,-0.3285340352296829,0.3472369821339846,1.3494069223947822
1633779877118652200,13.418652099609375,2.485428576001525,0.17829495844542978,0.4512935689359903
1633779877138531000,13.438531005859375,3.9592613578796385,0.12437515220940112,0.19711364068388937
1633779877158410000,13.458409912109374,4.302133130541444,-0.138702368247509,0.313472075176239
1633779877178289000,13.478288818359376,3.90808237478435,-0.248733937805891,0.5856256131447851
1633779877198169000,13.498169189453124,3.131386054381728,-0.0014583821147680282,1.0719966329418122
1633779877218048000,13.518048095703126,2.393108604222536,0.3485165005505085,1.3034962350912391
1633779877237927000,13.537927001953125,1.7845418220818041,0.8829746749073266,1.2304038186125457
1633779877257806000,13.55780615234375,2.0493501118540762,1.0409639274269342,0.8064858939886093
1633779877277686000,13.57768603515625,2.6322873626977206,1.2197247498184443,0.3324202290132642
1633779877297565000,13.59756494140625,3.084152594041824,1.0010200395733118,0.05287438883632421
1633779877317444000,13.617444091796875,2.5588170528173446,0.9490420150548219,0.039366234096139666
1633779877337324000,13.637323974609375,1.7297177604824303,1.0106547138810158,0.1995988816283643
1633779877357203000,13.657202880859375,0.699686730480194,1.1002513981759547,0.39050212336480616
1633779877377082000,13.67708203125,-0.3314367709338665,1.0285925216317175,0.5752990110501647
1633779877396961000,13.6969609375,-1.3923942695975302,1.0201163697093725,0.8818515160962939
1633779877416841000,13.716841064453124,-2.2748832068145273,0.8031593799144029,1.095106290372461
1633779877436720000,13.73672021484375,-2.9068659358561035,0.20885843901336193,1.1704435631684957
1633779877456598500,13.7565986328125,-3.4153298372566696,-0.3522229538530111,1.2364978977039456
1633779877476477400,13.7764775390625,-3.339382908129692,-1.4924293457984923,0.8548886903688311
1633779877496357400,13.796357421875,-3.226208364370465,-1.6967267605066298,0.6216144797623158
1633779877516236500,13.816236572265625,-3.5027398251622914,-2.3582284294992686,0.6519394753992557
1633779877536115500,13.836115478515625,-4.439656518137455,-2.134732393324375,1.1911607725046574
1633779877555994600,13.85599462890625,-4.366010267168283,-1.4558973122149705,1.4388617140009998
1633779877575874600,13.87587451171875,-2.7157962515115734,-0.9935767378300427,0.8176049616351723
1633779877595753500,13.89575341796875,-0.5065969384849072,-0.5730290202915668,-0.02316357957497239
1633779877615632600,13.915632568359374,1.5444593927651642,-0.17221417722702026,-0.7054330190472304
1633779877635511300,13.93551123046875,2.9206875404596326,0.10043372012972832,-1.1256585188940167
1633779877655391500,13.9553916015625,3.3016958592921495,0.3081915044248104,-1.2833232156343757
1633779877675270700,13.975270751953126,3.12763342384994,0.5100818579912185,-1.1540624833405018
1633779877695149300,13.9951494140625,2.972453968054056,0.5411456892967224,-1.0960187290422618
1633779877715029500,14.015029541015625,2.8336276811659333,0.6997738242417574,-1.0726954288609325
1633779877734908700,14.03490869140625,2.8217461047142742,0.7506962022274732,-1.0361560887537895
1633779877754787300,14.054787353515625,2.8808810152500866,0.520306899407506,-1.1029311387792229
1633779877774666500,14.07466650390625,2.7080735483050344,0.33520284546911716,-1.124835512073338
1633779877794546400,14.09454638671875,2.062439310529828,0.31672903114557266,-0.9980756566844879
1633779877814425300,14.11442529296875,1.1332172637104987,0.3229337310045957,-0.8077735957115888
1633779877834304500,14.134304443359374,0.5919540855139493,0.394107454380393,-0.7779924976930022
1633779877854183400,14.154183349609376,0.425831210899353,0.35960488079786296,-0.895950768597424
1633779877874063600,14.174063720703124,0.11831366021335124,0.7192740590035915,-0.8139125368580221
1633779877893942500,14.193942626953126,-0.4616553884744644,1.2180331434696912,-0.549165914145112
1633779877913821400,14.213821533203125,-1.1973054127395153,1.5705840141028165,-0.38394028063118457
1633779877933701600,14.23370166015625,-1.035659975799918,0.9562398176044226,-0.6017093174614012
1633779877953580300,14.253580322265625,-0.5187105701267719,-0.10398235252201557,-0.9351005834639072
1633779877973459500,14.27345947265625,-0.5027139595717192,-1.5518430732756852,-1.290213851930946
1633779877993338600,14.293338623046875,-1.1546896753281355,-3.4281425570786,-1.4276076217979192
1633779878013218300,14.31321826171875,-3.158941585305333,-4.12233595083952,-0.7658452560424804
1633779878033097500,14.333097412109375,-5.691687792798876,-3.2575732244491573,0.9702034610271453
1633779878052976400,14.352976318359374,-7.218191257634759,-1.7602146055549381,1.9415075767725705
1633779878072855600,14.37285546875,-5.531781893002987,-0.9979700043529272,1.8008134501859545
1633779878092735500,14.392735595703124,-2.4328350499331948,-0.9981184729129076,0.7851707187592982
1633779878112614400,14.412614501953126,-0.5512257692843675,-0.6299363179057836,0.13969663998186588
1633779878132493600,14.43249365234375,0.42096915782093997,0.10703121869862078,0.20723434494286774
1633779878152373500,14.45237353515625,1.248940322908759,0.7674041759222745,0.6155746150761843
1633779878172252400,14.47225244140625,2.2896271869599816,1.1016530816674233,0.6749342742785811
1633779878192131600,14.492131591796875,3.147192110800743,1.1646727246820927,0.572588583047688
1633779878212010500,14.512010498046875,3.625181378960609,0.9889917481273413,0.2737619960784912
1633779878231890400,14.531890380859375,3.275654824584722,0.9419055873036384,0.14999292000345885
1633779878251769600,14.55176953125,2.2258576023608443,1.1043915667206048,0.18722930246405303
1633779878271648500,14.5716484375,1.7715794646561145,1.626870549470186,0.24581775809824466
1633779878291527400,14.59152734375,2.19757375716269,1.6798942836493254,0.09052117872871458
1633779878311407600,14.61140771484375,2.722569691169262,1.2584832272797821,-0.012203867208585142
1633779878331286500,14.63128662109375,2.833278137075901,0.5273123942553997,-0.1023691451717168
1633779878351165400,14.65116552734375,1.5916156962156296,0.19909984606504438,0.05189122301787138
1633779878371044400,14.67104443359375,-0.16635376076102257,0.061920741862058634,0.5374824906140565
1633779878390924500,14.690924560546875,-1.8668869278132914,0.20694003817141055,1.1841902028396725
1633779878410803500,14.710803466796875,-2.5239094055652616,0.3042038960933685,1.4076535057887434
1633779878430682400,14.730682373046875,-2.1001170070171353,0.5145300695717334,1.2456310522302985
1633779878450561500,14.7505615234375,-1.4149679204553365,0.9947387673467397,0.9033884443175048
1633779878470440700,14.770440673828125,-0.49517713432610033,1.1709072351574896,0.4753062396209687
1633779878490319600,14.790319580078124,0.15090250912904737,0.8020499573677777,0.2559188808739185
1633779878510198800,14.81019873046875,-0.30906887178122994,0.13792787674367427,0.18010463821589945
1633779878530078700,14.83007861328125,-1.0902777011722327,-0.3545318153172731,0.2657627409528941
1633779878549957600,14.84995751953125,-1.8281752121031283,-0.9032207596004008,0.21696429631859063
1633779878569836500,14.86983642578125,-1.6384090115725993,-1.8624346245795487,-0.3344752618469298
1633779878589715700,14.8897158203125,-2.42193430121243,-2.8838486328840256,-0.6429794854827224
1633779878609595600,14.909595703125,-4.13025972957611,-2.6901158668100833,-0.08702654154598713
1633779878629474600,14.929474609375,-5.4027346573293205,-1.862585431227088,0.6071271047264337
1633779878649353700,14.949353759765625,-4.5888796958774325,-1.294925829014182,0.7334970840148627
1633779878669233000,14.96923291015625,-2.008687262076139,-0.9171271198779344,0.3414171899393201
1633779878689112600,14.989112548828125,-0.08692425021529197,-0.3492711183100939,-0.06246040169671178
1633779878708991700,15.00899169921875,1.019275827232003,0.369112713855505,-0.2130877471461892
1633779878728870700,15.02887060546875,1.424681505218148,0.6318085415184498,-0.3365991951983422
1633779878748749800,15.048749755859374,2.698510770189762,0.3069201693147421,-0.5112384806804359
1633779878768629800,15.068629638671876,0.005492752197384834,0.24173662626445291,-0.2594090610772371
1633779878788508700,15.0885087890625,1.4534393976688385,0.7246995911836623,0.039326632738113404
1633779878808387800,15.108387939453126,0.24657062229216098,0.6530290242016316,-0.0005693243205547332
1633779878828267800,15.128267822265625,-0.18434476000368594,0.12322832026183604,-0.44319472589343784
1633779878848146700,15.148146728515625,-1.3736276098072528,0.1586836645245552,-0.20075842692703008
1633779878868025900,15.16802587890625,-1.9054566047042607,0.04313946902453899,-0.3952436188034713
1633779878887904800,15.18790478515625,-1.6849112350285051,-0.33650048406422134,0.09100231330916285
1633779878907784700,15.20778466796875,-2.020842394772172,-0.5810153428703546,-0.07298866384327411
1633779878927663900,15.227663818359375,-1.6760148118674754,-0.2719248437792063,-0.35327830812484023
1633779878947542800,15.247542724609374,-1.0239087477296591,0.14344517886042593,-0.3055180474318564
1633779878967421700,15.267421630859374,-0.7232242579340934,0.9845698400318622,-0.25640301112905145
1633779878987302000,15.287302001953124,-0.4730284308820963,1.6515443874776363,-0.40827034670226275
1633779879007180800,15.307180908203126,-0.28591712877452374,1.8248159648030995,-0.2307610587418079
1633779879027059700,15.327059814453126,0.469968458789587,1.7583663473397493,-0.02804872126802802
1633779879046940000,15.34693994140625,1.2822469647049903,0.9558446808069944,-0.16240502313524482
1633779879066818800,15.36681884765625,1.3222919748455286,0.9360527696222066,-0.35161899661049245
1633779879086697700,15.38669775390625,1.2799398568063973,0.7476061272576451,-0.198307453578338
1633779879106576600,15.40657666015625,1.285983228623867,0.1503004515826702,0.01352905139774084
1633779879126456800,15.426456787109375,1.0681138001590966,-0.240565244397521,-0.023670652314275502
1633779879146335700,15.446335693359375,0.9970195717602968,-0.28564444931298494,-0.091997023434937
1633779879166214700,15.466214599609375,0.5163093542039394,-0.04265431585609913,-0.0012802490688860416
1633779879186093800,15.48609375,-0.7543839508295058,0.28115473667830226,0.27901465590968727
1633779879205973500,15.505973388671874,-1.6131623421132564,0.6011626433640718,0.3804908708296716
1633779879225852700,15.525852783203124,-1.4607441677242516,0.7111375142991543,0.5354879557959735
1633779879245731800,15.54573193359375,-0.8931593843132257,0.6054343293339014,0.7128082239903509
1633779879265610800,15.56561083984375,-0.352249257338047,0.3054126873612404,0.775885296280682
1633779879285490700,15.58549072265625,0.18110124803781508,0.07855418901592492,0.6917644130483269
1633779879305369600,15.60536962890625,0.4298924689888954,-0.02466740826666355,0.7551207406714558
1633779879325248800,15.625248779296875,0.3026794630050659,-0.22664982403069733,0.8760862305678426
1633779879345128700,15.645128662109375,0.26018822875618935,-0.33910014516860243,0.992435897231847
1633779879365007600,15.665007568359375,0.2101186682075262,-0.3291469064310193,0.9119279437996447
1633779879384886800,15.68488671875,0.012902736192941664,-0.10618687682896852,0.7415208159945905
1633779879404766000,15.704765869140624,-0.15795476572811604,-0.0011506313398480415,0.6758002434581518
1633779879424645600,15.724645751953124,-0.1826689357459545,0.034088147562742234,0.6016410745307803
1633779879444524800,15.74452490234375,-0.20781214483082294,0.09057283585071563,0.5097616861261427
1633779879464403700,15.76440380859375,-0.11163257501423358,0.1214896599009633,0.37996754107531155
1633779879484282600,15.78428271484375,0.00125613754093647,0.17172347110062836,0.23940566256623713
1633779879504162600,15.80416259765625,0.03998772699534893,0.133601537977159,0.25048063534274695
1633779879524041700,15.824041748046875,0.005512041419744491,0.06050386080145836,0.29201734534576534
1633779879543920600,15.843920654296875,0.11680150208473204,-0.0327039997279644,0.33389716969802974
1633779879563800600,15.863800537109375,-0.015843465819954872,-0.13601444433778523,0.39900684379450974
1633779879583679700,15.8836796875,-0.17050971139669419,-0.24656126994192598,0.471237601942569
1633779879603558700,15.90355859375,-0.03947334773242473,-0.11082564254552126,0.301249211006239
1633779879623437600,15.9234375,0.07682429648339748,-0.04836158758699894,0.217084342501685
1633779879643317800,15.94331787109375,0.07190320669412613,-0.015139701464772224,0.2753086409986019
1633779879663196700,15.96319677734375,0.09390870227515696,-0.054011283911764615,0.25990685453154144
1633779879683075600,15.98307568359375,0.149912913569808,-0.020849895805120467,0.15162863144651054
1633779879702954500,16.00295458984375,0.1173047754317522,0.007639116576313972,0.1940555682875216
1633779879722834700,16.022834716796876,0.20994740329384803,0.08699147023260594,0.15267638693377375
1633779879742713600,16.042713623046875,0.12481120553910731,0.18103373575955628,0.07616144866049289
1633779879762592500,16.062592529296875,0.05412964959442615,0.17313538372516632,0.07308642512932419
1633779879782472700,16.08247265625,0.06833937673270701,0.14818126747161148,0.0865173499148339
1633779879802351600,16.1023515625,0.051425066810846326,0.22220774993002412,-0.010184271014481782
1633779879822230500,16.12223046875,-0.0889531256943941,0.24790713159292935,-0.05614961111471057
1633779879842109700,16.142109619140626,-0.053363925918936725,0.044916707830131054,0.011408552112430333
1633779879861989600,16.16198974609375,0.060209846290946,0.031766426616907116,-0.056067047397792336
1633779879881868500,16.18186865234375,0.16701602406203747,-0.024500819528102874,-0.1416971661493182
1633779879901747700,16.201747802734374,0.133674310952425,-0.040212183400988574,-0.19574995111525056
1633779879921626600,16.221626708984374,0.06648176616728306,-0.1303325993090868,-0.23083616980463265
1633779879941506600,16.241506591796874,0.22051555905938147,-0.11787877592742442,-0.2503632925733924
1633779879961385700,16.2613857421875,0.1340577573120594,-0.05367343025952577,-0.29364385056905445
1633779879981264600,16.2812646484375,0.008480243575572966,-0.12399345941543578,-0.1946294226527214
1633779880001144600,16.30114453125,0.024750994896888732,-0.11373743833899497,-0.09586582769230008
1633779880021023700,16.321023681640625,0.11934592587053774,-0.11443652651906012,-0.06931859702840447
1633779880040902700,16.340902587890625,0.1564402695119381,-0.10680968490242958,-0.04725830252021551
1633779880060781800,16.36078173828125,0.09445990641713142,-0.10019172806739807,-0.031139234629273413
1633779880080661500,16.38066162109375,0.07263853523135184,-0.06667611969560384,-0.0030156945593655107
1633779880100540700,16.400540771484376,0.15138064803481102,-0.03221855429857969,-0.005028349556028842
1633779880120419800,16.420419921875,0.05762333692908287,-0.05969897415935993,-0.04264218702688813
1633779880140298500,16.440298583984376,0.0412350967079401,-0.12237287247627973,-0.01667144107669592
1633779880160178700,16.4601787109375,0.10977788705825806,-0.12339900065362452,-0.0726922016473487
1633779880180057900,16.480057861328124,0.04997603704631328,-0.08611001122295855,-0.05530439246222377
1633779880199936500,16.4999365234375,0.04659750052392483,-0.08610913444012402,-0.10780863281190395
1633779880219816700,16.519816650390624,0.05191664972007274,-0.045290217317640775,-0.10164926993194967
1633779880239695600,16.539695556640623,0.05052314953505992,-0.02534019296169281,-0.11308116638734936
1633779880259574500,16.559574462890627,0.02325929503440857,-0.02607201436758041,-0.12582622780054806
1633779880279453700,16.57945361328125,0.009831658184528351,-0.008106441827118397,-0.13249094638675452
1633779880299333600,16.599333740234375,0.08059796980321407,-0.038194413837790486,-0.15031988693550227
1633779880319212800,16.619212890625,0.0466249730527401,0.0128118430390954,-0.12839436125550419
1633779880339091500,16.639091552734374,-0.01332300743162632,-0.015405951185524463,-0.07375570269301533
1633779880358970600,16.658970703125,-0.13612930288910866,-0.04699935932308435,0.02425776801984757
1633779880378850800,16.678850830078126,-0.12475333787202834,-0.02540332132577896,0.08313183566238731
1633779880398729500,16.6987294921875,-0.15471183828413484,-0.04533464098125696,0.09195782393570989
1633779880418608600,16.718608642578126,-0.12938567384779454,-0.059663026063144206,0.05960296643897891
1633779880438488800,16.73848876953125,-0.021894436421990394,-0.03617722879648209,-0.00016556582525372503
1633779880458367500,16.758367431640625,0.07533084305524826,0.023072832551598546,-0.06415726874247193
1633779880478246700,16.77824658203125,0.05292670354545116,0.03995207116007805,0.013365239138156175
1633779880498125600,16.79812548828125,0.11114099210500716,0.04074760545194149,0.0660473202727735
1633779880518005500,16.818005615234377,0.06884440364539623,0.09121756349503994,0.028761837973445652
1633779880537884700,16.837884765625,0.12456862895488738,0.09998685314506292,-0.010155629441887139
1633779880557763600,16.857763671875,0.1192430500179529,0.15954524978995321,-0.041923261635191736
1633779880577642800,16.877642822265624,0.16264204676151275,0.17392770314663647,-0.07773600450083613
1633779880597522700,16.897522705078124,0.12695698539614678,0.2127569077566266,-0.060552668379247186
1633779880617401600,16.917401611328124,0.07536357628107071,0.14499679221659897,0.0006458966881036758
1633779880637280800,16.93728076171875,0.14294365907907486,0.11686375366598367,0.03146218297332525
1633779880657160700,16.95716064453125,0.10629530563950539,0.1564303326398134,0.034746173080056904
1633779880677039600,16.97703955078125,-0.004891863694787025,0.11760463516116142,0.03278320244401693
1633779880696918800,16.996918701171875,-0.031326866155862804,0.049997079834342,0.0485571101590991
1633779880716797700,17.016797607421875,-0.05056406606733799,0.03818681505322456,0.016246347532421348
1633779880736677600,17.036677734375,-0.06035422319769859,0.024245383462309835,-0.03102364542558789
1633779880756556800,17.056556884765627,-0.026933599632978436,0.06707301005870103,-0.0895909852065146
1633779880776435700,17.076435791015626,-0.025527239966392515,0.04528349531590938,-0.07660016887132078
1633779880796314600,17.096314697265626,-0.038514731833338735,0.008851707236468791,-0.026473032916523514
1633779880816194600,17.116194580078126,-0.0006266074657440185,-0.02386310614645481,-0.0037323183961212635
1633779880836073700,17.13607373046875,0.04589607425630093,-0.03280775236338377,0.0015823007553815841
1633779880855952600,17.15595263671875,0.10008359151780605,-0.011072305895388126,-0.017246902877092362
1633779880875832600,17.17583251953125,0.09360182828307151,-0.040946342894434926,0.0013046528577804564
1633779880895711700,17.195711669921874,0.06015139410197735,-0.02443126142323017,-0.00022226444855332373
1633779880915590700,17.215590576171873,0.03407119642794132,-0.0478469160631299,0.022309300833195447
1633779880935469600,17.235469482421873,-0.006035773032903671,-0.030453882713615894,0.0453416552439332
1633779880955349800,17.255349853515625,-0.008972995528578758,-0.053879766486585136,0.049075873336195945
1633779880975228700,17.275228759765625,0.025609657552838325,-0.02684855169802904,0.077238284111768
1633779880995107600,17.295107666015625,0.07689443911015988,-0.022622458435595034,0.023555647632479665
1633779881014986800,17.31498681640625,0.021121113961935042,-0.0051543140232563015,-0.0016850304774940013
1633779881034866700,17.33486669921875,0.0034621231526136397,-0.050153147178888316,0.027991730383783577
1633779881054745600,17.35474560546875,-0.07757657615542411,-0.0387710446819663,0.06803031078353523
1633779881074624500,17.37462451171875,-0.061255555951595306,-0.03653612523674965,0.07741860911473632
1633779881094504700,17.394504638671876,-0.046512160328030586,-0.022644085745513437,0.06983107659518718
1633779881114383600,17.414383544921876,0.0018424129962921142,0.014512217216193675,0.01912088005542755
1633779881134262500,17.434262451171875,0.02029343096613884,0.019869652596116064,-0.012025222706049681
1633779881154141700,17.4541416015625,0.0947568435370922,-0.01974135004132986,-0.027686500359512863
1633779881174021600,17.474021728515623,0.13374445357918738,-0.019090484917163846,-0.07375979434624313
1633779881193900500,17.493900634765627,0.02732522929906845,-0.04630290149152279,-0.06316153570339084
1633779881213779700,17.51377978515625,-0.044587914267182345,-0.03840104232579469,0.00822130037844181
1633779881233659600,17.53365966796875,-0.00026128128468990325,-0.04885638536661863,0.03523275102060288
1633779881253538600,17.55353857421875,0.0015735329270362853,-0.06847147867977618,0.07034925525039434
1633779881273417700,17.573417724609374,-0.08525193308889865,-0.05493950467258692,0.08624693547561764
1633779881293296600,17.593296630859374,-0.12623159373104573,-0.01322889940738678,0.08471446521133184
1633779881313176600,17.613176513671874,-0.0406686949968338,-0.01664426080882549,0.04354761143401265
1633779881333055700,17.6330556640625,-0.02006079125404358,-0.002998305033147335,-0.010894611240923405
1633779881352934700,17.6529345703125,0.054688452520966525,-0.03171966486573219,-0.037594109857082364
1633779881372813800,17.672813720703125,0.03923486280143261,0.03475333347320556,-0.06113474258352071
1633779881392693800,17.69269384765625,0.0722486591309309,0.031576164741814135,-0.02711319398358464
1633779881412572700,17.71257275390625,0.08416296880841255,0.030952187624573704,-0.014940562163479625
1633779881432451800,17.732451904296877,0.0347778833925724,0.023327391834557055,0.04299377694353461
1633779881452331500,17.75233154296875,0.1276268474817276,0.009470715917646885,0.04237447600141167
1633779881472211500,17.77221142578125,0.10936696816980838,0.046316345494985575,0.00731134592667222
1633779881492090400,17.79209033203125,0.09875848039388656,0.05346387916207313,0.03280833688527345
1633779881511969300,17.81196923828125,0.007180266892910003,0.024733459240198135,0.06987316217124462
1633779881531849500,17.831849365234376,0.27190906168818474,0.05205576592981815,-0.058688335812091826
1633779881551728000,17.85172802734375,0.5455968234866857,0.11172843660414218,-0.0064574325110763305
1633779881571607300,17.871607177734376,-0.21421792021989822,-0.07849018386900425,0.14007000333890318
1633779881591486500,17.891486572265624,0.07454583015739917,-0.04987374571561813,0.05247150712385773
1633779881611366100,17.9113662109375,0.06539280188679694,0.07063771680295466,-0.08268734329789876
