time,seconds_elapsed,z,y,x
1634126061902494700,0.01649462890625,0.10095862078666687,-0.406090153118968,1.1318839692801237
1634126061922374000,0.036373779296875,0.41665363270938394,0.0375619611531496,1.1147331471886486
1634126061942253600,0.056253662109375,0.3902496099084615,0.061247080384194845,0.8684419994249939
1634126061962132700,0.0761328125,0.7401122643709183,0.20285773729383944,0.7064119470819831
1634126061982012700,0.0960126953125,0.790376470708847,-0.030391338871419427,0.0384928853277117
1634126062001891600,0.1158916015625,0.7454489492237567,-0.1723196834281087,-0.25051227259002623
1634126062021770800,0.135770751953125,0.7868769381552935,0.15518793136328457,-0.5610836578886955
1634126062041650700,0.155650634765625,0.27270050432682036,0.3253776170253753,-0.8071316445462405
1634126062061529600,0.175529541015625,-0.8069850756824016,0.41092561045140025,-0.7120907233707606
1634126062081409800,0.195409912109375,-1.3136451425313949,0.4120417549997568,-0.6034508273664861
1634126062101288700,0.215288818359375,-0.9479390222489833,0.2056786399334669,-0.8064864054452627
1634126062121168600,0.235168701171875,-0.38126375489830966,0.13485095351636409,-0.843076818152517
1634126062141044000,0.2550439453125,-0.021473580661416053,0.2945209987297654,-0.7757013180159031
1634126062160923600,0.274923583984375,-0.1740589283108711,0.39335985088348385,-0.7355354579746722
1634126062180802800,0.294802734375,-0.5250824432462453,0.36946634959876534,-0.6155515264615417
1634126062200682000,0.314681884765625,-0.6597668080240487,0.18849720350801943,-0.3452000694788992
1634126062220561700,0.334561767578125,-0.340469972217083,0.03787146549373865,-0.33726803437061603
1634126062240440800,0.35444091796875,0.19507424381077287,-0.030192601428925988,-0.408335593958199
1634126062260321000,0.374321044921875,0.6090338151305914,-0.08491583300232887,-0.14426409402787685
1634126062280199700,0.39419970703125,0.37626375465393064,-0.0751832512781024,0.07828812195826321
1634126062300079900,0.414079833984375,-0.3509989650160074,0.02358808859735727,0.26249113540370017
1634126062319959000,0.433958984375,-0.6937415583401918,0.14363485621362923,0.4813477117422968
1634126062339838700,0.453838623046875,-0.5757195745497942,0.13396423380970954,0.6245297826871276
1634126062359718000,0.4737177734375,-0.296636675709486,-0.027927579106390474,0.6030125820796937
1634126062379597800,0.493597900390625,0.03960603420138359,-0.09715367554575205,0.5733910950696095
1634126062399476700,0.513476806640625,0.15994097110927105,0.009222878636419773,0.3723512573853135
1634126062419356000,0.53335595703125,0.17604338012635706,0.2708718275949359,0.37211985978223383
1634126062439235800,0.55323583984375,0.1345499247431755,0.29808278286457063,0.42070955703668295
1634126062459114800,0.57311474609375,-0.07733166148364544,0.00938420667797327,0.5294267925934866
1634126062478995000,0.592994873046875,0.04840951838195324,-0.2542018478229642,0.5317283110015094
1634126062498873600,0.61287353515625,0.23508126002848148,-0.3201630972474813,0.3379033731320873
1634126062518753800,0.63275390625,0.2262742687165737,-0.04611526996493339,0.3335483197277412
1634126062538633000,0.652633056640625,0.18032208035886288,0.16647066513895986,0.3859261572187766
1634126062558513000,0.672512939453125,0.3710562491387129,0.1689876163959503,0.2678327521599829
1634126062578391800,0.692391845703125,0.7740297315418719,0.0914800138235092,0.01165858135074377
1634126062598271700,0.712271728515625,0.94626670512259,0.04290887513905763,-0.1915969230890274
1634126062618150700,0.732150634765625,0.6923650092899799,0.12757073338031769,-0.17782492978088557
1634126062638029800,0.75202978515625,0.36918870170116425,0.11523410663753747,-0.051667351134121416
1634126062657909800,0.77190966796875,0.12751812641024587,0.00029985972940921784,-0.008896642356738448
1634126062677788700,0.79178857421875,-0.03531856614053249,0.0002902151182293892,-0.11923267475441097
1634126062697668900,0.8116689453125,-0.25638357577621934,0.11220336063951253,-0.025384616625308987
1634126062717547800,0.8315478515625,-0.35987668347656726,0.257120950140059,-0.018745142078213393
1634126062737427700,0.851427734375,-0.33487902034223077,0.2804381128415465,-0.013493797421269119
1634126062757307000,0.871306884765625,-0.09868424611389637,0.26200170791894195,0.017876359887048603
1634126062777186800,0.891186767578125,0.3588467559069395,0.21302871043533086,-0.16962240716814994
1634126062797065700,0.911065673828125,0.6551888325840234,0.1667570808649063,-0.3047828650251031
1634126062816945000,0.93094482421875,0.6406441744029522,0.031247955700755118,-0.5801546343877911
1634126062836824800,0.950824951171875,0.2607674899488687,0.04444704449176788,-0.6050081398110836
1634126062856703700,0.970703857421875,-0.3294137406736612,-0.006084872871637344,-0.58360470177643
1634126062876584000,0.990583984375,-0.5795347489237785,-0.06287058993279934,-0.4770826016437262
1634126062896462800,1.010462890625,-0.7077730063021183,-0.015191431652009486,-0.49987515594922005
1634126062916342800,1.0303427734375,-0.6191741008728743,0.25604806021153925,-0.3573061023361981
1634126062936222000,1.050221923828125,-0.4288678021162748,0.33473581247925754,-0.3051926879350096
1634126062956102000,1.070101806640625,-0.09949614701867103,0.2834150828257203,-0.37430136853978035
1634126062975980800,1.089980712890625,0.17771628177464008,0.30579584145992994,-0.36005357441343366
1634126062995860000,1.10985986328125,0.17732874376177787,0.42030777130275965,-0.3232384861048311
1634126063015740000,1.129739990234375,0.0039794250249862665,0.5815490113556385,-0.2563346220679581
1634126063035618800,1.149618896484375,-0.2359516131222248,0.5344681112289429,-0.2645164672188461
1634126063055498800,1.169498779296875,-0.48900984386801716,0.5225274980664253,-0.20508286599740386
1634126063075377700,1.189377685546875,-0.7592904275715351,0.4913800801306963,-0.21465090480968355
1634126063095257900,1.2092578125,-0.9452806166946888,0.6103413905978202,-0.2245245024397969
1634126063115136800,1.22913671875,-0.9565770867347717,0.9057517393827438,-0.40566199083477256
1634126063135018000,1.24901806640625,-0.8205582584828138,1.2973042485833168,-0.5430165977351367
1634126063154897000,1.26889697265625,-0.6943015303105116,1.6115321105629206,-0.4424463917441666
1634126063174776000,1.288776123046875,-0.5119476518630981,1.6734534369468688,-0.5001861946597695
1634126063194656300,1.30865625,-0.25504151351749893,1.3431898014456032,-0.5423997810110449
1634126063214535000,1.328534912109375,-0.01868482672572136,0.8599696468949317,-0.5288770132236182
1634126063234415000,1.3484150390625,0.004164133942127227,0.5766121394753456,-0.5020059574328363
1634126063254294300,1.368294189453125,-0.017167407900094984,0.452595883706212,-0.35480244895219804
1634126063274174000,1.388174072265625,0.13242226506471633,0.3555781094998121,-0.24415377040877936
1634126063294053000,1.40805322265625,0.2735129897534847,0.1801286036133766,-0.19947437846586108
1634126063313933000,1.42793310546875,0.25251637895405293,-0.08807809642553328,-0.11206892060488462
1634126063333812000,1.44781201171875,0.11622925515472889,-0.34276860454827546,-0.0053033671051263805
1634126063353692200,1.467692138671875,-0.08683072671294212,-0.4263511431202292,0.1292652623385191
1634126063373571000,1.487571044921875,-0.33394787697196004,-0.4529620866701007,0.22512889807373285
1634126063393450000,1.507449951171875,-0.3255406986325979,-0.44772389375567434,0.17507937566610052
1634126063413330200,1.527330078125,-0.08550386202335357,-0.40641719311624763,0.02598464661138132
1634126063433209000,1.547208984375,0.11381868688166141,-0.41457507286965845,-0.1942105944524519
1634126063453089000,1.567089111328125,0.14419745853245258,-0.441747157433629,-0.359101315189898
1634126063472968200,1.58696826171875,-0.19174714521467684,-0.33039632197022434,-0.2740888899452984
1634126063492848000,1.60684814453125,-0.6894879925489426,0.04364712628573179,0.0762776223860681
1634126063512727000,1.62672705078125,-0.9422305814743042,0.38209026885032654,0.2744825837043114
1634126063532607000,1.64660693359375,-0.7451274621844292,0.5587269386947155,0.34856691556349395
1634126063552486100,1.666486083984375,-0.273639246481657,0.6315314781427384,0.24302403572648762
1634126063572365000,1.686364990234375,0.2527764911949634,0.6904124139174819,0.22501067852154372
1634126063592245000,1.706244873046875,0.7267202833563089,0.6813102390512824,0.2228473630078137
1634126063612124000,1.7261240234375,0.9447995551794767,0.5279948235616088,0.17974358635116366
1634126063632004000,1.746004150390625,0.9080576782375573,0.3740115918129682,0.1605416038835421
1634126063651883000,1.765883056640625,0.6693722562372684,0.2165443173408508,0.2133288624256849
1634126063671763200,1.78576318359375,0.3704138595819473,0.01158756194114685,0.43866541190072894
1634126063691642000,1.80564208984375,0.13164134382009504,-0.07749737343937158,0.5950830677220598
1634126063711522000,1.82552197265625,-0.07979249863922595,-0.09585837503820657,0.7985204680673778
1634126063731401000,1.84540087890625,-0.14861644401848315,0.08452566464096307,0.9645964348003268
1634126063751280000,1.865280029296875,-0.06497486873567104,0.2957952564492822,0.9526891393855214
1634126063771160000,1.88516015625,0.25619185259640215,0.4230506402701139,0.9204673702165483
1634126063791039000,1.9050390625,0.7079016011178493,0.3716653209477663,0.8126528921857475
1634126063810919200,1.924919189453125,1.0493594153285026,0.23899375729709862,0.5799202411100268
1634126063830798000,1.944798095703125,1.1965998948186636,0.09417465973496436,0.4309785106599331
1634126063850678000,1.964677978515625,1.0751005903065205,0.0037587680116295814,0.3233818035656586
1634126063870557200,1.98455712890625,0.6738578772187233,-0.008414484862983226,0.37071664192080495
1634126063890437000,2.00443701171875,0.3276408857822418,-0.06607084727883339,0.39372283897697924
1634126063910316000,2.02431591796875,-0.008884732723236083,-0.27025457247942686,0.26460489442097024
1634126063930195200,2.0441953125,-0.3759785079717636,-0.3742112060382962,0.23206483481675386
1634126063950075100,2.0640751953125,-0.6461030243307352,-0.4170835485592484,0.29549422767609357
1634126063969954000,2.0839541015625,-0.6973427977025508,-0.46112464259862895,0.23626857011690736
1634126063989834000,2.103833984375,-0.5397521891117095,-0.5033098796382546,0.12458265748023986
1634126064009713200,2.123713134765625,-0.25014964982271193,-0.4708084167450666,-0.01422507083788514
1634126064029593000,2.143593017578125,-0.11058511178791522,-0.5335796379566192,-0.18467501487135887
1634126064049472000,2.163471923828125,0.007448562440276145,-0.6151037826940416,-0.18874167978838086
1634126064069352200,2.183352294921875,0.046454292660951614,-0.631601036247611,-0.08018719704523682
1634126064089231000,2.203231201171875,0.005838789156079292,-0.672314154908061,0.13127689442187546
1634126064109110000,2.223110107421875,0.020879121899604797,-0.5827417282715439,0.4239220162771642
1634126064128990200,2.242990234375,0.06515022530257701,-0.5610448602482676,0.5165875866234302
1634126064148868000,2.2628681640625,0.10697510459721088,-0.5445031830310821,0.45206952174454923
1634126064168748000,2.282748046875,0.2778402053028345,-0.503408079315722,0.33142171949520705
1634126064188627000,2.302626953125,0.29720424646437166,-0.5818403955176472,0.18478665855228898
1634126064208507100,2.322507080078125,0.29469898564517494,-0.5561240627199411,0.10376945869000628
1634126064228386000,2.342385986328125,0.009884849676489829,-0.3124190589919686,0.10342954094484448
1634126064248266200,2.362266357421875,-0.31297698513567446,0.08211597315073013,0.26425153267234563
1634126064268145200,2.382145263671875,-0.6004208850860595,0.4820157471969723,0.33409970653280613
1634126064288024000,2.402024169921875,-0.5298620787382126,0.6957137351959943,0.4096846704795956
1634126064307904000,2.421904052734375,-0.27132804692983625,0.46497255019843575,0.3795085817940533
1634126064327783200,2.441783203125,0.14342121346294878,-0.07446955005079507,0.09625614218413829
1634126064347663000,2.4616630859375,0.34994331848323346,-0.5599632024914026,-0.1093617074728012
1634126064367542000,2.4815419921875,0.13345043906867504,-0.8606193429753184,-0.014024287568777799
1634126064387422200,2.501422119140625,-0.5353980855554342,-0.8896949230730533,0.2730462124919519
1634126064407301000,2.521301025390625,-1.0483879399478435,-0.8351426641523838,0.500369698000513
1634126064427181000,2.54118115234375,-1.1990975568532942,-0.7840592503860593,0.4847315089616924
1634126064447060200,2.561060302734375,-1.039490932264924,-0.5036737445145845,0.12390563500151038
1634126064466940200,2.580940185546875,-0.4940256262034177,-0.0760872143805027,-0.17238091209605336
1634126064486819000,2.600819091796875,0.025208675536513327,0.25879823570251465,-0.3794293790780008
1634126064506698200,2.6206982421875,0.23919804769754408,0.39471477262377735,-0.4980436296731233
1634126064526578200,2.640578125,0.3276058144688606,0.46404608300328254,-0.4806260464042425
1634126064546457000,2.66045703125,0.15268997706770895,0.648738633531332,-0.3560568329274654
1634126064566337000,2.6803369140625,-0.05802841059863567,0.9537705048814415,-0.08453004855513573
1634126064586216200,2.70021630859375,-0.20634031871259212,1.01252138453573,0.12140559834670275
1634126064606096100,2.72009619140625,-0.20193360818624495,0.7892021662324666,0.1305494569301605
1634126064625975000,2.73997509765625,-0.07592354825139046,0.603707943932712,0.16156035247202963
1634126064645855200,2.759855224609375,0.07464227626919746,0.4819862288415432,0.27753245452791453
1634126064665734100,2.779734130859375,0.1999970871657133,0.4242638154521584,0.334159620026499
1634126064685613000,2.799613037109375,0.32035774303674697,0.3307733385890722,0.1925887106053531
1634126064705493200,2.8194931640625,0.40951545139253137,0.3352586673095822,-0.006772581141162663
1634126064725372200,2.8393720703125,0.11932839021384715,0.25169512569904323,-0.07154942482039332
1634126064745252000,2.859252197265625,-0.30685178025364873,0.2011541482463479,0.02846269063008949
1634126064765131000,2.879131103515625,-0.56679392529428,0.41626346434801814,0.19562586807785554
1634126064785011000,2.899010986328125,-0.5617278740763664,0.7128419801294803,0.3470807686589658
1634126064804890000,2.91889013671875,-0.39631285547018047,0.74396952432096,0.4075948585934937
1634126064824769000,2.93876904296875,0.002742576706409454,0.6332283451884985,0.37799686205685135
1634126064844649000,2.95864892578125,0.44820261718332766,0.4837403790324926,0.24518238280415533
1634126064864528100,2.978528076171875,0.6591735183060169,0.2903922283619642,0.13170812544599175
1634126064884408000,2.998407958984375,0.7470417713731526,0.21344401323795317,0.26169980236291884
1634126064904287000,3.018286865234375,0.7542945189803838,0.19500790057629347,0.5025894198765978
1634126064924167200,3.038167236328125,0.5932949787288904,0.13057517589330672,0.4343488638758659
1634126064944046000,3.058046142578125,0.4079670529067516,0.024529461100697515,0.32435433839224276
1634126064963926000,3.077926025390625,0.2276326975882053,0.009734627550840378,0.29587402077391745
1634126064983805200,3.09780517578125,-0.09349953695237637,-0.1834013416737318,0.23683657926321028
1634126065003685000,3.11768505859375,-0.3384112861216068,-0.34420974326729775,0.12616788084506989
1634126065023564000,3.13756396484375,-0.2810515685647726,-0.3629337329596281,0.055105655019730325
1634126065043443200,3.157443115234375,-0.035786768174171445,-0.18724983379542826,-0.12464593197479844
1634126065063323100,3.1773232421875,0.04573942238986492,0.12107143448889254,-0.24703071408458052
1634126065083202000,3.1972021484375,-0.028973581027984616,0.3555301787048578,-0.22026772177815437
1634126065103082200,3.217082275390625,-0.13486615108549593,0.4108873242676258,-0.2511013975895941
1634126065122961200,3.236961181640625,-0.0743529379338026,0.3190834853172302,-0.35608342867344617
1634126065142840600,3.256840576171875,0.10333587131202221,0.2234732398211956,-0.46800972593724727
1634126065162719500,3.276719482421875,0.16266367407143115,0.14709727162718772,-0.5663093566477299
1634126065182599400,3.296599365234375,0.1376870537251234,0.16163550006747246,-0.5356632392976433
1634126065202478600,3.316478515625,-0.09473813883662223,0.16072949113845825,-0.5421123423717916
1634126065222357500,3.336357421875,-0.26123452293872834,0.14270985032320022,-0.4626159040696919
1634126065242237400,3.356237548828125,-0.38203999996781346,0.05596855545938015,-0.37521146912202236
1634126065262116600,3.37611669921875,-0.3978185838580131,-0.05970072772502899,-0.3725716221377253
1634126065281996500,3.39599658203125,-0.40013445958495136,-0.1493202083736658,-0.360029097559303
1634126065301875700,3.415875732421875,-0.4169833030551672,-0.17330431055128573,-0.3268208015710115
1634126065321755600,3.435755615234375,-0.3455149806469679,-0.11643442233800888,-0.25121092237867415
1634126065341634600,3.455634521484375,-0.1353460435569286,-0.07082008763253689,-0.17722813293151557
1634126065361514500,3.475514404296875,0.025102292552590368,-0.018937340182065963,-0.17502309716790915
1634126065381393700,3.4953935546875,0.07251929276585578,0.04962532391250133,-0.18892872679308056
1634126065401272600,3.5152724609375,0.03504208728671074,0.04741115499436855,-0.09226867998316883
1634126065421152500,3.535152587890625,0.11228665500879287,0.020863924330472947,0.025734306845813987
1634126065441031400,3.555031494140625,0.16828151395320892,-0.08998422230780125,0.001761968171223998
1634126065460911600,3.57491162109375,0.27904315135180946,-0.10976853470802307,-0.10333499452918768
1634126065480790500,3.59479052734375,0.31321137841343877,-0.07000701768398285,-0.05650836142450571
1634126065500670700,3.614670654296875,0.1938876643747091,-0.013579028019309044,-0.01668853834196925
1634126065520549600,3.634549560546875,0.006976853275299072,0.01834580402970314,-0.008943477173149585
1634126065540429600,3.6544296875,-0.07673720272183418,0.04178980798125267,0.028361732739955185
1634126065560308500,3.67430859375,-0.06859948897361755,-0.00964519570171833,0.04465294232740998
1634126065580188400,3.6941884765625,0.027444471764564514,-0.05804653077721596,0.005677461114525795
1634126065600067600,3.714067626953125,0.03693652273118496,-0.12270692673623561,-0.04677990788612515
1634126065619946500,3.733946533203125,0.016135726764798162,-0.13118424770236015,-0.010410334855318068
1634126065639826400,3.753826416015625,-0.007260930913686752,-0.17964812662005422,0.02259878529906273
1634126065659705600,3.77370556640625,0.027680618607997892,-0.23844167637228963,0.012213292624056338
1634126065679585500,3.79358544921875,0.02750818465054035,-0.2519236737579107,0.008954510023817419
1634126065699464400,3.81346435546875,-0.06639058075249195,-0.21322364848554134,0.003085398794710636
1634126065719344600,3.8333447265625,-0.09665420159101486,-0.1453419523924589,0.11094941505566239
1634126065739223600,3.8532236328125,-0.12012509354948997,-0.17228899602890013,0.07480974179059266
1634126065759103500,3.873103515625,-0.030090017837285994,-0.16224457187652586,0.023807649632170795
1634126065778982700,3.892982666015625,-0.01854629503786564,-0.12830489287376404,0.02891615175232291
1634126065798861600,3.912861572265625,-0.08574351599812507,-0.10001812506616115,0.061094374040514224
1634126065818741500,3.932741455078125,-0.153141227966547,-0.06935995195209979,0.10854206165298819
1634126065838620700,3.95262060546875,-0.2059352450430393,-0.027048165923357008,0.13120207561999558
1634126065858500600,3.97250048828125,-0.19786708939969538,0.037166239833831785,0.1909738227546215
1634126065878379500,3.992379638671875,-0.13243395550251005,0.13650515046417713,0.29650552361048754
1634126065898259700,4.012259765625,-0.07681552865505219,0.0936246246367693,0.3430740172356367
1634126065918138600,4.032138671875,-0.01838847412765026,0.008408347383141517,0.3155356566425413
1634126065938018600,4.0520185546875,0.04295008393228054,0.003212532305717468,0.2996219751305878
1634126065957897700,4.071897705078125,0.022281974434852598,-0.03140869922041893,0.31496918186619877
1634126065977776600,4.091776611328125,0.07570318349897862,0.0018564415216445922,0.3357082377079874
1634126065997656600,4.111656494140625,0.12128770758807658,0.0874719472259283,0.3735444857578724
1634126066017535700,4.13153564453125,0.07211655718386173,0.11830372334122657,0.31443580564185974
1634126066037415400,4.15141552734375,-0.16777824060618876,0.09074819241762161,0.3001328472621739
1634126066057294600,4.171294677734375,-0.12347031232416629,0.11455810707211493,0.29362032356299456
1634126066077174800,4.1911748046875,0.04293313279747963,0.2664332606256008,0.2451044952623546
1634126066097053400,4.211053466796875,0.16189678135216234,0.18564239859879017,0.2840510426416993
1634126066116933600,4.23093359375,0.35465631847977636,0.12692308312654493,0.07361351774334907
1634126066136812800,4.250812744140625,0.5327917024493217,0.12519231381118298,-0.07022212173938751
1634126066156693500,4.270693603515625,0.40879473590254783,0.19587445427775382,-0.12002967035099864
1634126066176572700,4.29057275390625,0.12267770064175128,0.3200596368730068,0.00550217761285603
1634126066196451300,4.310451416015625,0.02133154184222221,0.37664310936033724,0.06879939545989036
1634126066216331500,4.33033154296875,-0.021218144595623014,0.2991840221047401,0.04172112665921449
1634126066236210400,4.35021044921875,0.06953472399711609,0.19489245750308035,-0.019566431865841147
1634126066256090400,4.37009033203125,0.15813713655769823,0.09597498715519905,-0.13868293289467692
1634126066275969500,4.389969482421875,0.2116992153972387,0.09855857390761374,-0.19478972778096795
1634126066295849500,4.409849365234375,0.15614567047953604,0.12587211276888846,-0.1663371018871665
1634126066315728400,4.429728271484375,0.034032617983222005,0.1637766037493944,-0.05730813350006938
1634126066335608600,4.449608642578125,0.005099953487515449,0.12363573201894759,-0.08822517674602567
1634126066355487200,4.4694873046875,-0.016706220129132268,0.11348200227320193,-0.10400478354953228
1634126066375366400,4.489366455078125,0.05947276418805122,0.1852823331147432,-0.06705547440201044
1634126066395246600,4.50924658203125,0.06762216837406158,0.22846330319344996,-0.017891776651889086
1634126066415125200,4.529125244140625,-0.08608838391304016,0.19471359380483627,-0.027890461966395375
1634126066435005400,4.54900537109375,-0.17728256653249264,0.25605799708366395,0.04568476959317922
1634126066454884600,4.568884521484375,-0.20678338630497453,0.15569617314636705,0.024295944605767724
1634126066474764300,4.588764404296875,-0.11977847206890582,0.12479366988241672,0.003952463952824473
1634126066494643500,4.6086435546875,-0.034709494331479074,-0.010426116946339607,-0.008893281355872749
1634126066514523400,4.6285234375,-0.0008054711639881133,-0.08204524600207805,-0.03447415120564401
1634126066534402300,4.64840234375,0.054986558684706685,-0.026083704805374145,0.013348726394772529
1634126066554282500,4.668282470703125,0.12194880184531211,-0.01280453651547432,0.09458419038392603
1634126066574161400,4.688161376953125,0.15605857671797274,-0.09531798455119132,0.012400339628756045
1634126066594041300,4.708041259765625,0.20554069276750087,-0.12316869902908802,-0.049473055960237974
1634126066613920500,4.72792041015625,0.1553898836761713,-0.08522562960386276,-0.013266747199743986
1634126066633799700,4.747799560546875,0.09855448225438594,-0.04072305553257465,0.018186521814763545
1634126066653679400,4.767679443359375,0.1366021810978651,-0.0016547814697027206,0.028653701423853633
1634126066673558500,4.78755859375,0.19375205529630182,0.034870822373032566,-0.058413610523939126
1634126066693438500,4.8074384765625,0.141490537661314,0.07075988187789917,-0.07882657621651887
1634126066713317400,4.8273173828125,0.09157295280396938,0.13143909924626349,-0.06527290183417499
1634126066733197600,4.847197509765625,-0.08631050223112106,0.09649696520268916,-0.09856967982351779
1634126066753076500,4.867076416015625,-0.1980401078790426,0.061790978002548215,-0.08937529662922024
1634126066772956400,4.886956298828125,-0.26842297313809393,0.012738485541939735,-0.07334266491271554
1634126066792835600,4.906835693359375,-0.21163199537992478,0.003525836038589477,-0.07572524920031427
1634126066812714200,4.92671435546875,-0.15870879896581172,-0.06613397564291953,-0.12523016160354017
1634126066832594400,4.946594482421875,-0.18062427817583082,-0.1298965459793806,-0.08997823095843195
1634126066852473600,4.9664736328125,-0.19841829354166984,-0.13946633835732936,-0.09166574565395712
1634126066872353500,4.986353515625,-0.19213994392454622,-0.1861152768075466,-0.06265329392030834
1634126066892232400,5.006232421875,-0.2057575503885746,-0.200458274936676,-0.0034071780949831007
1634126066912112400,5.0261123046875,-0.2104144362837076,-0.2320651270776987,0.031045272735506294
1634126066931991300,5.0459912109375,-0.18581600160002706,-0.20316285772025583,0.0726780635241419
1634126066951871500,5.06587158203125,-0.11771803240776062,-0.1354904204636812,0.14206585333123803
1634126066971750400,5.08575048828125,-0.023908114331960675,-0.0767886406481266,0.1528941944029182
1634126066991630600,5.105630615234375,0.0016156185030937193,-0.060610828307271,0.10429799434244633
1634126067011509500,5.125509521484375,0.11027297709882258,-0.05019873988628387,0.11770539212189614
1634126067031388400,5.145388427734375,0.1346539696395397,-0.05021861363053322,0.052422261154651636
1634126067051268400,5.165268310546875,0.15795359668433664,0.008440496087074279,0.0632660189911723
1634126067071147500,5.1851474609375,0.14274667520225048,0.06768588126003741,0.06503975066542625
1634126067091027500,5.20502734375,0.09351765713095664,0.12837854263186455,0.029609102452546356
1634126067110906400,5.22490625,0.0732248106867075,0.18168986158072947,0.04564925988838076
1634126067130786300,5.244786376953125,0.06970189725756645,0.19467501536011694,0.00975172481611371
1634126067150665200,5.264665283203125,0.07757891424298285,0.20342764613628386,-0.020261282262206075
1634126067170545200,5.284545166015625,0.08364742050170898,0.25164777942597866,-0.0096949531275779
1634126067190424300,5.30442431640625,-0.0028296704679727554,0.24878069955706594,0.020444091483205556
1634126067210303200,5.32430322265625,-0.016534370693564414,0.19843816728591918,0.009713730893284082
1634126067230183200,5.34418310546875,0.003422375664114952,0.16564765831828115,0.04312251788973808
1634126067250062300,5.364062255859375,-0.010161328530311584,0.1317483113259077,0.11270261539854108
1634126067269942300,5.3839423828125,-0.006451368096470832,0.06358604472577571,0.08818864412792027
1634126067289821200,5.4038212890625,0.07495090382695198,0.03267477363348007,0.06304543504305184
1634126067309701000,5.423701171875,0.13026888642311096,-0.06381693087220192,0.017529226949810982
1634126067329580300,5.443580322265625,0.14678689050376414,-0.10369827488362789,0.011424407268688081
1634126067349460200,5.463460205078125,0.10068915619552135,-0.12181202372312545,-0.06804463156983256
1634126067369339100,5.483339111328125,-0.036199440628290176,-0.07250292615294456,-0.08050649212747812
1634126067389218000,5.503218017578125,-0.10956395204663276,0.007834931409358977,-0.025320903739333152
1634126067409098200,5.52309814453125,-0.11494973673820495,0.08352350186109542,-0.015375117655843495
1634126067428977200,5.54297705078125,-0.09685235451161861,0.10328034173250197,-0.09517974512428044
1634126067448857300,5.562857421875,-0.04286591278016567,0.17274843023419378,-0.06788710292056202
1634126067468736300,5.582736328125,-0.01625146209895611,0.14932196193933486,-0.07137406825348734
1634126067488616200,5.6026162109375,-0.0073503627628088,0.07922668145000934,-0.09228606950938702
1634126067508495000,5.6224951171875,0.10905834061205387,0.08562544257640838,-0.10589804995022714
1634126067528375000,5.642375,0.18285832083821296,0.1283154142677784,-0.12701967536881564
1634126067548254200,5.662254150390625,0.21184534586966036,0.16834171970784664,-0.14233561018332838
1634126067568134400,5.682134521484375,0.1796849514991045,0.16410042887628076,-0.08366269113607704
1634126067588013000,5.702012939453125,0.08014496533870696,0.110969727191329,-0.04694375667832792
1634126067607892200,5.721892333984375,0.01184592061638832,0.06797521959543228,-0.044387569389492273
1634126067627772200,5.741772216796875,-0.0054845688909292215,0.06004384207427501,-0.0510826100487262
1634126067647651000,5.761651123046875,-0.02844108158648014,0.06784311764836311,-0.017550123607367275
1634126067667531300,5.78153125,-0.08106850992441177,0.08082067264318465,0.04375000213831663
1634126067687410200,5.80141015625,-0.14651274973750114,0.09319383200407028,0.10282806792035698
1634126067707290000,5.8212900390625,-0.12790332633554935,0.030015783557295797,0.13966872906163333
1634126067727169300,5.841169189453125,0.03666413553059101,-0.015166589471697807,0.0733159961014986
1634126067747049200,5.86104931640625,0.1877402476608753,-0.058792380708456035,0.013392565536499023
1634126067766928100,5.88092822265625,0.19847733025252817,-0.05685585968792438,0.021763211257755755
1634126067786807300,5.900807373046875,0.19943886876106262,-0.01861936027407646,0.05587050191238522
1634126067806687200,5.920687255859375,0.20091420201063154,-0.05716156463623046,0.012060440149903297
1634126067826566100,5.940566162109375,0.21111878516077995,-0.05991174012720585,-0.0909291019424796
1634126067846446300,5.9604462890625,0.13552841438651084,-0.09178338068425655,-0.13769297200925648
1634126067866325200,5.9803251953125,-0.008028408154845238,-0.12762977009117601,-0.1375453802321106
1634126067886205200,6.000205078125,-0.13931903884112834,-0.1611065077573061,-0.11159713837467133
1634126067906084400,6.02008447265625,-0.20950082857012747,-0.09907003056108951,-0.11255232020765542
1634126067925964000,6.039964111328125,-0.2150602162629366,-0.02290624381303787,-0.1009324634321034
1634126067945843200,6.05984326171875,-0.23637129983901975,0.047615153133869166,-0.09155337132066488
1634126067965723400,6.079723388671875,-0.2720803266018629,0.07467676306068897,-0.06543656796328723
1634126067985602000,6.09960205078125,-0.2537345225721597,0.05323474658131599,-0.03979965707734227
1634126068005481200,6.119481201171875,-0.14763561628758906,0.030607904231548307,-0.01964388101622462
1634126068025361400,6.139361328125,-0.0070376435518264766,-0.007915595430135727,-0.050025283015519374
1634126068045240000,6.159239990234375,0.12220248434543608,0.0028781857848167417,-0.061951137000322336
1634126068065120300,6.179120361328125,0.1975175453096628,0.029236031356453893,-0.04668400976359844
1634126068084999200,6.198999267578125,0.195683900141716,0.09456161322593688,0.01009790790528059
1634126068104879000,6.218879150390625,0.1277875910013914,0.09636953943073749,0.008159414123371242
1634126068124758300,6.23875830078125,0.07814706951975822,0.06445639781951903,0.027765374282002448
1634126068144638500,6.258638427734375,0.042916181662678715,0.030692659905552862,0.07550875690542161
1634126068164517600,6.278517578125,0.023552140501141548,-0.009468085569143294,0.08308642561808229
1634126068184396500,6.298396484375,0.04034253178238868,-0.009882511588931083,0.06789557848796247
1634126068204276500,6.3182763671875,0.06593406915664672,0.005101707053184509,0.057751201092451805
1634126068224155600,6.33815576171875,0.07486088745594024,0.02642857272028923,0.06573430880084634
1634126068244035600,6.35803564453125,0.022438626301288605,-0.022301263657212255,0.06962400971576571
1634126068263914500,6.37791455078125,-0.030917700833082196,-0.02765197703540325,0.09093889268413186
1634126068283794700,6.397794677734375,-0.09367723160684108,0.001142155772447586,0.16364815506413577
1634126068303673600,6.417673583984375,-0.040784430330991744,0.06990531087517737,0.18344503468498585
1634126068323553500,6.437553466796875,0.023708207845687865,0.07556582085490227,0.17911694235280154
1634126068343432700,6.4574326171875,0.016799743631482122,-0.027886954835057258,0.12800583686195313
1634126068363311600,6.4773115234375,0.003379705566167831,-0.09359072236716746,0.03603621289059519
1634126068383191600,6.497191650390625,0.09636310968995093,-0.06662731211781502,0.018786533534526823
1634126068403070700,6.51707080078125,0.1641173800110817,0.008186813586950302,-0.03135843033790588
1634126068422950400,6.536950439453125,0.1625789183974266,0.0878945565521717,-0.09404080422222613
1634126068442829600,6.55682958984375,0.10386135649085045,0.14256722698211668,-0.10778759002387522
1634126068462709800,6.576709716796875,0.006989712756872176,0.1563736340165138,-0.07713570052012801
1634126068482588400,6.59658837890625,-0.07036708316802978,0.15614216334819792,-0.0873490514986217
1634126068502468600,6.616468505859375,-0.08288286586999892,0.1274000529885292,-0.06393982659950852
1634126068522347800,6.63634765625,-0.06800736829936505,0.09877484700679778,-0.0710248164243996
1634126068542226400,6.656226318359375,-0.05545885237157344,0.060088265737891194,-0.06581219634264707
1634126068562106600,6.676106689453125,0.0048538697719573975,0.045375265252590176,-0.061773588476330035
1634126068581985500,6.695985595703125,0.07737199349403381,0.04153261834979057,-0.034802871703356504
1634126068601865500,6.715865478515625,0.10868015494942665,-0.027061025404930113,-0.05535787621513009
1634126068621744600,6.73574462890625,0.11785481052994727,-0.0781260267317295,-0.03975143402144313
1634126068641624600,6.75562451171875,0.025351298877596854,-0.0898725786268711,-0.031570830979570745
1634126068661503500,6.77550341796875,-0.03866553848087787,-0.05756897639334201,0.004841740942746401
1634126068681383700,6.7953837890625,-0.09615911155045032,-0.00906651903092861,0.03263210353553295
1634126068701262600,6.8152626953125,-0.06794599350094795,0.03771335232257843,0.09258651376068591
1634126068721141500,6.8351416015625,-0.017816227197647094,0.032625673794746395,0.04547580301761627
1634126068741021700,6.855021728515625,0.03933890769779682,0.008740940338373185,0.014280162025988101
1634126068760900600,6.874900634765625,0.020485738667845727,0.009264671951532364,0.005820668977499008
1634126068780780500,6.894780517578125,-0.003970657196640968,0.04718552954494953,0.09003156858086585
1634126068800659700,6.91465966796875,-0.003950198930501938,0.04477437674999237,0.07667612018436193
1634126068820539400,6.934539306640625,0.07706219689249992,0.04624211121499538,0.0683128540519625
1634126068840418600,6.95441845703125,0.12742752551734446,0.05027355868816375,0.08326689675152302
1634126068860298800,6.974298828125,0.07339373751282692,0.015488661032915114,0.09427446684762834
1634126068880177400,6.994177490234375,0.028072248274087903,-0.009452303478121756,0.034222295336425304
1634126068900056600,7.014056640625,0.05634264946877956,0.0042681788384914396,-0.00194324302226305
1634126068919936800,7.033936767578125,0.08819675436913967,0.0013666121780872343,-0.010416253139451145
1634126068939815400,7.0538154296875,0.08954933802187443,-0.021897943553328515,-0.10882679687850176
1634126068959695600,7.073695556640625,0.04701075749993324,0.0007493570625782013,-0.13285086574032903
1634126068979574800,7.09357470703125,-0.07847615534365177,0.031119945406913756,-0.09270911722704768
1634126068999454500,7.113454345703125,-0.21949323027431963,0.0666495239496231,-0.05337970800995826
1634126069019333600,7.133333740234375,-0.287647313567996,0.06379238095283508,-0.029067689052224156
1634126069039213600,7.153213623046875,-0.22957214121818542,0.04532850350141525,-0.016786591888964177
1634126069059092500,7.173092529296875,-0.14556582427620887,0.030941666230559346,0.019447189400345087
1634126069078971600,7.1929716796875,-0.055818333333730694,-0.009116203391551971,0.03367737480476499
1634126069098851600,7.2128515625,0.008655015620589256,-0.07339549107849598,0.006781038442254066
1634126069118730500,7.23273046875,0.03725917881429195,-0.10368366183638572,0.045964755578339095
1634126069138610700,7.252610595703125,0.026025252616405484,-0.10822247430980204,0.0903025675419718
1634126069158489300,7.2724892578125,0.02495148590505123,-0.08265957850813865,0.07547711965814233
1634126069178369300,7.292369384765625,0.05045417595207691,-0.01794014583826065,0.08860855004042387
1634126069198248400,7.31224853515625,0.06095978787541389,0.0029389760613441466,0.06881956146508456
1634126069218128100,7.332128173828125,0.03396773605346679,-0.022474866658449173,0.00015964754112064838
1634126069238007300,7.35200732421875,-0.012028291445970535,0.031684009030461306,-0.017678791488334535
1634126069257887500,7.371887451171875,-0.03033668607473373,0.1150040972739458,-0.006799743142724037
1634126069277766100,7.39176611328125,0.0012649053692817688,0.16267770259678363,0.0010445406168699263
1634126069297645300,7.411645263671875,0.027507600128650663,0.14369593875110148,-0.06577946311682463
1634126069317525500,7.431525390625,0.09244447494149208,0.10731938799023627,-0.09254837370738386
1634126069337404200,7.451404052734375,0.15552315466701983,0.12796119400262831,-0.08595321322605014
1634126069357284400,7.471284423828125,0.08499825058877468,0.11968202595710754,-0.09654401921480893
1634126069377163500,7.49116357421875,-0.035084757384657855,0.11676175459623336,-0.0364649596966803
1634126069397043200,7.511043212890625,-0.014810615640878676,0.18432722434699533,0.030049101305007934
1634126069416922400,7.53092236328125,0.10739362227022647,0.1646487104088068,0.04656228308007121
1634126069436802300,7.55080224609375,0.27055180186033245,0.1292003804087639,0.03725727911815047
1634126069456681200,7.57068115234375,0.3658534197986126,0.0423071098536253,-0.026473434775322675
1634126069476560400,7.590560302734375,0.3933808936715126,0.0008761983126401901,-0.06064721479490399
1634126069496440300,7.6104404296875,0.4031003236532211,-0.015641805768013,-0.055443947063386435
1634126069516319200,7.6303193359375,0.2589396899998188,-0.03885667713880539,-0.04106120144575834
1634126069536199400,7.650199462890625,0.053155836126208306,-0.03045534401834011,0.033151816560700535
1634126069556078300,7.670078369140625,-0.1554559346497059,-0.0021796821266412735,0.03231763075888157
1634126069575958300,7.689958251953125,-0.3496446277976036,0.026102994027733802,0.06973492274433374
1634126069595837400,7.70983740234375,-0.415657607409358,0.06174655433893203,0.12325374696403742
1634126069615717400,7.72971728515625,-0.28746786534786223,0.034275194567441936,0.14433920509070158
1634126069635596300,7.74959619140625,-0.10034779541194438,-0.09107318658828735,0.06217573953643441
1634126069655476200,7.769476318359375,0.043161096334457395,-0.1573755045354366,-0.019021072942763565
1634126069675355400,7.78935546875,0.11784896531105041,-0.14299042083024976,-0.05691752674728632
1634126069695234300,7.809234375,0.06701426560878754,-0.11086159064173698,-0.010797872868180274
1634126069715114200,7.8291142578125,0.08356441839337349,-0.024914661026000977,0.050135173130780454
1634126069734993200,7.8489931640625,0.1369330204874277,-0.01285889705121517,-0.019585282696783543
1634126069754873300,7.868873291015625,0.14914426728487015,0.006700374421477318,-0.05988119885846972
1634126069774752300,7.888752197265625,0.11366963379979132,0.04576455683112144,-0.01577156962752342
1634126069794632400,7.908632568359375,0.0424725295484066,0.08391337796151638,0.04323752257153392
1634126069814511400,7.928511474609375,-0.022350363495945928,0.046806759360432625,0.006985913364589214
1634126069834391300,7.948391357421875,0.06633680473864079,0.11862579490244388,0.004354322751984
1634126069854270200,7.968270263671875,0.16548749932050705,0.17826222521960736,0.024046353758871555
1634126069874149400,7.9881494140625,0.11304770250916481,0.12739420776963234,0.022621800848469136
1634126069894029300,8.008029296875,0.025662849044799804,0.0724140788257122,0.026859657613933084
1634126069913908200,8.027908203125,-0.002624503284692764,-0.013958967247605323,0.0637047026693821
1634126069933788400,8.047788330078125,-0.012147533911466597,-0.0884480987817049,0.07286123807132244
1634126069953667300,8.067667236328125,0.008580196818709373,-0.10760521919429301,0.024679537095874546
1634126069973547300,8.08754736328125,0.06860825680196285,-0.09422025244235992,-0.026499080673232672
1634126069993426400,8.107426513671875,0.10861468849778175,-0.03370119407176971,-0.03362184522524476
1634126070013306400,8.127306396484375,0.10300795453190803,0.00959200420975685,-0.04478329070881009
1634126070033185300,8.147185302734375,0.03904489318728447,-0.020281740528345107,-0.08545154731422662
1634126070053065200,8.167065185546875,-0.06893208192884921,-0.09823708686828612,-0.12003829204887151
1634126070072944400,8.1869443359375,-0.01622691217958927,-0.11694120281636715,-0.1410556533753872
1634126070092823300,8.2068232421875,0.03668517831861973,-0.10618716908991337,-0.2245851465858519
1634126070112703200,8.226703125,-0.02456979311108589,-0.08012742968201637,-0.21594430562108755
1634126070132582400,8.24658251953125,-0.09676759883761406,-0.011806757649779318,-0.13936492380946874
1634126070152462300,8.26646240234375,-0.165711371204257,0.04352291538417339,-0.14551577458940446
1634126070172341200,8.28634130859375,-0.2202005017608404,0.08141103975176811,-0.16098858046606182
1634126070192221400,8.306221435546876,-0.19937106422185896,0.12494096939861773,-0.09607216391935944
1634126070212100400,8.326100341796876,-0.07885083387494086,0.13381810333728789,-0.014271101936697958
1634126070231980300,8.345980224609375,0.037655484655499456,0.05103343714475631,-0.05610621036440134
1634126070251859500,8.365859375,0.18838672887086866,0.0003092120796442032,-0.06978066158220171
1634126070271738400,8.38573828125,0.22403204274773597,-0.02068330706655979,-0.07604629784822464
1634126070291618300,8.405618408203125,0.1606266152858734,-0.0072486559540033335,-0.05255684731975197
1634126070311497200,8.425497314453125,0.1016629696637392,0.06335515857934951,0.041282296850532293
1634126070331377200,8.445377197265625,0.05945756661891937,0.09618892216682433,0.04040054557994008
1634126070351256300,8.46525634765625,0.039649288821220395,0.046969548706710336,0.02493263507410884
1634126070371136500,8.485136474609375,0.01583820512294769,0.01176701016128063,0.04534180137440562
1634126070391015200,8.50501513671875,-0.02812953141927719,0.02577098559439182,0.021940905912220476
1634126070410895400,8.524895263671874,0.01979308022856712,0.09685673842579126,0.011068871829286217
1634126070430774300,8.544774169921874,0.05416939708292484,0.1271948858052492,0.009015446430817246
1634126070450654200,8.564654296875,0.08596680335998534,0.12900018166154623,-0.03132218998074531
1634126070470533400,8.584533447265626,0.07621522467434406,0.10324117876589298,-0.0598898205563426
1634126070490412300,8.604412353515626,0.06313187121748924,0.0580792640030384,-0.06964812124371528
1634126070510292200,8.624292236328126,0.04931085113584995,-0.005216857865452766,-0.07076908809766173
1634126070530171400,8.64417138671875,-0.03166822693943977,-0.09254033653140067,-0.05641644535735249
1634126070550051300,8.66405126953125,-0.11555705498158932,-0.10591916580349206,-0.10557802421562373
1634126070569930200,8.68393017578125,-0.13960077839195728,0.019920213739573953,-0.008977963964641093
1634126070589810400,8.703810546875,-0.2893132009536028,-0.013949907158315181,0.05720861864835024
1634126070609689300,8.723689453125,-0.33921383467614646,-0.0324447642698884,0.08083703925609588
1634126070629569300,8.7435693359375,-0.3150526223659515,-0.11238456242531537,0.12802644125856458
1634126070649448400,8.763448486328125,-0.2698006912320852,-0.1477735634535551,0.1739860092051327
1634126070669327400,8.783327392578125,-0.25643267561495303,-0.22850012807250022,0.11508161948956548
1634126070689207300,8.803207275390625,-0.21044190881252287,-0.42193478798270223,0.19571254171431063
1634126070709086500,8.82308642578125,0.03316401845514774,-0.34752105977237224,0.20877894403636454
1634126070728966100,8.842966064453124,0.061842415928840634,-0.3850105402112007,0.026707681922614572
1634126070748845300,8.86284521484375,0.056181321427226066,-0.10186901362985372,0.2114735534152016
1634126070768725500,8.8827255859375,0.11668225961923599,0.029556349352002142,0.09652999068945646
1634126070788604200,8.902604248046876,0.3401169209957123,0.13911913235485554,0.09932166723459958
1634126070808484400,8.922484375,0.41889819676578044,0.18152239605933426,0.06847860254030674
1634126070828363500,8.942363525390626,0.267650819721818,0.08584580732882022,0.022781594520062207
1634126070848243200,8.9622431640625,0.13437865982949732,0.29242344192862507,0.08861877917349338
1634126070868122400,8.982122314453125,0.10776011749505995,0.48382045853137967,0.11759805928990244
1634126070888001300,9.002001220703125,0.13557517613768577,0.5394108283281326,0.11266469454094767
1634126070907881200,9.021881103515625,0.30794892784059047,0.6168240306153893,0.139361544542294
1634126070927760400,9.041760498046875,0.44033261446058747,0.4901023152798414,0.020609657308459282
1634126070947640300,9.061640380859375,0.39966450398564335,0.29621640447080133,-0.17015768308863044
1634126070967519200,9.081519287109375,0.17944179039299488,0.24576924278140067,-0.11749810604676604
1634126070987399400,9.1013994140625,0.1070697971433401,0.23967589434236286,0.0047765667520463465
1634126071007278000,9.121278076171874,0.013229483929276465,0.10991408065855503,-0.039690351483970876
1634126071027158300,9.141158203125,-0.02880582324564457,-0.010586860466003418,-0.022014409539848564
1634126071047037400,9.161037353515624,-0.17637714212536812,-0.11739508406370877,0.06892093948032707
1634126071066917400,9.18091748046875,-0.347308878326416,-0.19702303979098795,0.1338680799588561
1634126071086796300,9.20079638671875,-0.44454760180711744,-0.17705927917063236,0.133999743514508
1634126071106675500,9.220675537109376,-0.38971594142317767,-0.146997902905941,0.2370816400654614
1634126071126555100,9.24055517578125,-0.23690847545564173,-0.19732611439079045,0.21877426835000513
1634126071146433500,9.26043359375,-0.10895020406246185,-0.29658523778319357,0.10586553592011332
1634126071166313700,9.280313720703125,-0.0775946963340044,-0.31193185999691486,0.06212883165478706
1634126071186192600,9.300192626953125,-0.04424363087415695,-0.27554946401715275,0.12939473393708467
1634126071206072800,9.32007275390625,-0.09013502895534038,-0.2143669733017683,0.08581044375449419
1634126071225951700,9.33995166015625,-0.06508826598227024,-0.16503654068261384,0.1283315982175991
1634126071245831700,9.359831787109375,0.00006955810487270355,-0.13284253630340098,0.12271145678088068
1634126071265710600,9.379710693359375,0.12907821533381938,-0.06423515628427266,0.08525207921937107
1634126071285590500,9.399590576171875,0.13261398824453352,0.012405308064818382,0.06490808710977435
1634126071305469700,9.4194697265625,0.1075233861297369,-0.014947393763065336,0.12480828292965888
1634126071325348600,9.4393486328125,0.07277063717842101,-0.026125790381431577,0.0516888323135674
1634126071345228800,9.459228759765624,0.08690028481781482,-0.06725041245222091,0.04809650691002607
1634126071365107700,9.479107666015626,0.10566986721754074,-0.025182956573367117,0.030225773046165704
1634126071384987600,9.498987548828126,0.1863373951256275,0.049996495312452316,0.009969459220021962
1634126071404866800,9.51886669921875,0.17976327743232248,0.14416823243796825,-0.0026623510770499704
1634126071424746800,9.538746826171876,0.22230361151993272,0.2342369181588292,0.02435571196898818
1634126071444625700,9.558625732421875,0.23583003256916998,0.23683570248037575,-0.08898717409446835
1634126071464505600,9.578505615234375,0.36805472923517224,0.21372575278878211,-0.09042626698687672
1634126071484384800,9.598384765625,0.41748423831462855,0.17187340096533296,-0.13591858274787663
1634126071504263700,9.618263671875,0.3961369143813848,0.07136486203372477,-0.14893793105781078
1634126071524143600,9.6381435546875,0.32161212701201436,-0.01334346569776535,-0.17157295671403408
1634126071544022800,9.658022705078125,0.2111257994234562,0.003171323512494564,-0.19028953028488904
1634126071563902700,9.67790283203125,0.02425648937821388,-0.005149345587193966,-0.14441358550116418
1634126071583781600,9.69778173828125,-0.08641863878071307,-0.012134674429893492,-0.061816550835222
1634126071603661800,9.717661865234374,-0.09933774158656597,-0.027101357415318487,-0.07380553318411111
1634126071623540700,9.737540771484374,-0.05159750076830387,-0.052630643208324904,-0.04348013568837195
1634126071643420700,9.757420654296874,0.0006219312906265258,-0.07861790190190077,-0.05060691882837563
1634126071663299800,9.7772998046875,-0.03942424789369106,-0.0823155873760581,0.034862164142541584
1634126071683179500,9.797179443359376,-0.1606090796291828,-0.11934388004392385,0.16686609419733284
1634126071703058700,9.81705859375,-0.13545418010652063,-0.17677783188074825,0.13852302962522953
1634126071722937600,9.8369375,0.005801379755139351,-0.20612112300395966,0.09767214646190404
1634126071742817500,9.856817626953125,0.2535720254868269,-0.18072627724558113,0.04705457837535068
1634126071762696700,9.87669677734375,0.4479173705011606,-0.11476064390689134,0.0010283018681220709
1634126071782577000,9.896576904296875,0.5443149669826031,-0.056495794203877445,-0.04669876894131302
1634126071802455600,9.91645556640625,0.5638853443711995,-0.033850539414584636,-0.02196165643930435
1634126071822335700,9.936335693359375,0.5387526566803456,-0.07607669298648834,0.025548721145838497
1634126071842214700,9.956214599609375,0.3780827867746353,-0.16439444338679313,-0.009592150340229273
1634126071862094600,9.976094482421875,0.23526655346751213,-0.22352029383331537,0.07651829927414655
1634126071881973800,9.995973876953125,0.13341945940852165,-0.19149083236604927,0.19847455377355216
1634126071901853700,10.015853759765625,0.006359598159790039,-0.21495120293051004,0.26951148076085374
1634126071921732600,10.035732666015624,-0.1747352201372385,-0.3144862206548452,0.4046870083227753
1634126071941611800,10.05561181640625,-0.43087095863223074,-0.39658933432400223,0.4594349359460175
1634126071961491700,10.07549169921875,-0.4649895013332367,-0.3099655283600092,0.5521864310100675
1634126071981370600,10.09537060546875,-0.30281273399591446,-0.26058131972700355,0.6226609200753271
1634126072001250800,10.115250732421876,0.011206453669071198,-0.18395926781743763,0.5422751317180693
1634126072021129700,10.135129638671875,0.3744605046242475,-0.09225625889301299,0.40132206193432207
1634126072041009700,10.155009765625,0.5906184529960156,0.04465016584843397,0.32013211758732796
1634126072060888800,10.174888916015625,0.6777893714487552,0.12773469177037478,0.2914459751985967
1634126072080768500,10.1947685546875,0.5633505068421364,0.11416209349185227,0.20536986624523995
1634126072100647700,10.214647705078125,0.4175754237294197,0.07602350149452686,0.2213677919745445
1634126072120528000,10.23452783203125,0.28744097734093665,-0.03807546363323927,0.18028876261115073
1634126072140406500,10.254406494140625,0.17166589569449422,-0.15165654236674309,-0.04545125309824943
1634126072160286000,10.274285888671875,0.06780220111608505,-0.19274083242714404,-0.1387611126974225
1634126072180166000,10.294165771484375,-0.11101999607384204,-0.3420323992282152,-0.28940935480445623
1634126072200044800,10.314044921875,-0.31166473349332807,-0.43000031327754257,-0.3312817265026271
1634126072219925000,10.333925048828124,-0.5002589676350355,-0.5064484699249268,-0.470528869151324
1634126072239804000,10.353803955078124,-0.7257756959825754,-0.5744406406551599,-0.5696744491666555
1634126072259683800,10.373683837890624,-0.8002361859440803,-0.564307953697443,-0.4410753956519067
1634126072279563000,10.39356298828125,-0.7978373081088066,-0.5078811330765486,-0.30536387978345153
1634126072299443000,10.41344287109375,-0.848333569636941,-0.4880474285766482,-0.23073504751771687
1634126072319321900,10.43332177734375,-0.8827806136399508,-0.5622346545547247,-0.07119023611918092
1634126072339201000,10.453200927734375,-0.9360375720530748,-0.6688146223545074,0.10506707901880144
1634126072359081000,10.4730810546875,-0.8682862243413925,-0.884741976840794,0.12720336137264968
1634126072378960000,10.4929599609375,-0.6346113239794969,-0.8106886063754558,0.09638093760758638
1634126072398840000,10.512840087890625,-0.31620120787918565,-0.319018603387475,0.21117621443644163
1634126072418719000,10.532718994140625,-0.16780571313500403,0.052258010503649706,0.23675854559093712
1634126072438599000,10.552598876953125,0.12861819660663604,0.41882542379051446,0.30360519954785703
1634126072458478000,10.57247802734375,0.4201017273366451,0.41494156809449195,0.18308964537605643
1634126072478358000,10.59235791015625,0.638399025824666,0.25581162110716105,0.05111045703687705
1634126072498237000,10.61223681640625,0.7179319967448711,0.15920739613771437,-0.07987155522480606
1634126072518116900,10.632116943359375,0.6172773273408413,0.19477789121270178,-0.16853315062671897
1634126072537996000,10.65199609375,0.5097241305947303,0.2078396173596382,-0.22250687900707125
1634126072557875000,10.671875,0.5142775561153888,0.2773421926528215,-0.21539763152375815
1634126072577755000,10.6917548828125,0.6470832675397395,0.43993017113953825,-0.28421748524978757
1634126072597633800,10.7116337890625,0.6153507431924343,0.47059915790855883,-0.4605253615312278
1634126072617514000,10.731513916015626,0.5355646742939949,0.6934586497455835,-0.5582125594317913
1634126072637393000,10.751392822265625,0.43732408029437064,0.9714689509183168,-0.4741933830082416
1634126072657273000,10.771273193359375,0.43686639965474605,1.0083873534709216,-0.5324455193601548
1634126072677152000,10.791152099609375,0.5517530080288648,0.8884148201346397,-0.7544529244124889
1634126072697032000,10.811031982421875,0.5377928717374801,0.7212813071727753,-0.9175489985518157
1634126072716910800,10.830910888671875,0.5675193169593811,0.7352893742591142,-0.8902458349540829
1634126072736790800,10.850790771484375,0.557959461453557,0.7474372004315256,-0.7896046095535159
1634126072756670000,10.870669921875,0.4805868834376335,0.6936813525855541,-0.8745102134227752
1634126072776548900,10.890548828125,0.37972295519709587,0.6712430185452103,-0.9629219257168471
1634126072796428800,10.9104287109375,0.2858949169427156,0.6592986059904098,-0.9578862696371973
1634126072816308000,10.930307861328124,0.2177466788679361,0.510651766833663,-1.0083820927739142
1634126072836188000,10.95018798828125,0.2885878092885017,0.29126141241192816,-1.0435298323921858
1634126072856066800,10.97006689453125,0.4871913962692022,0.08504881173223257,-1.1020884043447672
1634126072875947000,10.989947021484374,0.5326964253813028,-0.2304787346690893,-0.9335114145763218
1634126072895826000,11.009825927734376,0.09543430440723895,-0.5014318108066916,-0.6048828329309821
1634126072915705900,11.029705810546876,-0.9525865557938814,-0.9161217422276735,-0.3026039135508239
1634126072935585000,11.0495849609375,-1.9894699359089134,-1.0850243106886743,-0.1617034507371485
1634126072955465000,11.06946484375,-2.433698973286152,-0.7960191527709365,0.05030483060926199
1634126072975343900,11.08934375,-2.176501158517599,-0.3720774088799953,0.39795258550122375
1634126072995223000,11.10922314453125,-1.4145254373848437,-0.061360477630794046,0.5685464680500328
1634126073015103000,11.12910302734375,-0.5391214899927378,-0.08379647358357906,0.4000638785667717
1634126073034982000,11.14898193359375,0.27920447939336296,-0.21130933929681778,0.22540654597133397
1634126073054862000,11.168862060546875,0.8463935414850712,-0.30579058076292276,0.07693290795702487
1634126073074741000,11.188740966796875,1.2401181340277194,-0.3252078134164214,0.022226737116277217
1634126073094621000,11.208620849609375,1.400910169008374,-0.34209289724379777,-0.053505745542421934
1634126073114500000,11.2285,1.3658441163241863,-0.4993713711455464,-0.20096900093778966
1634126073134379800,11.2483798828125,1.3045873913288115,-0.592545913927257,-0.33432810846120115
1634126073154259700,11.268259765625,1.2332236983388662,-0.5609186035200953,-0.4257497431609779
1634126073174139000,11.288138916015624,0.9299626360535621,-0.45681613174974917,-0.432152669005841
1634126073194018800,11.308018798828124,0.426642527282238,-0.31698505173325536,-0.39672859666422006
1634126073213897700,11.327897705078126,0.0024877251625061033,-0.1467939047664404,-0.2320570899017155
1634126073233777700,11.347777587890626,-0.3955097223937511,-0.06902589769214391,-0.062286616032384334
1634126073253656600,11.367656494140626,-0.6041635787457227,-0.13463526493906974,-0.03303874810766429
1634126073273536800,11.387536865234376,-0.502740263056755,-0.32105157051980493,-0.10072028198614716
1634126073293415700,11.407415771484375,-0.30866262906789776,-0.5320449757352471,-0.22696239711120722
1634126073313296000,11.4272958984375,-0.04434124602973461,-0.718208183337748,-0.3293993833547458
1634126073333174800,11.4471748046875,0.06889525704979896,-0.7996504950106144,-0.5065919700488448
1634126073353054700,11.4670546875,0.10199965427219868,-0.780398682051897,-0.5186696535944938
1634126073372933600,11.48693359375,-0.13798925154209135,-0.6215156955629587,-0.4441942583248019
1634126073392812800,11.506812744140625,-0.3439268346726894,-0.30122312671691176,-0.25744053748324514
1634126073412692700,11.526692626953125,-0.44026480992138384,0.04398118054568767,-0.013995061474293469
1634126073432571600,11.546571533203124,-0.34278935507535935,0.32966917673945423,0.1262700260452926
1634126073452451600,11.56645166015625,-0.04266366820633411,0.30823534356653687,0.12059709497541188
1634126073472330800,11.586330810546874,0.39150574744939803,0.07902005296200514,-0.031109131751954552
1634126073492210700,11.606210693359374,0.7398153272509574,-0.1240650633469224,-0.18504267913997172
1634126073512089900,11.62608984375,0.8153349708765745,-0.31569764227122066,-0.24183044202774762
1634126073531969800,11.6459697265625,0.6682534813404083,-0.42691228413432836,-0.2501262324145064
1634126073551848700,11.6658486328125,0.45489363925457,-0.5477399729952216,-0.306193024083972
1634126073571728600,11.685728759765626,0.2934726587206125,-0.5079065597787499,-0.36245603244528174
1634126073591607800,11.70560791015625,0.1051794533520937,-0.37666707475781436,-0.36376346178203817
1634126073611486700,11.72548681640625,-0.07489595876932144,-0.12231617385298013,-0.3231340393496677
1634126073631366700,11.74536669921875,-0.3234188841730356,0.07429857739806175,-0.22857582365721463
1634126073651245800,11.765245849609375,-0.6967582758128643,0.09219371505081653,-0.17970774785280227
1634126073671125800,11.785125732421875,-1.0164105009287596,0.05191372711062431,-0.08991729455143213
1634126073691004700,11.805004638671875,-1.139707210251689,0.1872089172631502,0.07329363813921809
1634126073710884900,11.824884765625,-1.0190893647491932,0.607294570247829,0.3123042004406452
1634126073730763800,11.844763671875,-0.5183738855183124,1.0743071018412709,0.5245978745996952
1634126073750643700,11.864643798828125,0.25633915211260316,1.2337503525614737,0.40212314918413755
1634126073770523000,11.88452294921875,1.0796528467833995,1.1093199630334973,0.09669950203746557
1634126073790401800,11.90440185546875,1.6384586959332226,0.8634563199669122,-0.15009016983285545
1634126073810281700,11.92428173828125,1.8078396955609322,0.7503580563142895,-0.19727697801943866
1634126073830160600,11.94416064453125,1.7661358122974633,0.8144570189982652,-0.04032616516947746
1634126073850040600,11.96404052734375,1.3919447722643612,0.9330965501651167,0.07949117760509251
1634126073869919700,11.983919677734375,0.9957798008322715,0.8122621393024921,0.1480611482232809
1634126073889800000,12.003800048828126,0.7437947522759437,0.5230509374186396,0.04149360151365399
1634126073909678600,12.0236787109375,0.6452712496817111,0.1483642228230834,-0.03686181352715939
1634126073929558800,12.043558837890625,0.22003274397850037,-0.13480682211369274,-0.020481208623200655
1634126073949437700,12.063437744140625,-0.945149683791399,-0.5724556043177843,0.06168591019287705
1634126073969316600,12.083316650390625,-2.1061048492550847,-0.7900318950548768,0.3194336139291525
1634126073989196800,12.10319677734375,-2.6623119140833613,-0.40952275791615245,0.7704033577382564
1634126074009075700,12.12307568359375,-2.645982710573077,0.20194296053647995,1.1867148990117014
1634126074028955600,12.14295556640625,-2.134889629712701,0.5662435979351401,1.4334477261282503
1634126074048834800,12.162834716796874,-1.131290095040202,0.8708540290027856,1.3981800133921205
1634126074068714500,12.182714599609374,-0.04355681765377521,0.8525178695842623,1.0691579023845492
1634126074088593700,12.20259375,0.88539284196496,0.5931044245928525,0.7548809405662119
1634126074108473900,12.222473876953124,1.448425368899107,0.2926955368682742,0.518204958692193
1634126074128352800,12.242352783203126,1.5713444770812988,-0.10434621739834546,0.28603578671813007
1634126074148235000,12.262235107421875,1.4501099609851835,-0.40859307585060595,0.22519246482923624
1634126074168115200,12.282115234375,1.19574883094728,-0.6048477616176009,0.24450828293487428
1634126074187994000,12.301994140625,0.7267004096120595,-0.8321329609423875,0.09647986793741584
1634126074207874000,12.3218740234375,0.2992202624619007,-0.9873749605804681,0.1389015440814197
1634126074227753200,12.341753173828126,-0.4637696041494608,-1.1797682947441934,0.184685116140265
1634126074247633200,12.361633056640626,-1.5625637892544268,-0.9705851538211107,0.27235154475867746
1634126074267512000,12.381511962890626,-2.400848258563876,-0.40181408323496576,0.6192332837142049
1634126074287391200,12.40139111328125,-2.4318922161251306,0.5318564674258232,1.0723219193734228
1634126074307271000,12.42127099609375,-1.6873358318269251,1.1705498000219463,1.3266118838712573
1634126074327150000,12.441150146484375,-0.4466869519233703,0.9875359963610768,0.773961488611251
1634126074347030300,12.4610302734375,0.7964911541968583,0.6190671333670615,0.05960778874456882
1634126074366909000,12.480908935546875,1.4659253697544334,0.08075199132114648,-0.48753801774978633
1634126074386789000,12.5007890625,1.6210048723071813,-0.434214423841238,-0.9104225076727569
1634126074406668300,12.520668212890625,1.519427827361226,-0.6099275490999222,-1.0867188396468759
1634126074426548000,12.5405478515625,1.1008990484297274,-0.37402708164304493,-1.0785878479003905
1634126074446427100,12.56042724609375,0.2471709262728691,0.0955365957379341,-0.8620730489149689
1634126074466307000,12.58030712890625,-0.6292109262406825,0.5743684522017837,-0.5326616463288665
1634126074486186000,12.60018603515625,-1.2536515693396328,1.1314163517683744,-0.19076427165716886
1634126074506065200,12.620065185546874,-1.4524486330658197,1.6383654646918178,0.008639525790512562
1634126074525945000,12.639945068359374,-1.0198165099799632,1.9198671151116489,0.06041457508280873
1634126074545824000,12.659823974609376,-0.3498094629704952,1.7705802244856952,0.044240708264708516
1634126074565704200,12.6797041015625,0.08529109605550765,1.038983275003731,-0.19543460155576467
1634126074585583000,12.6995830078125,0.3657698331683874,0.3424564698591828,-0.39903351260572667
1634126074605463000,12.719463134765626,0.5724211175262928,-0.053202597877383226,-0.4481029562011361
1634126074625342200,12.73934228515625,0.5985539221704006,-0.3599763444587588,-0.3665133450120687
1634126074645221000,12.75922119140625,0.4685474860757589,-0.5377946253031491,-0.33804785963669415
1634126074665101000,12.77910107421875,0.3426742042630911,-0.528369209831953,-0.30336496105119587
1634126074684980200,12.798980224609375,0.1242757834881544,-0.4114546027615666,-0.12395663453638553
1634126074704860200,12.818860107421875,0.0012824410259723662,-0.2525993810623884,0.025238193891942498
1634126074724739000,12.838739013671875,-0.09038520432412624,-0.1626093135356903,-0.0028086276799440383
1634126074744619000,12.858618896484375,-0.03385959950387478,-0.08912439060807227,-0.02236643784791231
1634126074764498000,12.878497802734374,0.0033680151283740994,-0.1474503228485584,-0.06535309093091636
1634126074784378000,12.898378173828124,0.018203180688619612,-0.15175561882704494,-0.18816665637940166
1634126074804257300,12.91825732421875,-0.006201777249574661,-0.049530046844482416,-0.24504209755063056
1634126074824136000,12.938135986328126,-0.09098959995806216,0.0702092622578144,-0.16687544654756784
1634126074844016000,12.95801611328125,-0.23327508738934993,0.18657003483772278,-0.08167129812315106
1634126074863895300,12.977895263671876,-0.2782020243525505,0.27247838600873947,0.01568900591060519
1634126074883775000,12.99777490234375,-0.2365098315268755,0.3105824912145734,0.07739756632670759
1634126074903654100,13.017654052734375,0.01869534811973572,0.264041981574893,0.15128829357624052
1634126074923534000,13.0375341796875,0.24445582209527492,0.19599428126513957,0.07198445523679256
1634126074943413000,13.0574130859375,0.3695651337981224,0.08489829734563827,0.03930354412347078
1634126074963292200,13.077292236328125,0.3755810330867767,0.05428308659046888,0.03902164017586037
1634126074983172000,13.097172119140625,0.35926293549239635,0.13578355819135904,0.04127878971919417
1634126075003051000,13.117051025390625,0.3821218330323696,0.21227789206802844,0.15709668759405612
1634126075022931200,13.13693115234375,0.29073884984254833,0.21661387544572352,0.07872662297338247
1634126075042810000,13.15681005859375,0.21810791339576244,0.27263825274556874,0.06561068242117762
1634126075062690000,13.17668994140625,0.1551321095228195,0.23265841679573057,0.14706132353097198
1634126075082569200,13.1965693359375,0.036623803520202634,0.19774317075908182,0.11346768148690461
1634126075102449200,13.21644921875,-0.019380407774448393,0.13523469213694334,0.13424319688156247
1634126075122328000,13.236328125,-0.026193010398745536,0.04694587557017803,0.19944237589240074
1634126075142207200,13.256207275390626,-0.10852467212677001,-0.07623480615764856,0.17873291147127746
1634126075162084000,13.276083984375,-0.3040688715368509,-0.21753303611725566,0.17301424156352876
1634126075181963300,13.29596337890625,-0.45587505150735375,-0.29535014303028584,0.23622166223526
1634126075201843000,13.315843017578125,-0.5378484013170004,-0.3189695035487413,0.2707294965147972
1634126075221722000,13.33572216796875,-0.5972644668817519,-0.2765925433292985,0.24227570157721637
1634126075241602300,13.355602294921875,-0.4837538230359554,-0.2535001292943954,0.25336188986748454
1634126075261481000,13.37548095703125,-0.23261750026345251,-0.2697971841007471,0.29440920891836286
1634126075281360100,13.395360107421874,0.16764730770289896,-0.3874319221392274,0.23608108472079037
1634126075301240300,13.415240234375,0.501850620740652,-0.47962388362437486,0.017736147698760033
1634126075321119000,13.435118896484376,0.6130003806740045,-0.5218284098863601,-0.0719030605636537
1634126075340999200,13.454999267578126,0.44947979751229283,-0.4724345566421747,-0.12642901599928735
1634126075360878300,13.47487841796875,0.21339315983355045,-0.3877373348265886,-0.09339549205601215
1634126075380758000,13.494758056640626,-0.04336743256151676,-0.32192163135260343,-0.06802431943416595
1634126075400637200,13.51463720703125,-0.16325637926757336,-0.2612076349318027,-0.08893120612353086
1634126075420517000,13.53451708984375,-0.21872575303316116,-0.1357820968866348,-0.1631264692775905
1634126075440396000,13.55439599609375,-0.24821020619273185,0.027511399520933625,-0.10596621981561183
1634126075460275200,13.574275146484375,-0.3575947100192308,0.15617226622551678,-0.047002140368637625
1634126075480155100,13.594155029296875,-0.3522901738703251,0.1707832676410675,-0.028008243127167223
1634126075500034000,13.614033935546875,-0.17490590052902696,0.13871288964152334,-0.06367752240151167
1634126075519914200,13.633914306640625,0.040727731707692144,0.06120850193947553,-0.11034487329125403
1634126075539793000,13.65379296875,0.26612638663351534,0.021552783377468583,-0.12547493014484642
1634126075559673000,13.673673095703125,0.3775374278515577,0.009097790952026844,-0.1699326421611011
1634126075579552300,13.69355224609375,0.37780981505215167,0.041106794153153894,-0.1412326173774898
1634126075599431000,13.713430908203126,0.35970775665044785,0.05584142194837331,-0.04617284537106752
1634126075619311000,13.73331103515625,0.32557226281464097,0.02186754841506481,-0.010318574051791802
1634126075639190300,13.753190185546876,0.25154841070473194,-0.0640045623987913,0.023853607665747404
1634126075659070000,13.773070068359376,0.20184125372767447,-0.07526537660360336,0.0849133487842977
1634126075678949000,13.79294921875,0.14822013817727564,-0.09574731587916611,0.15318797145141289
1634126075698829000,13.8128291015625,0.22961130418479442,-0.16297230162918566,0.1589652579449117
1634126075718708000,13.8327080078125,0.3385977486044168,-0.2718441797584295,0.06082929336354136
1634126075738588200,13.852588134765625,0.39951194377243515,-0.3376721581920981,0.04327770845144987
1634126075758467000,13.872467041015625,0.36059038470387456,-0.3473287520706653,0.10317819653227925
1634126075778346000,13.892345947265625,0.1960018800497055,-0.3852800048023462,0.19081147179976105
1634126075798226200,13.91222607421875,-0.01934182932972908,-0.4478884366676211,0.2591638541445136
1634126075818105300,13.932105224609375,-0.24851065044403076,-0.4809487024873495,0.3159583390340209
1634126075837985000,13.951985107421875,-0.5022247147500515,-0.4503863909631967,0.3124683049611747
1634126075857864200,13.9718642578125,-0.5908686283648014,-0.229285725492239,0.3134391958199441
1634126075877744000,13.991744140625,-0.5128390477448701,-0.021287118178606033,0.3154986125677824
1634126075897623000,14.011623046875,-0.4042968399614095,-0.17933599193096159,0.1856993894830346
1634126075917502200,14.031502197265626,-0.3565764728873968,-0.3863412042930722,0.05994841887578368
1634126075937382100,14.051382080078126,-0.39091947199404237,-0.3065051587730646,0.1313238023035228
1634126075957261000,14.071260986328125,-0.6091910515189171,-0.1373731654703617,0.23854908226951954
1634126075977141200,14.091141357421876,-0.9345318436652421,0.10872516313493251,0.5194216410055756
1634126075997020000,14.11102001953125,-1.2765472917586564,0.23786563005000352,0.7219850715279579
1634126076016900000,14.130900146484375,-1.2062088501632213,0.1937619921684265,0.7689505285814404
1634126076036779300,14.150779296875,-0.7523556598722935,0.03715454939603805,0.6590721037581563
1634126076056659200,14.1706591796875,-0.257771815264225,-0.0669715955108404,0.4883600016571581
1634126076076538000,14.1905380859375,0.21309213106036184,-0.0014028525352478027,0.4371761962562799
1634126076096417300,14.210417236328125,0.5679167918443679,0.09966127445250748,0.4015443263828754
1634126076116297000,14.230296875,0.6532137331187725,0.24483400775790212,0.20334274433180688
1634126076136176000,14.250176025390624,0.6762643538385629,0.3260942408621311,0.14578224350586533
1634126076156055800,14.270055908203124,0.6842758108586072,0.41344051588177677,0.1482508255764842
1634126076175934500,14.2899345703125,0.6936474503159522,0.4283446550250053,-0.09757277774065733
1634126076195814700,14.309814697265624,0.668352850061655,0.40777416068315503,-0.3059017860524356
1634126076215693600,14.329693603515626,0.5311404281109571,0.38122693001925945,-0.36283904041349885
1634126076235572500,14.349572509765625,0.18410569055080414,0.5775409447580575,-0.2977081043332815
1634126076255452700,14.36945263671875,-0.10007599273324012,0.8956628915667534,-0.05923384086564183
1634126076275331600,14.38933154296875,-0.2900175498306751,0.9940437708199024,-0.0018674058736534787
1634126076295211500,14.40921142578125,-0.5716495486319064,0.924373437744379,-0.036108255213499064
1634126076315090700,14.429090576171875,-0.8522925363957882,0.8682125745832919,0.1366346220627427
1634126076334970400,14.448970458984375,-0.9941671049386263,0.8544266258150338,0.3626416181452572
1634126076354849500,14.468849609375,-0.7784872954726219,0.8696569281727075,0.4994114108949899
1634126076374728700,14.488728759765625,-0.2634977916955948,0.8591548233807087,0.5254886859595775
1634126076394608400,14.5086083984375,0.3248094617486,0.7960410723417997,0.45404082181751726
1634126076414487600,14.528487548828124,0.8338502862542867,0.685385817927122,0.23392755994871256
1634126076434367700,14.54836767578125,1.1842816805154084,0.4846522331804037,0.02363748069703579
1634126076454246400,14.568246337890624,1.2233902865886688,0.21932664153575895,-0.15952420700192452
1634126076474126600,14.588126708984374,1.004083518797159,-0.12949264135360716,-0.3909102657742798
1634126076494005800,14.608005859375,0.7772755815953016,-0.311398191511631,-0.4335461691908538
1634126076513884700,14.627884765625,0.6640723962634801,-0.21125673232674597,-0.35784298569187517
1634126076533764600,14.6477646484375,0.46055356471240516,-0.028590719190239904,-0.3272771670363843
1634126076553643500,14.6676435546875,0.02515197691321373,0.0972094973862171,-0.32201968489959837
1634126076573523500,14.6875234375,-0.43841830527186393,0.04306114309132099,-0.271465555704385
1634126076593402600,14.707402587890625,-0.7178945873439312,0.024957915645837783,-0.14663038476780055
1634126076613282600,14.727282470703125,-0.7744079172044992,-0.1029220298141241,-0.1890511475963518
1634126076633161500,14.747161376953125,-0.6472171230524778,-0.2449614335298538,-0.3347467357320711
1634126076653040600,14.76704052734375,-0.46954292685389515,-0.3279424990773201,-0.3497520336948335
1634126076672920600,14.786920654296875,-0.2894429648131132,-0.36606530898362394,-0.2656058698907494
1634126076692799500,14.806799560546875,-0.11618073983788489,-0.38395314011275766,-0.28037074669376016
1634126076712679700,14.8266796875,0.02656359727680683,-0.3393734091520309,-0.3109824137849733
1634126076732558600,14.84655859375,0.039642274558544154,-0.32849282643646,-0.30340748501867054
1634126076752438500,14.8664384765625,-0.00277414088845253,-0.28523674529492854,-0.30243074894100425
1634126076772317700,14.886317626953126,-0.10403905114531517,-0.19174422260522841,-0.2830579399511218
1634126076792196600,14.906196533203126,-0.1368938575208187,-0.0020054946035146714,-0.23658976489529013
1634126076812076500,14.92607666015625,-0.13851239863336084,0.12223054139614105,-0.1382332528984174
1634126076831955700,14.945955810546875,-0.06191431212127208,0.18102409114837645,-0.11695026290565728
1634126076851835400,14.96583544921875,0.08153612743616104,0.17831366314589978,-0.18339856519475578
1634126076871714600,14.985714599609375,0.27159751152098177,0.14873042578697204,-0.24801040930431334
1634126076891594800,15.0055947265625,0.43554596470594403,0.1570709686309099,-0.30779297009389844
1634126076911473400,15.025473388671875,0.49703123776018615,0.22663082706928253,-0.4503429902128875
1634126076931352600,15.0453525390625,0.4033931691199541,0.30713264302164317,-0.4740882786659524
1634126076951232800,15.065232666015625,0.18004501698315142,0.4374062056198716,-0.37199130149912085
1634126076971111400,15.085111328125,-0.13034721235632896,0.5160910352781415,-0.24266864641755817
1634126076990991600,15.10499169921875,-0.3976946652173996,0.5412231384471059,-0.21926643578112123
1634126077010870500,15.12487060546875,-0.5548655870914458,0.48923430027365683,-0.1842385231502354
1634126077030750500,15.14475048828125,-0.6793126354932785,0.41391690122187136,-0.13986512841656804
1634126077050629600,15.164629638671874,-0.560309239450097,0.40739539049863815,-0.09044687138348817
1634126077070508500,15.184508544921876,-0.41561610635519025,0.33198797507584094,0.01062441599741578
1634126077090388500,15.204388427734376,-0.3168687318772077,0.15909253758639097,0.1638501439096406
1634126077110267600,15.224267578125,-0.3221019563555717,-0.056171092294156545,0.19653101849034427
1634126077130147600,15.244147705078126,-0.3742968384951353,-0.28528993678689,0.2564639475360513
1634126077150029800,15.26402978515625,-0.41805239359140395,-0.4589551896050572,0.3594793547220528
1634126077169909000,15.283908935546876,-0.34797874041199683,-0.6179764155209064,0.37705519729256626
1634126077189789200,15.3037890625,-0.34597324580848215,-0.752725662228465,0.433158777308464
1634126077209667800,15.323667724609376,-0.3096539781928062,-0.9618541503548621,0.32227497483491896
1634126077229548000,15.343548095703126,-0.26839666965305803,-1.1010860954344273,0.3336361806742847
1634126077249427000,15.363427001953125,-0.13422609961628912,-1.314942781126499,0.5607626823060214
1634126077269307000,15.383306884765625,-0.13565525563657282,-1.8364649015426635,0.523112750608474
1634126077289186000,15.40318603515625,-0.32955928662419315,-2.149956850463152,0.40266587775871154
1634126077309065000,15.42306494140625,-0.8357827156215906,-1.7359727292239664,0.3829543383337557
1634126077328945000,15.44294482421875,-1.182663723924756,-0.8992647154510021,0.6062069211415946
1634126077348824000,15.462823974609375,-1.105049738368392,-0.27985096060335635,0.7832708764873445
1634126077368703700,15.482703857421875,-0.8019815683066844,0.27194179491400716,0.9515276943907142
1634126077388583000,15.5025830078125,-0.5493389326244592,0.4100888673663139,0.9004491029299795
1634126077408463000,15.522463134765625,-0.4166676612347364,0.4582821126490831,0.6779072987399994
1634126077428341800,15.542341796875,-0.33449265137314793,0.5327256514757871,0.5035787597075104
1634126077448221000,15.562220947265626,-0.1909165396094322,0.6794201875209808,0.601146422881633
1634126077468101000,15.58210107421875,0.14107318903207777,1.047193177205324,0.7370723121531307
1634126077487979800,15.601979736328126,0.3116115420013666,1.00109778098464,0.6134180215641856
1634126077507860000,15.62185986328125,0.1037415295034647,0.9547276594758033,0.2996909487135708
1634126077527739100,15.6417392578125,0.225197579395771,1.2315800227850675,0.37741263242810963
1634126077547618800,15.661618896484375,0.5817378119260073,1.4427899933606385,0.47159657144807277
1634126077567498000,15.681498046875,0.6805225958049297,1.4335580546349287,0.3661228843897581
1634126077587377000,15.701376953125,0.5838409216850996,1.3955115248352288,0.3287723740302026
1634126077607256800,15.7212568359375,0.7776052519410848,1.5109446611762045,0.44811756924837826
1634126077627136000,15.741135986328125,0.8984136515796184,1.4396218847185371,0.42664099291227753
1634126077647016000,15.761015869140625,0.8690846812427043,1.0284504828125238,0.3397319402661174
1634126077666894800,15.780894775390625,0.9408552014678716,0.6602192279666662,-0.04186886456683278
1634126077686774000,15.80077392578125,0.7564251012682914,0.5548457133471966,-0.22845029758140442
1634126077706654000,15.820654052734374,0.5640758985072374,0.6754565445870161,0.031912410958856344
1634126077726532900,15.840532958984374,0.3571060497194528,0.8066916456937789,0.17842618360966442
1634126077746413000,15.8604130859375,0.15316227075457572,0.5862561661332846,0.16871406015157697
1634126077766292000,15.8802919921875,0.15831600025594234,0.39069793819785115,0.05560191410407424
1634126077786172000,15.900171875,0.14324819498360156,0.24937574284076688,-0.18932948961369692
1634126077806051000,15.920051025390626,-0.23767887530624865,0.1479822377681732,-0.26525910227969285
1634126077825930000,15.939929931640625,-0.2384218026280403,0.22693594749569893,-0.0078688336789608
1634126077845810000,15.959809814453125,-0.0072808046579360955,0.12394786670804023,0.2025118464656174
1634126077865689000,15.979689208984375,0.09684007955193519,-0.06840484318435192,0.1872284987464547
1634126077885568800,15.99956884765625,-0.09387012383043765,-0.10246551821827887,0.3649753217898309
1634126077905448000,16.019447998046875,-0.31398528539538384,0.03942307884991169,0.5750767466016113
1634126077925327000,16.0393271484375,-0.33334757299125195,0.0530862780213356,0.6559267914697527
1634126077945206800,16.059206787109375,-0.0477051695048809,-0.17224574140906332,0.47063422922194004
1634126077965086000,16.0790859375,0.10233692340254782,-0.3870329859495163,0.2680108852058649
1634126077984966100,16.098966064453126,0.08166589129567146,-0.2797486692726612,0.0696508977226913
1634126078004844800,16.1188447265625,-0.046585225564241405,-0.08386252455711364,-0.025925153242796657
1634126078024725000,16.13872509765625,-0.12508300821781157,0.20490005677640438,-0.06180836752876639
1634126078044604200,16.158604248046874,-0.21339432887732981,0.25670214020609855,-0.24513386748731134
1634126078064482800,16.17848291015625,-0.2198123792260885,0.19188509238064289,-0.3334076326154172
1634126078084363000,16.198363037109374,-0.293917479878664,0.13298808225393294,-0.3588723287396133
1634126078104242000,16.218241943359374,-0.29478315679728984,0.15990005457699297,-0.36453488454595206
1634126078124121900,16.238121826171874,-0.27931787663996216,0.23008418239355086,-0.33568536828905343
1634126078144001000,16.2580009765625,-0.31421441797614097,0.30040275024473667,-0.1376014212682843
1634126078163878100,16.277878173828125,-0.32953415218293663,0.3148357647448778,0.00569748098924756
1634126078183757300,16.29775732421875,-0.386487042504549,0.41472237238585946,0.17117504343762993
1634126078203636200,16.31763623046875,-0.3580500525712967,0.49081952363848685,0.3163020379051566
1634126078223516200,16.33751611328125,-0.15559271277189254,0.2872778957337141,0.20016864434033632
1634126078243395000,16.35739501953125,0.1494897197216749,0.10380991856455803,-0.031307869194447994
1634126078263275300,16.377275146484376,0.44344986969828604,0.08345803540945053,-0.20512699740007517
1634126078283154200,16.397154296875,0.44363516313731666,0.19170505963861942,-0.26876959461867805
1634126078303033000,16.417033203125,0.1432891115158796,0.3251876474112272,-0.005595481919497251
1634126078322913300,16.436913330078124,-0.09708440970182418,0.09997136331498623,0.06234788123294711
1634126078342792200,16.456792236328123,-0.055149640291929244,-0.07644727986454963,0.012751637284457683
1634126078362672000,16.476672119140623,0.07936404409408569,-0.13311024732887744,0.010212620326131582
1634126078382551300,16.49655126953125,0.15537351706326008,-0.10308277333378792,0.07034691716283559
1634126078402430200,16.51643017578125,0.25809213325977326,0.005042085820436477,0.10532017699703573
1634126078422310100,16.53631005859375,0.08837035737037659,0.041946459847688675,0.08021583861783146
1634126078442189300,16.556189208984375,-0.07049918511509895,0.17963935879170895,0.1931118576966226
1634126078462069200,16.5760693359375,-0.22452128756940362,0.33036943396329876,0.37135946986898777
1634126078481948200,16.5959482421875,-0.211570036059618,0.3301385478168726,0.4541566302169114
1634126078501828000,16.615828125,-0.11548398974537849,0.15048925215303896,0.4595794589832425
1634126078521707300,16.635707275390626,0.12277297770977019,-0.06696867290139198,0.3163039376012981
1634126078541586200,16.655586181640626,0.29360183805823326,-0.22376199363470076,0.07485898775979877
1634126078561466000,16.675466064453126,0.39619302848279475,-0.36053602416813374,-0.10718765136934816
1634126078581345000,16.695344970703125,0.3915139307558536,-0.3852759131491184,-0.1912425566934049
1634126078601225200,16.71522509765625,0.2020142722070217,-0.34082828413546085,-0.13930435272864997
1634126078621104000,16.735104248046873,0.008244096732139586,-0.24339257677793502,-0.11216215184628962
1634126078640983000,16.754983154296873,-0.08638473651111125,-0.19469605814814567,-0.023637919088453054
1634126078660863200,16.77486328125,-0.1755453674763441,-0.1479962662935257,0.0331245632275939
1634126078680742100,16.7947421875,-0.27547230712771414,-0.09298749577701092,0.10262743078172207
1634126078700622000,16.8146220703125,-0.19034429267942904,0.03081657854616642,0.17258469103984533
1634126078720501200,16.834501220703125,0.03485387123823166,0.19590484941601752,0.16023345124982297
1634126078740380200,16.854380126953124,-0.042241058880090714,0.18955577265024184,0.21214768981710075
1634126078760260000,16.874260009765624,0.017805705803632735,0.09216799608767032,0.19846827016323804
1634126078780139300,16.89413916015625,0.11738368588685989,0.01876198361515999,-0.028802169983834027
1634126078800019200,16.914019287109376,0.23262568356990812,0.04085808008909225,-0.05707432474419474
1634126078819898000,16.933898193359376,0.26344693829119203,0.11722411141097545,-0.08825389138385653
1634126078839778300,16.9537783203125,0.053906362232565876,0.11614099234938621,-0.07608531468436122
1634126078859657200,16.9736572265625,-0.1428542272299528,0.17236206126511097,0.05615311824604868
1634126078879536000,16.9935361328125,-0.33163375481069085,0.1416822608411312,0.16591288512572644
1634126078899416300,17.013416259765624,-0.4859755907386541,0.14368483283519745,0.1876206398691982
1634126078919295200,17.033295166015623,-0.7158727261275053,0.07270926238000393,0.2887346704132855
1634126078939175200,17.053175048828123,-0.718154115062952,0.04142039014697075,0.3637820203520357
1634126078959054300,17.073054443359375,-0.6061047759413719,0.06643909606933593,0.3150138977907598
1634126078978933000,17.09293310546875,-0.25735037498176094,0.14742752649486063,0.2672115515217185
1634126078998813200,17.112813232421875,0.03720715636610985,0.1739595595896244,0.209728353715688
1634126079018692400,17.1326923828125,0.2193640509366989,0.1935533178538084,0.15238763312026857
1634126079038572300,17.152572265625,0.19783494069576263,0.1636503470212221,0.10688180029056965
1634126079058451200,17.172451171875,0.1885077249020338,0.1968213797390461,0.11954597848728299
1634126079078330400,17.192330322265626,0.3110655985563993,0.2155383551687002,0.11068060805164277
1634126079098210000,17.2122099609375,0.4961000943899154,0.16096856059134004,0.09540252102948725
1634126079118089200,17.232089111328126,0.590847001054883,0.06368775153458119,-0.0556617545325309
1634126079137969200,17.25196923828125,0.6318699163168668,-0.004086392530798912,-0.04135718871764838
1634126079157847300,17.271847412109373,0.6329039355397224,-0.054469841334223744,-0.03267893835194409
1634126079177726200,17.291726318359373,0.5371200870424508,-0.09601415012180804,-0.012242299522832035
1634126079197606400,17.3116064453125,0.4680535650789737,-0.09949673154056071,0.03660641399398446
1634126079217485300,17.3314853515625,0.31046295648813244,-0.07042202822566032,0.0733835083797574
1634126079237365200,17.351365234375,0.1671452033996582,-0.004628828844428062,-0.0007044950075447559
1634126079257244400,17.371244384765625,0.055500353425741195,0.03761632168889045,0.017967179975658654
1634126079277123300,17.391123291015624,-0.16056348692178726,-0.050747021418809886,-0.07199526889175176
1634126079297003300,17.411003173828124,-0.4206032471179962,-0.15570260288715362,-0.1367015498191118
1634126079316882400,17.43088232421875,-0.6539683508783578,-0.2935878095328808,-0.08353424245081842
1634126079336762400,17.450762451171876,-0.6700315969288348,-0.2338473343193531,-0.1527718101322651
1634126079356641300,17.470641357421876,-0.4258171823740005,-0.12897124782800673,-0.15863880246952175
1634126079376520400,17.4905205078125,-0.14196692300140856,-0.10152852962911128,-0.19023016478046773
1634126079396400400,17.510400390625,0.010242577072978019,-0.10484393778741359,-0.2818410384420305
1634126079416279300,17.530279296875,-0.016375380739569664,-0.15886077465713022,-0.3045593584675342
1634126079436159500,17.550159423828124,-0.09010697190463543,-0.19472645328640936,-0.22954349964559076
1634126079456038400,17.570038330078123,0.061872811067104336,-0.20694003817141055,-0.16209339990280566
1634126079475918300,17.58991845703125,0.25906711577177044,-0.4145300646841526,-0.21852628493830561
1634126079495797500,17.609797607421875,0.2877075193226337,-0.5703606778651475,-0.25331381294205785
1634126079515676200,17.62967626953125,0.2717664383471012,-0.44253217033147807,-0.1766863542050123
1634126079535556400,17.649556396484375,0.020028058028221128,-0.12194821732342243,0.046356239113956685
1634126079555435500,17.669435546875,-0.3794453072994947,0.017747838136553763,0.21172055044621227
1634126079575315500,17.6893154296875,-0.6464812099933623,0.18045359778404235,0.2762807739663869
1634126079595194400,17.7091943359375,-0.63902563329041,0.47364042530059813,0.29435177964270115
1634126079615073500,17.729073486328126,-0.6235685364395379,0.6007154841184615,0.45948140543624755
1634126079634953200,17.748953125,-0.42549744890034197,0.6330933206319809,0.3837769067630172
1634126079654832400,17.768832275390626,-0.026101240462064742,0.7154477787137031,0.21415464572533963
1634126079674712300,17.78871240234375,0.25360885036587716,0.7353542561888694,0.15144304574653505
1634126079694591200,17.80859130859375,0.3747445822626352,0.6367109266072511,0.0055661096945405
1634126079714470400,17.828470458984373,0.38315059155821796,0.46785248954892156,-0.023350188188254833
1634126079734350300,17.848350341796873,0.4993652336657047,0.2107803469866514,-0.03730433313027024
1634126079754229200,17.868229248046877,0.48796588777303695,0.07838613897264003,-0.21499109654948115
1634126079774109400,17.888109375,0.37131811494529243,0.21179975316226482,-0.14637465644106268
1634126079793988400,17.90798828125,0.23849779047369957,0.31791444153785703,-0.06655994597002864
1634126079813867300,17.9278671875,0.1955874540299177,0.3033107466459274,-0.06224076759666204
1634126079833747500,17.94774755859375,0.06996200949847697,0.13698679650127887,0.021375307918712495
1634126079853626400,17.96762646484375,-0.08597615571022033,0.034493805754184724,-0.005791223687306046
1634126079873506300,17.98750634765625,-0.17132102777957917,0.026047464448213577,0.03592120820879936
1634126079893385500,18.007385498046876,-0.09353051661252974,0.06627192280888557,0.03673500880971551
1634126079913264400,18.027264404296876,-0.026800913164019582,0.07654723310768603,0.03995550522617995
1634126079933144300,18.047144287109376,-0.03542553364634514,0.13154898936152457,0.09131474025920033
1634126079953023500,18.0670234375,-0.09448796346783638,0.15405892733335494,0.19791268210709093
1634126079972903200,18.086903076171875,-0.12849603153169153,0.13282616969048977,0.3190773478373885
1634126079992782300,18.1067822265625,-0.1296867026209831,-0.0016495207726955413,0.3627643677420914
1634126080012661500,18.12666162109375,0.008154080361127853,-0.07015022554695606,0.4078798130147159
1634126080032541200,18.146541259765623,0.1681342144370079,-0.10998422328531741,0.37834903649538754
1634126080052420400,18.16642041015625,0.17501520612239838,-0.18180501239299773,0.35685616661161185
1634126080072300500,18.186300537109375,0.29250059881806373,-0.15315642553567885,0.24604060706868766
1634126080092179200,18.20617919921875,0.11666706205010413,-0.2216729124009609,0.19387991945967076
1634126080112059400,18.226059326171875,0.14602525848150252,-0.1996101336747408,0.0757416158132255
1634126080131938600,18.2459384765625,0.1616588809430599,-0.14227379699349402,-0.05448942281752824
1634126080151817200,18.265817138671874,-0.2601338682204485,-0.19148235679864883,0.03880808875672519
1634126080171697200,18.285697265625,-0.38645372475683687,0.09471943413615226,0.05913228018730878
1634126080191576300,18.305576416015626,-0.3432961355537176,0.2934323267102241,0.13388532335460185
1634126080211456300,18.325456298828126,-0.24802841988503932,0.23575462924540042,0.1877691814944148
1634126080231335200,18.345335205078126,-0.17577391553521154,0.12260463540554047,0.12835545401722193
1634126080251214300,18.36521435546875,-0.25270284143686295,0.12095453011095524,0.19450981486104427
1634126080271094300,18.38509423828125,-0.2611445065677166,0.20046996537446973,0.243127788361907
1634126080290973200,18.40497314453125,-0.15067045393884182,0.25229718324542044,0.21611586279571054
1634126080310853000,18.42485302734375,0.04552490285634994,0.149228438436985,0.17250863012894987
1634126080330732300,18.444732177734377,0.19336334823966025,0.08116203342676162,0.09291260390989482
1634126080350611200,18.464611083984376,0.16941139476597308,0.06235036545097827,0.10013517557457088
1634126080370491400,18.484491455078125,0.05402560469806194,0.05959492926299571,0.053041269835829734
1634126080390370000,18.5043701171875,-0.04081716355681419,0.023670213922858237,0.055433864060789345
1634126080410250200,18.524250244140624,-0.08103110052347183,0.01752221268713474,0.022630349481105802
1634126080430129400,18.54412939453125,-0.11369885989427565,0.0877291368573904,0.06511559238061308
1634126080450008000,18.564008056640624,0.009702478846907616,0.14207622859477995,0.0498870435886085
1634126080469888300,18.58388818359375,0.08164367946386336,0.07424480138421058,-0.025108283901959655
1634126080489767400,18.603767333984376,0.12902619288563727,0.16728724221885202,-0.046401393429934976
1634126080509647000,18.623647216796876,0.11354571515917777,0.23979250645935535,-0.009775982474535703
1634126080529526300,18.6435263671875,0.17775193760991095,0.20633096636235712,0.015500497601181268
1634126080549405400,18.663405517578123,0.2653402046918869,0.04690554355978965,-0.018243220438063142
1634126080569285000,18.68328515625,0.25346798059046266,0.03309796748161316,-0.020991130906715987
1634126080589164300,18.703164306640623,0.0506289479970932,0.029537060129642485,0.06704129974618554
1634126080609044200,18.723044189453127,-0.10375380446314811,0.04608662839233875,0.08176847488731145
1634126080628923100,18.742923095703127,-0.2886930232286453,0.03455810316205025,0.12216960498914121
1634126080648802300,18.76280224609375,-0.2628951496273279,0.0767839644730091,0.21268318493328986
1634126080668682200,18.78268212890625,-0.28750527474880216,-0.050155485266447065,0.18206760885193943
1634126080688561200,18.80256103515625,-0.333466815456748,-0.14282324756979942,0.2128784883096814
1634126080708441300,18.82244140625,-0.11415537149012088,-0.1262719257414341,0.17717399159148334
1634126080728320000,18.842320068359374,0.07028817271292209,-0.15942951445579528,0.09850713598132133
1634126080748199200,18.86219921875,0.14733926368951797,-0.09922609790563583,0.04519669381529093
1634126080768079400,18.882079345703126,0.06770692404806614,-0.026941198417544363,0.001500613821297884
1634126080787958300,18.901958251953126,-0.04274024057388305,0.0419628264605999,0.06353036901578307
1634126080807838200,18.921838134765625,-0.009929857861995696,0.07041676752865314,-0.0017390987522900104
1634126080827717400,18.94171728515625,0.09731588037014006,0.06401391474902629,-0.0638829818457365
1634126080847596300,18.96159619140625,0.17635259220600127,0.1303197398275137,-0.0765915106408298
1634126080867476200,18.981476318359373,0.18515899899601934,0.1529635333120823,-0.0401259664222598
1634126080887355400,19.00135546875,0.14968436551094055,0.16086860734820366,-0.12437938999310136
1634126080907235000,19.021235107421877,0.06580839695036411,0.16430734962522983,-0.10178279665112495
1634126080927114200,19.0411142578125,-0.012929624199867248,0.11841244441270828,-0.14064298092126845
1634126080946993400,19.060993408203124,-0.08298691076636314,0.14076222338676453,-0.0974159797437489
1634126080966873000,19.080873046875,-0.08161386884748935,0.13130875086486338,-0.053974678228422994
1634126080986752300,19.100752197265624,0.05026654442548752,0.12410334953069686,-0.12351605116203426
1634126081006632400,19.120632568359376,0.06787526635229588,0.08159925580024718,-0.15031784110888838
1634126081026511000,19.140510986328124,0.06792436619102954,0.057847793334722515,-0.1502418532632291
1634126081046390300,19.160390380859376,0.05186871892511844,0.01776888092458248,-0.1797160772897303
1634126081066270500,19.1802705078125,0.02571837862432003,0.019202713119983672,-0.10166384644657372
1634126081086149000,19.200149169921875,0.0020797288835048672,0.03861585412025451,-0.06889701061546802
1634126081106029300,19.220029296875,-0.06365092665553093,0.0012245733588933945,-0.058888388428837056
1634126081125908200,19.239908203125,-0.0840215145111084,-0.031231589087843892,0.00236935947984457
1634126081145787100,19.259787109375,-0.036404607811570164,-0.043941433057188985,-0.058386722517013545
1634126081165667800,19.279667724609375,0.10683306577801704,0.017838439029455182,-0.019891718297451733
1634126081185546800,19.299546630859375,0.09530044889450073,0.07438274855017661,0.010069996985048055
1634126081205427000,19.319427001953127,0.045535424250364304,0.0673462740421295,0.019245237087458372
1634126081225305900,19.339305908203126,0.038459786775708195,-0.013828618866205214,0.002653144857287407
1634126081245185000,19.35918505859375,0.08769348102211952,-0.02202127767205238,0.05406286796852946
1634126081265065000,19.37906494140625,0.10427753607630728,0.012540332621335982,0.045824031933397055
1634126081284944000,19.39894384765625,0.06821487357020378,0.04127776680588722,-0.005865384902060031
1634126081304823800,19.41882373046875,0.01317044721841812,0.06395195542871952,0.022400778508931397
1634126081324703000,19.438702880859374,0.023283844953775404,0.05624854144454002,-0.042148266030102965
1634126081344582000,19.458581787109374,0.03283785524070263,-0.05096738617122173,-0.11743753496594726
1634126081364461800,19.4784619140625,0.027207740399241447,-0.1204331365853548,-0.17153700861781834
1634126081384340700,19.4983408203125,0.038542204362154005,-0.025102292552590368,-0.19301921097710728
1634126081404221000,19.518220947265625,-0.03463876718282699,0.08231997129023075,-0.17370587708950042
1634126081424099800,19.538099853515625,-0.14082593627274034,0.21606851652264594,-0.12158325646854937
1634126081443978800,19.557978759765625,-0.289329567566514,0.21429449258744715,-0.008263166758790613
1634126081463859000,19.57785888671875,-0.30717677442431446,0.17887188155055045,0.07540317763909697
1634126081483737900,19.59773779296875,-0.169672676050663,0.08729016091823577,0.040887890705466265
1634126081503617800,19.61761767578125,0.0471779307603836,0.000796118813753128,0.010374679020047187
1634126081523497000,19.6374970703125,0.09449263964295387,0.04414718476235866,0.03332154710441827
1634126081543376000,19.6573759765625,-0.036727848416566844,0.11699030265510081,0.17275968228057026
1634126081563255800,19.677255859375,-0.04803016367554664,0.08282441368103027,0.23684900035336612
1634126081583135000,19.697135009765624,0.1875754124879837,-0.043539281997084615,0.17338395165875553
1634126081603015000,19.717014892578124,0.4406155230551958,-0.14364683891236782,0.016861849082261324
1634126081622893800,19.736893798828124,0.5166209043711424,-0.17136428239941595,-0.07643295907825232
1634126081642773000,19.75677294921875,0.2921469630748033,-0.11820552366375922,-0.05959624443724751
1634126081662653000,19.77665283203125,0.029354104778170582,-0.023462124130129814,0.05434979515112936
1634126081682531800,19.79653173828125,-0.16648820079565047,-0.028829204121232032,0.11897416994869708
1634126081702411800,19.816411865234375,-0.06707914753854274,-0.008359832066297531,0.06327624812424182
1634126081722290700,19.836290771484375,-0.02400046879053116,0.08657178351581096,0.07078618536293506
1634126081742169900,19.856169921875,-0.2231406468659639,0.10415011030435561,0.1617439288780093
1634126081762049800,19.8760498046875,-0.12879238412976265,0.1678413689702749,0.15965689347088335
1634126081781928700,19.8959287109375,0.14247837965488433,0.14169862745404244,0.09777473005354403
1634126081801809000,19.915808837890626,0.3713625386089086,0.11193068117797374,0.08142024597153068
1634126081821688000,19.93568798828125,0.5356225419610738,0.025455343773961067,-0.0466742920871824
1634126081841566700,19.955566650390626,0.5507271721124649,0.008825111490488051,-0.07425853764861821
1634126081861447000,19.975447021484374,0.45450843932926654,-0.005178863942623138,0.01978665048778057
1634126081881326000,19.995326171875,0.25470190629959105,-0.0679828183799982,0.01244878188036382
1634126081901205800,20.015205810546874,0.14210194755792616,-0.110686234074831,0.014686843130737542
1634126081921085000,20.0350849609375,0.029067689052224156,-0.04625146356523037,0.05618534001521766
1634126081940963800,20.0549638671875,0.030755203747749326,-0.0020867431461811066,-0.03675415190160274
1634126081960843800,20.07484375,-0.07908055097758769,0.04835808045566082,0.039326048216223715
1634126081980723000,20.094722900390625,0.24614976653158663,0.18964754258692262,-0.07492036255821585
1634126082000603000,20.114602783203125,0.4854284782499075,0.01881108345389366,-0.44612654156163334
1634126082020481800,20.134481689453125,-0.345469972461462,0.10501578722298145,-0.015989157900959252
1634126082040361000,20.15436083984375,-0.15128829357624052,0.2862883001744747,0.20161621280014513
1634126082060240600,20.17424072265625,-0.11011690975427627,0.14847791233062743,-0.07761208586022257
