time,seconds_elapsed,z,y,x
1633781626639477000,0.01747705078125,0.07936643809080124,0.008551137521862984,0.049314115196466446
1633781626659356200,0.037356201171875,0.03588822856545448,0.011222178116440773,0.07767900824546814
1633781626679235000,0.057235107421875,0.004273650236427784,0.025543298572301865,0.07939411699771881
1633781626699114000,0.077114013671875,0.017887510359287262,-0.0067610302940011024,0.038778431713581085
1633781626718993000,0.096992919921875,0.04169121012091637,0.022046783939003944,-0.006784137338399887
1633781626738872000,0.1168720703125,0.054691895842552185,0.03776350989937782,-0.052978433668613434
1633781626758751200,0.136751220703125,0.028592463582754135,0.023107901215553284,-0.06742673367261887
1633781626778630100,0.156630126953125,-0.0027726630214601755,0.01830238103866577,-0.07690383493900299
1633781626798509800,0.176509765625,-0.005339343100786209,-0.009189635515213013,-0.12201018631458282
1633781626818389000,0.196388916015625,0.009824128821492195,-0.032161835581064224,-0.14518561959266663
1633781626838268000,0.216267822265625,0.007432279642671347,-0.021029207855463028,-0.14024454355239868
1633781626858146800,0.236146728515625,0.00776553014293313,-0.028877727687358856,-0.1348322182893753
1633781626878026000,0.25602587890625,0.018480291590094566,-0.04949147626757622,-0.1463475525379181
1633781626897905000,0.27590478515625,0.01527428813278675,-0.03217781335115433,-0.13785766065120697
1633781626917784000,0.2957841796875,0.03550752252340317,-0.0035310955718159676,-0.1080191433429718
1633781626937662700,0.315662841796875,0.06427498906850815,0.028905142098665237,-0.0751701220870018
1633781626957542000,0.3355419921875,0.09320072829723358,0.06478779762983322,-0.07524081319570541
1633781626977420800,0.3554208984375,0.1207825094461441,0.08366774022579193,-0.10607310384511948
1633781626997300700,0.37530078125,0.14246277511119843,0.08229668438434601,-0.1429247111082077
1633781627017180000,0.395179931640625,0.12762019038200378,0.10356634855270386,-0.17069044709205627
1633781627037058800,0.415058837890625,0.11472493410110474,0.18902698159217834,-0.20752789080142975
1633781627056938000,0.43493798828125,0.08785136044025421,0.29826799035072327,-0.22615261375904083
1633781627076817200,0.454817138671875,0.09072987735271454,0.3543032109737396,-0.21448157727718353
1633781627096695800,0.47469580078125,0.13711167871952057,0.33646160364151,-0.18865704536437988
1633781627116575000,0.494574951171875,0.199358269572258,0.3099644184112549,-0.19991087913513184
1633781627136454000,0.514453857421875,0.27070173621177673,0.3189598023891449,-0.27156317234039307
1633781627156333000,0.5343330078125,0.2959786057472229,0.3143276274204254,-0.3882122039794922
1633781627176211700,0.554211669921875,0.28546789288520813,0.34147909283638,-0.48353418707847595
1633781627196091000,0.5740908203125,0.22286652028560638,0.31642311811447144,-0.5480139851570129
1633781627215969800,0.5939697265625,0.14340530335903168,0.2528516948223114,-0.5940037965774536
1633781627235849000,0.613848876953125,0.06030679866671562,0.14208126068115234,-0.584138810634613
1633781627255728000,0.63372802734375,-0.055673010647296906,0.05519756302237511,-0.5764397382736206
1633781627275606800,0.653606689453125,-0.13762153685092926,-0.07697170972824097,-0.5149616599082947
1633781627295486000,0.67348583984375,-0.13982750475406647,-0.17370948195457458,-0.41930294036865234
1633781627315364900,0.69336474609375,-0.06441114842891693,-0.19688451290130615,-0.33122363686561584
1633781627335244800,0.713244873046875,0.039073146879673004,-0.07420928031206131,-0.26311299204826355
1633781627355124000,0.7331240234375,0.11779597401618958,0.1537240743637085,-0.23023900389671326
1633781627375003000,0.7530029296875,0.15648624300956726,0.41326141357421875,-0.23636113107204437
1633781627394882000,0.772882080078125,0.17674164474010468,0.5782939195632935,-0.24214743077754974
1633781627414760700,0.7927607421875,0.17355428636074066,0.6011081337928772,-0.2192920595407486
1633781627434640000,0.812639892578125,0.07489171624183655,0.2753944993019104,-0.0018165926449000835
1633781627454519000,0.83251904296875,-0.14566153287887573,-0.103782519698143,0.30242785811424255
1633781627474398000,0.85239794921875,-0.28400731086730957,-0.20323576033115387,0.4269437789916992
1633781627494277000,0.872277099609375,-0.2571326494216919,-0.005616429261863232,0.3283531963825226
1633781627514155800,0.89215576171875,-0.14154653251171112,0.2958495020866394,0.08245853334665298
1633781627534035000,0.912034912109375,0.030056584626436234,0.5534207224845886,-0.18477573990821838
1633781627553913900,0.931913818359375,0.18934175372123718,0.6095587611198425,-0.31892770528793335
1633781627573793000,0.95179296875,0.2685087025165558,0.4658855199813843,-0.2620745897293091
1633781627593672000,0.971671875,0.24404995143413544,0.21811948716640472,-0.02695779874920845
1633781627613550800,0.99155078125,0.11265084147453308,-0.021305378526449203,0.2742847204208374
1633781627633430000,1.011429931640625,-0.006161938421428204,-0.09103146195411682,0.4411732256412506
1633781627653309000,1.031308837890625,-0.032770827412605286,0.07649344950914383,0.33904922008514404
1633781627673188000,1.05118798828125,0.0067568616941571236,0.2688579857349396,0.07749009132385254
1633781627693066800,1.071066650390625,0.0516979955136776,0.3909822702407837,-0.19442802667617798
1633781627712947000,1.090947021484375,0.12587891519069672,0.4824824035167694,-0.379663348197937
1633781627732826000,1.110826171875,0.2331019937992096,0.5688494443893433,-0.45174920558929443
1633781627752704800,1.130704833984375,0.31332409381866455,0.6318801045417786,-0.49418118596076965
1633781627772584000,1.150583984375,0.3488827645778656,0.699941098690033,-0.5562812089920044
1633781627792463400,1.17046337890625,0.35857605934143066,0.7351177334785461,-0.6201164126396179
1633781627812342500,1.190342529296875,0.33590167760849,0.7366944551467896,-0.6138681769371033
1633781627832221200,1.21022119140625,0.32682299613952637,0.7364393472671509,-0.5487880706787109
1633781627852100400,1.230100341796875,0.32054007053375244,0.7116565704345703,-0.45865774154663086
1633781627871979300,1.249979248046875,0.31731587648391724,0.6212838888168335,-0.37780362367630005
1633781627891858400,1.2698583984375,0.3335646986961365,0.5148966312408447,-0.3372766673564911
1633781627911737300,1.2897373046875,0.3413216471672058,0.46932876110076904,-0.3491210341453552
1633781627931616300,1.3096162109375,0.31221136450767517,0.48803067207336426,-0.40730929374694824
1633781627951495400,1.329495361328125,0.2780017852783203,0.5078359246253967,-0.47171086072921753
1633781627971374300,1.349374267578125,0.24877020716667175,0.5102205872535706,-0.48602548241615295
1633781627991253500,1.36925341796875,0.25267520546913147,0.47628459334373474,-0.46265944838523865
1633781628011132200,1.389132080078125,0.2917670011520386,0.4109901487827301,-0.39290425181388855
1633781628031011300,1.40901123046875,0.34062182903289795,0.36202457547187805,-0.32305440306663513
1633781628050890500,1.428890380859375,0.35059911012649536,0.3947128653526306,-0.2784501910209656
1633781628070769400,1.448769287109375,0.330498069524765,0.4134133756160736,-0.2609155774116516
1633781628090649300,1.4686494140625,0.2833951711654663,0.3961507976055145,-0.2546260356903076
1633781628110528300,1.4885283203125,0.2600862383842468,0.34809625148773193,-0.26469680666923523
1633781628130407400,1.508407470703125,0.25719329714775085,0.35036879777908325,-0.2490771859884262
1633781628150286300,1.528286376953125,0.29516297578811646,0.36324527859687805,-0.2278468906879425
1633781628170165200,1.548165283203125,0.3354816436767578,0.3818703591823578,-0.23386137187480927
1633781628190044400,1.56804443359375,0.3352850675582886,0.420059472322464,-0.24538293480873108
1633781628209923300,1.58792333984375,0.3142039477825165,0.4619327485561371,-0.26259446144104004
1633781628229802500,1.607802490234375,0.31080013513565063,0.5101494193077087,-0.2566896677017212
1633781628249681200,1.62768115234375,0.3316541612148285,0.5382823944091797,-0.23831619322299957
1633781628269560300,1.647560302734375,0.3228423297405243,0.5478901863098145,-0.21696461737155914
1633781628289439500,1.667439453125,0.31494662165641785,0.5273391008377075,-0.21066056191921234
1633781628309318400,1.687318359375,0.29948538541793823,0.5284362435340881,-0.23518511652946472
1633781628329197300,1.707197265625,0.25736239552497864,0.5809535980224609,-0.28270554542541504
1633781628349076200,1.727076171875,0.2228737324476242,0.6303952932357788,-0.3258933424949646
1633781628368955400,1.746955322265625,0.2342500388622284,0.6106685400009155,-0.34699809551239014
1633781628388834300,1.766834228515625,0.26051995158195496,0.5237942337989807,-0.33672115206718445
1633781628408713200,1.786713134765625,0.2773534953594208,0.42801064252853394,-0.2895386815071106
1633781628428592400,1.80659228515625,0.27396491169929504,0.4205179810523987,-0.22838203608989716
1633781628448472300,1.826472412109375,0.27395620942115784,0.48651182651519775,-0.2026488184928894
1633781628468351500,1.8463515625,0.296953946352005,0.59382563829422,-0.2259903848171234
1633781628488230100,1.866230224609375,0.33123281598091125,0.6792516708374023,-0.2968393862247467
1633781628508109300,1.886109375,0.35274264216423035,0.7435892820358276,-0.357865571975708
1633781628527988500,1.905988525390625,0.37294548749923706,0.7640622854232788,-0.3628404140472412
1633781628547867400,1.925867431640625,0.3723507523536682,0.7252236604690552,-0.33523091673851013
1633781628567746300,1.945746337890625,0.35076501965522766,0.624173104763031,-0.2959847152233124
1633781628587625200,1.965625244140625,0.3484552204608917,0.5295326113700867,-0.2720932960510254
1633781628607504400,1.98550439453125,0.37661492824554443,0.5047957301139832,-0.27138617634773254
1633781628627383300,2.00538330078125,0.44429102540016174,0.5150781869888306,-0.24470973014831543
1633781628647262200,2.02526220703125,0.5284879803657532,0.4627976715564728,-0.1984689086675644
1633781628667141400,2.045141357421875,0.5897727608680725,0.34794381260871887,-0.17250514030456543
1633781628687020300,2.065020263671875,0.6342160105705261,0.3003195524215698,-0.20175926387310028
1633781628706899500,2.0848994140625,0.6471598744392395,0.3591170310974121,-0.2626766860485077
1633781628726778400,2.1047783203125,0.6129847764968872,0.44156163930892944,-0.3419523239135742
1633781628746657300,2.1246572265625,0.5441694855690002,0.47065359354019165,-0.35749876499176025
1633781628766536200,2.1445361328125,0.45895183086395264,0.396261990070343,-0.30183881521224976
1633781628786415400,2.164415283203125,0.3671289384365082,0.27159854769706726,-0.19891417026519775
1633781628806294500,2.18429443359375,0.2530726194381714,0.1686520278453827,-0.11571771651506424
1633781628826174200,2.20417431640625,0.1311594545841217,0.10673845559358597,-0.04136177524924278
1633781628846053400,2.224053466796875,0.01898360252380371,0.04226811230182648,0.05176357179880142
1633781628865932300,2.243932373046875,-0.06985282152891159,-0.1034834086894989,0.12443873286247253
1633781628885811500,2.2638115234375,-0.12784776091575623,-0.22947977483272552,0.16521678864955902
1633781628905690400,2.2836904296875,-0.15023261308670044,-0.2691480219364166,0.15947501361370087
1633781628925569300,2.3035693359375,-0.16295234858989716,-0.27095746994018555,0.13299046456813812
1633781628945448400,2.323448486328125,-0.16572000086307526,-0.2654536962509155,0.11241556704044342
1633781628965327400,2.343327392578125,-0.1763877421617508,-0.2692861557006836,0.11015187203884125
1633781628985206300,2.363206298828125,-0.17436961829662323,-0.2653360366821289,0.11082156002521515
1633781629005085200,2.383085205078125,-0.19345839321613312,-0.28728052973747253,0.09004510939121246
1633781629024964400,2.40296435546875,-0.24917148053646088,-0.3200508952140808,0.0829322412610054
1633781629044843500,2.422843505859375,-0.29996827244758606,-0.3576430380344391,0.11508168280124664
1633781629064722200,2.44272216796875,-0.3130335211753845,-0.40300193428993225,0.17857760190963745
1633781629084601300,2.462601318359375,-0.30196964740753174,-0.4339340627193451,0.25627899169921875
1633781629104480300,2.482480224609375,-0.31331849098205566,-0.42057743668556213,0.29883190989494324
1633781629124359400,2.502359375,-0.356534481048584,-0.4308651089668274,0.2974957227706909
1633781629144238300,2.52223828125,-0.4179348647594452,-0.4798531234264374,0.3062669336795807
1633781629164117200,2.5421171875,-0.44312769174575806,-0.5351837873458862,0.35157015919685364
1633781629183996400,2.561996337890625,-0.4364946186542511,-0.5906543731689453,0.4234970510005951
1633781629203876400,2.58187646484375,-0.4021259546279907,-0.6252905130386353,0.46676644682884216
1633781629223755300,2.60175537109375,-0.42051228880882263,-0.6191242933273315,0.4275176525115967
1633781629243634200,2.62163427734375,-0.48245933651924133,-0.46100133657455444,0.3247144818305969
1633781629263513300,2.641513427734375,-0.501889169216156,-0.187196284532547,0.23760202527046204
1633781629283392500,2.661392578125,-0.46065279841423035,-0.10606161504983902,0.166375532746315
1633781629303271200,2.681271240234375,-0.3809201121330261,-0.2059733271598816,0.1659880131483078
1633781629323150300,2.701150390625,-0.2969825863838196,-0.3520190417766571,0.16114087402820587
1633781629343029200,2.721029296875,-0.2609494924545288,-0.4311378300189972,0.17973560094833374
1633781629362908400,2.740908447265625,-0.2052232176065445,-0.5181108117103577,0.23752263188362122
1633781629382787300,2.760787353515625,-0.10346952825784683,-0.5898501873016357,0.2654663920402527
1633781629402666200,2.780666259765625,-0.006796989589929581,-0.6182004809379578,0.2425374537706375
1633781629422545400,2.80054541015625,0.05400991812348366,-0.599611759185791,0.18952186405658722
1633781629442424300,2.82042431640625,0.10447662323713303,-0.5593022108078003,0.12017371505498886
1633781629462303500,2.840303466796875,0.10695881396532059,-0.4427723288536072,0.05049898475408554
1633781629482182100,2.86018212890625,0.02887761779129505,-0.34079599380493164,-0.00412688497453928
1633781629502061300,2.880061279296875,-0.07871830463409424,-0.3253653347492218,-0.024449657648801804
1633781629521940200,2.899940185546875,-0.15851624310016632,-0.4351278245449066,0.04122568294405937
1633781629541819400,2.9198193359375,-0.18482130765914917,-0.6412186026573181,0.20101474225521088
1633781629561699300,2.93969921875,-0.12663109600543976,-0.984361469745636,0.42885836958885193
1633781629581578200,2.959578125,-0.025024188682436943,-1.2855523824691772,0.7047105431556702
1633781629601457400,2.97945751953125,0.016703559085726738,-1.4332163333892822,0.9025430083274841
1633781629621336300,2.99933642578125,-0.08393950760364532,-1.3223539590835571,0.9213144183158875
1633781629641215200,3.01921533203125,-0.194959357380867,-1.0559940338134766,0.8605595231056213
1633781629661094400,3.039094482421875,-0.23902593553066254,-0.8089010119438171,0.8058549761772156
1633781629680973300,3.058973388671875,-0.19489192962646484,-0.6833606958389282,0.7191747426986694
1633781629700852500,3.0788525390625,-0.0973530188202858,-0.6316754221916199,0.6154683232307434
1633781629720731100,3.098731201171875,-0.004309000447392464,-0.6760971546173096,0.5459547638893127
1633781629740610300,3.1186103515625,0.024436650797724724,-0.6567839980125427,0.4711333215236664
1633781629760489200,3.1384892578125,0.02266954630613327,-0.5697821378707886,0.380008339881897
1633781629780368400,3.158368408203125,0.0014267594087868929,-0.5243656635284424,0.3170073926448822
1633781629800247000,3.1782470703125,0.003179033985361457,-0.5360283255577087,0.2726844251155853
1633781629820126000,3.1981259765625,0.04142969846725464,-0.5885397791862488,0.23633819818496704
1633781629840005000,3.218005126953125,0.03073311224579811,-0.6077531576156616,0.1910383701324463
1633781629859884000,3.237884033203125,-0.027681538835167885,-0.6060008406639099,0.13748739659786224
1633781629879763200,3.25776318359375,-0.08326058834791183,-0.7071278691291809,0.0973203033208847
1633781629899642000,3.27764208984375,-0.12361067533493042,-0.818305492401123,0.0656297579407692
1633781629919522000,3.29752197265625,-0.16601143777370453,-0.8396994471549988,0.02460539899766445
1633781629939401200,3.317401123046875,-0.19293779134750366,-0.7883533239364624,0.0031321162823587656
1633781629959280000,3.337280029296875,-0.1852445751428604,-0.7368770837783813,-0.00043380464194342494
1633781629979159000,3.357158935546875,-0.1822495013475418,-0.6966934204101562,0.011513015255331993
1633781629999038000,3.377037841796875,-0.2219039648771286,-0.6240889430046082,0.04784025251865387
1633781630018917000,3.396917236328125,-0.2935735881328583,-0.5702430605888367,0.10043816268444061
1633781630038796000,3.416796142578125,-0.3491438925266266,-0.5805266499519348,0.15604270994663239
1633781630058675000,3.436675048828125,-0.35648152232170105,-0.6280165314674377,0.16359831392765045
1633781630078554000,3.45655419921875,-0.30997055768966675,-0.5992807149887085,0.1121167317032814
1633781630098433000,3.47643310546875,-0.2515358626842499,-0.48893871903419495,0.039336029440164566
1633781630118312200,3.496312255859375,-0.26048704981803894,-0.3576279878616333,-0.00212636380456388
1633781630138191000,3.516191162109375,-0.28870493173599243,-0.31724855303764343,0.007194189820438623
1633781630158070000,3.536070068359375,-0.3775869309902191,-0.37223511934280396,0.06228293851017952
1633781630177949000,3.555948974609375,-0.4724877178668976,-0.46016067266464233,0.12210927903652191
1633781630197828000,3.575828125,-0.5272355079650879,-0.5526823997497559,0.1727253645658493
1633781630217707300,3.595707275390625,-0.5269014835357666,-0.6297605037689209,0.22728905081748962
1633781630237586000,3.6155859375,-0.4721870720386505,-0.6823534965515137,0.2926143407821655
1633781630257465000,3.635465087890625,-0.36029961705207825,-0.7364938855171204,0.3554021120071411
1633781630277344000,3.655343994140625,-0.2657693326473236,-0.7307958006858826,0.37558043003082275
1633781630297224000,3.675223876953125,-0.23775514960289001,-0.6775099039077759,0.35063880681991577
1633781630317103000,3.69510302734375,-0.26486077904701233,-0.6129580736160278,0.2564130425453186
1633781630336982000,3.71498193359375,-0.29625073075294495,-0.5088457465171814,0.129220649600029
1633781630356861200,3.734861083984375,-0.27966639399528503,-0.44323134422302246,0.023388508707284927
1633781630376740000,3.754739990234375,-0.2691996991634369,-0.4212670624256134,-0.059376996010541916
1633781630396619000,3.774618896484375,-0.33231502771377563,-0.36539915204048157,-0.1201149970293045
1633781630416498000,3.794497802734375,-0.39483362436294556,-0.35148465633392334,-0.17766708135604858
1633781630436377000,3.814377197265625,-0.40176594257354736,-0.3686838150024414,-0.2150319367647171
1633781630456256300,3.83425634765625,-0.4100494682788849,-0.3496667444705963,-0.22533823549747467
1633781630476135000,3.854135009765625,-0.48146528005599976,-0.3670825660228729,-0.2239132821559906
1633781630496014000,3.87401416015625,-0.6165110468864441,-0.38570287823677063,-0.1863601803779602
1633781630515893000,3.89389306640625,-0.7182314395904541,-0.4630683660507202,-0.13878695666790009
1633781630535772200,3.913772216796875,-0.7682651281356812,-0.6877546310424805,-0.10610321909189224
1633781630555651000,3.933651123046875,-0.7944376468658447,-0.8910753726959229,-0.08455316722393036
1633781630575530000,3.953530029296875,-0.8578788638114929,-0.7957329750061035,-0.08322487771511078
1633781630595409200,3.9734091796875,-1.011214017868042,-0.6658481359481812,0.03465861827135086
1633781630615288000,3.9932880859375,-1.1014211177825928,-0.881434440612793,0.35348060727119446
1633781630635167200,4.013167236328125,-0.8984808921813965,-1.271299958229065,0.6877217292785645
1633781630655047000,4.033046875,-0.5579569935798645,-1.393459677696228,0.8076528310775757
1633781630674926000,4.052926025390625,-0.27175840735435486,-1.1545714139938354,0.611789882183075
1633781630694805200,4.07280517578125,-0.07510685920715332,-0.777489960193634,0.2233615517616272
1633781630714684000,4.092683837890625,0.07119711488485336,-0.4792720377445221,-0.1866350620985031
1633781630734563000,4.11256298828125,0.14303706586360931,-0.2910188138484955,-0.4569554030895233
1633781630754442000,4.13244189453125,0.1872895061969757,-0.2720252275466919,-0.5674467086791992
1633781630774321200,4.152321044921875,0.1650148630142212,-0.30963391065597534,-0.59011310338974
1633781630794199000,4.172198974609375,0.1151556447148323,-0.32730984687805176,-0.5718684196472168
1633781630814078000,4.192077880859375,-0.0245488490909338,-0.2749122381210327,-0.5232940316200256
1633781630833956900,4.211956787109375,-0.21581479907035828,-0.3087370991706848,-0.4562941789627075
1633781630853835800,4.231835693359375,-0.3700132668018341,-0.46354740858078003,-0.34171217679977417
1633781630873715000,4.25171484375,-0.4580124318599701,-0.6772881746292114,-0.17918933928012848
1633781630893594000,4.271593994140625,-0.47132304310798645,-0.9452694654464722,-0.01137523166835308
1633781630913472800,4.29147265625,-0.37185806035995483,-1.0579535961151123,0.07203681021928787
1633781630933352000,4.31135205078125,-0.22585582733154297,-0.9625295400619507,0.0626763105392456
1633781630953230800,4.33123095703125,-0.15377062559127808,-0.6759603023529053,0.01973963901400566
1633781630973110000,4.351110107421875,-0.1754668802022934,-0.3800749182701111,-0.007783984299749136
1633781630992989000,4.370989013671875,-0.2486128956079483,-0.25195154547691345,0.03509991988539696
1633781631012867800,4.390867919921875,-0.33058103919029236,-0.23225586116313934,0.14784295856952667
1633781631032748000,4.410748046875,-0.3880611062049866,-0.23332326114177704,0.2955687642097473
1633781631052627000,4.430626953125,-0.38442936539649963,-0.19708934426307678,0.4123811423778534
1633781631072505900,4.450505859375,-0.32004058361053467,-0.1188572570681572,0.42134344577789307
1633781631092384800,4.470384765625,-0.22512899339199066,-0.062191370874643326,0.36532771587371826
1633781631112264000,4.490263916015625,-0.1287115067243576,-0.034955013543367386,0.3001929521560669
1633781631132143000,4.51014306640625,0.005422868765890598,-0.015354413539171219,0.2753666937351227
1633781631152021800,4.530021728515625,0.1440189629793167,0.010991280898451805,0.24990509450435638
1633781631171901000,4.54990087890625,0.24374429881572723,0.08041293919086456,0.19841556251049042
1633781631191779800,4.56977978515625,0.2942883372306824,0.15262408554553986,0.17997506260871887
1633781631211659000,4.589658935546875,0.3201161324977875,0.2409074753522873,0.17697790265083313
1633781631231538000,4.609537841796875,0.3472842872142792,0.35341504216194153,0.1720270812511444
1633781631251416800,4.629416748046875,0.34713292121887207,0.38888484239578247,0.14631012082099915
1633781631271296000,4.6492958984375,0.35699406266212463,0.35678353905677795,0.09457802772521973
1633781631291175000,4.6691748046875,0.39317360520362854,0.33454737067222595,0.060034189373254776
1633781631311054000,4.68905419921875,0.41377267241477966,0.3123522400856018,0.01883552223443985
1633781631330932700,4.7089326171875,0.38166317343711853,0.29111725091934204,-0.03816419094800949
1633781631350812000,4.72881201171875,0.3388451933860779,0.27518928050994873,-0.05345095321536064
1633781631370690800,4.74869091796875,0.31170329451560974,0.2622046172618866,-0.017056552693247795
1633781631390570800,4.76857080078125,0.2712564468383789,0.24604998528957367,0.0257528368383646
1633781631410450000,4.788449951171875,0.2074916809797287,0.2503906190395355,0.03707471117377281
1633781631430328800,4.808328857421875,0.1473279595375061,0.22974669933319092,0.04470144584774971
1633781631450208000,4.8282080078125,0.1252833753824234,0.17937560379505157,0.0814923644065857
1633781631470087000,4.8480869140625,0.13355550169944763,0.15096350014209747,0.1592894196510315
1633781631489965800,4.8679658203125,0.12599492073059082,0.13596880435943604,0.20894969999790192
1633781631509845000,4.887844970703125,0.13679957389831543,0.10410856455564499,0.20456571877002716
1633781631529724000,4.907723876953125,0.16344332695007324,0.08777280151844025,0.1778491884469986
1633781631549603000,4.92760302734375,0.1445368528366089,0.12130405753850937,0.14463447034358978
1633781631569481700,4.947481689453125,0.07970535755157471,0.14862388372421265,0.08787964284420013
1633781631589361000,4.96736083984375,-0.03793662413954735,0.20660972595214844,0.011798235587775707
1633781631609239800,4.98723974609375,-0.1312602311372757,0.19951632618904114,-0.014638088643550873
1633781631629119000,5.007118896484375,-0.17259569466114044,0.09868467599153519,0.035049863159656525
1633781631648998100,5.026998046875,-0.13805051147937775,0.02621552348136902,0.09905147552490234
1633781631668876800,5.046876708984375,-0.04461050033569336,0.00185477826744318,0.09928666055202484
1633781631688756000,5.066755859375,0.06678351014852524,-0.012919986620545387,0.056721337139606476
1633781631708635000,5.086634765625,0.15198974311351776,-0.025068584829568863,-0.008674036711454391
1633781631728514000,5.10651416015625,0.17298167943954468,-0.0644690990447998,-0.06773670762777328
1633781631748394000,5.12639404296875,0.11306238919496536,-0.10831156373023987,-0.09663848578929901
1633781631768273000,5.14627294921875,0.021575365215539932,-0.07041387259960175,-0.07199709117412567
1633781631788152000,5.166152099609375,-0.08639594912528992,0.001935495063662529,-0.0006341947009786963
1633781631808032000,5.186031982421875,-0.16564494371414185,0.02891875058412552,0.08388625830411911
1633781631827911000,5.205910888671875,-0.1878395527601242,-0.017016654834151268,0.13827718794345856
1633781631847790000,5.2257900390625,-0.1770559400320053,-0.0717724934220314,0.13891460001468658
1633781631867669000,5.2456689453125,-0.16535300016403198,-0.08812251687049866,0.10885770618915558
1633781631887548000,5.2655478515625,-0.16635660827159882,-0.044210296124219894,0.10779183357954025
1633781631907426800,5.2854267578125,-0.19283248484134674,0.03192348778247833,0.1443559229373932
1633781631927306000,5.305305908203125,-0.25217553973197937,0.10637184232473373,0.20997704565525055
1633781631947185000,5.325184814453125,-0.2885769009590149,0.16339829564094543,0.2889993190765381
1633781631967063800,5.345063720703125,-0.3057469129562378,0.18138477206230164,0.3497398793697357
1633781631986943000,5.36494287109375,-0.30025574564933777,0.16622765362262726,0.3530246317386627
1633781632006822000,5.38482177734375,-0.2639661431312561,0.11335978657007217,0.32016420364379883
1633781632026701000,5.404701171875,-0.20173096656799316,0.03381441533565521,0.280707448720932
1633781632046579700,5.424579833984375,-0.1129356399178505,-0.10004358738660812,0.22460831701755524
1633781632066459000,5.444458984375,-0.04380663484334946,-0.25711125135421753,0.135411337018013
1633781632086337800,5.464337890625,-0.07325407862663269,-0.32322630286216736,0.014234811998903751
1633781632106217000,5.484217041015625,-0.17276275157928467,-0.31811144948005676,-0.08960394561290741
1633781632126097000,5.504096923828125,-0.22811159491539001,-0.22089089453220367,-0.13252566754817963
1633781632145975800,5.523975830078125,-0.2322348654270172,-0.14463235437870026,-0.12114349007606506
1633781632165855000,5.54385498046875,-0.28875255584716797,-0.09058907628059387,-0.10412219166755676
1633781632185734100,5.563734130859375,-0.38045787811279297,-0.035736504942178726,-0.08450692147016525
1633781632205612800,5.58361279296875,-0.47891944646835327,-0.02277461811900139,-0.017606375738978386
1633781632225492000,5.603491943359375,-0.5548608303070068,-0.07596345990896225,0.050635091960430145
1633781632245371000,5.623370849609375,-0.5885540843009949,-0.16373099386692047,0.10690667480230331
1633781632265250000,5.64325,-0.5438379645347595,-0.17743320763111115,0.09616328030824661
1633781632285128700,5.663128662109375,-0.42494329810142517,-0.1041586846113205,0.038003887981176376
1633781632305007900,5.6830078125,-0.29566237330436707,-0.05388985946774483,-0.016777578741312027
1633781632324887000,5.702886962890625,-0.1797393560409546,-0.03918307274580002,-0.06526637822389603
1633781632344766000,5.722765869140625,-0.12148365378379822,-0.014687921851873398,-0.06772583723068237
1633781632364645000,5.74264501953125,-0.11274103075265884,-0.001545487903058529,-0.015686335042119026
1633781632384523800,5.762523681640625,-0.12010346353054047,-0.009815696626901627,0.05372527986764908
1633781632404403000,5.78240283203125,-0.03666139766573906,-0.08882652968168259,0.05319971591234207
1633781632424281900,5.80228173828125,0.12720230221748352,-0.23942053318023682,-0.13604532182216644
1633781632444161000,5.8221611328125,0.17381103336811066,-0.1563345193862915,-0.45274943113327026
1633781632464039700,5.842039794921875,-0.05073530226945877,0.34749269485473633,-0.7609054446220398
1633781632483920000,5.861919921875,-0.41132569313049316,1.1129447221755981,-0.6731448769569397
1633781632503799000,5.881799072265625,-0.7149651646614075,1.6892681121826172,-0.1285599172115326
1633781632523678000,5.901677978515625,-0.7718107104301453,1.6225377321243286,0.7456310987472534
1633781632543556900,5.921556884765625,-0.5682563781738281,1.0838675498962402,1.510697603225708
1633781632563436000,5.94143603515625,-0.3713369071483612,0.5371379256248474,1.7220845222473145
1633781632583315000,5.96131494140625,-0.2773381769657135,0.17045648396015167,1.3445810079574585
1633781632603194000,5.981194091796875,-0.38265615701675415,0.09027178585529327,0.5397395491600037
1633781632623072800,6.00107275390625,-0.4669713079929352,0.08176239579916,-0.26970887184143066
1633781632642952000,6.020951904296875,-0.28617966175079346,-0.18272769451141357,-0.7533793449401855
1633781632662830800,6.040830810546875,-0.03866355121135712,-0.31743142008781433,-0.9904474020004272
1633781632682710000,6.0607099609375,0.08989543467760086,-0.20641660690307617,-1.069555640220642
1633781632702589000,6.0805888671875,0.1175285130739212,-0.24228641390800476,-1.0415467023849487
1633781632722467800,6.1004677734375,0.11974889039993286,-0.45285993814468384,-0.9322580695152283
1633781632742347000,6.120346923828125,0.16483812034130096,-0.6511275172233582,-0.802071750164032
1633781632762226000,6.140225830078125,0.12813647091388702,-0.8586511611938477,-0.7581909894943237
1633781632782105000,6.16010498046875,-0.055623993277549744,-0.933184802532196,-0.7499350905418396
1633781632801983200,6.179983154296875,-0.39968979358673096,-0.9067948460578918,-0.7382562160491943
1633781632821862100,6.199862060546875,-0.862890362739563,-0.8032422065734863,-0.7061817049980164
1633781632841742300,6.219742431640625,-1.2920321226119995,-0.6831318140029907,-0.5186576247215271
1633781632861621200,6.239621337890625,-1.5425183773040771,-0.6041660308837891,-0.10652469843626022
1633781632881500200,6.259500244140625,-1.557080864906311,-0.7031300663948059,0.380214661359787
1633781632901379000,6.279379150390625,-1.3468729257583618,-0.9168049097061157,0.7100264430046082
1633781632921258200,6.29925830078125,-1.1602028608322144,-1.090163230895996,0.778532087802887
1633781632941137400,6.319137451171875,-1.071543574333191,-1.0691370964050293,0.6889570951461792
1633781632961016000,6.33901611328125,-0.934342086315155,-0.9076216816902161,0.5514534711837769
1633781632980895200,6.358895263671875,-0.6914732456207275,-0.808427631855011,0.3726063370704651
1633781633000774100,6.378774169921875,-0.5533926486968994,-0.7102015614509583,0.2390008568763733
1633781633020653300,6.3986533203125,-0.48616620898246765,-0.5929062962532043,0.1855890154838562
1633781633040532200,6.4185322265625,-0.40926656126976013,-0.6347140669822693,0.23528018593788147
1633781633060411100,6.4384111328125,-0.24847294390201569,-0.819746732711792,0.39862892031669617
1633781633080290300,6.458290283203125,-0.12210608273744583,-0.9462582468986511,0.5067349672317505
1633781633100169200,6.478169189453125,-0.11681273579597473,-0.8578628301620483,0.4488581717014313
1633781633120048400,6.49804833984375,-0.06162669509649277,-0.7004650235176086,0.2791091799736023
1633781633139927000,6.517927001953125,0.05231515318155289,-0.40569186210632324,0.10432391613721848
1633781633159806200,6.53780615234375,0.18344415724277496,-0.09886948019266129,-0.02425992302596569
1633781633179685000,6.55768505859375,0.2629963159561157,0.13617169857025146,-0.07146354019641876
1633781633199564300,6.577564208984375,0.2931356728076935,0.29139161109924316,-0.051775556057691574
1633781633219444200,6.5974443359375,0.27795422077178955,0.4134587049484253,0.006436906289309263
1633781633239323100,6.6173232421875,0.24436965584754944,0.490640252828598,0.03918137028813362
1633781633259202300,6.637202392578125,0.22654034197330475,0.43821120262145996,0.056119050830602646
1633781633279081200,6.657081298828125,0.289504736661911,0.315996378660202,0.09144069999456406
1633781633298960100,6.676960205078125,0.3992553949356079,0.22622044384479523,0.12745247781276703
1633781633318839300,6.69683935546875,0.4916112422943115,0.1970842331647873,0.1224217638373375
1633781633338718200,6.71671826171875,0.5664752125740051,0.1883869171142578,0.060479968786239624
1633781633358597400,6.736597412109375,0.6501232385635376,0.2216699719429016,0.00017424317775294185
1633781633378476000,6.75647607421875,0.7177521586418152,0.28391268849372864,-0.03502555564045906
1633781633398355200,6.776355224609375,0.7329016923904419,0.3373871147632599,-0.07803964614868164
1633781633418234000,6.796234130859375,0.6989297270774841,0.40859469771385193,-0.11259891092777252
1633781633438113300,6.81611328125,0.6527239084243774,0.4465303122997284,-0.11209569871425629
1633781633457992200,6.8359921875,0.6161617636680603,0.4527618885040283,-0.07587935030460358
1633781633477871000,6.85587109375,0.5816798806190491,0.4390223026275635,0.0007232871721498668
1633781633497750300,6.875750244140625,0.5260859131813049,0.4643314778804779,0.05381686985492706
1633781633517629200,6.895629150390625,0.4362378418445587,0.514563262462616,0.05584404245018959
1633781633537508400,6.91550830078125,0.33588922023773193,0.5553310513496399,0.030340425670146942
1633781633557388300,6.93538818359375,0.21277551352977753,0.6027646064758301,-0.024103593081235886
1633781633577267200,6.95526708984375,0.09414838999509811,0.6289178133010864,-0.07649027556180954
1633781633597146400,6.975146484375,0.02760942094027996,0.6835233569145203,-0.09863261878490448
1633781633617025000,6.99502490234375,0.0339394137263298,0.7803170680999756,-0.061702318489551544
1633781633636904200,7.014904296875,0.0923936516046524,0.8226518630981445,-0.03942282125353813
1633781633656783000,7.034783203125,0.17773568630218506,0.790473222732544,-0.06851248443126678
1633781633676662300,7.054662353515625,0.23894831538200378,0.7129955887794495,-0.1483537256717682
1633781633696541200,7.074541259765625,0.25088560581207275,0.6179027557373047,-0.2878854274749756
1633781633716420000,7.094420166015625,0.249325692653656,0.4654880464076996,-0.4319635033607483
1633781633736299300,7.11429931640625,0.2847735583782196,0.3167315721511841,-0.504170298576355
1633781633756178200,7.13417822265625,0.3491896986961365,0.18047884106636047,-0.4782388210296631
1633781633776057300,7.154057373046875,0.40897494554519653,0.05390101298689842,-0.3736071288585663
1633781633795936800,7.173936767578125,0.4399619996547699,-0.03224868327379227,-0.2361927181482315
1633781633815815700,7.193815673828125,0.4460330307483673,-0.04725455492734909,-0.06416581571102142
1633781633835694800,7.21369482421875,0.4400765597820282,0.04486402869224548,0.09617795795202255
1633781633855573800,7.23357373046875,0.4897363483905792,0.1971144676208496,0.15193413197994232
1633781633875452700,7.25345263671875,0.5648807883262634,0.19258509576320648,0.07832184433937073
1633781633895331600,7.27333154296875,0.6895477175712585,0.22859542071819305,0.044555217027664185
1633781633915210800,7.293210693359375,0.8295845985412598,0.3017119765281677,0.0351131446659565
1633781633935090700,7.313090576171875,0.855764627456665,0.28532490134239197,0.04397859424352646
1633781633954969600,7.332969482421875,0.7973729372024536,0.250069260597229,-0.011748946271836758
1633781633974848800,7.352848876953125,0.6873235702514648,0.27851173281669617,-0.11262203752994537
1633781633994727700,7.372727783203125,0.48718199133872986,0.2913031280040741,-0.18895919620990753
1633781634014606600,7.392606689453125,0.24555820226669312,0.2930063307285309,-0.20106887817382812
1633781634034485800,7.41248583984375,0.05618475750088692,0.26221346855163574,-0.1305384486913681
1633781634054364700,7.43236474609375,-0.058050524443387985,0.135511577129364,-0.009011797606945038
1633781634074243800,7.452243896484375,-0.06545120477676392,0.06389907002449036,0.07335393130779266
1633781634094122800,7.472122802734375,0.02220226638019085,0.025193285197019577,0.08255802094936371
1633781634114001700,7.492001708984375,0.1569311022758484,0.03178228810429573,0.05246688798069954
1633781634133880600,7.511880615234375,0.27812832593917847,0.13160958886146545,-0.0007811094401404262
1633781634153759700,7.531759765625,0.3275880515575409,0.24296100437641144,-0.0448300801217556
1633781634173639000,7.551638916015625,0.2859565317630768,0.282411128282547,-0.05915658175945282
1633781634193517600,7.571517578125,0.17292308807373047,0.35395216941833496,-0.08762907236814499
1633781634213396700,7.591396728515625,0.03670058026909828,0.36057573556900024,-0.12001542747020721
1633781634233275600,7.611275634765625,-0.11755485832691193,0.31782445311546326,-0.11658313870429993
1633781634253154800,7.63115478515625,-0.24474821984767914,0.2800776958465576,-0.09379609674215317
1633781634273033700,7.65103369140625,-0.28957030177116394,0.24149319529533386,-0.09926300495862961
1633781634292913700,7.67091357421875,-0.2602233290672302,0.10865525901317596,-0.08976510912179947
1633781634312792800,7.690792724609375,-0.2013220340013504,-0.09463053941726685,-0.04056929051876068
1633781634332671700,7.710671630859375,-0.15669170022010803,-0.3220251500606537,0.04436806961894035
1633781634352550700,7.730550537109375,-0.09015873819589615,-0.49455201625823975,0.11754569411277771
1633781634372429600,7.7504296875,0.03789261355996132,-0.4577140510082245,0.1219218373298645
1633781634392308700,7.770308837890625,0.20254050195217133,-0.20776917040348053,0.03836876526474953
1633781634412188000,7.79018798828125,0.3411809206008911,0.15042342245578766,-0.11452287435531616
1633781634432066600,7.810066650390625,0.44189563393592834,0.3261989653110504,-0.20178870856761932
1633781634451945700,7.82994580078125,0.46290162205696106,0.29577961564064026,-0.1837877482175827
1633781634471824600,7.84982470703125,0.41297903656959534,0.28622710704803467,-0.1219891682267189
1633781634491703800,7.869703857421875,0.2973143756389618,0.294829398393631,-0.01402411051094532
1633781634511582700,7.889582763671875,0.16823528707027435,0.24942557513713837,0.1075628250837326
1633781634531461600,7.909461669921875,0.06416378170251846,0.13760365545749664,0.1949235051870346
1633781634551340800,7.9293408203125,0.0055368985049426556,0.01937994733452797,0.2270377278327942
1633781634571219700,7.9492197265625,0.025573167949914932,-0.08729474991559982,0.20475229620933533
1633781634591099000,7.969098876953125,0.09353157877922058,-0.1260499656200409,0.14990468323230743
1633781634610977500,7.9889775390625,0.15571759641170502,-0.08202210068702698,0.10044637322425842
1633781634630856700,8.008856689453125,0.18382377922534943,-0.0363837406039238,0.07152928411960602
1633781634650737000,8.02873681640625,0.1563706398010254,-0.037175849080085754,0.05889701843261719
1633781634670615600,8.048615478515625,0.09312710165977478,-0.06479447335004807,0.021706819534301758
1633781634690494700,8.06849462890625,-0.00009499932639300823,-0.04213295131921768,-0.017241619527339935
1633781634710373600,8.08837353515625,-0.1480119228363037,0.04972262308001518,-0.0013225985458120704
1633781634730252800,8.108252685546875,-0.3061564862728119,0.1881752759218216,0.06164573132991791
1633781634750131700,8.128131591796874,-0.4047411382198334,0.2446051687002182,0.11209433525800705
1633781634770010600,8.1480107421875,-0.41038504242897034,0.20728205144405365,0.13681448996067047
1633781634789889800,8.167889892578126,-0.36708590388298035,0.15588197112083435,0.17779825627803802
1633781634809768200,8.187768310546875,-0.29847389459609985,0.11925896257162094,0.23309418559074402
1633781634829647400,8.2076474609375,-0.18745119869709015,0.08595696836709976,0.28510019183158875
1633781634849526300,8.2275263671875,-0.03938240930438042,0.06746089458465576,0.3059452772140503
1633781634869405200,8.2474052734375,0.1010204553604126,0.09265965223312378,0.2916654348373413
1633781634889284000,8.2672841796875,0.21711263060569763,0.11977071315050125,0.27248308062553406
1633781634909163300,8.287163330078124,0.3093883991241455,0.12017036229372025,0.26660963892936707
1633781634929042200,8.307042236328124,0.36362385749816895,0.07463180273771286,0.24864530563354492
1633781634948921000,8.326921142578126,0.36201977729797363,0.07826284319162369,0.20995739102363586
1633781634968800300,8.34680029296875,0.31486913561820984,0.1142696738243103,0.12179538607597351
1633781634988680200,8.36668017578125,0.23075416684150696,0.14971889555454254,0.00493336096405983
1633781635008559000,8.38655908203125,0.1362382173538208,0.10682724416255951,-0.09651070833206177
1633781635028438300,8.406438232421875,0.06473260372877121,0.028588782995939255,-0.1280031055212021
1633781635048317200,8.426317138671875,0.08793999999761581,0.01667436584830284,-0.06775425374507904
1633781635068196400,8.4461962890625,0.17824319005012512,0.046867236495018005,0.0062087466940283775
1633781635088075300,8.4660751953125,0.27004122734069824,0.06905671954154968,0.02545165829360485
1633781635107954200,8.4859541015625,0.3372589349746704,0.07230217009782791,0.004810879938304424
1633781635127833000,8.5058330078125,0.33172065019607544,0.0718306452035904,-0.012861616909503937
1633781635147712300,8.525712158203126,0.24566848576068878,0.08637668937444687,-0.011212440207600594
1633781635167591200,8.545591064453125,0.1159985363483429,0.12186022847890854,-0.006597040221095085
1633781635187470000,8.565469970703125,-0.01428137719631195,0.14619340002536774,-0.010562703013420105
1633781635207349200,8.585349365234375,-0.11874701082706451,0.13502103090286255,-0.028377603739500046
1633781635227228200,8.605228271484375,-0.18180015683174133,0.11486861854791641,-0.06376798450946808
1633781635247107300,8.625107421875,-0.18738313019275665,0.09096172451972961,-0.09920492768287659
1633781635266986200,8.644986328125,-0.15938715636730194,0.07284020632505417,-0.10111206769943237
1633781635286865200,8.664865234375,-0.11387820541858673,0.04542255401611328,-0.08403343707323074
1633781635306744000,8.684744140625,-0.04649994522333145,0.014943388290703297,-0.05995863303542137
1633781635326623200,8.704623291015626,0.04378170892596245,0.0019811680540442467,-0.03502204269170761
1633781635346503200,8.724503173828126,0.11531835794448853,0.0004996005445718765,-0.03350905701518059
1633781635366382000,8.744382080078125,0.17122185230255127,0.006344023160636425,-0.024403998628258705
1633781635386261200,8.76426123046875,0.19404271245002747,-0.03339562565088272,0.022171808406710625
1633781635406140400,8.784140380859375,0.1711919605731964,-0.08068874478340149,0.0987522304058075
1633781635426019000,8.80401904296875,0.13449838757514954,-0.09622114896774292,0.180428609251976
1633781635445898200,8.823898193359375,0.10069062560796738,-0.12424319982528687,0.23858805000782013
1633781635465777200,8.843777099609374,0.0678468868136406,-0.12141866236925125,0.23884497582912445
1633781635485656300,8.86365625,0.015366457402706146,-0.07812543213367462,0.1876683384180069
1633781635505535200,8.88353515625,-0.048722442239522934,-0.0011470559984445572,0.13076592981815338
1633781635525414100,8.9034140625,-0.12837426364421844,0.06440623104572296,0.08637510240077972
1633781635545293000,8.92329296875,-0.1977662742137909,0.06088578701019287,0.07945337891578674
1633781635565172200,8.943172119140625,-0.22899839282035828,-0.01660427451133728,0.09881266951560974
1633781635585051400,8.963051513671875,-0.22543220221996307,-0.08045755326747894,0.08796259760856628
1633781635604930000,8.982929931640625,-0.18713542819023132,-0.051509443670511246,0.008889530785381794
1633781635624809200,9.002809326171874,-0.15159042179584503,-0.013443692587316036,-0.07069738954305649
1633781635644688100,9.022688232421874,-0.08397644758224487,0.03728294000029564,-0.14401082694530487
1633781635664567300,9.0425673828125,-0.021398551762104034,0.10999468713998795,-0.19045528769493103
1633781635684446200,9.0624462890625,0.005187331233173609,0.14468532800674438,-0.21821166574954987
1633781635704326100,9.082326171875,-0.00016681081615388393,0.09626076370477676,-0.180496484041214
1633781635724205300,9.102205322265625,-0.0035183988511562347,-0.0006229104474186897,-0.09236501157283783
1633781635744084200,9.122084228515625,-0.00028318515978753567,-0.039877310395240784,-0.0035074609331786633
1633781635763963100,9.141963134765625,0.001303981407545507,-0.03947095200419426,0.033658407628536224
1633781635783842300,9.16184228515625,-0.003680650843307376,-0.020393602550029755,0.025295136496424675
1633781635803721200,9.18172119140625,-0.006116923876106739,0.03109397366642952,0.003943535033613443
1633781635823600000,9.20160009765625,-0.004452754743397236,0.06696414947509766,-0.002546813804656267
1633781635843479000,9.22147900390625,-0.009976117871701717,0.0771290510892868,0.010614367201924324
1633781635863358000,9.24135791015625,-0.032042134553194046,0.06674235314130783,0.04451819881796837
1633781635883236900,9.26123681640625,-0.04698476940393448,0.052150312811136246,0.06819020956754684
1633781635903116000,9.281115966796875,-0.04209516569972038,0.08852902799844742,0.07366429269313812
1633781635922995000,9.300994873046875,-0.021429868414998055,0.13440528512001038,0.07963605970144272
1633781635942873900,9.320873779296875,-0.0034531306009739637,0.15206754207611084,0.09660165756940842
1633781635962753000,9.3407529296875,0.012231132946908474,0.12250978499650955,0.1230006292462349
1633781635982632000,9.3606318359375,0.025356780737638474,0.08790593594312668,0.1286781132221222
1633781636002511000,9.380510986328124,0.03866219148039818,0.061089448630809784,0.10406345874071121
1633781636022390000,9.40039013671875,0.053021304309368134,0.04025601968169212,0.06577896326780319
1633781636042270000,9.42027001953125,0.07935404777526855,0.006986949592828751,0.019460801035165787
1633781636062149000,9.440149169921876,0.10799477994441986,-0.024450758472085,-0.0008625970804132521
1633781636082028000,9.460028076171875,0.14338795840740204,-0.03913348913192749,0.010712486691772938
1633781636101907000,9.479906982421875,0.14843539893627167,-0.053411681205034256,0.00856288056820631
1633781636121785900,9.499785888671875,0.10299712419509888,-0.04577014967799187,-0.030860375612974167
1633781636141665000,9.5196650390625,0.03639274463057518,-0.013601887971162796,-0.06567901372909546
1633781636161544000,9.5395439453125,-0.05138568952679634,0.04409996420145035,-0.06155264750123024
1633781636181422800,9.5594228515625,-0.14943665266036987,0.09660609066486359,-0.06089480221271515
1633781636201302000,9.579302001953126,-0.22314132750034332,0.13239334523677826,-0.06989669799804688
1633781636221181000,9.599180908203126,-0.2755645513534546,0.10783837735652924,-0.05893902853131294
1633781636241060000,9.61906005859375,-0.31185221672058105,0.09401392191648483,-0.032637305557727814
1633781636260939000,9.63893896484375,-0.3087577819824219,0.11616723984479904,-0.009971469640731812
1633781636280818000,9.65881787109375,-0.2759019434452057,0.1290121078491211,0.014676679857075214
1633781636300696800,9.67869677734375,-0.21819987893104553,0.1128346398472786,0.04563212767243385
1633781636320576000,9.698575927734375,-0.14461778104305267,0.07230862230062485,0.08298580348491669
1633781636340455200,9.718455078125,-0.0832996666431427,0.04724154248833656,0.09790383279323578
1633781636360334800,9.7383349609375,-0.05404003709554672,0.05907908082008362,0.08219609409570694
1633781636380214000,9.758214111328124,-0.04543151333928108,0.08442229777574539,0.05467653647065163
1633781636400093200,9.77809326171875,-0.03009520284831524,0.06336826086044312,0.015223830938339233
1633781636419971800,9.797971923828126,0.015114990994334221,0.0009497562423348427,-0.0039020644035190344
1633781636439851000,9.81785107421875,0.0658106878399849,-0.06321168690919876,-0.009599952027201653
1633781636459730000,9.83772998046875,0.09793240576982498,-0.11462561041116714,-0.028994688764214516
1633781636479609000,9.857609130859375,0.10250832140445709,-0.1588098108768463,-0.060112785547971725
1633781636499488000,9.877488037109375,0.08522000908851624,-0.1790316253900528,-0.08520341664552689
1633781636519367000,9.897366943359375,0.04237924516201019,-0.1654491275548935,-0.10696209222078323
1633781636539245800,9.917245849609374,0.004713619593530893,-0.14539557695388794,-0.13541728258132935
1633781636559125000,9.937125,0.01385814044624567,-0.16045178472995758,-0.13621123135089874
1633781636579004200,9.957004150390626,0.05893774703145027,-0.1943918615579605,-0.11010919511318207
1633781636598882800,9.9768828125,0.0957033708691597,-0.22396039962768555,-0.08426863700151443
1633781636618762000,9.996761962890625,0.11342653632164001,-0.21305586397647858,-0.053113680332899094
1633781636638641000,10.016640869140625,0.10416430979967117,-0.17307648062705994,-0.024709148332476616
1633781636658520000,10.03652001953125,0.044010765850543976,-0.12411108613014221,0.0010881172493100166
1633781636678398700,10.056398681640625,-0.08831031620502472,-0.10467007756233215,0.020855765789747238
1633781636698278000,10.07627783203125,-0.14036041498184204,-0.13812994956970215,0.03423408791422844
1633781636718158000,10.096157958984374,-0.08186991512775421,-0.20298761129379272,0.07671612501144409
1633781636738037000,10.116037109375,-0.03982885554432869,-0.2567340135574341,0.09621145576238632
1633781636757916000,10.135916015625,-0.007011912763118744,-0.1719699203968048,0.0760100930929184
1633781636777795000,10.155795166015626,0.006395794451236725,-0.060106728225946426,0.03544868528842926
1633781636797674000,10.175674072265625,0.028598785400390625,0.03977185860276222,-0.03250952437520027
1633781636817553700,10.1955537109375,0.06338866055011749,0.0943281278014183,-0.06146731227636337
1633781636837432800,10.215432861328125,0.10489636659622192,0.05739474669098854,-0.038436878472566605
1633781636857311700,10.235311767578125,0.13804218173027039,0.011222505941987038,0.021280204877257347
1633781636877191000,10.25519091796875,0.13908807933330536,0.0019747158512473106,0.04913967475295067
1633781636897069600,10.275069580078124,0.10977893322706223,0.03170884773135185,0.032869771122932434
1633781636916948700,10.29494873046875,0.0696057602763176,0.05514364317059517,0.011286857537925243
1633781636936828000,10.314827880859376,0.03743867203593254,0.06465310603380203,0.0069154296070337296
1633781636956706800,10.334706787109376,0.018920063972473145,0.06193288043141365,0.011580025777220726
1633781636976586000,10.3545859375,-0.007127521559596062,0.050442613661289215,0.017369884997606277
1633781636996464600,10.374464599609375,-0.017609860748052597,0.04030779004096985,0.021970568224787712
1633781637016343800,10.39434375,-0.02116204984486103,0.03956085443496704,0.02129022777080536
1633781637036222700,10.41422265625,-0.05338875204324722,0.07198977470397949,0.005811352748423815
1633781637056102700,10.4341025390625,-0.11395356804132462,0.06994280964136124,-0.018153220415115356
1633781637075981800,10.45398193359375,-0.13319064676761627,-0.002344702370464802,-0.014637582004070282
1633781637095860700,10.47386083984375,-0.10786731541156769,-0.09966416656970978,0.013119140639901161
1633781637115740000,10.493739990234374,-0.06236354261636734,-0.1474369317293167,0.034553155303001404
1633781637135618600,10.51361865234375,-0.03439895808696747,-0.20521168410778046,0.040166351944208145
1633781637155497700,10.533497802734376,-0.02461370825767517,-0.1715213656425476,0.022890690714120865
1633781637175377000,10.553376953125,-0.01996123045682907,-0.08314429223537445,-0.002372757066041231
1633781637195255800,10.573255859375,0.011650238186120987,-0.0041968934237957,-0.011804901994764805
1633781637215135000,10.593135009765625,0.04989174008369446,0.0666806697845459,-0.005342495162039995
1633781637235013600,10.613013671875,0.0921570360660553,0.11300459504127502,0.013369746506214142
1633781637254892800,10.632892822265624,0.11910348385572433,0.11410855501890182,0.037459567189216614
1633781637274771700,10.652771728515624,0.10524562746286392,0.10170739889144897,0.04614027962088585
1633781637294651000,10.67265087890625,0.06670861691236496,0.09241669625043869,0.04283210262656212
1633781637314529800,10.69252978515625,0.028794042766094208,0.08617058396339417,0.03405718132853508
1633781637334408700,10.71240869140625,0.0011147602926939726,0.07120879739522934,0.03525025397539139
1633781637354287900,10.732287841796875,0.004543337505310774,0.029798418283462524,0.054971855133771896
1633781637374167800,10.752167724609375,0.04409629851579666,0.027854017913341522,0.07809814065694809
1633781637394046700,10.772046630859375,0.07998447865247726,0.051293760538101196,0.08632791042327881
1633781637413926000,10.79192578125,0.08038460463285446,0.061144836246967316,0.06694245338439941
1633781637433804800,10.8118046875,0.04933236911892891,0.028738420456647873,0.05390407145023346
1633781637453684000,10.83168408203125,0.010745236650109291,-0.022724095731973648,0.06116779148578644
1633781637473562600,10.851562744140624,-0.003834646428003907,-0.03972993791103363,0.07464040815830231
1633781637493441800,10.87144189453125,0.0031369172502309084,-0.06937716901302338,0.06660667061805725
1633781637513320700,10.89132080078125,0.010493485257029533,-0.08049268275499344,0.04585861414670944
1633781637533200000,10.911199951171875,0.01059117540717125,-0.06984776258468628,0.03282475844025612
1633781637553078800,10.931078857421875,0.004117409698665142,-0.07548628747463226,0.017605042085051537
1633781637572957700,10.950957763671875,-0.013741405680775642,-0.08018434047698975,0.022528836503624916
1633781637592836900,10.9708369140625,-0.027332250028848648,-0.11278657615184784,0.04663807153701782
1633781637612715800,10.9907158203125,-0.018329188227653503,-0.17633774876594543,0.07323550432920456
1633781637632595000,11.010594970703124,-0.0329897440969944,-0.17761799693107605,0.07158917933702469
1633781637652473600,11.0304736328125,-0.11075229942798615,-0.11470478773117065,0.02868768572807312
1633781637672352800,11.050352783203126,-0.20794115960597992,-0.07154307514429092,-0.02133476361632347
1633781637692232000,11.07023193359375,-0.2850330173969269,-0.040676362812519073,-0.027802221477031708
1633781637712111600,11.090111572265625,-0.3047836720943451,-0.013070721179246902,0.00514496024698019
1633781637731990800,11.10999072265625,-0.28179875016212463,0.006100240163505077,0.024644961580634117
1633781637751869700,11.12986962890625,-0.23598890006542206,0.01776047796010971,0.022977793589234352
1633781637771748900,11.149748779296875,-0.17518916726112366,0.031985700130462646,0.021506357938051224
1633781637791627800,11.169627685546875,-0.11515455693006516,0.02762320265173912,0.02690093033015728
1633781637811506700,11.189506591796874,-0.07389901578426361,0.02810804918408394,0.045514315366744995
1633781637831386000,11.20938623046875,-0.04687502235174179,0.029420331120491028,0.04867134988307953
1633781637851265300,11.229265380859376,-0.011723821051418781,0.027016453444957733,0.04470210149884224
1633781637871144000,11.24914404296875,0.042567603290081024,-0.02436472475528717,0.03423074632883072
1633781637891023000,11.269023193359375,0.1025698110461235,-0.06515918672084808,0.031914666295051575
1633781637910902000,11.288902099609375,0.13230378925800323,-0.06673464179039001,0.03672639653086662
1633781637930781200,11.30878125,0.15168944001197815,-0.09152649343013763,0.05366893485188484
1633781637950660000,11.32866015625,0.14768068492412567,-0.1338369995355606,0.061232294887304306
1633781637970539000,11.3485390625,0.101163849234581,-0.1424790918827057,0.022421032190322876
1633781637990418200,11.368418212890624,-0.027477843686938286,-0.16166052222251892,-0.09685225784778595
1633781638010297000,11.388297119140624,-0.17223922908306122,-0.14656227827072144,-0.22780993580818176
1633781638030176300,11.40817626953125,-0.27070683240890503,-0.09606847912073135,-0.24664850533008575
1633781638050055000,11.428054931640625,-0.30519577860832214,0.004696243442595005,-0.1938953846693039
1633781638069935000,11.44793505859375,-0.29396191239356995,0.09853564202785492,-0.10574758797883987
1633781638089814300,11.467814208984375,-0.23758912086486816,0.10250527411699295,0.010467602871358395
1633781638109693000,11.48769287109375,-0.14084210991859436,0.10194632411003113,0.09714261442422867
1633781638129572000,11.507572021484375,-0.04652419686317444,0.13269886374473572,0.16422350704669952
1633781638149451000,11.527450927734375,0.026329418644309044,0.17700126767158508,0.18902313709259033
1633781638169330200,11.547330078125,0.06195153668522835,0.22554603219032288,0.1828376203775406
1633781638189209000,11.567208984375,0.06038578599691391,0.2490614503622055,0.16953019797801971
1633781638209088000,11.587087890625,0.01902032271027565,0.215861514210701,0.15419572591781616
1633781638228967200,11.60696728515625,0.012781886383891106,0.1499393880367279,0.13586926460266113
1633781638248846000,11.62684619140625,0.05409944802522659,0.08041078597307205,0.08475011587142944
1633781638268725200,11.646725341796875,0.11136610060930252,0.022997405380010605,-0.00918236281722784
1633781638288604000,11.66660400390625,0.1652916520833969,-0.011569625698029995,-0.09255821257829666
1633781638308483000,11.686483154296875,0.2090173065662384,-0.06005214899778366,-0.12543588876724243
1633781638328362000,11.706362060546875,0.22931501269340515,-0.12116116285324097,-0.11528591066598892
1633781638348241200,11.7262412109375,0.21106110513210297,-0.14446936547756195,-0.11141036450862885
1633781638368120300,11.746120361328124,0.15579764544963837,-0.13101977109909058,-0.11670693755149841
1633781638387999000,11.7659990234375,0.09707322716712952,-0.09140744805335999,-0.12394721806049347
1633781638407879200,11.785879150390626,0.061343155801296234,-0.0715189203619957,-0.13928060233592987
1633781638427758000,11.805758056640625,0.04342272877693176,-0.04316995292901993,-0.13842354714870453
1633781638447637000,11.825636962890625,0.02441927045583725,-0.017622919753193855,-0.11660876125097275
1633781638467516200,11.84551611328125,0.012229818850755692,0.010794080793857574,-0.09716758877038956
1633781638487395000,11.86539501953125,0.008307619951665401,-0.0031426427885890007,-0.08639311790466309
1633781638507274200,11.885274169921875,0.018182411789894104,-0.034597110003232956,-0.08045581728219986
1633781638527153000,11.90515283203125,0.013499840162694454,-0.04638753831386566,-0.07797783613204956
1633781638547032000,11.925031982421874,-0.000888217706233263,-0.03400828316807747,-0.07438726723194122
1633781638566911000,11.944910888671876,0.006135215051472187,-0.05454955995082855,-0.059777919203042984
1633781638586790100,11.9647900390625,0.05109797418117523,-0.10039743781089783,-0.03419651463627815
1633781638606669300,11.98466943359375,0.09523480385541916,-0.1272682547569275,-0.0066419742070138454
1633781638626548000,12.0045478515625,0.1049032211303711,-0.10978244245052338,0.005480344872921705
1633781638646427100,12.02442724609375,0.07467019557952881,-0.08193793147802353,0.006383596453815699
1633781638666306000,12.04430615234375,0.01442746352404356,-0.040063709020614624,0.007897689007222652
1633781638686185200,12.064185302734375,-0.05725419521331787,-0.016693059355020523,0.011515770107507706
1633781638706064000,12.08406396484375,-0.1190229132771492,0.002444346435368061,0.015668151900172234
1633781638725944000,12.103944091796874,-0.14959225058555603,0.008060059510171413,0.0011913010384887457
1633781638745823200,12.1238232421875,-0.14394405484199524,-0.0179954431951046,-0.030296023935079575
1633781638765702000,12.143701904296876,-0.10723596066236496,-0.06382657587528229,-0.05717566981911659
1633781638785581000,12.1635810546875,-0.05274081230163574,-0.096687451004982,-0.06666775792837143
1633781638805460000,12.1834599609375,-0.018983647227287292,-0.13435015082359314,-0.06605949252843857
1633781638825342500,12.203342529296876,-0.0029519014060497284,-0.15993718802928925,-0.0449494868516922
1633781638845221600,12.2232216796875,0.0560210719704628,-0.13938656449317932,-0.017406178638339043
1633781638865100300,12.243100341796875,0.1388421654701233,-0.06742512434720993,0.007245929446071386
1633781638884979500,12.2629794921875,0.2003849446773529,-0.026755589991807938,0.012399992905557156
1633781638904858400,12.2828583984375,0.22863613069057465,-0.011728453449904919,0.019114449620246887
1633781638924737500,12.302737548828125,0.22946085035800934,-0.023754676803946495,0.03797931224107742
1633781638944616400,12.322616455078125,0.1904706507921219,-0.044403187930583954,0.036053456366062164
1633781638964495400,12.342495361328124,0.15241794288158417,-0.0715777724981308,0.023726703599095345
1633781638984374500,12.36237451171875,0.12195488810539246,-0.07480519264936447,0.008141815662384033
1633781639004253400,12.38225341796875,0.08433814346790314,-0.04255441576242447,-0.000659472425468266
1633781639024132600,12.402132568359375,0.028653385117650032,-0.004829373210668564,-0.01092688087373972
1633781639044011300,12.42201123046875,-0.059675030410289764,0.024195343255996704,-0.018728511407971382
1633781639063890400,12.441890380859375,-0.13743947446346283,0.013388286344707012,-0.02654067613184452
1633781639083770600,12.4617705078125,-0.17034302651882172,0.008408681489527225,-0.01187968347221613
1633781639103649300,12.481649169921875,-0.14400392770767212,0.008521994575858116,0.006725032813847065
1633781639123528400,12.501528564453125,-0.08846636861562729,0.028097089380025864,0.019144004210829735
1633781639143407400,12.521407470703124,-0.03916768729686737,0.04518033564090729,0.03453134372830391
1633781639163286500,12.54128662109375,-0.007687169127166271,0.0655166506767273,0.0629039779305458
1633781639183165400,12.56116552734375,0.003698422573506832,0.07091914862394333,0.086189404129982
1633781639203044400,12.58104443359375,-0.0008319267071783543,0.09378930926322937,0.10298668593168259
1633781639222923500,12.600923583984375,0.01799633726477623,0.12209639698266983,0.11347545683383942
1633781639242802400,12.620802490234375,0.03819410875439644,0.14716888964176178,0.10667118430137634
1633781639262681600,12.640681640625,0.03839394822716713,0.16766123473644257,0.09338214248418808
1633781639282560300,12.660560302734375,0.04164442792534828,0.1463526487350464,0.07407913357019424
1633781639302439400,12.680439453125,0.06309539824724197,0.09172195196151733,0.0575423538684845
1633781639322318600,12.700318603515624,0.09688463062047958,0.06730175018310547,0.04932994768023491
1633781639342197500,12.720197509765624,0.13541196286678314,0.06426571309566498,0.028503619134426117
1633781639362076400,12.740076416015626,0.16719502210617065,0.06585651636123657,-0.0008715835865586996
1633781639381955300,12.759955322265625,0.16211743652820587,0.06945072114467621,-0.029097629711031914
1633781639401834500,12.77983447265625,0.1342722326517105,0.056919392198324203,-0.04011450335383415
1633781639421714400,12.79971435546875,0.1099199429154396,0.021243855357170105,-0.046371061354875565
1633781639441593300,12.81959326171875,0.09921866655349731,0.009691205807030201,-0.06508416682481766
1633781639461472500,12.839472412109375,0.09109359234571457,0.016461268067359924,-0.08740860223770142
1633781639481351400,12.859351318359375,0.0964963510632515,0.012774921022355556,-0.09124728292226791
1633781639501230600,12.879230712890624,0.10207590460777283,0.020367629826068878,-0.08499200642108917
1633781639521109200,12.899109130859374,0.10287994146347046,0.04545610770583153,-0.06758681684732437
1633781639540988400,12.918988525390626,0.11526691913604736,0.04831191524863243,-0.04443489760160446
1633781639560867600,12.93886767578125,0.15240392088890076,0.009180331602692604,-0.03374604880809784
1633781639580746500,12.95874658203125,0.17507222294807434,-0.012496467679738998,-0.03548775613307953
1633781639600625400,12.97862548828125,0.16354435682296753,0.003566982224583626,-0.02785485051572323
1633781639620504300,12.99850439453125,0.14399807155132294,0.011624054051935673,-0.004811969585716724
1633781639640383500,13.018383544921875,0.11716345697641373,0.0003221537917852402,0.009201561100780964
1633781639660262400,13.038262451171875,0.0936410054564476,-0.017279239371418953,0.007894868962466717
1633781639680141600,13.0581416015625,0.06484642624855042,-0.02785504423081875,-0.003755356417968869
1633781639700020500,13.0780205078125,0.04486662149429321,-0.04627038165926933,-0.015528286807239056
1633781639719899400,13.0978994140625,0.028121594339609146,-0.08232735097408295,-0.02887331321835518
1633781639739778600,13.117778564453126,0.0016971288714557886,-0.10972309112548828,-0.047267429530620575
1633781639759658500,13.137658447265625,-0.024270974099636078,-0.12362399697303772,-0.06564287841320038
1633781639779537400,13.157537353515625,-0.05743075907230377,-0.11989235877990723,-0.07257155328989029
1633781639799416600,13.17741650390625,-0.08313386887311935,-0.12844718992710114,-0.06971056759357452
1633781639819295500,13.19729541015625,-0.11567381769418716,-0.12285032868385315,-0.06945805251598358
1633781639839174100,13.217174072265625,-0.15556104481220245,-0.1301194280385971,-0.07145808637142181
1633781639859053300,13.23705322265625,-0.18653243780136108,-0.12370799481868744,-0.06609009951353073
1633781639878932200,13.25693212890625,-0.18641020357608795,-0.09971584379673004,-0.060758449137210846
1633781639898811400,13.276811279296876,-0.16327258944511414,-0.058859992772340775,-0.033602312207221985
1633781639918690300,13.296690185546876,-0.1408209204673767,-0.024336885660886765,0.007028899155557156
1633781639938569200,13.3165693359375,-0.12825451791286469,0.0017155986279249191,0.03888295218348503
1633781639958448400,13.336448486328125,-0.11945043504238129,0.016566812992095947,0.06253670156002045
1633781639978327300,13.356327392578125,-0.1033850610256195,0.04211008921265602,0.09178600460290909
1633781639998206500,13.37620654296875,-0.091244176030159,0.06508157402276993,0.10230500996112823
1633781640018085000,13.396085205078125,-0.09655680507421494,0.0728299617767334,0.08294807374477386
1633781640037964300,13.41596435546875,-0.10009829699993134,0.060681045055389404,0.05461685732007027
1633781640057843200,13.43584326171875,-0.0890050083398819,0.012268779799342155,0.024030886590480804
1633781640077722400,13.455722412109376,-0.062424492090940475,-0.045984119176864624,-0.018964441493153572
1633781640097602300,13.475602294921876,-0.03168553113937378,-0.082337886095047,-0.057627491652965546
1633781640117481200,13.495481201171875,0.007902868092060089,-0.1044851690530777,-0.08623392879962921
1633781640137360400,13.5153603515625,0.047733791172504425,-0.12644319236278534,-0.0751614049077034
1633781640157239300,13.5352392578125,0.07214759290218353,-0.13707268238067627,-0.05040649697184563
1633781640177118200,13.5551181640625,0.05906481668353081,-0.11147278547286987,-0.04694172739982605
1633781640196997400,13.574997314453125,0.02002706192433834,-0.07810495793819427,-0.05968151241540909
1633781640216876300,13.594876220703124,-0.031722620129585266,-0.041957151144742966,-0.06656641513109207
1633781640236755500,13.61475537109375,-0.071088045835495,-0.004253885243088007,-0.036922771483659744
1633781640256634000,13.634634033203126,-0.08117479830980301,0.026380548253655434,-0.008613728918135166
1633781640276513300,13.65451318359375,-0.06781471520662308,0.06138532608747482,0.013319702818989754
1633781640296392200,13.67439208984375,-0.03975708782672882,0.07921185344457626,0.01598806120455265
1633781640316271400,13.694271240234375,-0.016842253506183624,0.07799161970615387,0.009617491625249386
1633781640336150500,13.714150634765625,0.005905117839574814,0.06921525299549103,0.011753521859645844
1633781640356029200,13.734029296875,0.017503861337900162,0.037083905190229416,0.018614402040839195
1633781640375908400,13.753908447265625,0.022539028897881508,0.0231526680290699,0.011717059649527073
1633781640395787300,13.773787353515624,0.02298404835164547,0.02900049462914467,0.004761268384754658
1633781640415666400,13.79366650390625,0.021766558289527893,0.030208438634872437,-0.0010662809945642948
1633781640435545000,13.813545166015626,0.03446360304951668,0.013061475940048695,-0.005003744270652533
1633781640455425300,13.83342529296875,0.03885635361075401,-0.002952273003757,-0.017950095236301422
1633781640475304400,13.853304443359375,0.03589479252696037,-0.01070238184183836,-0.029634669423103333
1633781640495183000,13.87318310546875,0.04169098287820816,-0.026398487389087677,-0.038468487560749054
1633781640515062300,13.893062255859375,0.047558560967445374,-0.016326749697327614,-0.03191181272268295
1633781640534941200,13.912941162109375,0.044831667095422745,-0.012704940512776375,-0.032951511442661285
1633781640554820400,13.9328203125,0.03257671743631363,-0.005895716138184071,-0.039074163883924484
1633781640574699500,13.952699462890624,0.014835769310593605,-0.009672575630247593,-0.031135501340031624
1633781640594578200,13.972578125,-0.0071393265388906,0.002938920632004738,-0.0007635763031430542
1633781640614457300,13.992457275390626,-0.021956268697977066,0.02429250255227089,0.013371681794524193
1633781640634336300,14.012336181640626,-0.021680645644664764,0.04775616526603699,0.005876773037016392
1633781640654215400,14.03221533203125,-0.010720973834395409,0.024840787053108215,-0.016447391360998154
1633781640674094000,14.052093994140625,-0.00962066650390625,-0.009277238510549068,-0.03478335216641426
1633781640693973200,14.07197314453125,-0.024948714300990105,-0.0415022075176239,-0.03674005717039108
1633781640713852400,14.091852294921875,-0.04757240414619446,-0.036942508071660995,-0.022184476256370544
1633781640733731300,14.1117314453125,-0.04414018988609314,-0.02409539744257927,-0.0008025113493204117
1633781640753610500,14.131610595703124,-0.011050417087972164,-0.019207431003451347,0.022899089381098747
1633781640773489200,14.1514892578125,0.014820601791143417,-0.02190275490283966,0.029329145327210426
1633781640793369300,14.171369384765624,0.017758630216121674,-0.026098404079675674,0.03125844523310661
1633781640813248500,14.19124853515625,0.0035968914162367582,-0.03886985406279564,0.032940663397312164
1633781640833123300,14.211123291015625,-0.022288277745246887,-0.049478497356176376,0.029962755739688873
1633781640853002500,14.23100244140625,-0.047177769243717194,-0.05295190587639809,0.01410889532417059
1633781640872881700,14.250881591796874,-0.04309014603495598,-0.043778836727142334,0.006956806406378746
1633781640892760600,14.270760498046876,-0.016110798344016075,-0.027230724692344666,0.019535690546035767
1633781640912639700,14.2906396484375,0.004834090359508991,-0.012022450566291809,0.02900932915508747
1633781640932518400,14.310518310546875,0.0060341935604810715,-0.050252631306648254,0.010909833014011383
1633781640952397600,14.3303974609375,-0.020007360726594925,-0.09941153228282928,-0.026654710993170738
1633781640972276500,14.3502763671875,-0.06263583898544312,-0.11161233484745026,-0.038264427334070206
1633781640992155600,14.37015576171875,-0.08620350062847137,-0.04845811054110527,-0.020908284932374954
1633781641012034600,14.39003466796875,-0.06821725517511368,0.03682415932416916,0.020194992423057556
1633781641031913500,14.40991357421875,-0.023328518494963646,0.060946423560380936,0.051218271255493164
1633781641051792600,14.429792724609374,0.016029872000217438,0.0364532470703125,0.06684560328722
1633781641071671600,14.449671630859376,0.02792375534772873,-0.009659775532782078,0.055497292429208755
1633781641091550500,14.469550537109376,0.03200520947575569,-0.018198668956756592,0.04255557432770729
1633781641111429400,14.489429443359375,0.039204709231853485,0.01623358763754368,0.047477204352617264
1633781641131308500,14.50930859375,0.04168523848056793,0.025680210441350937,0.039372723549604416
1633781641151188700,14.529188720703125,0.036692265421152115,-0.011031238362193108,0.004444958176463842
1633781641171067400,14.5490673828125,0.035939641296863556,-0.04268195852637291,-0.017197992652654648
1633781641190946600,14.568946533203125,0.04699696600437164,-0.04358161985874176,-0.01937641203403473
1633781641210825500,14.588825439453124,0.04259856790304184,-0.06817880272865295,-0.048065703362226486
1633781641230704600,14.60870458984375,0.010415093973279,-0.08120362460613251,-0.07809806615114212
1633781641250583600,14.62858349609375,-0.018249977380037308,-0.08986092358827591,-0.08731413632631302
1633781641270462500,14.64846240234375,-0.014733467251062393,-0.045238886028528214,-0.046969082206487656
1633781641290341600,14.668341552734375,0.008448725566267967,0.02565118670463562,0.003086894052103162
1633781641310220500,14.688220458984375,0.025186646729707718,0.0854870080947876,0.034331973642110825
1633781641330099500,14.708099365234375,0.04081643745303154,0.09033825993537903,0.0507807657122612
1633781641349978400,14.727978271484375,0.03998365253210068,0.07819200307130814,0.06125234067440033
1633781641369857500,14.747857421875,0.03312122821807861,0.09878281503915787,0.06400324404239655
1633781641389736700,14.76773681640625,0.04071333631873131,0.11653029918670654,0.06697054207324982
1633781641409615600,14.78761572265625,0.07502651959657669,0.09557899832725525,0.06913287937641144
1633781641429494500,14.80749462890625,0.11079144477844238,0.0691722184419632,0.0716712549328804
1633781641449373400,14.82737353515625,0.08769730478525162,0.10580660402774811,0.10217711329460144
1633781641469252600,14.847252685546875,0.03168858215212822,0.15029117465019226,0.10386509448289871
1633781641489131500,14.867131591796875,0.029111459851264954,0.10731592774391174,0.04979769140481949
1633781641509011500,14.887011474609375,0.02738232910633087,0.053709547966718674,0.02170192450284958
1633781641528890600,14.906890625,0.0667920783162117,-0.013616593554615974,-0.004154337104409933
1633781641548769500,14.92676953125,0.09663036465644836,-0.046350590884685516,-0.030712518841028214
1633781641568648700,14.946648681640625,0.11523563414812088,-0.05110153183341026,-0.03630608692765236
1633781641588527400,14.96652734375,0.10172127932310104,-0.037056244909763336,-0.03219447657465935
1633781641608406500,14.986406494140626,0.06729914247989655,-0.05650520324707031,-0.018519693985581398
1633781641628285700,15.00628564453125,0.04681176319718361,-0.057352274656295776,-0.008462339639663696
1633781641648164600,15.02616455078125,0.04552089795470238,-0.024065129458904266,-0.002991626039147377
1633781641668043500,15.04604345703125,0.04548174515366554,-0.018476808443665504,-0.0017919924575835466
1633781641687922400,15.06592236328125,0.053145069628953934,-0.014156331308186054,0.0035922641400247812
1633781641707801600,15.085801513671875,0.057269297540187836,-0.0016830209642648697,0.028352787718176842
1633781641727680500,15.105680419921875,0.05065548047423363,0.07806768268346786,0.09625571966171265
1633781641747559400,15.125559326171874,0.024460438638925552,0.18255124986171722,0.17442390322685242
1633781641767438600,15.1454384765625,-0.02542675845324993,0.1847609579563141,0.2095407098531723
1633781641787317500,15.1653173828125,-0.0697343721985817,0.18778680264949799,0.19354002177715302
1633781641807196700,15.18519677734375,-0.08012892305850983,0.1810130774974823,0.17940083146095276
1633781641827075600,15.20507568359375,-0.053942106664180756,0.1883217692375183,0.1728396862745285
1633781641846955500,15.22495556640625,-0.03740554675459862,0.21217547357082367,0.1553211212158203
1633781641866834400,15.24483447265625,-0.021474920213222504,0.18931473791599274,0.14180564880371094
1633781641886713600,15.264713623046875,-0.007222726009786129,0.10514943301677704,0.11960083991289139
1633781641906592300,15.28459228515625,0.006309600546956062,0.00823306292295456,0.07453761249780655
1633781641926471400,15.304471435546875,0.0015835416270419955,-0.028865687549114227,0.014041805639863014
1633781641946350300,15.324350341796874,-0.019216300919651985,-0.051466770470142365,-0.05077483505010605
1633781641966229500,15.3442294921875,-0.023361891508102417,-0.08306010812520981,-0.09141077846288681
1633781641986108400,15.3641083984375,-0.008632746525108814,-0.11752726882696152,-0.10561075061559677
1633781642005987300,15.3839873046875,0.007730626966804266,-0.1351504772901535,-0.10238050669431686
1633781642025866500,15.403866455078125,0.01671297289431095,-0.14961116015911102,-0.10820051282644272
1633781642045745400,15.423745361328125,0.011367164552211761,-0.14524978399276733,-0.11834574490785599
1633781642065624600,15.44362451171875,-0.004678485915064812,-0.1253921240568161,-0.11749271303415298
1633781642085503200,15.463503173828125,-0.009367506951093674,-0.10650253295898438,-0.09651061147451401
1633781642105382400,15.48338232421875,-0.02908516861498356,-0.06612182408571243,-0.06256266683340073
1633781642125261300,15.50326123046875,-0.06354009360074997,-0.011241585947573185,-0.005256353411823511
1633781642145140500,15.523140380859376,-0.07463299483060837,0.008046071976423264,0.056650348007678986
1633781642165019400,15.543019287109376,-0.07307639718055725,0.04697791114449501,0.117283895611763
1633781642184898300,15.562898193359375,-0.09342174232006073,0.07658842951059341,0.1795666366815567
1633781642204777500,15.582777587890625,-0.10337010025978088,0.0749950110912323,0.19034822285175323
1633781642224657400,15.602657470703125,-0.09216685593128204,0.06929989159107208,0.1625296026468277
1633781642244536300,15.622536376953125,-0.09426476806402206,0.0762610211968422,0.11890961229801178
1633781642264415500,15.64241552734375,-0.09533413499593735,0.07267408072948456,0.0826893076300621
1633781642284294400,15.66229443359375,-0.10903780907392502,0.0397682823240757,0.05693579465150833
1633781642304173600,15.682173583984374,-0.12712320685386658,-0.003382490947842598,0.021750835701823235
1633781642324052200,15.70205224609375,-0.13908572494983673,-0.02985420450568199,-0.0026106236036866903
1633781642343931400,15.721931396484376,-0.12692975997924805,-0.04299420863389969,-0.027008861303329468
1633781642363810300,15.741810302734375,-0.0947074294090271,-0.057676322758197784,-0.05284556746482849
1633781642383689500,15.761689453125,-0.061834149062633514,-0.08069977909326553,-0.08384452015161514
1633781642403568400,15.781568359375,-0.034504152834415436,-0.09905543178319931,-0.08956341445446014
1633781642423447300,15.801447265625,-0.013459843583405018,-0.11389844119548798,-0.07274584472179413
1633781642443326500,15.821326416015625,-0.007474691141396761,-0.10575184226036072,-0.06216064840555191
1633781642463205400,15.841205322265624,-0.0266330037266016,-0.06422349810600281,-0.0658213347196579
1633781642483084500,15.86108447265625,-0.04916152358055115,-0.03629601001739502,-0.055511780083179474
1633781642502963200,15.880963134765626,-0.04916838929057121,-0.02364213950932026,-0.027727501466870308
1633781642522842400,15.90084228515625,-0.03553297370672226,-0.03863523155450821,-0.008354650810360909
1633781642542721500,15.920721435546875,-0.0411079116165638,-0.03583454340696335,-0.011745847761631012
1633781642562601200,15.940601318359375,-0.057159412652254105,-0.01149852853268385,-0.016931796446442604
1633781642582480400,15.96048046875,-0.06410834193229675,0.00009754113852977753,-0.01459535676985979
1633781642602359600,15.980359619140625,-0.05905956029891968,-0.021909184753894806,-0.015693865716457367
1633781642622238500,16.000238525390625,-0.06623047590255737,-0.028581880033016205,-0.016137931495904922
1633781642642117400,16.020117431640625,-0.09363546967506409,0.0020583737641572952,-0.020632429048419
1633781642661996300,16.039996337890624,-0.11692725867033005,0.037867166101932526,-0.030071932822465897
1633781642681875500,16.05987548828125,-0.11547189205884933,0.03696269169449806,-0.021089553833007812
1633781642701754400,16.07975439453125,-0.0974956825375557,0.02393493801355362,-0.007471020799130201
1633781642721633500,16.099633544921875,-0.09308649599552155,0.03715766966342926,-0.005175321362912655
1633781642741512400,16.119512451171875,-0.0889357179403305,0.05642235279083252,-0.009465385228395462
1633781642761391400,16.139391357421875,-0.06579223275184631,0.041562117636203766,-0.0023573841899633408
1633781642781270500,16.1592705078125,-0.017517738044261932,0.018281418830156326,0.016449742019176483
1633781642801149400,16.1791494140625,0.02283501997590065,0.0018649473786354065,0.029146483168005943
1633781642821028400,16.1990283203125,0.03945189714431763,0.011246022768318653,0.02485452964901924
1633781642840910800,16.218910888671875,0.04248594492673874,0.02992103062570095,0.019760316237807274
1633781642860789800,16.238789794921875,0.04741256684064865,0.02060643583536148,0.012419233098626137
1633781642880669000,16.2586689453125,0.05045711621642113,-0.013667273335158825,-0.0008427929133176804
1633781642900547800,16.2785478515625,0.0458725281059742,-0.011608299799263477,-0.008989476598799229
1633781642920426800,16.2984267578125,0.03345058113336563,0.014257515780627728,-0.01200804766267538
1633781642940305700,16.3183056640625,0.016109731048345566,0.028814485296607018,-0.010037260130047798
1633781642960185900,16.338185791015626,0.00399979529902339,0.023965083062648773,-0.01010715588927269
1633781642980064800,16.358064697265625,-0.00647272914648056,0.03486228734254837,-0.0028545698150992393
1633781642999943700,16.377943603515625,-0.018962107598781586,0.05187000706791878,0.001615443266928196
1633781643019822800,16.39782275390625,-0.03243691474199295,0.07349573075771332,0.009172338992357254
1633781643039701800,16.41770166015625,-0.042710572481155396,0.061013057827949524,-0.0003199903294444084
1633781643059581000,16.437580810546876,-0.04212385416030884,0.03627379611134529,-0.001485029119066894
1633781643079459800,16.4574599609375,-0.05393221229314804,0.03611256182193756,0.006511768326163292
1633781643099338800,16.4773388671875,-0.06014062464237213,0.042554933577775955,0.009418414905667305
1633781643119218000,16.497218017578124,-0.06564924865961075,0.035591140389442444,0.009377474896609783
1633781643139096800,16.517096923828124,-0.06776304543018341,0.011436725966632366,0.008131451904773712
1633781643158975700,16.536975830078124,-0.07297253608703613,0.000051361508667469025,-0.0006599066546186805
1633781643178854700,16.556854736328123,-0.0787326917052269,0.011760215274989605,-0.012167425826191902
1633781643198733800,16.57673388671875,-0.0798768475651741,0.023899782449007034,-0.010688741691410542
1633781643218613000,16.596613037109375,-0.05841276794672012,-0.0026725204661488533,-0.015188515186309814
1633781643238491600,16.61649169921875,-0.026258453726768494,-0.03353535756468773,-0.026996875181794167
1633781643258370800,16.636370849609374,-0.004930316470563412,-0.04284616932272911,-0.03410676121711731
1633781643278249700,16.656249755859374,0.002504980191588402,-0.029238108545541763,-0.042278435081243515
1633781643298129000,16.67612890625,0.004148820415139198,-0.031981270760297775,-0.04298451170325279
1633781643318008800,16.6960087890625,0.022965550422668457,-0.055904846638441086,-0.0258618351072073
1633781643337887700,16.7158876953125,0.038250476121902466,-0.06107582524418831,-0.01300419308245182
1633781643357767000,16.735766845703125,0.03281297907233238,-0.03911038115620613,-0.012351672165095806
1633781643377645800,16.755645751953125,0.0004529501311480999,-0.04336343705654144,-0.032163385301828384
1633781643397524700,16.775524658203125,-0.1813976764678955,-0.02983761392533779,-0.16011741757392883
1633781643417403600,16.795403564453125,-0.4483277201652527,0.07608133554458618,-0.3738389015197754
1633781643437282800,16.81528271484375,-0.5574334859848022,0.1107233315706253,-0.45476603507995605
1633781643457162000,16.835161865234376,-0.47575998306274414,0.08571932464838028,-0.36738163232803345
1633781643477040600,16.85504052734375,-0.4077979326248169,0.03921074792742729,-0.2656705379486084
1633781643496919800,16.874919921875,-0.4333740770816803,0.10902277380228043,-0.2801733911037445
1633781643516798700,16.894798828125,-0.5156236290931702,0.2887897491455078,-0.3844541907310486
1633781643536678000,16.914677978515623,-0.6011702418327332,0.34798136353492737,-0.40578553080558777
1633781643556556800,16.934556884765627,-0.6001497507095337,0.3363199532032013,-0.3415848910808563
1633781643576435700,16.954435791015626,-0.5208984613418579,0.1867832988500595,-0.23034535348415375
1633781643596315000,16.97431494140625,-0.41284772753715515,0.02714112028479576,-0.07151942700147629
1633781643616193800,16.99419384765625,-0.3327040374279022,-0.02740664593875408,0.12386490404605865
1633781643636073000,17.014072998046874,-0.2735369801521301,-0.09468203783035278,0.3491474986076355
1633781643655951600,17.03395166015625,-0.22641827166080475,-0.20610889792442322,0.47534918785095215
1633781643675830800,17.053830810546874,-0.2072075605392456,-0.25014692544937134,0.4471401870250702
1633781643695711000,17.0737109375,-0.207290917634964,-0.24726755917072296,0.32960814237594604
1633781643715590000,17.09358984375,-0.20640712976455688,-0.1781633198261261,0.1635540872812271
1633781643735468800,17.11346875,-0.18203988671302795,-0.09774885326623917,-0.0027483829762786627
1633781643755347700,17.13334765625,-0.1563311219215393,-0.08863484859466553,-0.12455369532108307
1633781643775227000,17.153226806640625,-0.14364704489707947,-0.04874406382441521,-0.2124146670103073
1633781643795105800,17.173105712890624,-0.15156543254852295,0.03355203941464424,-0.2722553312778473
1633781643814984700,17.192984619140624,-0.17084315419197083,0.02809961698949337,-0.3758404850959778
1633781643834860000,17.212860107421875,-0.1962650567293167,0.08372101187705994,-0.5020285248756409
1633781643854739200,17.2327392578125,-0.21376825869083405,0.11437293142080307,-0.5551272630691528
1633781643874618000,17.2526181640625,-0.16982321441173553,0.10273736715316772,-0.5559471845626831
1633781643894497300,17.272497314453126,-0.10127592086791992,0.10335179418325424,-0.5115606188774109
1633781643914376200,17.292376220703126,-0.061139609664678574,0.0460546500980854,-0.4295082986354828
1633781643934255000,17.312255126953126,-0.03109862096607685,0.007204723544418812,-0.3076029121875763
1633781643954134300,17.33213427734375,-0.015825672075152397,-0.012962725944817066,-0.17783689498901367
1633781643974013200,17.35201318359375,-0.01814444363117218,0.030130967497825623,-0.09317652136087418
1633781643993892000,17.37189208984375,-0.012671906501054764,0.03775272145867348,-0.027642933651804924
1633781644013771000,17.39177099609375,-0.008495013229548931,0.010852609761059284,0.061650075018405914
1633781644033650200,17.411650146484376,-0.013084408827126026,0.014270736835896969,0.1463814228773117
1633781644053529300,17.431529296875,0.0026559350080788136,0.045202046632766724,0.1857788860797882
1633781644073409000,17.451408935546876,0.030510803684592247,0.03883618861436844,0.12267865240573883
1633781644093288200,17.4712880859375,0.05181245505809784,0.04617728665471077,0.010695933364331722
1633781644113167400,17.49116748046875,0.056859731674194336,0.07325830310583115,-0.052253156900405884
1633781644133046300,17.51104638671875,0.0659114420413971,0.0647282525897026,-0.04531027004122734
1633781644152925200,17.53092529296875,0.06950091570615768,0.021018989384174347,-0.014024738222360611
1633781644172804000,17.55080419921875,0.07078543305397034,-0.010420667007565498,-0.00039639935130253434
1633781644192683300,17.570683349609375,0.09375636279582977,-0.012029582634568214,-0.017648503184318542
1633781644212562200,17.590562255859375,0.1243419200181961,0.0032345056533813477,-0.05914899706840515
1633781644232441000,17.610441162109375,0.12335725128650665,0.035939570516347885,-0.10331445187330246
1633781644252320000,17.630320068359374,0.1109355092048645,0.06820191442966461,-0.10815174877643585
1633781644272199200,17.65019921875,0.08981127291917801,0.06240041181445122,-0.07190632075071335
1633781644292078300,17.670078369140626,0.04956986382603645,0.026806972920894623,-0.016846850514411926
1633781644311957200,17.689957275390626,0.015676802024245262,0.016917817294597626,0.042440831661224365
1633781644331836200,17.709836181640625,0.011872109025716782,0.05256642401218414,0.06756485998630524
1633781644351715000,17.729715087890625,0.017018979415297508,0.10798715800046921,0.06603825837373734
1633781644371594200,17.74959423828125,0.01968110166490078,0.1285482496023178,0.04345688223838806
1633781644391473200,17.76947314453125,0.020330095663666725,0.10463587939739227,0.022108208388090134
1633781644411352000,17.78935205078125,0.025119218975305557,0.07536345720291138,0.023555297404527664
1633781644431231200,17.809231201171876,0.03536396101117134,0.0409313403069973,0.022400138899683952
1633781644451111200,17.829111083984376,0.043229926377534866,0.024025652557611465,0.021033862605690956
1633781644470990000,17.848989990234376,0.052782028913497925,0.0234967190772295,0.021318869665265083
1633781644490869200,17.868869140625,0.048340894281864166,0.017400391399860382,0.01649249717593193
1633781644510748200,17.888748046875,0.038005199283361435,0.006689642556011677,0.012720344588160515
1633781644530627300,17.90862744140625,0.03865331783890724,0.02088814601302147,0.013395071029663086
1633781644550506200,17.92850634765625,0.026845574378967285,0.04529918357729912,0.012068665586411953
1633781644570385200,17.94838525390625,0.008147107437252998,0.05318114534020424,0.005126293282955885
1633781644590264000,17.96826416015625,-0.012723038904368877,0.041054774075746536,0.005485991016030312
1633781644610143200,17.988143310546874,-0.022377952933311462,0.034795284271240234,0.009374835528433323
1633781644630022400,18.0080224609375,-0.014858354814350605,0.033483996987342834,0.014964302070438862
1633781644649901000,18.027901123046874,-0.011338246054947376,0.018285740166902542,0.01672566682100296
1633781644669780200,18.0477802734375,0.001830714987590909,-0.00401895958930254,0.011113081127405167
1633781644689659100,18.0676591796875,0.0032855807803571224,0.006099354475736618,0.004227234981954098
1633781644709538300,18.087538330078125,0.008594830520451069,0.041572410613298416,0.0068520959466695786
1633781644729417000,18.1074169921875,0.006152171175926924,0.020920345559716225,0.0149873998016119
1633781644749296000,18.127296142578125,-0.004499262664467096,-0.02503601461648941,0.0255197174847126
1633781644769175000,18.147175048828124,-0.002938795369118452,-0.03158866986632347,0.029999371618032455
1633781644789054200,18.16705419921875,0.02033124305307865,0.023283790796995163,0.028752407059073448
1633781644808933400,18.186933349609376,0.03153105452656746,0.01019356306642294,-0.0024197252932935953
1633781644828813000,18.20681298828125,0.005936366505920887,-0.04958473891019821,-0.021661046892404556
1633781644848692200,18.226692138671876,-0.03488246724009514,-0.09122142940759659,-0.028054028749465942
1633781644868571100,18.246571044921875,-0.03725102171301842,-0.05201897397637367,-0.008823705837130547
1633781644888450000,18.266449951171875,-0.02589464746415615,-0.03165719285607338,0.0030265136156231165
1633781644908329000,18.286328857421875,-0.02102292701601982,-0.03681626915931702,-0.007356085814535618
1633781644928208100,18.3062080078125,-0.023364095017313957,-0.0695653185248375,-0.01655573397874832
1633781644948087000,18.326087158203126,-0.018311625346541405,-0.08830814063549042,-0.021583927795290947
1633781644967966000,18.345966064453126,-0.012276693247258663,-0.06307215988636017,-0.008135545067489147
1633781644987845000,18.36584521484375,-0.021295296028256416,-0.041133813560009,-0.007626639213413
1633781645007724000,18.38572412109375,-0.022556569427251816,-0.03980542719364166,0.001050472492352128
1633781645027603200,18.405603271484374,-0.00773739255964756,-0.03944765403866768,0.024655373767018318
1633781645047482000,18.425482177734374,0.017707835882902145,-0.020697537809610367,0.03704791143536568
1633781645067361000,18.445361083984373,0.046277210116386414,0.0013359375298023224,0.028774995356798172
1633781645087240000,18.465239990234377,0.06533999741077423,0.01229266170412302,0.018940789625048637
1633781645107119000,18.485119140625,0.06660379469394684,0.00007311999797821045,0.008818985894322395
1633781645126998300,18.504998291015625,0.07475373893976212,0.0008882060647010803,0.013938574120402336
1633781645146877000,18.524876953125,0.06080218777060509,-0.016703911125659943,0.022480733692646027
1633781645166756000,18.544756103515624,0.045779384672641754,-0.022479403764009476,0.01956164464354515
1633781645186635000,18.564635009765624,0.05055394396185875,-0.044967666268348694,0.011083809658885002
1633781645206515200,18.58451513671875,0.04952450096607208,-0.039595022797584534,-0.0018513831309974194
1633781645226394000,18.60439404296875,0.047587476670742035,-0.02462301030755043,-0.026978135108947754
1633781645246273000,18.62427294921875,0.03072022832930088,-0.017460227012634277,-0.039921049028635025
1633781645266152200,18.644152099609375,0.007363061420619488,-0.04309146851301193,-0.042087264358997345
1633781645286031000,18.664031005859375,-0.0196139607578516,-0.08585704118013382,-0.05422408878803253
1633781645305910000,18.683909912109375,-0.028265902772545815,-0.07769615948200226,-0.06367599219083786
1633781645325789000,18.703788818359374,-0.02381063438951969,-0.04861638322472572,-0.06400258839130402
1633781645345668000,18.723668212890626,-0.004122410900890827,-0.04009101539850235,-0.05703457444906235
1633781645365547300,18.74354736328125,0.016508789733052254,-0.05858501419425011,-0.043919533491134644
1633781645385426000,18.763426025390626,0.051301926374435425,0.012128772214055061,-0.036196209490299225
1633781645405305000,18.78330517578125,0.06491436064243317,0.02961607277393341,-0.02930999919772148
1633781645425184000,18.80318408203125,0.01952073723077774,0.023574944585561752,0.012495960108935833
1633781645445063200,18.823063232421877,-0.03477561101317406,0.022103454917669296,0.03749612346291542
1633781645464942000,18.842942138671877,-0.013656219467520714,0.021901000291109085,0.019655484706163406
1633781645484821000,18.862821044921876,0.029926788061857224,0.05185357853770256,-0.007041010074317455
1633781645504700200,18.8827001953125,0.04541201516985893,0.06152249872684479,-0.04108407720923424
1633781645524579000,18.9025791015625,0.04034363850951195,0.04890710487961769,-0.04899242892861366
1633781645544458200,18.922458251953124,0.01663355529308319,-0.000294501893222332,-0.03945744410157204
1633781645564337000,18.9423369140625,0.005135229788720608,-0.0514262355864048,-0.023901991546154022
1633781645584216000,18.962216064453123,0.014501390978693962,-0.04146886244416237,-0.03509419038891792
1633781645604096300,18.98209619140625,0.03955439105629921,-0.014887852594256401,-0.05048024281859398
1633781645623975000,19.001974853515627,0.07036960870027542,0.03151619806885719,-0.0631100982427597
1633781645643854000,19.02185400390625,0.0887407511472702,0.02006571739912033,-0.05666129291057587
1633781645663733000,19.04173291015625,0.07491094619035721,0.016223251819610596,-0.027118436992168427
1633781645683612200,19.061612060546874,0.05324673652648926,0.019417420029640198,-0.003955836873501539
1633781645703491000,19.081490966796874,0.06742942333221436,0.012195645831525326,-0.0008970977505668998
1633781645723370000,19.101369873046874,0.10215175896883011,-0.012783737853169441,0.0013634648639708757
1633781645743249200,19.121249267578126,0.12847861647605896,-0.020776234567165375,-0.014797660522162914
1633781645763128000,19.141128173828125,0.12192872911691666,0.010061043314635754,-0.02419605478644371
1633781645783007200,19.16100732421875,0.08123447000980377,0.027872446924448013,-0.03259433060884476
1633781645802886000,19.180885986328125,0.03341754153370857,0.02010810747742653,-0.026435166597366333
1633781645822765000,19.20076513671875,-0.00171490921638906,-0.009735692292451859,-0.01587875932455063
1633781645842648000,19.22064794921875,-0.01517726480960846,-0.03963799029588699,0.0008638557628728449
1633781645862527200,19.24052734375,-0.01178998313844204,-0.031021539121866226,0.003469345858320594
1633781645882406000,19.260406005859377,-0.017855605110526085,-0.016900984570384026,-0.021455565467476845
1633781645902285000,19.28028515625,-0.035492800176143646,-0.019801385700702667,-0.03660100698471069
1633781645922164000,19.3001640625,-0.03590977191925049,-0.01191253773868084,-0.029958408325910568
1633781645942043100,19.320043212890624,-0.011606475338339806,0.0004792558029294014,-0.005249065812677145
1633781645961922000,19.339922119140624,0.03937297686934471,0.03624071180820465,0.030353041365742683
1633781645981802000,19.359802001953124,0.05851465463638306,0.015190153382718563,0.04384589567780495
1633781646001681200,19.37968115234375,0.048504538834095,-0.0024445783346891403,0.013602507300674915
1633781646021560000,19.39956005859375,0.03239205479621887,-0.004265270661562681,-0.05844331532716751
1633781646041439000,19.41943896484375,-0.010190445929765701,0.029547546058893204,-0.09968972206115723
1633781646061318100,19.439318115234375,-0.04541248455643654,0.05545435845851898,-0.09149137139320374
1633781646081197000,19.459197021484375,-0.07050259411334991,0.04192807897925377,-0.025041872635483742
1633781646101076200,19.479076171875,-0.05735694244503975,-0.019017133861780167,0.042325280606746674
1633781646120955000,19.498954833984374,-0.03492023050785065,-0.03215211629867554,0.05457538366317749
1633781646140834000,19.518833984375,-0.012668703682720661,-0.02769777551293373,0.020956000313162804
1633781646160713000,19.538712890625,0.01451339665800333,-0.00419828575104475,-0.016782203689217567
1633781646180592000,19.558592041015626,0.03879759460687637,-0.0010825851932168007,-0.025188177824020386
1633781646200471000,19.578470947265625,0.04728575795888901,-0.01527600921690464,0.004281491972506046
1633781646220350000,19.598349853515625,0.04165879264473915,-0.028545044362545013,0.034927114844322205
1633781646240229000,19.61822900390625,0.022612061351537704,-0.021728869527578354,0.027300981804728508
1633781646260108000,19.63810791015625,0.003641544608399272,-0.0005015106871724129,-0.0075447107665240765
1633781646279987200,19.6579873046875,0.00043304101563990116,0.004064985550940037,-0.04014018177986145
1633781646299865900,19.677865966796876,-0.012832172214984894,-0.0006288895383477211,-0.059949424117803574
1633781646319745000,19.6977451171875,-0.07644780725240707,-0.03270891681313515,-0.10203604400157928
1633781646339624000,19.7176240234375,-0.15112794935703278,-0.050539858639240265,-0.1316768378019333
1633781646359503000,19.737503173828124,-0.1700339913368225,-0.04412834718823433,-0.13697130978107452
1633781646379383000,19.757383056640624,-0.1507195681333542,-0.03419823944568634,-0.1176915317773819
1633781646399262000,19.777261962890623,-0.1338006556034088,-0.04801839962601662,-0.08069494366645813
1633781646419141000,19.79714111328125,-0.10309094935655594,-0.07713686674833298,-0.059784602373838425
1633781646439020000,19.81702001953125,-0.06507395207881927,-0.076793372631073,-0.06799621880054474
1633781646458899000,19.83689892578125,-0.046055518090724945,-0.05142011120915413,-0.10178374499082565
1633781646478778000,19.856778076171874,-0.03900398686528206,-0.03016797825694084,-0.12553223967552185
1633781646498657000,19.876656982421874,-0.012934954836964607,-0.015641285106539726,-0.09332790970802307
1633781646518536200,19.8965361328125,0.013642091304063797,-0.009691011160612106,-0.02304793894290924
1633781646538414800,19.916414794921874,0.009312769398093224,-0.00840241089463234,0.033061131834983826
1633781646558294000,19.9362939453125,-0.009190327487885952,-0.01661306992173195,0.03958052769303322
1633781646578173200,19.956173095703125,-0.008063427172601223,-0.006220822222530842,0.026071593165397644
1633781646598052000,19.976052001953125,0.026428356766700745,0.011226304806768894,0.014753792434930801
1633781646617931000,19.995930908203125,0.04570852965116501,0.024128183722496033,-0.005022772587835789
1633781646637810000,20.015809814453124,0.0227186381816864,0.03131471574306488,-0.02708243578672409
1633781646657689000,20.035689208984376,-0.005775474943220615,0.012140223756432533,-0.01563500612974167
1633781646677568000,20.055568115234376,-0.02875133790075779,-0.01411518920212984,-0.010430560447275639
1633781646697447200,20.075447265625,-0.047730233520269394,-0.020303256809711456,-0.01944221369922161
1633781646717325800,20.095325927734375,-0.04629471153020859,-0.011453012935817242,-0.03416029363870621
1633781646737205000,20.115205078125,-0.029810696840286255,-0.026723314076662064,-0.050399888306856155
1633781646757084200,20.135084228515623,-0.003903037868440151,-0.041504599153995514,-0.05879680812358856
1633781646776963800,20.1549638671875,0.01644909754395485,-0.03161580488085747,-0.06920935958623886
1633781646796843000,20.174843017578127,0.01302192360162735,-0.023216649889945984,-0.060565873980522156
1633781646816722200,20.19472216796875,0.020189665257930756,-0.019229359924793243,-0.029999881982803345
1633781646836597800,20.21459765625,0.053465381264686584,-0.02966810017824173,-0.000732080196030438
1633781646856476700,20.2344765625,0.09979259222745895,-0.010192377492785454,-0.004013384226709604
1633781646876355600,20.25435546875,0.09432317316532135,0.031228218227624893,-0.023570839315652847
1633781646896234800,20.27423486328125,0.04357345774769783,0.031216071918606758,-0.022831303998827934
1633781646916113700,20.29411376953125,0.0009674805914983153,0.02594352327287197,-0.006323410198092461
1633781646935992800,20.313992919921876,0.01257199514657259,0.04191942140460014,-0.004302820656448603
1633781646955871500,20.33387158203125,0.05479342117905617,0.046759266406297684,-0.00811796821653843
1633781646975750700,20.353750732421876,0.09366881847381592,0.03818247467279434,-0.00730943214148283
1633781646995629800,20.3736298828125,0.0969139039516449,0.059051111340522766,-0.005055889952927828
1633781647015508700,20.3935087890625,0.050050992518663406,0.04166740924119949,-0.003562025958672166
1633781647035387600,20.4133876953125,0.02026396058499813,0.03850816562771797,-0.007231042254716158
1633781647055266600,20.4332666015625,0.04252944141626358,0.060429755598306656,-0.0011156718246638775
1633781647075145700,20.453145751953127,0.06620380282402039,0.05463868007063866,0.014579257927834988
1633781647095024600,20.473024658203126,0.08113805949687958,-0.00009047798812389374,0.06427282840013504
1633781647114903800,20.49290380859375,0.09729792177677155,-0.05147971212863922,0.11256781965494156
1633781647134782500,20.512782470703126,0.12530745565891266,-0.12049739807844162,0.10652483999729156
1633781647154661600,20.53266162109375,0.12591159343719482,-0.06454236060380936,0.01044484507292509
1633781647174540800,20.552540771484374,0.11642148345708847,-0.012188419699668884,-0.1013595461845398
1633781647194420500,20.57242041015625,0.12742052972316742,0.03580310195684433,-0.14932842552661896
1633781647214299600,20.592299560546873,0.12829768657684326,0.09034616500139236,-0.13099709153175354
1633781647234178800,20.6121787109375,0.09344307333230972,0.051031459122896194,-0.06910261511802673
