 Acc_timestamp,Accx,Accy,Accz,Gyro_timestamp,Gyrox,Gyroy,Gyroz,Baro_timestamp,Pressure_Reading
 31502464.000000, 1.713261 , 3.433701, 8.688338, 0.000000, 0.000000,  0.000000,  0.000000, 0.000000,  0.000000
 19904.000000, 0.921237 , 3.010171, 8.702696, 0.000000, 0.000000,  0.000000,  0.000000, 0.000000,  0.000000
 40000.000000, 2.407180 , 3.364309, 8.595018, 0.000000, 0.000000,  0.000000,  0.000000, 0.000000,  0.000000 
 60608.000000, 1.631905 , 3.230310, 8.506484, 0.000000, 0.000000,  0.000000,  0.000000, 0.000000,  0.000000 
 80256.000000, 1.576870 , 3.187240, 8.456236, 837488704.000000, -20.930000,  -2.310000,  1.960000, 0.000000,  0.000000 
 100352.000000, 1.777867 , 3.275774, 8.413164, 837508352.000000, -20.930000,  -2.310000,  1.960000, 0.000000,  0.000000 
 120320.000000, 1.569692 , 3.292524, 8.417950, 837528448.000000, -7.280000,  10.570000,  1.330000, 0.000000,  0.000000 
 139904.000000, 1.361516 , 3.165704, 8.472985, 837548352.000000, -8.400000,  7.560000,  -5.180000, 0.000000,  0.000000 
 160576.000000, 1.395016 , 2.900101, 8.623734, 0.000000, 0.000000,  0.000000,  0.000000, 0.000000,  0.000000 
 180288.000000, 1.375873 , 2.797210, 8.693125, 837588608.000000, -14.490000,  8.050000,  -6.790000, 0.000000,  0.000000 
 200320.000000, 1.323231 , 2.677568, 8.767302, 837608320.000000, -14.280000,  8.330000,  -7.070000, 0.000000,  0.000000 
 220224.000000, 1.464408 , 2.512464, 8.769694, 837628416.000000, -15.540000,  10.850000,  -7.210000, 0.000000,  0.000000 
 240256.000000, 1.698904 , 2.656033, 8.712267, 837648320.000000, -18.270000,  12.880000,  -6.230000, 0.000000,  0.000000 
 260480.000000, 1.907080 , 2.538785, 8.702696, 837668352.000000, -20.510000,  13.510000,  -6.930000, 0.000000,  0.000000 
 280192.000000, 2.167897 , 2.328217, 8.819944, 837688576.000000, -23.240000,  14.140000,  -10.360000, 0.000000,  0.000000 
 300288.000000, 2.268396 , 1.777867, 9.224331, 837708288.000000, -25.200001,  14.980000,  -14.000000, 0.000000,  0.000000 
 320192.000000, 2.273181 , 1.406980, 9.578469, 837728384.000000, -23.940001,  19.110001,  -14.980000, 0.000000,  0.000000 
 340224.000000, 2.184647 , 1.658226, 9.595219, 837748224.000000, -22.330000,  24.850000,  -10.850000, 0.000000,  0.000000 
 360448.000000, 2.007578 , 1.959722, 9.401401, 837768320.000000, -16.030001,  27.790001,  -3.990000, 0.000000,  0.000000 
 380096.000000, 1.780260 , 1.974079, 9.327222, 837788544.000000, -13.300000,  29.400000,  -1.470000, 0.000000,  0.000000 
 400064.000000, 1.715654 , 1.770689, 9.241080, 837828160.000000, -30.870001,  28.700001,  -4.690000, 897817920.000000,  1011.176514 
 420096.000000, 1.564906 , 1.907080, 9.032906, 0.000000, 0.000000,  0.000000,  0.000000, 0.000000,  0.000000 
 440064.000000, 1.217947 , 2.021935, 8.755339, 837848128.000000, -31.710001,  30.100000,  -7.350000, 0.000000,  0.000000 
 460352.000000, 0.739382 , 1.820938, 8.281559, 837868160.000000, -33.740002,  32.549999,  -10.150000, 0.000000,  0.000000 
 480064.000000, 0.454636 , 1.811367, 7.800602, 837888448.000000, -36.680000,  34.090000,  -12.460000, 0.000000,  0.000000 
 500032.000000, 0.330210 , 2.081756, 7.140182, 837908096.000000, -37.029999,  37.099998,  -12.740000, 0.000000,  0.000000 
 520000.000000, 0.131605 , 2.675175, 6.391229, 837928128.000000, -43.259998,  42.420002,  -11.340000, 0.000000,  0.000000 
 539968.000000, 0.011964 , 2.550749, 5.769095, 837948096.000000, -69.510002,  51.170002,  -9.870000, 0.000000,  0.000000 
 560320.000000, -0.260818 , 2.158326, 5.503492, 837968064.000000, -114.379997,  62.650002,  -7.700000, 0.000000,  0.000000 
 579968.000000, -0.583849 , 1.210768, 5.596812, 837988352.000000, -171.289993,  75.949997,  -6.440000, 0.000000,  0.000000 
 600000.000000, -0.825524 , 0.617348, 5.836094, 838008064.000000, -226.240005,  89.809998,  -1.540000, 0.000000,  0.000000 
 619968.000000, -1.127020 , 0.524028, 6.025128, 838028096.000000, -270.970001,  102.129997,  6.370000, 0.000000,  0.000000 
 639936.000000, -1.957329 , -0.693919, 6.144768, 838048000.000000, -311.010010,  114.169998,  21.139999, 0.000000,  0.000000 
 660224.000000, -3.421736 , -3.675375, 6.374479, 838068032.000000, -349.440002,  121.520004,  38.430000, 0.000000,  0.000000 
 679936.000000, -4.931608 , -7.621140, 6.874579, 838088320.000000, -374.920013,  124.389999,  58.170002, 0.000000,  0.000000 
 699904.000000, -5.699703 , -9.035298, 7.080362, 838107968.000000, -347.690002,  122.500000,  78.260002, 0.000000,  0.000000 
 719872.000000, -5.194818 , -6.190232, 7.743174, 838128000.000000, -256.549988,  105.279999,  104.300003, 0.000000,  0.000000 
 739904.000000, -4.883751 , -5.383851, 6.934400, 838147968.000000, -164.710007,  80.360001,  123.129997, 0.000000,  0.000000 
 760192.000000, -5.697310 , -5.694918, 6.099305, 838167936.000000, -113.959999,  64.820000,  134.470001, 0.000000,  0.000000 
 779840.000000, -6.826723 , -6.293124, 5.647062, 838188288.000000, -116.550003,  68.389999,  141.820007, 0.000000,  0.000000 
 799872.000000, -7.759924 , -5.950950, 4.733003, 838207936.000000, -102.620003,  76.580002,  157.149994, 0.000000,  0.000000 
 819840.000000, -9.401401 , -5.333601, 4.046263, 838227904.000000, -77.980003,  78.400002,  169.960007, 0.000000,  0.000000 
 839808.000000, -11.889936 , -5.036892, 3.510271, 838267904.000000, -60.830002,  106.260002,  203.419998, 0.000000,  0.000000 
 860160.000000, -15.574883 , -5.508278, 2.885744, 0.000000, 0.000000,  0.000000,  0.000000, 0.000000,  0.000000 
 879808.000000, -18.994226 , -6.678369, 2.804388, 838288192.000000, -66.709999,  128.380005,  225.330002, 0.000000,  0.000000 
 899776.000000, -19.910677 , -7.211967, 3.397808, 838307904.000000, -59.920002,  132.300003,  236.880005, 0.000000,  0.000000 
 919808.000000, -20.030319 , -6.197411, 4.278367, 838327872.000000, -47.529999,  122.570000,  245.559998, 0.000000,  0.000000 
 939776.000000, -19.417757 , -3.393023, 3.101098, 838347840.000000, -5.810000,  107.239998,  250.740005, 0.000000,  0.000000 
 960064.000000, -16.548761 , -1.217947, 0.428315, 838367872.000000, 47.670002,  106.750000,  245.490005, 0.000000,  0.000000 
 979776.000000, -15.022141 , -0.997807, 0.045464, 838388160.000000, 79.660004,  89.389999,  219.520004, 0.000000,  0.000000 
 999744.000000, -13.167704 , -2.146362, -0.394816, 838407808.000000, 69.090004,  67.129997,  186.970001, 0.000000,  0.000000 
 1019712.000000, -12.801601 , -2.615355, 0.421137, 838427840.000000, 30.730000,  67.760002,  142.100006, 0.000000,  0.000000 
 1039744.000000, -11.887544 , -2.175076, -0.059821, 838447808.000000, 3.150000,  75.949997,  100.239998, 0.000000,  0.000000 
 1060032.000000, -10.832308 , -1.722832, -0.686740, 838467776.000000, 11.060000,  64.680000,  80.989998, 0.000000,  0.000000 
 1079680.000000, -10.880164 , -1.636691, -0.631705, 838488128.000000, 5.390000,  56.279999,  64.540001, 0.000000,  0.000000 
 1099712.000000, -11.236694 , -0.062213, -0.196211, 838507776.000000, -14.140000,  59.010002,  40.810001, 0.000000,  0.000000 
 1119680.000000, -10.729417 , 0.837488, 2.017149, 838527744.000000, -20.230000,  63.420002,  38.150002, 0.000000,  0.000000 
 1139648.000000, -9.824929 , 0.586242, 2.749353, 838547776.000000, -26.740000,  54.810001,  47.950001, 0.000000,  0.000000 
 1160128.000000, -8.599805 , -0.055035, 2.254039, 838567744.000000, -52.779999,  45.360001,  48.790001, 0.000000,  0.000000 
 1179648.000000, -7.156933 , -0.457029, 2.445465, 838588224.000000, -64.610001,  35.490002,  57.959999, 0.000000,  0.000000 
 1199616.000000, -5.692525 , -0.327817, 3.081956, 838607744.000000, -72.660004,  24.710001,  58.730000, 0.000000,  0.000000 
 1219648.000000, -4.584648 , 0.256032, 3.426522, 838627712.000000, -62.860001,  11.550000,  55.650002, 0.000000,  0.000000 
 1239616.000000, -4.283153 , 0.811167, 3.182454, 838647680.000000, -30.870001,  4.200000,  51.869999, 0.000000,  0.000000 
 1259904.000000, -4.546363 , 1.165305, 2.766103, 838688000.000000, 1.750000,  9.240000,  43.259998, 0.000000,  0.000000 
 1279552.000000, -5.022535 , 1.033699, 2.474179, 0.000000, 0.000000,  0.000000,  0.000000, 0.000000,  0.000000 
 1299584.000000, -5.469993 , 0.579063, 2.175076, 838707648.000000, -15.050000,  6.580000,  40.599998, 0.000000,  0.000000 
 1319552.000000, -6.199803 , 0.452243, 2.038685, 838727680.000000, -29.889999,  2.800000,  38.709999, 0.000000,  0.000000 
 1339520.000000, -7.250252 , 0.021535, 1.818545, 838747648.000000, -38.009998,  1.330000,  38.779999, 0.000000,  0.000000 
 1359872.000000, -9.083155 , -0.535992, 2.093720, 838767616.000000, -45.360001,  5.670000,  39.130001, 0.000000,  0.000000 
 1379520.000000, -11.545370 , -1.332802, 2.333002, 838787968.000000, -57.470001,  22.610001,  36.400002, 0.000000,  0.000000 
 1399616.000000, -13.713267 , -1.916651, 3.141776, 838827648.000000, -53.970001,  40.040001,  20.580000, 898817408.000000,  1011.176086 
 1420288.000000, -13.019348 , -1.816152, 4.086941, 0.000000, 0.000000,  0.000000,  0.000000, 0.000000,  0.000000 
 1439552.000000, -10.918450 , -0.916451, 4.161119, 838848384.000000, -35.700001,  14.070000,  17.500000, 0.000000,  0.000000 
 1460992.000000, -9.968499 , -0.375673, 3.716053, 838867648.000000, -7.980000,  -8.540000,  13.370000, 0.000000,  0.000000 
 1480576.000000, -10.652846 , -1.083949, 3.885944, 838889088.000000, 5.180000,  -4.690000,  -0.490000, 0.000000,  0.000000 
 1500544.000000, -12.748959 , -2.038685, 3.763910, 838908672.000000, -4.340000,  11.620000,  -19.809999, 0.000000,  0.000000 
 1520640.000000, -14.569898 , -2.029114, 3.361916, 838928640.000000, 3.780000,  23.379999,  -35.630001, 0.000000,  0.000000 
 1540544.000000, -15.247066 , -1.811367, 3.278167, 838948672.000000, 33.180000,  20.160000,  -44.029999, 0.000000,  0.000000 
 1561280.000000, -14.792429 , -1.438086, 3.464807, 838968640.000000, 55.930000,  -0.140000,  -53.410000, 0.000000,  0.000000 
 1580864.000000, -13.428520 , -0.698704, 3.373880, 839008960.000000, 43.119999,  -55.860001,  -92.470001, 0.000000,  0.000000 
 1600960.000000, -11.595619 , -2.038685, 3.072384, 0.000000, 0.000000,  0.000000,  0.000000, 0.000000,  0.000000 
 1620992.000000, -11.337193 , -4.429115, 3.309274, 839029056.000000, -12.460000,  -84.840004,  -131.460007, 0.000000,  0.000000 
 1640832.000000, -13.091133 , -4.771288, 3.594020, 839068928.000000, -85.610001,  -84.279999,  -223.580002, 0.000000,  0.000000 
 1661632.000000, -14.017156 , -4.407579, 2.215754, 0.000000, 0.000000,  0.000000,  0.000000, 0.000000,  0.000000 
 1681216.000000, -12.981063 , -5.185246, 1.612763, 839089664.000000, -63.560001,  -103.040001,  -251.020004, 0.000000,  0.000000 
 1701184.000000, -11.889936 , -6.173482, 2.134398, 839109312.000000, -66.989998,  -128.169998,  -272.440002, 0.000000,  0.000000 
 1721216.000000, -11.406586 , -5.898308, 2.935993, 839129280.000000, -75.180000,  -129.710007,  -285.040009, 0.000000,  0.000000 
 1741184.000000, -10.810772 , -4.144369, 2.359323, 839149312.000000, -41.509998,  -117.739998,  -283.010010, 0.000000,  0.000000 
 1761280.000000, -9.595219 , -2.811567, 1.318445, 839169280.000000, 15.820000,  -116.480003,  -266.140015, 0.000000,  0.000000 
 1782208.000000, -8.130811 , -2.864209, 1.249053, 839189312.000000, 49.980000,  -122.570000,  -245.350006, 0.000000,  0.000000 
 1802176.000000, -7.214360 , -3.105884, 1.543371, 839210304.000000, 47.320000,  -120.540001,  -224.000000, 0.000000,  0.000000 
 1822272.000000, -6.762117 , -2.866602, 1.430908, 839230272.000000, 46.410000,  -107.099998,  -201.039993, 0.000000,  0.000000 
 1842176.000000, -6.381658 , -2.337788, 0.768096, 839250368.000000, 62.580002,  -93.099998,  -175.559998, 0.000000,  0.000000 
 1862528.000000, -5.977271 , -2.014757, 0.337388, 839270272.000000, 80.639999,  -83.160004,  -151.339996, 0.000000,  0.000000 
 1882112.000000, -5.773881 , -2.062613, 0.476172, 839290624.000000, 84.559998,  -70.910004,  -126.279999, 0.000000,  0.000000 
 1902144.000000, -6.489335 , -1.978864, 0.614955, 839310208.000000, 81.900002,  -53.900002,  -100.029999, 0.000000,  0.000000 
 1922240.000000, -7.381857 , -1.823331, 0.583849, 839330240.000000, 77.000000,  -31.219999,  -74.410004, 0.000000,  0.000000 
 1942144.000000, -7.987241 , -1.823331, 0.612563, 839350272.000000, 64.400002,  -12.110000,  -45.920002, 0.000000,  0.000000 
 1962496.000000, -8.573483 , -1.866402, 0.382852, 839370240.000000, 46.549999,  -0.140000,  -18.200001, 0.000000,  0.000000 
 1982144.000000, -9.477970 , -1.373480, 0.591027, 839390528.000000, 35.279999,  16.170000,  7.140000, 0.000000,  0.000000 
 2002112.000000, -10.547562 , -0.885344, 0.763310, 839410176.000000, 31.639999,  37.660000,  29.820000, 0.000000,  0.000000 
 2022144.000000, -10.882557 , -0.691526, 1.174876, 839430208.000000, 35.279999,  60.689999,  52.220001, 0.000000,  0.000000 
 2042048.000000, -10.181459 , 0.004786, 0.928415, 839450240.000000, 39.689999,  69.019997,  67.900002, 0.000000,  0.000000 
 2062528.000000, -10.341780 , 0.217747, 0.184247, 839470144.000000, 43.400002,  67.129997,  77.769997, 0.000000,  0.000000 
 2082048.000000, -12.856635 , -0.952343, 0.174676, 839490624.000000, 30.100000,  87.500000,  95.620003, 0.000000,  0.000000 
 2102080.000000, -16.134804 , -2.306681, 0.705883, 839510144.000000, -1.050000,  132.300003,  118.720001, 0.000000,  0.000000 
 2122048.000000, -17.027327 , -2.426322, 1.371087, 839530112.000000, -19.809999,  167.020004,  156.169998, 0.000000,  0.000000 
 2142016.000000, -14.143975 , -1.280160, 1.627119, 839550144.000000, -9.940000,  160.789993,  192.850006, 0.000000,  0.000000 
 2162368.000000, -12.961920 , -0.753739, 2.115255, 839570112.000000, 6.160000,  132.089996,  218.190002, 0.000000,  0.000000 
 2182016.000000, -14.780465 , -1.646262, 3.529413, 839590464.000000, -2.170000,  143.500000,  231.770004, 0.000000,  0.000000 
 2201984.000000, -16.381264 , -2.541178, 4.955536, 839610112.000000, -18.900000,  174.789993,  229.040009, 0.000000,  0.000000 
 2222080.000000, -15.381063 , -2.658426, 5.304887, 839630016.000000, -4.200000,  177.520004,  221.199997, 0.000000,  0.000000 
 2241984.000000, -13.902299 , -0.332602, 3.972085, 839650112.000000, 49.770000,  149.729996,  207.550003, 0.000000,  0.000000 
 2262336.000000, -12.100503 , 1.536192, 1.674976, 839670080.000000, 94.570000,  117.739998,  178.080002, 0.000000,  0.000000 
 2281920.000000, -10.451849 , 2.062613, 1.749153, 839690368.000000, 92.190002,  92.750000,  142.240005, 0.000000,  0.000000 
 2301952.000000, -9.468399 , 0.909273, 2.330609, 839710016.000000, 24.570000,  74.340004,  101.500000, 0.000000,  0.000000 
 2321984.000000, -9.111869 , -0.509671, 2.517249, 839730048.000000, -51.380001,  70.349998,  73.709999, 0.000000,  0.000000 
 2341888.000000, -8.791230 , -1.153341, 2.163112, 839750080.000000, -97.019997,  68.739998,  61.740002, 0.000000,  0.000000 
 2362240.000000, -8.128418 , -1.500300, 1.818545, 839769984.000000, -112.489998,  58.939999,  63.209999, 0.000000,  0.000000 
 2381888.000000, -7.494320 , -1.576870, 1.572084, 839790336.000000, -113.889999,  46.130001,  71.820000, 0.000000,  0.000000 
 2401856.000000, -7.159326 , -1.674976, 1.454836, 839829952.000000, -101.080002,  33.459999,  90.790001, 899819712.000000,  1011.176147 
 2421824.000000, -7.412964 , -1.667797, 1.428515, 0.000000, 0.000000,  0.000000,  0.000000, 0.000000,  0.000000 
 2441792.000000, -8.482556 , -1.878366, 1.229911, 839849856.000000, -94.919998,  36.189999,  101.080002, 0.000000,  0.000000 
 2462080.000000, -10.059426 , -2.371287, 1.165305, 839869888.000000, -94.989998,  45.920002,  110.459999, 0.000000,  0.000000 
 2481792.000000, -11.880364 , -2.907279, 1.919044, 839890176.000000, -94.639999,  59.500000,  118.090004, 0.000000,  0.000000 
 2501760.000000, -13.272987 , -3.342773, 3.014957, 839909824.000000, -87.430000,  69.860001,  126.209999, 0.000000,  0.000000 
 2521728.000000, -12.856635 , -3.352344, 3.292524, 839929856.000000, -73.220001,  64.750000,  129.850006, 0.000000,  0.000000 
 2541760.000000, -11.526227 , -4.240082, 3.476771, 839949824.000000, -64.610001,  43.259998,  121.730003, 0.000000,  0.000000 
 2562048.000000, -10.353743 , -2.840281, 4.335794, 839969792.000000, -71.540001,  23.730000,  91.209999, 0.000000,  0.000000 
 2581696.000000, -9.994821 , -0.942772, 5.048856, 839990144.000000, -70.629997,  14.140000,  45.009998, 0.000000,  0.000000 
 2601728.000000, -11.511869 , -1.088734, 4.725825, 840009792.000000, -28.840000,  20.510000,  11.830000, 0.000000,  0.000000 
 2621696.000000, -13.739587 , -3.278167, 4.180261, 840029824.000000, 0.140000,  39.200001,  -27.299999, 0.000000,  0.000000 
 2641664.000000, -15.309279 , -4.498507, 3.629912, 840049792.000000, 2.030000,  45.080002,  -59.849998, 0.000000,  0.000000 
 2662016.000000, -13.828122 , -3.481557, 3.098706, 840069760.000000, 19.460001,  32.060001,  -81.830002, 0.000000,  0.000000 
 2681664.000000, -10.554741 , -2.438286, 3.187240, 840090048.000000, 59.990002,  -10.710000,  -95.480003, 0.000000,  0.000000 
 2701632.000000, -8.882158 , -2.203789, 3.184847, 840109760.000000, 88.059998,  -51.380001,  -108.500000, 0.000000,  0.000000 
 2721600.000000, -10.057034 , -1.612763, 3.046063, 840129728.000000, 104.019997,  -58.099998,  -127.050003, 0.000000,  0.000000 
 2741632.000000, -12.516854 , -0.942772, 2.103291, 840149696.000000, 118.160004,  -42.560001,  -142.520004, 0.000000,  0.000000 
 2761920.000000, -13.890336 , -0.902094, 1.677369, 840169728.000000, 128.029999,  -40.110001,  -149.940002, 0.000000,  0.000000 
 2781568.000000, -13.794623 , -1.205983, 1.861616, 840190016.000000, 122.360001,  -62.160000,  -152.320007, 0.000000,  0.000000 
 2801600.000000, -12.873385 , -1.339981, 1.773082, 840209664.000000, 104.650002,  -93.449997,  -153.440002, 0.000000,  0.000000 
 2821568.000000, -12.289536 , -1.265803, 1.502693, 840229696.000000, 92.680000,  -114.379997,  -152.250000, 0.000000,  0.000000 
 2841536.000000, -11.722438 , -1.287339, 1.586441, 840249664.000000, 85.330002,  -119.489998,  -152.740005, 0.000000,  0.000000 
 2861888.000000, -10.794022 , -1.339981, 1.622334, 840269632.000000, 73.080002,  -122.989998,  -151.899994, 0.000000,  0.000000 
 2881536.000000, -10.140782 , -1.282553, 1.368695, 840289984.000000, 66.989998,  -130.270004,  -149.380005, 0.000000,  0.000000 
 2901504.000000, -9.846465 , -1.323231, 0.875773, 840309632.000000, 61.670002,  -134.399994,  -147.139999, 0.000000,  0.000000 
 2921536.000000, -9.568897 , -1.737189, 0.301496, 840329600.000000, 47.599998,  -136.710007,  -147.070007, 0.000000,  0.000000 
 2941504.000000, -9.456435 , -2.024328, 0.119641, 840349632.000000, 34.650002,  -139.720001,  -149.029999, 0.000000,  0.000000 
 2961792.000000, -10.047462 , -1.837688, 0.248854, 840369600.000000, 32.900002,  -137.270004,  -149.800003, 0.000000,  0.000000 
 2981504.000000, -10.990234 , -1.495514, 0.093320, 840389888.000000, 37.939999,  -127.190002,  -147.210007, 0.000000,  0.000000 
 3001472.000000, -11.461621 , -1.423729, -0.212961, 840409600.000000, 39.549999,  -119.279999,  -140.979996, 0.000000,  0.000000 
 3021440.000000, -11.511869 , -1.239482, -0.579063, 840429568.000000, 31.290001,  -116.340004,  -130.410004, 0.000000,  0.000000 
 3041472.000000, -11.028521 , 0.533599, -0.736989, 840449536.000000, 18.760000,  -108.500000,  -118.650002, 0.000000,  0.000000 
 3061760.000000, -9.990034 , 1.667797, -1.086342, 840469568.000000, 22.960001,  -93.029999,  -96.250000, 0.000000,  0.000000 
 3081408.000000, -9.607183 , 0.552742, -0.641276, 840489856.000000, 18.620001,  -78.680000,  -70.000000, 0.000000,  0.000000 
 3101440.000000, -10.494920 , -1.947758, 1.227518, 840509504.000000, -26.880001,  -48.160000,  -55.369999, 0.000000,  0.000000 
 3121408.000000, -12.174682 , -2.730211, 3.390630, 840529536.000000, -64.889999,  -3.640000,  -35.700001, 0.000000,  0.000000 
 3141376.000000, -11.808580 , -0.074178, 2.007578, 840549504.000000, -27.580000,  35.980000,  -1.120000, 0.000000,  0.000000 
 3161728.000000, -10.537991 , 2.471786, 0.203390, 840569472.000000, 54.320000,  32.060001,  45.500000, 0.000000,  0.000000 
 3181376.000000, -11.097912 , 1.978864, -0.545564, 840589760.000000, 70.559998,  34.650002,  80.360001, 0.000000,  0.000000 
 3201344.000000, -12.827922 , 0.296710, -0.796810, 840609472.000000, 14.070000,  68.320000,  98.489998, 0.000000,  0.000000 
 3221376.000000, -12.746566 , -0.339781, -0.119641, 840629440.000000, -31.639999,  102.620003,  118.580002, 0.000000,  0.000000 
 3241344.000000, -11.267801 , -0.655633, 0.133998, 840649472.000000, -40.670002,  98.419998,  138.949997, 0.000000,  0.000000 
 3261632.000000, -10.973484 , -0.468993, 0.710668, 840669440.000000, -30.799999,  86.169998,  150.289993, 0.000000,  0.000000 
 3281472.000000, -12.356536 , -0.260818, 1.060020, 840689728.000000, -23.379999,  100.099998,  159.039993, 0.000000,  0.000000 
 3301312.000000, -13.287343 , -0.004786, 1.445265, 840709568.000000, -22.750000,  121.309998,  158.970001, 0.000000,  0.000000 
 3321280.000000, -13.184454 , -0.174676, 1.854438, 840729408.000000, -23.379999,  126.000000,  156.729996, 0.000000,  0.000000 
 3341312.000000, -12.263215 , -0.418744, 2.400001, 840749376.000000, -21.980000,  119.489998,  153.089996, 0.000000,  0.000000 
 3361600.000000, -10.923235 , -0.567099, 2.562713, 840769344.000000, -25.620001,  115.360001,  149.869995, 0.000000,  0.000000 
 3381248.000000, -9.544970 , -0.217747, 2.313859, 840789696.000000, -33.670002,  106.540001,  145.600006, 0.000000,  0.000000 
 3401280.000000, -9.059227 , -0.062213, 2.100898, 840829376.000000, -40.599998,  90.090004,  131.529999, 900819072.000000,  1011.172546 
 3421248.000000, -8.556733 , 0.057428, 1.978864, 0.000000, 0.000000,  0.000000,  0.000000, 0.000000,  0.000000 
 3442048.000000, -8.774480 , -0.437887, 1.823331, 840849344.000000, -52.290001,  92.610001,  125.930000, 0.000000,  0.000000 
 3461568.000000, -9.248260 , -1.019342, 1.859223, 840870144.000000, -62.299999,  99.260002,  122.919998, 0.000000,  0.000000 
 3481728.000000, -9.863215 , -1.213161, 1.663012, 840889664.000000, -60.340000,  102.970001,  123.620003, 0.000000,  0.000000 
 3501696.000000, -10.454242 , -1.368695, 1.622334, 840909824.000000, -52.150002,  101.150002,  128.029999, 0.000000,  0.000000 
 3521664.000000, -10.951948 , -1.758725, 1.799403, 840929728.000000, -48.509998,  98.000000,  132.440002, 0.000000,  0.000000 
 3541696.000000, -11.820543 , -2.244468, 2.220540, 840949760.000000, -48.650002,  94.220001,  136.360001, 0.000000,  0.000000 
 3561920.000000, -12.933208 , -2.385644, 2.959922, 840969728.000000, -52.849998,  92.190002,  136.779999, 0.000000,  0.000000 
 3581888.000000, -13.744373 , -2.813959, 3.158526, 840990016.000000, -53.619999,  91.629997,  137.830002, 0.000000,  0.000000 
 3601856.000000, -13.112667 , -3.474378, 3.751946, 841009920.000000, -53.689999,  82.040001,  126.770004, 0.000000,  0.000000 
 3621760.000000, -11.787045 , -2.553142, 3.811767, 841029888.000000, -51.520000,  57.540001,  106.330002, 0.000000,  0.000000 
 3641856.000000, -10.894521 , -1.347159, 4.065405, 841049856.000000, -37.029999,  36.119999,  82.110001, 0.000000,  0.000000 
 3662080.000000, -10.956735 , -0.787239, 4.182654, 841069952.000000, -14.700000,  30.309999,  55.369999, 0.000000,  0.000000 
 3681536.000000, -11.306087 , -1.304088, 4.469792, 841090176.000000, -1.260000,  33.250000,  24.080000, 0.000000,  0.000000 
 3702784.000000, -12.437892 , -3.002992, 4.522435, 841109632.000000, 0.070000,  31.219999,  -5.950000, 0.000000,  0.000000 
 3722816.000000, -13.083955 , -3.328416, 3.830909, 841130880.000000, 11.830000,  26.320000,  -31.080000, 0.000000,  0.000000 
 3742912.000000, -13.885550 , -1.883151, 3.481557, 841150912.000000, 31.639999,  19.460001,  -52.150002, 0.000000,  0.000000 
 3763136.000000, -10.394422 , -0.497707, 3.120241, 841170944.000000, 52.220001,  2.380000,  -66.220001, 0.000000,  0.000000 
 3782848.000000, -9.231510 , -0.480957, 3.232704, 841191168.000000, 53.970001,  -43.540001,  -77.209999, 0.000000,  0.000000 
 3802816.000000, -8.597411 , -0.885344, 3.469593, 841210944.000000, 40.599998,  -76.019997,  -93.590004, 0.000000,  0.000000 
 3822784.000000, -10.332209 , -1.287339, 3.426522, 841230848.000000, 36.119999,  -74.410004,  -113.330002, 0.000000,  0.000000 
 3842816.000000, -12.736995 , -1.313660, 2.878566, 841250880.000000, 49.070000,  -57.540001,  -128.660004, 0.000000,  0.000000 
 3863040.000000, -13.981262 , -1.469193, 2.366502, 841270912.000000, 71.260002,  -58.029999,  -138.669998, 0.000000,  0.000000 
 3882816.000000, -14.132010 , -1.138984, 1.969293, 841291136.000000, 92.610001,  -81.550003,  -143.570007, 0.000000,  0.000000 
 3902720.000000, -13.813765 , -0.591027, 1.390230, 841310912.000000, 114.870003,  -110.040001,  -148.889999, 0.000000,  0.000000 
 3922688.000000, -13.794623 , -0.117248, 1.253839, 841330816.000000, 138.809998,  -127.610001,  -152.389999, 0.000000,  0.000000 
 3942784.000000, -13.591233 , 0.631705, 1.170090, 841350784.000000, 152.250000,  -134.889999,  -157.009995, 0.000000,  0.000000 
 3963008.000000, -12.643675 , 0.681954, 1.117448, 841370880.000000, 151.550003,  -146.440002,  -157.990005, 0.000000,  0.000000 
 3982784.000000, -11.504691 , 0.442672, 0.744168, 841391104.000000, 133.910004,  -166.880005,  -159.529999, 0.000000,  0.000000 
 4002688.000000, -10.435099 , -0.100499, 0.466600, 841410816.000000, 101.849998,  -174.300003,  -158.130005, 0.000000,  0.000000 
 4022656.000000, -9.784252 , -0.258425, 0.624527, 841430784.000000, 62.650002,  -172.479996,  -149.940002, 0.000000,  0.000000 
 4042752.000000, -9.300901 , -0.526421, -0.035892, 841450752.000000, 29.049999,  -167.509995,  -144.270004, 0.000000,  0.000000 
 4062912.000000, -8.922836 , -0.885344, -0.373280, 841470784.000000, 7.350000,  -161.070007,  -131.320007, 0.000000,  0.000000 
 4082688.000000, -8.666803 , -1.387837, -0.547956, 841491008.000000, -12.950000,  -153.649994,  -118.650002, 0.000000,  0.000000 
 4102592.000000, -8.671589 , -1.890330, -0.571885, 841510720.000000, -29.960001,  -143.220001,  -103.809998, 0.000000,  0.000000 
 4122624.000000, -8.997013 , -2.053042, -0.325424, 841530688.000000, -39.060001,  -128.660004,  -88.269997, 0.000000,  0.000000 
 4142656.000000, -9.190832 , -2.057827, -0.222532, 841550720.000000, -35.420002,  -111.650002,  -70.699997, 0.000000,  0.000000 
 4162880.000000, -9.611969 , -1.682154, -0.291924, 841570752.000000, -22.889999,  -97.300003,  -52.990002, 0.000000,  0.000000 
 4182656.000000, -9.932607 , -1.198804, 0.004786, 841590976.000000, -11.970000,  -84.419998,  -38.430000, 0.000000,  0.000000 
 4202560.000000, -10.124033 , -0.713061, 0.205783, 841610752.000000, -3.150000,  -64.330002,  -21.210001, 0.000000,  0.000000 
 4222528.000000, -10.722239 , -0.512064, 0.318245, 841630592.000000, 6.440000,  -45.639999,  -6.370000, 0.000000,  0.000000 
 4242560.000000, -11.310873 , -0.545564, 1.581656, 841650624.000000, 8.050000,  -14.980000,  7.000000, 0.000000,  0.000000 
 4262848.000000, -11.286944 , -0.533599, 1.576870, 841670656.000000, 0.070000,  13.930000,  17.080000, 0.000000,  0.000000 
 4282560.000000, -12.004791 , -0.480957, 1.557728, 841690880.000000, 4.410000,  26.320000,  26.460001, 0.000000,  0.000000 
 4302528.000000, -13.773087 , -0.468993, 1.562513, 841710656.000000, 15.190001,  62.510002,  43.470001, 0.000000,  0.000000 
 4322496.000000, -14.723038 , -0.827917, 1.507478, 841730624.000000, 11.620000,  104.510002,  63.560001, 0.000000,  0.000000 
 4342528.000000, -12.758532 , -1.105484, 1.919044, 841750528.000000, 1.470000,  120.190002,  84.139999, 0.000000,  0.000000 
 4362752.000000, -10.030712 , -1.036092, 1.849652, 841770624.000000, -1.610000,  101.360001,  109.760002, 0.000000,  0.000000 
 4382528.000000, -8.319844 , -0.660419, 1.928615, 841790848.000000, 5.810000,  83.720001,  129.009995, 0.000000,  0.000000 
 4402432.000000, -8.355737 , -0.514457, 2.423929, 841830528.000000, 10.640000,  119.629997,  129.430008, 901820224.000000,  1011.162598 
 4422464.000000, -9.801002 , -0.026321, 2.885744, 0.000000, 0.000000,  0.000000,  0.000000, 0.000000,  0.000000 
 4442496.000000, -11.377872 , 1.318445, 2.766103, 841850560.000000, 29.469999,  146.580002,  117.949997, 0.000000,  0.000000 
 4462656.000000, -11.655439 , 1.904687, 2.457429, 841870592.000000, 45.430000,  149.940002,  110.389999, 0.000000,  0.000000 
 4482368.000000, -10.226924 , 1.244268, 2.581856, 841890752.000000, 28.070000,  125.930000,  100.660004, 0.000000,  0.000000 
 4502336.000000, -8.932407 , 0.598206, 2.761317, 841910400.000000, -10.150000,  96.250000,  94.080002, 0.000000,  0.000000 
 4522304.000000, -8.061419 , 0.318245, 2.749353, 841930432.000000, -38.990002,  80.919998,  86.029999, 0.000000,  0.000000 
 4542336.000000, -7.491928 , -0.052642, 2.593820, 841950400.000000, -53.830002,  76.090004,  81.900002, 0.000000,  0.000000 
 4562624.000000, -7.424929 , -0.370888, 2.648855, 841970368.000000, -62.160000,  75.040001,  79.169998, 0.000000,  0.000000 
 4582272.000000, -7.683353 , -0.435494, 2.648855, 841990720.000000, -66.989998,  77.629997,  79.309998, 0.000000,  0.000000 
 4602304.000000, -8.291130 , -0.533599, 2.476572, 842010368.000000, -67.760002,  81.550003,  85.959999, 0.000000,  0.000000 
 4622272.000000, -8.941978 , -0.918844, 2.665605, 842030400.000000, -69.370003,  82.949997,  94.080002, 0.000000,  0.000000 
 4642240.000000, -9.858429 , -1.246661, 2.857030, 842050368.000000, -74.199997,  82.739998,  103.459999, 0.000000,  0.000000 
 4662528.000000, -11.542977 , -1.593620, 2.974278, 842070336.000000, -77.629997,  85.050003,  114.029999, 0.000000,  0.000000 
 4682240.000000, -13.519447 , -1.988436, 3.438486, 842090624.000000, -77.910004,  93.590004,  122.500000, 0.000000,  0.000000 
 4702208.000000, -14.550755 , -2.533999, 4.644469, 842110336.000000, -73.989998,  97.160004,  127.190002, 0.000000,  0.000000 
 4722240.000000, -13.694124 , -2.634498, 4.668397, 842130304.000000, -61.180000,  82.739998,  126.000000, 0.000000,  0.000000 
 4742208.000000, -12.011970 , -1.598405, 4.060620, 842150272.000000, -35.000000,  51.730000,  115.220001, 0.000000,  0.000000 
 4762496.000000, -10.174281 , 0.385244, 4.156333, 842170304.000000, -18.340000,  22.610001,  85.330002, 0.000000,  0.000000 
 4782208.000000, -9.461221 , 1.765903, 3.649055, 842190592.000000, 2.310000,  4.830000,  56.070000, 0.000000,  0.000000 
 4802176.000000, -10.210175 , 0.957129, 2.801995, 842210240.000000, 22.049999,  5.950000,  24.150000, 0.000000,  0.000000 
 4822144.000000, -11.813366 , -1.076770, 2.629712, 842230272.000000, 6.440000,  12.950000,  -11.900000, 0.000000,  0.000000 
 4842176.000000, -13.447663 , -2.565106, 2.682354, 842250240.000000, -26.740000,  18.480000,  -34.509998, 0.000000,  0.000000 
 4862464.000000, -15.598811 , -3.471986, 3.227918, 842270208.000000, -41.930000,  13.160000,  -44.590000, 0.000000,  0.000000 
 4882112.000000, -16.821545 , -2.780460, 3.555735, 842290560.000000, -29.260000,  14.490000,  -50.540001, 0.000000,  0.000000 
 4902144.000000, -13.701303 , -0.760918, 3.811767, 842310208.000000, -0.910000,  1.330000,  -52.009998, 0.000000,  0.000000 
 4922112.000000, -9.650253 , 0.382852, 3.723232, 842330176.000000, 36.330002,  -44.170002,  -48.020000, 0.000000,  0.000000 
 4942080.000000, -7.484749 , 0.122034, 3.457629, 842350208.000000, 63.630001,  -79.309998,  -62.369999, 0.000000,  0.000000 
 4962368.000000, -8.181061 , -0.698704, 3.751946, 842370176.000000, 81.830002,  -78.190002,  -89.949997, 0.000000,  0.000000 
 4982080.000000, -10.822738 , -1.715654, 3.244668, 842390464.000000, 101.220001,  -52.430000,  -118.370003, 0.000000,  0.000000 
 5002048.000000, -12.973885 , -1.842474, 2.438286, 842410176.000000, 132.860001,  -33.180000,  -134.889999, 0.000000,  0.000000 
 5022080.000000, -13.337594 , -1.430908, 1.249053, 842430144.000000, 168.559998,  -47.320000,  -140.419998, 0.000000,  0.000000 
 5042048.000000, -12.562319 , 0.105284, 0.691526, 842450112.000000, 198.589996,  -83.019997,  -135.169998, 0.000000,  0.000000 
 5062336.000000, -11.607583 , 2.112862, 0.153141, 842470144.000000, 208.389999,  -120.190002,  -129.639999, 0.000000,  0.000000 
 5082048.000000, -10.188639 , 2.667997, 0.090927, 842490432.000000, 187.460007,  -144.619995,  -124.669998, 0.000000,  0.000000 
 5102016.000000, -8.662018 , 1.890330, 0.284746, 842510080.000000, 131.809998,  -161.910004,  -121.870003, 0.000000,  0.000000 
 5121984.000000, -7.767102 , 0.744168, 0.708275, 842530112.000000, 60.200001,  -169.820007,  -127.540001, 0.000000,  0.000000 
 5142016.000000, -7.491928 , 0.744168, 1.002593, 842550080.000000, 0.280000,  -161.770004,  -134.470001, 0.000000,  0.000000 
 5162304.000000, -7.319644 , -0.373280, 0.935594, 842570048.000000, -34.860001,  -146.440002,  -134.889999, 0.000000,  0.000000 
 5181952.000000, -7.097112 , -0.928415, 0.854238, 842590400.000000, -49.700001,  -135.869995,  -130.550003, 0.000000,  0.000000 
 5201920.000000, -7.010970 , -1.450050, 1.124627, 842610048.000000, -56.560001,  -127.820000,  -121.660004, 0.000000,  0.000000 
 5221952.000000, -7.494320 , -1.770689, 1.533799, 842630016.000000, -58.939999,  -117.180000,  -107.660004, 0.000000,  0.000000 
 5241920.000000, -8.551948 , -2.055435, 0.772882, 842650048.000000, -50.470001,  -102.620003,  -89.599998, 0.000000,  0.000000 
 5262208.000000, -9.518648 , -2.277967, 0.119641, 842670016.000000, -33.670002,  -85.260002,  -65.870003, 0.000000,  0.000000 
 5281920.000000, -10.080962 , -2.457429, 0.622134, 842690304.000000, -23.799999,  -73.500000,  -39.970001, 0.000000,  0.000000 
 5301888.000000, -10.904092 , -2.242075, 1.170090, 842710016.000000, -17.850000,  -62.860001,  -12.810000, 0.000000,  0.000000 
 5321856.000000, -12.236896 , -1.478764, 0.784846, 842729984.000000, 1.400000,  -48.930000,  12.040000, 0.000000,  0.000000 
 5341888.000000, -12.949955 , -0.507278, 0.421137, 842749952.000000, 24.710001,  -27.580000,  32.270000, 0.000000,  0.000000 
 5362176.000000, -12.086146 , 0.122034, 1.701297, 842769984.000000, 38.009998,  -11.480000,  49.560001, 0.000000,  0.000000 
 5381824.000000, -11.207980 , 0.653241, 2.254039, 842790272.000000, 41.439999,  -2.940000,  57.400002, 0.000000,  0.000000 
 5401856.000000, -11.868401 , 1.311267, 1.842474, 842809920.000000, 51.590000,  19.740000,  58.099998, 0.000000,  0.000000 
 5421824.000000, -13.476377 , 1.048056, 1.069592, 842829952.000000, 57.540001,  56.770000,  49.980000, 902819648.000000,  1011.150574 
 5441792.000000, -14.790037 , 0.251246, 1.507478, 842849920.000000, 47.599998,  92.260002,  47.459999, 0.000000,  0.000000 
 5462144.000000, -14.880964 , 0.035892, 1.852045, 842869888.000000, 28.840000,  114.590004,  56.349998, 0.000000,  0.000000 
 5481792.000000, -12.368500 , 0.301496, 1.782653, 842890240.000000, 26.950001,  117.809998,  79.029999, 0.000000,  0.000000 
 5501760.000000, -9.619147 , 0.208176, 2.122434, 842909888.000000, 29.680000,  94.010002,  101.989998, 0.000000,  0.000000 
 5521792.000000, -8.224132 , 0.198604, 2.572284, 842929856.000000, 16.730000,  80.430000,  116.970001, 0.000000,  0.000000 
 5541760.000000, -8.496914 , 0.753739, 2.476572, 842949824.000000, 5.530000,  91.070000,  122.570000, 0.000000,  0.000000 
 5562048.000000, -10.066606 , 1.545763, 1.890330, 842969856.000000, 6.090000,  101.150002,  120.889999, 0.000000,  0.000000 
 5581760.000000, -11.655439 , 1.732404, 1.921437, 842990144.000000, 19.110001,  124.669998,  119.139999, 0.000000,  0.000000 
 5601792.000000, -11.550155 , 1.576870, 2.301895, 843009792.000000, 22.190001,  138.320007,  116.480003, 0.000000,  0.000000 
 5621696.000000, -10.767702 , 1.588834, 2.467000, 843029824.000000, 4.060000,  127.400002,  113.750000, 0.000000,  0.000000 
 5641728.000000, -9.016156 , 1.741975, 2.589034, 843049792.000000, -19.950001,  98.629997,  112.349998, 0.000000,  0.000000 
 5662016.000000, -7.621140 , 1.730011, 2.385644, 843069760.000000, -43.750000,  75.809998,  107.379997, 0.000000,  0.000000 
 5681664.000000, -6.611369 , 1.404587, 2.285146, 843090112.000000, -67.340004,  64.400002,  98.000000, 0.000000,  0.000000 
 5701696.000000, -6.135197 , 1.055235, 2.084148, 843109760.000000, -85.050003,  59.360001,  87.220001, 0.000000,  0.000000 
 5721664.000000, -6.190232 , 0.595813, 1.753939, 843129728.000000, -92.680000,  59.570000,  78.260002, 0.000000,  0.000000 
 5741632.000000, -6.793223 , 0.184247, 1.655833, 843149760.000000, -96.320000,  62.580002,  73.500000, 0.000000,  0.000000 
 5761984.000000, -7.735995 , 0.031107, 1.706082, 843169728.000000, -101.430000,  65.660004,  70.139999, 0.000000,  0.000000 
 5781632.000000, -8.863015 , -0.071785, 1.837688, 843190016.000000, -105.000000,  67.690002,  70.769997, 0.000000,  0.000000 
 5801600.000000, -10.198210 , -0.373280, 2.148755, 843209728.000000, -107.870003,  67.620003,  73.989998, 0.000000,  0.000000 
 5821632.000000, -11.911470 , -0.775275, 2.849852, 843229696.000000, -109.760002,  69.860001,  76.440002, 0.000000,  0.000000 
 5841600.000000, -13.184454 , -0.732204, 3.471986, 843249664.000000, -108.010002,  73.220001,  75.879997, 0.000000,  0.000000 
 5861888.000000, -12.526425 , -0.418744, 3.912265, 843269696.000000, -97.440002,  67.550003,  74.059998, 0.000000,  0.000000 
 5881600.000000, -10.741381 , 0.076570, 4.163511, 843289984.000000, -82.250000,  46.200001,  69.440002, 0.000000,  0.000000 
 5901568.000000, -9.454042 , 0.543171, 4.134798, 843309632.000000, -61.389999,  28.000000,  59.639999, 0.000000,  0.000000 
 5921536.000000, -9.174082 , 0.342174, 3.885944, 843329664.000000, -36.889999,  26.460001,  43.470001, 0.000000,  0.000000 
 5941568.000000, -9.978070 , -0.411566, 3.562913, 843349632.000000, -13.930000,  33.670002,  25.900000, 0.000000,  0.000000 
 5961856.000000, -12.083755 , -1.105484, 2.931208, 843389952.000000, 33.320000,  51.799999,  -5.110000, 0.000000,  0.000000 
 5981504.000000, -14.605788 , -1.361516, 2.938386, 0.000000, 0.000000,  0.000000,  0.000000, 0.000000,  0.000000 
 6001536.000000, -16.295122 , -1.210768, 3.115455, 843409600.000000, 57.750000,  56.000000,  -15.330000, 0.000000,  0.000000 
 6021504.000000, -16.161125 , 0.114855, 3.467200, 843429568.000000, 85.120003,  42.139999,  -19.950001, 0.000000,  0.000000 
 6041472.000000, -13.497912 , 1.110270, 3.519842, 843449600.000000, 109.199997,  11.760000,  -24.639999, 0.000000,  0.000000 
 6061760.000000, -10.514063 , 2.170290, 3.409772, 843469568.000000, 120.400002,  -28.910000,  -34.439999, 0.000000,  0.000000 
 6081472.000000, -8.731410 , 2.589034, 2.768496, 843489856.000000, 117.389999,  -58.170002,  -55.650002, 0.000000,  0.000000 
 6101440.000000, -8.614161 , 2.409572, 2.727818, 843509568.000000, 116.760002,  -69.930000,  -79.029999, 0.000000,  0.000000 
 6121408.000000, -9.975677 , 1.560120, 2.730211, 843529536.000000, 103.320000,  -66.150002,  -97.160004, 0.000000,  0.000000 
 6141440.000000, -11.042876 , 0.574277, 2.768496, 843549504.000000, 84.910004,  -62.720001,  -108.919998, 0.000000,  0.000000 
 6161728.000000, -11.289338 , -0.356531, 2.684747, 843569536.000000, 74.970001,  -75.739998,  -114.099998, 0.000000,  0.000000 
 6181440.000000, -11.337193 , 0.284746, 2.586641, 843589824.000000, 84.910004,  -98.559998,  -114.730003, 0.000000,  0.000000 
 6201408.000000, -10.808380 , 1.629512, 1.521835, 843609472.000000, 110.879997,  -122.010002,  -109.970001, 0.000000,  0.000000 
 6221376.000000, -9.621540 , 2.258825, 1.019342, 843629504.000000, 136.430008,  -146.509995,  -95.340004, 0.000000,  0.000000 
 6241344.000000, -8.245667 , 2.352145, 0.969093, 843649472.000000, 136.009995,  -170.940002,  -86.590004, 0.000000,  0.000000 
 6261696.000000, -7.460821 , 2.344966, 1.356731, 843669440.000000, 117.459999,  -186.130005,  -80.919998, 0.000000,  0.000000 
 6281344.000000, -7.101898 , 2.237289, 1.538585, 843689792.000000, 94.919998,  -187.389999,  -78.400002, 0.000000,  0.000000 
 6301376.000000, -7.051648 , 1.864009, 1.167697, 843709440.000000, 76.019997,  -177.589996,  -74.410004, 0.000000,  0.000000 
 6321344.000000, -6.893722 , 1.007378, 0.926022, 843729408.000000, 50.540001,  -167.089996,  -71.330002, 0.000000,  0.000000 
 6341312.000000, -7.243074 , 0.035892, 1.031307, 843749440.000000, 16.379999,  -154.279999,  -69.300003, 0.000000,  0.000000 
 6361600.000000, -8.006385 , -0.382852, 1.552942, 843769408.000000, -7.490000,  -132.229996,  -65.449997, 0.000000,  0.000000 
 6381312.000000, -9.080762 , -0.275175, 1.684547, 843789696.000000, -14.490000,  -104.860001,  -53.970001, 0.000000,  0.000000 
 6401280.000000, -10.334601 , -0.167498, 1.016950, 843809408.000000, -11.480000,  -81.760002,  -38.220001, 0.000000,  0.000000 
 6421312.000000, -11.576476 , -0.471386, 0.753739, 843829376.000000, -13.090000,  -59.709999,  -18.340000, 903819136.000000,  1011.135315 
 6441280.000000, -11.949757 , -1.103091, 0.665205, 843849344.000000, -29.120001,  -38.500000,  -4.970000, 0.000000,  0.000000 
 6461568.000000, -11.729616 , -0.612563, 1.213161, 843869376.000000, -37.520000,  -29.190001,  4.970000, 0.000000,  0.000000 
 6481216.000000, -11.492726 , 0.212961, 1.138984, 843889664.000000, -29.889999,  -22.469999,  12.110000, 0.000000,  0.000000 
 6501248.000000, -11.097912 , 0.495314, 0.880559, 843909312.000000, -19.950001,  -7.980000,  18.129999, 0.000000,  0.000000 
 6521216.000000, -10.554741 , 0.260818, 0.861416, 843929344.000000, -24.219999,  7.980000,  15.330000, 0.000000,  0.000000 
 6541248.000000, -11.112268 , 0.186640, 1.021735, 843949312.000000, -30.940001,  20.930000,  8.260000, 0.000000,  0.000000 
 6561536.000000, -13.617554 , 0.638884, 1.397408, 843969280.000000, -25.830000,  48.439999,  2.100000, 0.000000,  0.000000 
 6581184.000000, -15.278172 , 1.050449, 1.354338, 844009280.000000, -3.710000,  104.019997,  5.810000, 0.000000,  0.000000 
 6601216.000000, -14.115260 , 0.909273, 1.722832, 0.000000, 0.000000,  0.000000,  0.000000, 0.000000,  0.000000 
 6621184.000000, -11.720046 , 0.495314, 2.285146, 844029312.000000, -8.820000,  90.440002,  20.020000, 0.000000,  0.000000 
 6641152.000000, -9.757930 , 0.502493, 2.201397, 844049280.000000, -16.520000,  79.730003,  35.700001, 0.000000,  0.000000 
 6661440.000000, -8.429914 , 0.646062, 2.246860, 844069248.000000, -17.219999,  83.090004,  53.270000, 0.000000,  0.000000 
 6681152.000000, -7.920243 , 0.741775, 2.483750, 844089536.000000, -18.480000,  89.809998,  64.680000, 0.000000,  0.000000 
 6701120.000000, -8.791230 , 0.976272, 2.845066, 844109248.000000, -21.210001,  103.669998,  71.470001, 0.000000,  0.000000 
 6721152.000000, -10.636096 , 1.641476, 2.730211, 844129216.000000, -20.370001,  123.550003,  74.900002, 0.000000,  0.000000 
 6741120.000000, -12.277573 , 2.179861, 2.610569, 844149184.000000, -6.160000,  138.880005,  79.029999, 0.000000,  0.000000 
 6761408.000000, -12.535997 , 1.935793, 2.919244, 844169216.000000, -6.160000,  138.880005,  82.389999, 0.000000,  0.000000 
 6781120.000000, -10.808380 , 1.737189, 3.419343, 844189504.000000, -5.810000,  117.739998,  81.690002, 0.000000,  0.000000 
 6801088.000000, -8.762517 , 1.847259, 3.471986, 844209152.000000, -9.800000,  86.379997,  81.199997, 0.000000,  0.000000 
 6821056.000000, -7.386643 , 2.036292, 3.127419, 844249152.000000, -19.950001,  56.840000,  69.019997, 0.000000,  0.000000 
 6841024.000000, -6.666404 , 1.689333, 2.790031, 0.000000, 0.000000,  0.000000,  0.000000, 0.000000,  0.000000 
 6861376.000000, -6.463014 , 1.167697, 2.462214, 844269120.000000, -30.240000,  55.020000,  60.340000, 0.000000,  0.000000 
 6881024.000000, -6.415157 , 0.839881, 2.222932, 844289408.000000, -36.959999,  52.639999,  54.040001, 0.000000,  0.000000 
 6900992.000000, -6.479764 , 0.480957, 2.021935, 844309120.000000, -40.110001,  46.340000,  51.450001, 0.000000,  0.000000 
 6921024.000000, -6.836295 , 0.461815, 2.005185, 844329088.000000, -44.450001,  41.160000,  51.590000, 0.000000,  0.000000 
 6940992.000000, -7.747960 , 0.892523, 1.878366, 844349120.000000, -48.930000,  39.970001,  52.639999, 0.000000,  0.000000 
 6961280.000000, -8.760124 , 1.117448, 1.885544, 844369088.000000, -52.009998,  41.230000,  55.230000, 0.000000,  0.000000 
 6980992.000000, -10.035499 , 0.966700, 2.347359, 844389376.000000, -66.360001,  42.000000,  55.790001, 0.000000,  0.000000 
 7000960.000000, -11.442478 , 1.194018, 2.811567, 844409088.000000, -86.099998,  43.820000,  52.290001, 0.000000,  0.000000 
 7020928.000000, -12.088539 , 1.205983, 2.746960, 844449024.000000, -102.480003,  29.750000,  38.639999, 0.000000,  0.000000 
 7040960.000000, -11.978470 , 0.775275, 3.158526, 0.000000, 0.000000,  0.000000,  0.000000, 0.000000,  0.000000 
 7061376.000000, -11.411370 , 0.897308, 3.452843, 844468992.000000, -108.080002,  17.500000,  24.290001, 0.000000,  0.000000 
 7080896.000000, -11.026128 , 1.095913, 3.443272, 844489408.000000, -95.129997,  9.590000,  12.600000, 0.000000,  0.000000 
 7100928.000000, -11.126624 , 0.722632, 3.376273, 844508992.000000, -70.489998,  7.910000,  1.050000, 0.000000,  0.000000 
 7120896.000000, -12.256038 , -0.198604, 3.290131, 844528960.000000, -51.799999,  9.170000,  -9.870000, 0.000000,  0.000000 
 7140864.000000, -14.598611 , -0.612563, 3.318845, 844548992.000000, -29.680000,  17.990000,  -15.750000, 0.000000,  0.000000 
 7161216.000000, -16.223339 , -0.339781, 3.318845, 844568960.000000, 5.040000,  36.820000,  -16.940001, 0.000000,  0.000000 
 7180864.000000, -14.536398 , 0.165105, 3.354738, 844589248.000000, 44.660000,  32.480000,  -12.530000, 0.000000,  0.000000 
 7200832.000000, -11.172089 , 0.698704, 3.438486, 844608960.000000, 73.779999,  -3.990000,  -7.490000, 0.000000,  0.000000 
 7220864.000000, -8.599805 , 1.177269, 2.988636, 844628928.000000, 90.720001,  -39.689999,  -12.110000, 0.000000,  0.000000 
 7240832.000000, -7.922636 , 1.167697, 2.553142, 844648896.000000, 101.010002,  -54.389999,  -26.670000, 0.000000,  0.000000 
 7261120.000000, -9.176475 , 0.619741, 2.416751, 844668928.000000, 107.379997,  -49.770000,  -46.759998, 0.000000,  0.000000 
 7280960.000000, -10.545169 , 0.236889, 2.041078, 844689216.000000, 113.470001,  -37.660000,  -63.490002, 0.000000,  0.000000 
 7300800.000000, -10.348958 , 0.416351, 1.713261, 844709056.000000, 126.840004,  -42.630001,  -70.209999, 0.000000,  0.000000 
 7320768.000000, -9.906286 , 1.385444, 1.306481, 844728896.000000, 138.880005,  -71.400002,  -72.169998, 0.000000,  0.000000 
 7340800.000000, -9.662218 , 2.100898, 0.847059, 844748864.000000, 145.740005,  -91.419998,  -70.279999, 0.000000,  0.000000 
 7361088.000000, -8.810372 , 1.835295, 1.076770, 844768832.000000, 129.430008,  -108.290001,  -68.949997, 0.000000,  0.000000 
 7380736.000000, -7.922636 , 1.505085, 1.524228, 844789184.000000, 91.980003,  -125.020004,  -70.419998, 0.000000,  0.000000 
 7400768.000000, -7.269395 , 1.323231, 1.457229, 844828800.000000, 41.650002,  -134.470001,  -74.690002, 904818560.000000,  1011.123169 
 7420736.000000, -6.814759 , 1.363909, 1.272982, 0.000000, 0.000000,  0.000000,  0.000000, 0.000000,  0.000000 
 7440704.000000, -6.436693 , 1.148555, 1.079163, 844848832.000000, 23.660000,  -131.880005,  -77.559998, 0.000000,  0.000000 
 7461056.000000, -6.214160 , 0.679562, 1.251446, 844868800.000000, 13.790000,  -129.710007,  -77.769997, 0.000000,  0.000000 
 7480704.000000, -6.326623 , 0.248854, 1.519442, 844889088.000000, -6.230000,  -124.320000,  -75.949997, 0.000000,  0.000000 
 7500672.000000, -6.451050 , 0.114855, 1.548156, 844908800.000000, -22.680000,  -116.480003,  -73.430000, 0.000000,  0.000000 
 7520704.000000, -6.989435 , -0.040678, 1.483550, 844928768.000000, -28.630001,  -105.349998,  -66.639999, 0.000000,  0.000000 
 7540672.000000, -7.984849 , -0.404387, 1.323231, 844948736.000000, -29.330000,  -90.300003,  -56.000000, 0.000000,  0.000000 
 7560960.000000, -9.425328 , -0.813560, 1.928615, 844968768.000000, -30.450001,  -68.110001,  -43.400002, 0.000000,  0.000000 
 7580608.000000, -10.822738 , -0.803988, 1.646262, 844989056.000000, -31.080000,  -40.950001,  -28.840000, 0.000000,  0.000000 
 7600640.000000, -12.043077 , -0.179462, 1.493121, 845008704.000000, -21.350000,  -21.770000,  -11.270000, 0.000000,  0.000000 
 7620608.000000, -13.105491 , 0.227318, 1.380659, 845028736.000000, -8.400000,  -15.190001,  3.430000, 0.000000,  0.000000 
 7640576.000000, -14.005190 , 0.504886, 1.607977, 845048704.000000, -7.420000,  0.980000,  15.330000, 0.000000,  0.000000 
 7660928.000000, -14.407186 , 1.131805, 1.816152, 845068672.000000, -14.980000,  11.900000,  18.760000, 0.000000,  0.000000 
 7680576.000000, -14.646468 , 1.402194, 1.502693, 845089024.000000, -11.340000,  16.100000,  20.090000, 0.000000,  0.000000 
 7700544.000000, -14.392829 , 1.306481, 1.313660, 845108672.000000, -8.330000,  23.170000,  16.379999, 0.000000,  0.000000 
 7720576.000000, -13.691730 , 1.196411, 1.646262, 845128640.000000, -11.970000,  24.290001,  8.680000, 0.000000,  0.000000 
 7740544.000000, -13.907085 , 1.710868, 2.141576, 845148672.000000, -9.660000,  27.230000,  3.920000, 0.000000,  0.000000 
 7760832.000000, -13.368701 , 2.048256, 1.878366, 845168640.000000, 0.280000,  48.439999,  6.930000, 0.000000,  0.000000 
 7780544.000000, -10.650455 , 1.421337, 2.076970, 845188928.000000, -0.140000,  51.099998,  14.560000, 0.000000,  0.000000 
 7800512.000000, -7.920243 , 0.509671, 2.366502, 845208640.000000, -22.049999,  26.460001,  23.590000, 0.000000,  0.000000 
 7820480.000000, -6.474977 , 0.401994, 2.629712, 845228608.000000, -37.029999,  11.410000,  30.590000, 0.000000,  0.000000 
 7840512.000000, -6.987042 , 1.529014, 2.309074, 845248576.000000, -35.770000,  19.809999,  33.599998, 0.000000,  0.000000 
 7860800.000000, -9.097511 , 2.026721, 1.339981, 845268608.000000, -18.830000,  45.920002,  35.700001, 0.000000,  0.000000 
 7880448.000000, -10.705488 , 1.519442, 1.339981, 845288896.000000, -9.590000,  71.400002,  38.080002, 0.000000,  0.000000 
 7900480.000000, -10.920842 , 0.847059, 2.139183, 845308544.000000, -26.670000,  74.900002,  41.090000, 0.000000,  0.000000 
 7920448.000000, -9.506684 , 0.964308, 3.017349, 845328576.000000, -45.150002,  60.830002,  48.299999, 0.000000,  0.000000 
 7940416.000000, -7.685746 , 1.469193, 3.019742, 845368512.000000, -55.230000,  34.020000,  56.209999, 0.000000,  0.000000 
 7960768.000000, -6.348158 , 1.629512, 2.605784, 0.000000, 0.000000,  0.000000,  0.000000, 0.000000,  0.000000 
 7980416.000000, -5.496314 , 1.081556, 2.395216, 845388800.000000, -68.949997,  35.910000,  51.520000, 0.000000,  0.000000 
 8000384.000000, -5.048856 , 0.291924, 2.522035, 845408512.000000, -83.230003,  39.549999,  45.430000, 0.000000,  0.000000 
 8020416.000000, -5.005785 , -0.028714, 2.340181, 845428480.000000, -81.340004,  43.680000,  42.630001, 0.000000,  0.000000 
 8040384.000000, -5.386244 , -0.133998, 2.021935, 845448512.000000, -60.619999,  47.599998,  45.779999, 0.000000,  0.000000 
 8060672.000000, -6.206983 , -0.358923, 1.832902, 845468480.000000, -38.430000,  52.570000,  51.799999, 0.000000,  0.000000 
 8080384.000000, -7.386643 , -0.318245, 1.974079, 845488768.000000, -25.059999,  60.200001,  57.049999, 0.000000,  0.000000 
 8100352.000000, -8.898908 , -0.045464, 2.029114, 845508480.000000, -14.070000,  70.419998,  64.190002, 0.000000,  0.000000 
 8120320.000000, -10.937593 , 0.052642, 2.194218, 845528448.000000, -5.670000,  81.900002,  73.500000, 0.000000,  0.000000 
 8140352.000000, -13.270595 , -0.126820, 2.651247, 845548416.000000, -5.460000,  99.470001,  81.129997, 0.000000,  0.000000 
 8160640.000000, -14.019548 , -0.081356, 3.125026, 845568448.000000, -7.350000,  111.160004,  85.680000, 0.000000,  0.000000 
 8180288.000000, -13.045669 , 0.222532, 2.995814, 845588736.000000, -8.120000,  99.400002,  87.989998, 0.000000,  0.000000 
 8200320.000000, -12.744174 , 1.237089, 2.993421, 845608384.000000, -0.280000,  78.750000,  83.019997, 0.000000,  0.000000 
 8220288.000000, -13.007384 , 1.813759, 3.467200, 845628416.000000, 8.260000,  78.470001,  66.849998, 0.000000,  0.000000 
 8240256.000000, -13.153346 , 1.241875, 3.455236, 845648384.000000, 11.620000,  80.639999,  47.110001, 0.000000,  0.000000 
 8260608.000000, -15.136996 , 0.124427, 3.885944, 845668352.000000, 19.530001,  69.300003,  28.350000, 0.000000,  0.000000 
 8280256.000000, -17.575283 , -0.715454, 3.632305, 845688640.000000, 27.370001,  73.220001,  10.500000, 0.000000,  0.000000 
 8300224.000000, -16.053448 , 0.703490, 2.773281, 845708352.000000, 42.560001,  64.120003,  -4.480000, 0.000000,  0.000000 
 8320256.000000, -11.552547 , 2.514857, 2.656033, 845728320.000000, 71.680000,  7.350000,  -7.630000, 0.000000,  0.000000 
 8340224.000000, -8.281559 , 3.053242, 2.761317, 845748288.000000, 82.809998,  -57.260002,  -11.550000, 0.000000,  0.000000 
 8360512.000000, -7.324430 , 2.206182, 2.900101, 845768320.000000, 59.150002,  -82.250000,  -33.320000, 0.000000,  0.000000 
 8380224.000000, -8.630912 , 0.921237, 3.038885, 845788608.000000, 26.040001,  -76.440002,  -60.200001, 0.000000,  0.000000 
 8400192.000000, -10.272388 , 0.057428, 2.763710, 845828288.000000, 22.049999,  -57.470001,  -89.180000, 905818048.000000,  1011.109436 
 8420160.000000, -11.179268 , 0.303888, 2.165504, 0.000000, 0.000000,  0.000000,  0.000000, 0.000000,  0.000000 
 8440192.000000, -10.707881 , 0.509671, 1.658226, 845848256.000000, 49.630001,  -75.949997,  -89.879997, 0.000000,  0.000000 
 8460480.000000, -9.365508 , 0.729811, 1.478764, 845868288.000000, 71.889999,  -104.930000,  -84.279999, 0.000000,  0.000000 
 8480128.000000, -7.989635 , 0.806381, 1.488336, 845888576.000000, 84.559998,  -129.779999,  -79.800003, 0.000000,  0.000000 
 8500160.000000, -7.111469 , 1.158126, 1.493121, 845908224.000000, 88.970001,  -142.729996,  -77.070000, 0.000000,  0.000000 
 8520128.000000, -6.484549 , 1.287339, 1.201197, 845928256.000000, 87.220001,  -146.789993,  -75.599998, 0.000000,  0.000000 
 8540096.000000, -6.051448 , 0.997807, 0.983450, 845948224.000000, 78.120003,  -145.320007,  -72.870003, 0.000000,  0.000000 
 8560448.000000, -5.678168 , 0.583849, 0.935594, 845968192.000000, 59.290001,  -141.470001,  -70.070000, 0.000000,  0.000000 
 8580096.000000, -5.522634 , 0.275175, 0.902094, 845988480.000000, 41.020000,  -135.240005,  -66.430000, 0.000000,  0.000000 
 8600128.000000, -5.553742 , 0.088534, 0.806381, 846008192.000000, 28.210001,  -124.739998,  -59.779999, 0.000000,  0.000000 
 8620096.000000, -6.005985 , -0.074178, 0.775275, 846028224.000000, 16.520000,  -108.639999,  -50.470001, 0.000000,  0.000000 
 8640064.000000, -6.601797 , -0.308674, 0.813560, 846048192.000000, 3.010000,  -88.550003,  -39.340000, 0.000000,  0.000000 
 8660352.000000, -7.348359 , -0.638884, 0.918844, 846068160.000000, -9.870000,  -66.919998,  -26.530001, 0.000000,  0.000000 
 8680064.000000, -8.066205 , -0.916451, 1.268196, 846088448.000000, -23.450001,  -44.240002,  -13.650000, 0.000000,  0.000000 
 8700032.000000, -8.707481 , -0.784846, 0.985843, 846108160.000000, -35.349998,  -24.010000,  -1.540000, 0.000000,  0.000000 
 8720000.000000, -9.659825 , -0.844666, 0.923629, 846128128.000000, -42.000000,  -11.830000,  8.120000, 0.000000,  0.000000 
 8740032.000000, -10.427922 , -1.038485, 0.949951, 846148096.000000, -48.720001,  12.320000,  16.309999, 0.000000,  0.000000 
 8760320.000000, -10.832308 , -1.091127, 1.060020, 846168064.000000, -57.470001,  26.950001,  20.650000, 0.000000,  0.000000 
 8779968.000000, -11.373087 , -0.425922, 1.117448, 846188416.000000, -52.990002,  38.080002,  20.510000, 0.000000,  0.000000 
 8800000.000000, -12.440285 , 0.059821, 0.820738, 846208064.000000, -39.410000,  53.900002,  21.350000, 0.000000,  0.000000 
 8819968.000000, -13.785051 , 0.055035, 0.976272, 846228032.000000, -31.010000,  75.739998,  20.020000, 0.000000,  0.000000 
 8839936.000000, -14.507684 , -0.083749, 1.031307, 846248064.000000, -28.630001,  92.470001,  15.120000, 0.000000,  0.000000 
 8860224.000000, -16.165909 , 0.021535, 1.064806, 846268032.000000, -20.090000,  93.940002,  13.090000, 0.000000,  0.000000 
 8879936.000000, -19.348364 , 0.267996, 0.799203, 846288320.000000, -5.880000,  110.669998,  14.000000, 0.000000,  0.000000 
 8899904.000000, -19.573290 , 0.215354, 1.007378, 846308032.000000, 6.650000,  139.509995,  17.920000, 0.000000,  0.000000 
 8919872.000000, -15.400207 , 0.107677, 2.100898, 846328000.000000, 9.870000,  120.260002,  28.420000, 0.000000,  0.000000 
 8939904.000000, -11.856436 , 0.792024, 2.947958, 846347968.000000, 17.920000,  75.389999,  44.730000, 0.000000,  0.000000 
 8960192.000000, -9.657433 , 1.442872, 2.888137, 846368000.000000, 34.580002,  54.670002,  50.470001, 0.000000,  0.000000 
 8979840.000000, -9.011370 , 2.079363, 2.323431, 846388288.000000, 45.360001,  47.040001,  46.340000, 0.000000,  0.000000 
 8999872.000000, -9.745967 , 3.292524, 1.526621, 846407936.000000, 48.299999,  53.200001,  33.040001, 0.000000,  0.000000 
 9019840.000000, -10.492528 , 3.208775, 0.272782, 846427968.000000, 47.740002,  61.740002,  23.870001, 0.000000,  0.000000 
 9039808.000000, -10.313066 , 1.885544, 0.114855, 846447936.000000, 30.730000,  55.580002,  22.610001, 0.000000,  0.000000 
 9060160.000000, -10.104890 , 1.933401, 0.519243, 846467904.000000, -3.080000,  35.279999,  20.580000, 0.000000,  0.000000 
 9079808.000000, -9.434900 , 2.897708, 0.186640, 846488256.000000, -18.059999,  22.610001,  25.059999, 0.000000,  0.000000 
 9099776.000000, -8.087741 , 3.469593, 0.500100, 846507904.000000, -22.120001,  9.590000,  36.259998, 0.000000,  0.000000 
 9119808.000000, -6.321837 , 3.273381, 0.796810, 846527872.000000, -62.580002,  -6.510000,  35.209999, 0.000000,  0.000000 
 9139776.000000, -4.912465 , 2.371287, 0.579063, 846547904.000000, -115.290001,  -19.670000,  33.950001, 0.000000,  0.000000 
 9160128.000000, -4.230510 , 0.928415, 0.483350, 846567872.000000, -161.139999,  -24.639999,  30.730000, 0.000000,  0.000000 
 9179776.000000, -4.426722 , -0.222532, 0.354138, 846588160.000000, -187.740005,  -19.879999,  30.870001, 0.000000,  0.000000 
 9199744.000000, -5.218746 , -0.330210, 0.315853, 846607872.000000, -187.600006,  -6.440000,  33.389999, 0.000000,  0.000000 
 9219712.000000, -5.771489 , -0.148355, 0.212961, 846627840.000000, -166.600006,  4.410000,  38.570000, 0.000000,  0.000000 
 9239744.000000, -6.089733 , -0.196211, 0.069392, 846647808.000000, -145.460007,  3.920000,  43.540001, 0.000000,  0.000000 
 9260032.000000, -6.867401 , 0.055035, 0.160319, 846667840.000000, -135.660004,  1.050000,  47.110001, 0.000000,  0.000000 
 9279680.000000, -7.946564 , -0.019143, -0.040678, 846688128.000000, -128.589996,  9.590000,  49.840000, 0.000000,  0.000000 
 9299712.000000, -9.085547 , -0.641276, 0.516850, 846727808.000000, -113.680000,  31.780001,  54.529999, 0.000000,  0.000000 
 9319680.000000, -10.193424 , -1.119841, 1.658226, 0.000000, 0.000000,  0.000000,  0.000000, 0.000000,  0.000000 
 9339648.000000, -11.073983 , -0.801596, 1.847259, 846747776.000000, -108.849998,  39.970001,  56.910000, 0.000000,  0.000000 
 9360000.000000, -11.150554 , -0.476172, 1.990828, 846767744.000000, -90.090004,  43.750000,  59.290001, 0.000000,  0.000000 
 9379648.000000, -10.609775 , -0.796810, 2.876173, 846788096.000000, -67.410004,  45.009998,  63.490002, 0.000000,  0.000000 
 9399616.000000, -10.147961 , -0.885344, 3.340380, 846827712.000000, -63.000000,  40.320000,  59.990002, 906817472.000000,  1011.094421 
 9419648.000000, -9.276974 , -0.851845, 3.443272, 0.000000, 0.000000,  0.000000,  0.000000, 0.000000,  0.000000 
 9439616.000000, -9.030513 , -1.172483, 3.498307, 846847744.000000, -52.990002,  39.970001,  55.160000, 0.000000,  0.000000 
 9459904.000000, -9.638289 , -1.957329, 2.959922, 846867712.000000, -39.900002,  46.759998,  49.279999, 0.000000,  0.000000 
 9479616.000000, -10.255639 , -3.460021, 3.065206, 846888000.000000, -32.480000,  49.840000,  43.119999, 0.000000,  0.000000 
 9499584.000000, -11.820543 , -5.687739, 4.022335, 846907648.000000, -37.240002,  44.450001,  30.870001, 0.000000,  0.000000 
 9519552.000000, -14.467006 , -6.049056, 4.998606, 846927680.000000, -38.500000,  44.939999,  5.460000, 0.000000,  0.000000 
 9539584.000000, -15.984055 , -3.665804, 5.386244, 846947648.000000, 0.140000,  52.220001,  -21.840000, 0.000000,  0.000000 
 9559872.000000, -14.313866 , -1.124627, 4.417150, 846967616.000000, 77.559998,  40.040001,  -34.160000, 0.000000,  0.000000 
 9579520.000000, -10.729417 , -0.662812, 4.086941, 846987968.000000, 133.070007,  0.070000,  -48.160000, 0.000000,  0.000000 
 9599552.000000, -8.944371 , -0.354138, 4.185047, 847007616.000000, 135.520004,  -42.139999,  -71.540001, 0.000000,  0.000000 
 9619520.000000, -9.731609 , -0.698704, 3.414558, 847027648.000000, 117.599998,  -54.320000,  -101.220001, 0.000000,  0.000000 
 9639488.000000, -11.952149 , -1.785046, 2.888137, 847047616.000000, 106.400002,  -47.180000,  -124.739998, 0.000000,  0.000000 
 9659840.000000, -13.852050 , -2.933600, 2.833102, 847067584.000000, 88.199997,  -42.490002,  -137.199997, 0.000000,  0.000000 
 9679488.000000, -15.168103 , -3.517449, 2.407180, 847087872.000000, 71.330002,  -51.380001,  -138.740005, 0.000000,  0.000000 
 9699456.000000, -14.584253 , -2.170290, 1.588834, 847107584.000000, 76.019997,  -67.059998,  -135.029999, 0.000000,  0.000000 
 9719488.000000, -12.569498 , -0.526421, 0.830309, 847127552.000000, 98.769997,  -98.769997,  -124.040001, 0.000000,  0.000000 
 9739456.000000, -10.983055 , 0.234497, 0.899701, 847147520.000000, 113.750000,  -131.809998,  -116.340004, 0.000000,  0.000000 
 9759744.000000, -10.403993 , 0.143569, 1.361516, 847167552.000000, 95.550003,  -141.050003,  -117.809998, 0.000000,  0.000000 
 9779456.000000, -10.875379 , -0.102891, 1.555335, 847187840.000000, 70.349998,  -133.139999,  -123.059998, 0.000000,  0.000000 
 9799424.000000, -11.035697 , -0.449851, 0.997807, 847207488.000000, 57.260002,  -124.180000,  -126.489998, 0.000000,  0.000000 
 9819392.000000, -10.372886 , -1.007378, 0.741775, 847227520.000000, 52.709999,  -125.370003,  -121.940002, 0.000000,  0.000000 
 9839424.000000, -9.805787 , -1.710868, 0.672383, 847247488.000000, 42.420002,  -132.160004,  -115.500000, 0.000000,  0.000000 
 9859712.000000, -9.784252 , -1.911865, 0.835095, 847267456.000000, 36.820000,  -130.410004,  -107.800003, 0.000000,  0.000000 
 9879360.000000, -10.193424 , -1.533799, 0.387637, 847287808.000000, 46.480000,  -120.540001,  -97.300003, 0.000000,  0.000000 
 9899392.000000, -10.571491 , -1.095913, -0.208176, 847307456.000000, 65.239998,  -111.300003,  -84.489998, 0.000000,  0.000000 
 9919360.000000, -10.813165 , -0.849452, -0.145962, 847327424.000000, 73.360001,  -104.230003,  -71.889999, 0.000000,  0.000000 
 9939328.000000, -11.107484 , -0.528814, 0.437887, 847347456.000000, 68.669998,  -94.430000,  -59.220001, 0.000000,  0.000000 
 9959616.000000, -11.258230 , -0.114855, -0.198604, 847367424.000000, 69.300003,  -80.919998,  -45.639999, 0.000000,  0.000000 
 9979328.000000, -11.686546 , -0.090927, -0.026321, 847387712.000000, 68.180000,  -72.029999,  -35.980000, 0.000000,  0.000000 
 9999296.000000, -11.909079 , -0.167498, 0.399601, 847407424.000000, 54.670002,  -48.580002,  -31.219999, 0.000000,  0.000000 
 10019328.000000, -11.930614 , -0.110070, 0.500100, 847427392.000000, 35.700001,  -31.430000,  -25.059999, 0.000000,  0.000000 
 10039296.000000, -11.916256 , -0.047856, 0.320638, 847447360.000000, 29.049999,  -12.810000,  -18.620001, 0.000000,  0.000000 
 10059584.000000, -12.634104 , -0.090927, 0.772882, 847467392.000000, 22.400000,  9.170000,  -10.290000, 0.000000,  0.000000 
 10079296.000000, -13.507483 , 0.497707, 1.186840, 847487680.000000, 13.160000,  45.779999,  0.490000, 0.000000,  0.000000 
 10099264.000000, -13.258631 , 1.710868, 1.100698, 847507328.000000, 7.700000,  78.610001,  20.510000, 0.000000,  0.000000 
 10119232.000000, -11.521441 , 1.320838, 1.873580, 847527360.000000, -2.940000,  93.519997,  41.580002, 0.000000,  0.000000 
 10139264.000000, -10.037891 , 0.289532, 2.988636, 847547328.000000, -32.340000,  90.440002,  59.500000, 0.000000,  0.000000 
 10159552.000000, -9.722038 , -0.088534, 3.098706, 847567296.000000, -63.279999,  91.279999,  73.080002, 0.000000,  0.000000 
 10179200.000000, -10.358529 , 0.165105, 2.840281, 847587648.000000, -69.440002,  101.849998,  83.440002, 0.000000,  0.000000 
 10199232.000000, -11.263017 , 0.239282, 2.641676, 847607296.000000, -65.169998,  110.180000,  86.940002, 0.000000,  0.000000 
 10219200.000000, -11.765509 , 0.801596, 2.746960, 847627264.000000, -55.510002,  113.959999,  91.629997, 0.000000,  0.000000 
 10239168.000000, -11.270195 , 1.636691, 2.622534, 847647296.000000, -40.529999,  106.260002,  97.440002, 0.000000,  0.000000 
 10259456.000000, -9.942179 , 1.708475, 2.536392, 847667264.000000, -36.610001,  85.260002,  103.180000, 0.000000,  0.000000 
 10279168.000000, -8.575876 , 1.196411, 2.591427, 847687552.000000, -54.599998,  61.670002,  103.809998, 0.000000,  0.000000 
 10299136.000000, -7.322037 , 0.567099, 2.526821, 847707264.000000, -79.940002,  44.029999,  103.110001, 0.000000,  0.000000 
 10319168.000000, -6.534799 , 0.143569, 2.325824, 847727232.000000, -97.860001,  32.970001,  102.340004, 0.000000,  0.000000 
 10339136.000000, -6.099305 , -0.224925, 2.000400, 847747200.000000, -103.669998,  27.020000,  101.290001, 0.000000,  0.000000 
 10359424.000000, -6.283553 , -0.437887, 1.765903, 847767232.000000, -99.889999,  27.440001,  102.059998, 0.000000,  0.000000 
 10379136.000000, -6.778866 , -0.744168, 1.457229, 847787520.000000, -93.870003,  31.430000,  103.949997, 0.000000,  0.000000 
 10399104.000000, -7.704889 , -1.038485, 1.277767, 847807168.000000, -87.150002,  37.099998,  107.379997, 0.000000,  0.000000 
 10419072.000000, -9.171689 , -1.182054, 0.947558, 847827200.000000, -81.690002,  46.130001,  108.919998, 907816896.000000,  1011.079346 
 10439104.000000, -11.279767 , -1.124627, 0.763310, 847847168.000000, -75.320000,  62.160000,  112.980003, 0.000000,  0.000000 
 10459392.000000, -13.677374 , -1.399801, 1.172483, 847867136.000000, -65.800003,  85.470001,  118.300003, 0.000000,  0.000000 
 10479040.000000, -14.787644 , -1.543371, 2.419144, 847887488.000000, -57.750000,  103.110001,  126.000000, 0.000000,  0.000000 
 10499072.000000, -13.797016 , -0.794417, 3.574877, 847907136.000000, -54.880001,  104.370003,  135.169998, 0.000000,  0.000000 
 10519040.000000, -12.268002 , 0.028714, 4.118048, 847927104.000000, -54.250000,  91.349998,  138.600006, 0.000000,  0.000000 
 10539008.000000, -10.540384 , -1.426122, 4.469792, 847947136.000000, -65.590004,  83.370003,  131.250000, 0.000000,  0.000000 
 10559296.000000, -9.982857 , -2.950350, 4.536791, 847967104.000000, -97.580002,  72.239998,  103.110001, 0.000000,  0.000000 
 10579008.000000, -9.882358 , -2.679961, 4.666004, 847987392.000000, -131.669998,  60.549999,  55.510002, 0.000000,  0.000000 
 10599040.000000, -10.935200 , -2.395216, 3.759124, 848007104.000000, -91.279999,  54.670002,  28.280001, 0.000000,  0.000000 
 10619008.000000, -13.103097 , -4.582255, 3.412165, 848027136.000000, -37.660000,  58.520000,  -0.420000, 0.000000,  0.000000 
 10638976.000000, -15.835700 , -6.015556, 3.778267, 848047040.000000, -13.160000,  64.610001,  -31.290001, 0.000000,  0.000000 
 10659264.000000, -15.881163 , -3.943372, 4.211368, 848067072.000000, 13.860000,  67.059998,  -53.270000, 0.000000,  0.000000 
 10678912.000000, -12.892529 , -0.756132, 4.005585, 848087360.000000, 67.129997,  37.730000,  -53.970001, 0.000000,  0.000000 
 10698944.000000, -9.719646 , 0.021535, 4.027121, 848107008.000000, 105.629997,  -10.920000,  -54.670002, 0.000000,  0.000000 
 10718912.000000, -8.202596 , -1.112662, 4.656433, 848126976.000000, 90.019997,  -39.060001,  -72.029999, 0.000000,  0.000000 
 10738880.000000, -9.188439 , -2.000400, 4.972286, 848147008.000000, 60.200001,  -39.689999,  -97.510002, 0.000000,  0.000000 
 10759232.000000, -11.629118 , -2.115255, 3.881158, 848166976.000000, 54.529999,  -23.379999,  -120.750000, 0.000000,  0.000000 
 10778880.000000, -12.827922 , -1.928615, 2.622534, 848187264.000000, 77.980003,  -18.830000,  -133.979996, 0.000000,  0.000000 
 10798848.000000, -12.124433 , -1.586441, 2.191825, 848206976.000000, 102.340004,  -46.480000,  -138.320007, 0.000000,  0.000000 
 10818880.000000, -11.045268 , -0.516850, 2.201397, 848226944.000000, 117.250000,  -87.570000,  -139.649994, 0.000000,  0.000000 
 10838848.000000, -10.482956 , 0.500100, 1.641476, 848246912.000000, 131.669998,  -116.340004,  -140.490005, 0.000000,  0.000000 
 10859136.000000, -9.891929 , 0.780060, 1.351945, 848266944.000000, 136.360001,  -131.110001,  -143.080002, 0.000000,  0.000000 
 10878848.000000, -9.403792 , 0.236889, 1.234696, 848287232.000000, 118.160004,  -140.559998,  -145.529999, 0.000000,  0.000000 
 10898816.000000, -9.310472 , -0.476172, 1.251446, 848306880.000000, 92.470001,  -146.089996,  -147.070007, 0.000000,  0.000000 
 10918784.000000, -9.485149 , -0.722632, 1.316052, 848326912.000000, 75.040001,  -144.130005,  -143.570007, 0.000000,  0.000000 
 10938816.000000, -9.671788 , -0.794417, 0.758525, 848346880.000000, 70.559998,  -140.279999,  -132.860001, 0.000000,  0.000000 
 10959104.000000, -9.652647 , -1.064806, 0.315853, 848366848.000000, 69.510002,  -138.669998,  -116.690002, 0.000000,  0.000000 
 10978752.000000, -9.552148 , -1.450050, 0.045464, 848387200.000000, 61.110001,  -133.699997,  -96.739998, 0.000000,  0.000000 
 10998784.000000, -9.745967 , -1.832902, 0.189033, 848406848.000000, 48.299999,  -124.389999,  -76.510002, 0.000000,  0.000000 
 11018752.000000, -10.193424 , -1.605584, 0.294317, 848426816.000000, 37.939999,  -106.680000,  -57.400002, 0.000000,  0.000000 
 11038720.000000, -10.181459 , -1.268196, -0.014357, 848446848.000000, 34.230000,  -88.129997,  -38.500000, 0.000000,  0.000000 
 11059072.000000, -9.645468 , -1.093520, -0.004786, 848466816.000000, 32.759998,  -77.489998,  -23.940001, 0.000000,  0.000000 
 11078720.000000, -9.190832 , -0.868595, 0.368495, 848487104.000000, 24.780001,  -68.739998,  -15.330000, 0.000000,  0.000000 
 11098688.000000, -9.131011 , -0.299103, 0.086142, 848506816.000000, 18.059999,  -53.619999,  -9.310000, 0.000000,  0.000000 
 11118720.000000, -9.243474 , 0.119641, 0.062213, 848526784.000000, 17.430000,  -33.389999,  -5.250000, 0.000000,  0.000000 
 11138688.000000, -9.274581 , -0.483350, -0.098106, 848546752.000000, 12.950000,  -12.250000,  0.490000, 0.000000,  0.000000 
 11158976.000000, -10.837094 , -1.191626, 0.624527, 848566784.000000, 2.240000,  9.450000,  6.160000, 0.000000,  0.000000 
 11178688.000000, -12.875778 , -0.842274, 0.265603, 848587072.000000, -4.690000,  48.720001,  10.570000, 0.000000,  0.000000 
 11198656.000000, -14.249258 , 0.057428, -0.253639, 848606720.000000, 5.670000,  77.769997,  22.049999, 0.000000,  0.000000 
 11218624.000000, -14.498112 , 0.069392, -0.272782, 848626752.000000, 15.820000,  88.269997,  34.230000, 0.000000,  0.000000 
 11238656.000000, -15.105889 , 0.497707, 0.227318, 848646720.000000, 12.040000,  91.559998,  50.610001, 0.000000,  0.000000 
 11258944.000000, -14.210974 , 0.873380, 0.653241, 848666688.000000, -7.000000,  106.050003,  58.380001, 0.000000,  0.000000 
 11278784.000000, -11.365908 , 0.349352, 1.584049, 848687040.000000, -23.940001,  119.279999,  75.739998, 0.000000,  0.000000 
 11298624.000000, -10.128819 , -0.040678, 2.124826, 848706880.000000, -48.090000,  102.830002,  88.480003, 0.000000,  0.000000 
 11318592.000000, -8.963513 , -0.076570, 3.189633, 848726656.000000, -70.489998,  93.309998,  97.580002, 0.000000,  0.000000 
 11338560.000000, -9.844072 , 0.839881, 3.153740, 848746688.000000, -78.889999,  104.650002,  97.160004, 0.000000,  0.000000 
 11358912.000000, -11.743973 , 1.409373, 2.376073, 848766656.000000, -68.669998,  126.209999,  96.669998, 0.000000,  0.000000 
 11378560.000000, -12.899707 , 0.689133, 2.270789, 848786944.000000, -64.820000,  137.479996,  95.059998, 0.000000,  0.000000 
 11398528.000000, -12.311072 , -0.631705, 3.026921, 848806656.000000, -83.440002,  124.669998,  95.970001, 0.000000,  0.000000 
 11418560.000000, -10.865808 , -0.940379, 3.730411, 848826624.000000, -98.209999,  98.489998,  103.320000, 908816384.000000,  1011.063782 
 11438528.000000, -9.521042 , -0.574277, 3.909872, 848846592.000000, -88.900002,  74.760002,  112.000000, 0.000000,  0.000000 
 11458816.000000, -8.346166 , -0.440279, 3.706482, 848866624.000000, -74.970001,  61.599998,  113.330002, 0.000000,  0.000000 
 11478528.000000, -7.542177 , -0.325424, 3.615555, 848886912.000000, -69.930000,  53.130001,  111.300003, 0.000000,  0.000000 
 11498496.000000, -7.317252 , -0.330210, 3.110669, 848906560.000000, -65.239998,  47.599998,  104.230003, 0.000000,  0.000000 
 11518464.000000, -7.573284 , -0.318245, 2.565106, 848926592.000000, -50.119999,  47.880001,  98.279999, 0.000000,  0.000000 
 11538432.000000, -7.769495 , -0.734596, 2.268396, 848946560.000000, -35.560001,  48.020000,  93.800003, 0.000000,  0.000000 
 11558784.000000, -7.905886 , -1.131805, 2.359323, 848966528.000000, -34.020000,  43.049999,  88.760002, 0.000000,  0.000000 
 11578432.000000, -8.384450 , -1.088734, 2.328217, 848986880.000000, -37.029999,  37.380001,  84.699997, 0.000000,  0.000000 
 11598464.000000, -9.262616 , -0.880559, 2.141576, 849006528.000000, -34.930000,  37.240002,  81.900002, 0.000000,  0.000000 
 11618432.000000, -10.076177 , -0.696311, 1.938186, 849026560.000000, -31.710001,  37.939999,  76.090004, 0.000000,  0.000000 
 11638400.000000, -11.157731 , -0.772882, 2.615355, 849046528.000000, -33.320000,  39.340000,  71.470001, 0.000000,  0.000000 
 11658688.000000, -11.978470 , -0.490529, 3.340380, 849066496.000000, -37.730000,  43.540001,  64.540001, 0.000000,  0.000000 
 11678400.000000, -11.547763 , -0.485743, 3.555735, 849086784.000000, -38.500000,  41.160000,  59.360001, 0.000000,  0.000000 
 11698368.000000, -10.205389 , -0.945165, 3.785445, 849106496.000000, -38.220001,  28.700001,  53.760002, 0.000000,  0.000000 
 11718336.000000, -9.580862 , -1.397408, 4.027121, 849126464.000000, -42.980000,  18.059999,  45.009998, 0.000000,  0.000000 
 11738368.000000, -9.980463 , -2.012364, 4.342973, 849146432.000000, -38.080002,  18.340000,  31.639999, 0.000000,  0.000000 
 11758656.000000, -11.660224 , -2.962314, 4.168297, 849166464.000000, -19.740000,  25.760000,  17.570000, 0.000000,  0.000000 
 11778304.000000, -14.151153 , -4.053442, 4.103691, 849186752.000000, 6.160000,  33.250000,  1.400000, 0.000000,  0.000000 
 11798336.000000, -16.500904 , -3.833302, 3.507878, 849206400.000000, 37.380001,  35.700001,  -17.290001, 0.000000,  0.000000 
 11818304.000000, -17.290537 , -1.430908, 2.665605, 849226432.000000, 82.110001,  24.150000,  -34.509998, 0.000000,  0.000000 
 11838272.000000, -14.258829 , 0.636491, 2.505285, 849246400.000000, 124.529999,  -7.770000,  -48.439999, 0.000000,  0.000000 
 11858624.000000, -10.760524 , 0.971486, 2.840281, 849266368.000000, 139.930008,  -63.279999,  -59.920002, 0.000000,  0.000000 
 11878272.000000, -9.676575 , 0.303888, 2.842674, 849286656.000000, 128.169998,  -97.580002,  -85.889999, 0.000000,  0.000000 
 11898240.000000, -11.069198 , 0.241675, 2.175076, 849306368.000000, 109.760002,  -95.690002,  -117.599998, 0.000000,  0.000000 
 11918272.000000, -12.945170 , -0.043071, 1.330409, 849326336.000000, 95.970001,  -80.220001,  -143.289993, 0.000000,  0.000000 
 11938240.000000, -13.158132 , -0.547956, 1.036092, 849346368.000000, 80.290001,  -83.720001,  -158.270004, 0.000000,  0.000000 
 11958528.000000, -12.600604 , -0.933201, 1.107877, 849366336.000000, 65.660004,  -110.389999,  -162.960007, 0.000000,  0.000000 
 11978240.000000, -12.074183 , -0.775275, 1.462015, 849386624.000000, 60.760002,  -133.979996,  -165.410004, 0.000000,  0.000000 
 11998208.000000, -11.583653 , -0.179462, 1.143769, 849406336.000000, 63.279999,  -144.130005,  -164.009995, 0.000000,  0.000000 
 12018176.000000, -10.674382 , -0.011964, 0.873380, 849426304.000000, 66.430000,  -152.600006,  -161.910004, 0.000000,  0.000000 
 12038208.000000, -9.571291 , -0.212961, 1.062413, 849446272.000000, 57.330002,  -162.190002,  -160.020004, 0.000000,  0.000000 
 12058624.000000, -8.673983 , -0.334995, 1.380659, 849466304.000000, 43.889999,  -166.389999,  -156.380005, 0.000000,  0.000000 
 12078144.000000, -8.056634 , -0.193819, 1.447658, 849486656.000000, 36.400002,  -163.729996,  -152.039993, 0.000000,  0.000000 
 12098176.000000, -7.735995 , -0.478565, 1.074377, 849506240.000000, 33.040001,  -157.009995,  -144.690002, 0.000000,  0.000000 
 12118144.000000, -7.405786 , -1.086342, 0.914058, 849526272.000000, 27.930000,  -150.009995,  -136.360001, 0.000000,  0.000000 
 12138176.000000, -7.152147 , -1.557728, 0.765703, 849546240.000000, 19.389999,  -141.820007,  -125.300003, 0.000000,  0.000000 
 12158464.000000, -7.245467 , -1.629512, 0.873380, 849566208.000000, 18.480000,  -128.660004,  -111.650002, 0.000000,  0.000000 
 12178112.000000, -7.446464 , -1.272982, 0.890130, 849586496.000000, 24.290001,  -110.110001,  -93.800003, 0.000000,  0.000000 
 12198080.000000, -7.436893 , -1.107877, 0.483350, 849606208.000000, 28.000000,  -92.400002,  -73.919998, 0.000000,  0.000000 
 12218112.000000, -7.233503 , -1.179662, 0.129212, 849626176.000000, 25.270000,  -79.449997,  -55.230000, 0.000000,  0.000000 
 12238080.000000, -7.389036 , -1.024128, 0.483350, 849646208.000000, 17.639999,  -66.360001,  -40.180000, 0.000000,  0.000000 
 12258368.000000, -7.649854 , -0.617348, 0.428315, 849666176.000000, 10.500000,  -42.349998,  -25.900000, 0.000000,  0.000000 
 12278080.000000, -7.534998 , -0.198604, 0.239282, 849686464.000000, 11.410000,  -17.360001,  -9.870000, 0.000000,  0.000000 
 12298048.000000, -7.061220 , -0.421137, 0.320638, 849706176.000000, 8.190000,  -0.700000,  1.680000, 0.000000,  0.000000 
 12318016.000000, -7.276574 , -0.739382, 0.911665, 849726144.000000, -8.190000,  18.059999,  11.200000, 0.000000,  0.000000 
 12338048.000000, -8.681160 , -0.677169, 1.098306, 849746112.000000, -25.059999,  50.540001,  23.030001, 0.000000,  0.000000 
 12358336.000000, -10.490135 , -0.504886, 0.947558, 849766144.000000, -26.530001,  91.070000,  40.389999, 0.000000,  0.000000 
 12377984.000000, -12.119646 , -0.971486, 0.504886, 849786432.000000, -33.670002,  124.599998,  58.939999, 0.000000,  0.000000 
 12398016.000000, -14.486149 , -1.225125, 0.339781, 849826112.000000, -67.059998,  188.580002,  103.879997, 909815808.000000,  1011.048157 
 12417984.000000, -18.618553 , -0.961915, 0.509671, 0.000000, 0.000000,  0.000000,  0.000000, 0.000000,  0.000000 
 12437952.000000, -22.224537 , -0.959522, 1.356731, 849846080.000000, -81.620003,  235.270004,  134.259995, 0.000000,  0.000000 
 12458304.000000, -20.152353 , -2.009971, 2.845066, 849866048.000000, -94.500000,  248.710007,  169.259995, 0.000000,  0.000000 
 12477952.000000, -16.498512 , -2.557927, 3.814159, 849886336.000000, -84.910004,  202.720001,  203.559998, 0.000000,  0.000000 
 12497920.000000, -14.347364 , -2.644069, 4.634897, 849906048.000000, -46.759998,  160.440002,  227.500000, 0.000000,  0.000000 
 12517952.000000, -12.447463 , -3.022135, 5.886343, 849926016.000000, -6.930000,  140.000000,  221.270004, 0.000000,  0.000000 
 12537920.000000, -10.983055 , -2.694318, 4.084548, 849945984.000000, 39.830002,  115.919998,  192.779999, 0.000000,  0.000000 
 12558208.000000, -10.729417 , 1.904687, 2.715853, 849966016.000000, 95.340004,  92.330002,  138.460007, 0.000000,  0.000000 
 12577920.000000, -11.064411 , 3.570091, 1.392623, 849986304.000000, 129.779999,  75.599998,  90.510002, 0.000000,  0.000000 
 12597952.000000, -12.145968 , 1.945365, 1.311267, 850005952.000000, 120.330002,  73.010002,  61.180000, 0.000000,  0.000000 
 12617856.000000, -12.270394 , 0.047856, 1.519442, 850025984.000000, 60.970001,  69.090004,  22.120001, 0.000000,  0.000000 
 12637888.000000, -10.951948 , -0.267996, 2.031506, 850045952.000000, 24.430000,  52.150002,  7.910000, 0.000000,  0.000000 
 12658176.000000, -9.300901 , 0.485743, 1.574477, 850065920.000000, 14.280000,  22.400000,  9.030000, 0.000000,  0.000000 
 12677824.000000, -7.793423 , 0.646062, 1.509871, 850086272.000000, -3.220000,  -1.890000,  15.120000, 0.000000,  0.000000 
 12697856.000000, -6.288338 , 0.186640, 1.569692, 850105920.000000, -40.950001,  -17.639999,  18.480000, 0.000000,  0.000000 
 12717824.000000, -5.204390 , -0.303888, 1.835295, 850125888.000000, -80.220001,  -26.600000,  25.620001, 0.000000,  0.000000 
 12737792.000000, -4.754539 , -0.677169, 2.177469, 850145920.000000, -108.430000,  -23.940001,  33.389999, 0.000000,  0.000000 
 12758144.000000, -4.993821 , -0.701097, 2.182254, 850165888.000000, -119.349998,  -13.720000,  41.160000, 0.000000,  0.000000 
 12777792.000000, -5.534599 , -0.770489, 1.835295, 850186176.000000, -114.520004,  -0.630000,  49.349998, 0.000000,  0.000000 
 12797760.000000, -6.343372 , -1.289732, 1.775474, 850205888.000000, -108.290001,  8.680000,  57.540001, 0.000000,  0.000000 
 12817792.000000, -7.429714 , -1.476372, 2.237289, 850225856.000000, -109.550003,  14.980000,  64.680000, 0.000000,  0.000000 
 12837760.000000, -8.934800 , -1.143769, 1.892723, 850245824.000000, -103.599998,  25.760000,  70.489998, 0.000000,  0.000000 
 12858048.000000, -10.380065 , -1.134198, 1.756332, 850265856.000000, -91.419998,  35.840000,  72.519997, 0.000000,  0.000000 
 12877760.000000, -11.552547 , -1.098306, 2.763710, 850286144.000000, -85.120003,  46.830002,  70.139999, 0.000000,  0.000000 
 12897728.000000, -11.648260 , -0.799203, 3.527020, 850305792.000000, -79.800003,  50.119999,  63.770000, 0.000000,  0.000000 
 12917696.000000, -11.332408 , -0.277567, 3.780660, 850325824.000000, -59.570000,  43.470001,  58.660000, 0.000000,  0.000000 
 12937664.000000, -11.344372 , -0.681954, 3.682554, 850345792.000000, -40.810001,  35.490002,  45.009998, 0.000000,  0.000000 
 12958016.000000, -11.899508 , -1.246661, 3.565305, 850365760.000000, -32.130001,  33.950001,  22.750000, 0.000000,  0.000000 
 12977664.000000, -13.045669 , -1.457229, 3.053242, 850386112.000000, -20.790001,  31.010000,  -2.730000, 0.000000,  0.000000 
 12997632.000000, -14.883357 , -1.761117, 2.502892, 850405760.000000, 3.920000,  28.630001,  -24.360001, 0.000000,  0.000000 
 13017664.000000, -16.749758 , -2.141576, 1.883151, 850425728.000000, 28.980000,  26.600000,  -41.580002, 0.000000,  0.000000 
 13037632.000000, -16.074982 , -1.339981, 1.490728, 850445760.000000, 45.570000,  17.010000,  -55.439999, 0.000000,  0.000000 
 13057920.000000, -13.134203 , -0.325424, 1.995614, 850465728.000000, 58.660000,  -18.690001,  -63.700001, 0.000000,  0.000000 
 13077632.000000, -10.671989 , 0.203390, 2.299503, 850486016.000000, 66.360001,  -58.660000,  -72.379997, 0.000000,  0.000000 
 13097600.000000, -9.676575 , 0.693919, 2.244468, 850505728.000000, 61.320000,  -76.370003,  -92.400002, 0.000000,  0.000000 
 13117568.000000, -10.336994 , 0.358923, 2.208575, 850525696.000000, 52.570000,  -74.830002,  -116.760002, 0.000000,  0.000000 
 13137600.000000, -11.820543 , -0.789631, 2.167897, 850545664.000000, 48.650002,  -70.209999,  -137.550003, 0.000000,  0.000000 
 13157888.000000, -12.581462 , -1.663012, 2.299503, 850565696.000000, 39.270000,  -60.900002,  -146.089996, 0.000000,  0.000000 
 13177536.000000, -12.390036 , -1.933401, 2.263610, 850585984.000000, 37.590000,  -64.470001,  -157.779999, 0.000000,  0.000000 
 13197568.000000, -12.023933 , -1.758725, 2.103291, 850605632.000000, 57.610001,  -80.010002,  -156.729996, 0.000000,  0.000000 
 13217536.000000, -11.188839 , -1.088734, 1.509871, 850625664.000000, 88.970001,  -96.529999,  -151.270004, 0.000000,  0.000000 
 13237504.000000, -10.042676 , -0.689133, 1.062413, 850645632.000000, 114.730003,  -107.940002,  -144.270004, 0.000000,  0.000000 
 13257856.000000, -9.083155 , -0.349352, 1.205983, 850665600.000000, 126.699997,  -116.270004,  -137.479996, 0.000000,  0.000000 
 13277504.000000, -8.673983 , -0.081356, 1.009771, 850685888.000000, 129.990005,  -122.639999,  -130.199997, 0.000000,  0.000000 
 13297472.000000, -8.307880 , -0.212961, 0.660419, 850705600.000000, 124.949997,  -121.800003,  -123.620003, 0.000000,  0.000000 
 13317504.000000, -7.563712 , -0.674776, 0.457029, 850725568.000000, 108.570000,  -123.270004,  -113.330002, 0.000000,  0.000000 
 13337472.000000, -6.812366 , -1.014557, 0.394816, 850745600.000000, 90.440002,  -127.889999,  -101.360001, 0.000000,  0.000000 
 13357760.000000, -6.436693 , -1.138984, 0.440279, 850765568.000000, 78.050003,  -126.349998,  -87.570000, 0.000000,  0.000000 
 13377472.000000, -6.616155 , -0.990629, 0.507278, 850785856.000000, 69.440002,  -114.730003,  -73.849998, 0.000000,  0.000000 
 13397440.000000, -7.197611 , -0.873380, 0.224925, 850805568.000000, 63.700001,  -97.790001,  -58.590000, 0.000000,  0.000000 
 13417408.000000, -7.475177 , -0.794417, -0.019143, 850825536.000000, 59.290001,  -82.110001,  -40.529999, 910815232.000000,  1011.024536 
 13437440.000000, -7.695317 , -1.043271, -0.066999, 850845504.000000, 49.420002,  -69.300003,  -20.930000, 0.000000,  0.000000 
 13457728.000000, -8.197811 , -1.306481, 0.282353, 850865536.000000, 34.160000,  -52.709999,  -3.150000, 0.000000,  0.000000 
 13477376.000000, -8.805587 , -1.179662, 0.445065, 850885824.000000, 21.139999,  -30.799999,  11.830000, 0.000000,  0.000000 
 13497408.000000, -9.341579 , -0.827917, 0.282353, 850905472.000000, 17.080000,  -7.420000,  25.830000, 0.000000,  0.000000 
 13517376.000000, -9.872787 , -0.591027, 0.179462, 850925440.000000, 14.280000,  13.230000,  38.009998, 0.000000,  0.000000 
 13537344.000000, -11.365908 , -0.792024, 0.459422, 850945472.000000, 4.970000,  37.590000,  47.250000, 0.000000,  0.000000 
 13557696.000000, -13.584054 , -0.574277, 0.837488, 850965440.000000, -9.520000,  76.580002,  52.430000, 0.000000,  0.000000 
 13577344.000000, -14.361722 , -0.468993, 0.124427, 850985728.000000, -14.350000,  112.629997,  56.209999, 0.000000,  0.000000 
 13597376.000000, -14.306686 , -0.186640, 0.066999, 851005440.000000, -7.140000,  111.020004,  61.950001, 0.000000,  0.000000 
 13617344.000000, -16.601404 , -0.263210, 0.155533, 851025472.000000, -13.300000,  112.770004,  66.919998, 0.000000,  0.000000 
 13637312.000000, -18.606588 , -0.600598, 0.780060, 851045376.000000, -29.190001,  148.750000,  70.910004, 0.000000,  0.000000 
 13657600.000000, -15.596417 , -0.512064, 2.218147, 851065408.000000, -34.930000,  165.479996,  80.919998, 0.000000,  0.000000 
 13677312.000000, -11.796617 , 0.203390, 2.914458, 851085696.000000, -23.450001,  127.120003,  95.129997, 0.000000,  0.000000 
 13697280.000000, -9.611969 , 0.849452, 2.608176, 851105344.000000, -7.560000,  96.809998,  102.900002, 0.000000,  0.000000 
 13717248.000000, -9.226725 , 1.038485, 2.694318, 851125376.000000, -5.460000,  95.199997,  96.180000, 0.000000,  0.000000 
 13737280.000000, -10.351351 , 0.878166, 3.050849, 851145344.000000, -8.960000,  106.050003,  80.360001, 0.000000,  0.000000 
 13757568.000000, -11.602797 , 1.658226, 3.199204, 851165312.000000, -1.610000,  118.440002,  64.750000, 0.000000,  0.000000 
 13777216.000000, -11.380265 , 2.115255, 2.598605, 851185664.000000, 9.730000,  108.989998,  54.810001, 0.000000,  0.000000 
 13797248.000000, -10.176675 , 2.024328, 2.526821, 851205312.000000, 2.520000,  78.610001,  49.980000, 0.000000,  0.000000 
 13817216.000000, -8.908479 , 1.409373, 2.780460, 851225280.000000, -35.700001,  49.349998,  43.540001, 0.000000,  0.000000 
 13837184.000000, -8.015956 , 1.186840, 2.969493, 851245312.000000, -76.860001,  32.340000,  37.380001, 0.000000,  0.000000 
 13857536.000000, -7.243074 , 1.198804, 3.034099, 851265280.000000, -102.129997,  22.330000,  33.250000, 0.000000,  0.000000 
 13877184.000000, -6.532406 , 1.205983, 2.665605, 851285568.000000, -112.980003,  15.750000,  33.459999, 0.000000,  0.000000 
 13897152.000000, -6.084948 , 0.351745, 2.175076, 851305280.000000, -123.830002,  9.240000,  36.889999, 0.000000,  0.000000 
 13917184.000000, -5.843273 , -0.564706, 2.184647, 851325248.000000, -135.589996,  5.600000,  39.970001, 0.000000,  0.000000 
 13937152.000000, -5.850451 , -1.418944, 2.163112, 851345280.000000, -142.940002,  5.250000,  44.310001, 0.000000,  0.000000 
 13957440.000000, -6.345766 , -1.490728, 2.378466, 851365248.000000, -135.449997,  8.610000,  52.920002, 0.000000,  0.000000 
 13977152.000000, -7.159326 , -1.447658, 2.385644, 851385536.000000, -121.590004,  14.560000,  59.360001, 0.000000,  0.000000 
 13997120.000000, -7.960921 , -1.538585, 2.256432, 851405248.000000, -108.220001,  18.760000,  64.330002, 0.000000,  0.000000 
 14017088.000000, -9.107083 , -1.507478, 2.766103, 851425216.000000, -99.400002,  21.700001,  68.599998, 0.000000,  0.000000 
 14037120.000000, -10.765309 , -1.428515, 2.979064, 851445184.000000, -91.000000,  32.480000,  71.610001, 0.000000,  0.000000 
 14057408.000000, -12.145968 , -1.493121, 3.146562, 851465152.000000, -76.720001,  45.500000,  71.680000, 0.000000,  0.000000 
 14077056.000000, -12.272788 , -1.928615, 3.692125, 851485504.000000, -63.630001,  44.869999,  70.139999, 0.000000,  0.000000 
 14097088.000000, -11.545370 , -2.160719, 3.873980, 851505152.000000, -50.049999,  30.870001,  64.680000, 0.000000,  0.000000 
 14117056.000000, -10.930414 , -1.859223, 3.531806, 851525120.000000, -26.809999,  16.450001,  53.689999, 0.000000,  0.000000 
 14137024.000000, -11.380265 , -1.339981, 3.180061, 851545152.000000, 0.490000,  10.990000,  33.810001, 0.000000,  0.000000 
 14157376.000000, -12.993028 , -1.237089, 3.089134, 851565120.000000, 23.520000,  17.639999,  8.890000, 0.000000,  0.000000 
 14177024.000000, -14.775680 , -1.366302, 2.651247, 851585408.000000, 41.090000,  31.010000,  -16.030001, 0.000000,  0.000000 
 14196992.000000, -16.357336 , -1.952543, 2.110470, 851605120.000000, 57.189999,  31.290001,  -36.470001, 0.000000,  0.000000 
 14217024.000000, -16.027126 , -1.974079, 2.108077, 851625088.000000, 67.129997,  23.170000,  -55.650002, 0.000000,  0.000000 
 14236992.000000, -13.074384 , -0.315853, 2.380858, 851645056.000000, 77.629997,  -2.240000,  -68.180000, 0.000000,  0.000000 
 14257280.000000, -10.310673 , 0.605384, 2.239682, 851665088.000000, 94.500000,  -43.119999,  -76.860001, 0.000000,  0.000000 
 14276928.000000, -8.956335 , 0.107677, 2.380858, 851685376.000000, 93.379997,  -67.340004,  -93.239998, 0.000000,  0.000000 
 14296960.000000, -9.659825 , -0.851845, 2.684747, 851705024.000000, 68.529999,  -69.510002,  -119.070000, 0.000000,  0.000000 
 14316928.000000, -11.540584 , -0.753739, 3.010171, 851725056.000000, 52.430000,  -53.760002,  -141.399994, 0.000000,  0.000000 
 14336960.000000, -12.667603 , -0.655633, 2.136791, 851745024.000000, 59.709999,  -43.189999,  -150.149994, 0.000000,  0.000000 
 14357248.000000, -11.947363 , -0.689133, 1.861616, 851764992.000000, 76.160004,  -58.310001,  -150.779999, 0.000000,  0.000000 
 14376896.000000, -10.547562 , -0.902094, 1.797010, 851785344.000000, 77.209999,  -88.269997,  -146.369995, 0.000000,  0.000000 
 14396864.000000, -9.643075 , -0.595813, 1.756332, 851824960.000000, 77.910004,  -111.650002,  -136.710007, 911814720.000000,  1011.001160 
 14416896.000000, -8.963513 , -0.150748, 1.406980, 0.000000, 0.000000,  0.000000,  0.000000, 0.000000,  0.000000 
 14436864.000000, -8.157133 , -0.174676, 1.033699, 851844992.000000, 77.070000,  -113.959999,  -132.580002, 0.000000,  0.000000 
 14457216.000000, -7.432107 , -0.483350, 1.002593, 851864960.000000, 66.220001,  -117.809998,  -128.029999, 0.000000,  0.000000 
 14476864.000000, -6.920043 , -0.830309, 1.064806, 851885248.000000, 53.549999,  -118.160004,  -122.010002, 0.000000,  0.000000 
 14496832.000000, -6.831509 , -0.866202, 1.138984, 851904960.000000, 49.000000,  -112.279999,  -114.590004, 0.000000,  0.000000 
 14516800.000000, -6.943972 , -0.969093, 0.894916, 851924928.000000, 50.750000,  -103.040001,  -103.040001, 0.000000,  0.000000 
 14536832.000000, -7.228717 , -1.148555, 0.662812, 851944896.000000, 51.939999,  -92.959999,  -88.830002, 0.000000,  0.000000 
 14557120.000000, -7.427321 , -1.411765, 0.744168, 851964928.000000, 49.209999,  -81.340004,  -71.889999, 0.000000,  0.000000 
 14576768.000000, -7.525427 , -1.543371, 0.827917, 851985216.000000, 45.570000,  -67.690002,  -53.060001, 0.000000,  0.000000 
 14596800.000000, -8.164310 , -1.272982, 1.048056, 852004864.000000, 46.130001,  -55.580002,  -34.650002, 0.000000,  0.000000 
 14616768.000000, -9.243474 , -0.957129, 0.665205, 852024896.000000, 51.660000,  -37.310001,  -16.309999, 0.000000,  0.000000 
 14636736.000000, -10.009177 , -0.930808, 0.473779, 852044864.000000, 50.189999,  -17.080000,  2.170000, 0.000000,  0.000000 
 14657088.000000, -10.418350 , -1.002593, 0.602991, 852085184.000000, 32.619999,  16.590000,  32.549999, 0.000000,  0.000000 
 14676736.000000, -11.382657 , -1.014557, 1.117448, 0.000000, 0.000000,  0.000000,  0.000000, 0.000000,  0.000000 
 14696704.000000, -12.569498 , -0.748954, 1.158126, 852104832.000000, 29.400000,  40.180000,  44.660000, 0.000000,  0.000000 
 14716736.000000, -12.411572 , -0.492921, 0.768096, 852124800.000000, 34.090000,  63.490002,  56.770000, 0.000000,  0.000000 
 14736704.000000, -11.576476 , -0.768096, 0.023928, 852144832.000000, 41.439999,  64.889999,  65.379997, 0.000000,  0.000000 
 14756992.000000, -13.619946 , -0.397209, -0.323031, 852164800.000000, 42.070000,  64.330002,  63.630001, 0.000000,  0.000000 
 14776704.000000, -17.522640 , 1.048056, -0.957129, 852185088.000000, 39.900002,  111.230003,  59.360001, 0.000000,  0.000000 
 14796672.000000, -18.453449 , 1.069592, -0.078963, 852204800.000000, 33.389999,  159.039993,  60.619999, 0.000000,  0.000000 
 14816640.000000, -14.483756 , 0.454636, 1.895115, 852224768.000000, 7.560000,  151.130005,  67.620003, 0.000000,  0.000000 
 14836672.000000, -11.944970 , 0.693919, 2.624927, 852244736.000000, -9.380000,  113.260002,  77.489998, 0.000000,  0.000000 
 14856960.000000, -10.932807 , 0.892523, 2.658426, 852264704.000000, -14.490000,  116.620003,  82.459999, 0.000000,  0.000000 
 14876608.000000, -10.298709 , 0.904487, 2.811567, 852285056.000000, -27.370001,  128.449997,  80.779999, 0.000000,  0.000000 
 14896640.000000, -9.973285 , 0.758525, 3.125026, 852304704.000000, -36.189999,  128.029999,  77.840004, 0.000000,  0.000000 
 14916608.000000, -10.289137 , 0.650848, 3.139383, 852324672.000000, -29.540001,  123.410004,  79.239998, 0.000000,  0.000000 
 14936576.000000, -10.549955 , 0.665205, 2.562713, 852364672.000000, -15.330000,  106.470001,  87.290001, 0.000000,  0.000000 
 14956928.000000, -9.915856 , 0.390030, 2.428715, 0.000000, 0.000000,  0.000000,  0.000000, 0.000000,  0.000000 
 14976576.000000, -8.664411 , 0.308674, 2.589034, 852384960.000000, -23.100000,  81.830002,  90.300003, 0.000000,  0.000000 
 14996544.000000, -7.594819 , 1.031307, 2.749353, 852404672.000000, -30.100000,  56.420002,  89.809998, 0.000000,  0.000000 
 15016576.000000, -7.128219 , 1.782653, 2.404787, 852424640.000000, -34.230000,  40.320000,  83.860001, 0.000000,  0.000000 
 15036544.000000, -7.140182 , 1.569692, 1.785046, 852444608.000000, -37.099998,  36.330002,  80.220001, 0.000000,  0.000000 
 15056832.000000, -7.166504 , 0.430708, 1.495514, 852464640.000000, -54.040001,  31.570000,  71.540001, 0.000000,  0.000000 
 15076544.000000, -7.101898 , -0.105284, 1.550549, 852484928.000000, -82.040001,  25.340000,  60.900002, 0.000000,  0.000000 
 15096512.000000, -7.056434 , -0.567099, 1.739582, 852504576.000000, -102.690002,  17.920000,  52.290001, 0.000000,  0.000000 
 15116480.000000, -7.125826 , -0.356531, 1.797010, 852524608.000000, -106.470001,  10.920000,  46.830002, 0.000000,  0.000000 
 15136512.000000, -7.496714 , -0.052642, 1.813759, 852544576.000000, -100.660004,  6.370000,  39.689999, 0.000000,  0.000000 
 15156800.000000, -7.953743 , 0.071785, 1.978864, 852564544.000000, -98.980003,  3.920000,  32.900002, 0.000000,  0.000000 
 15176448.000000, -8.554340 , 0.019143, 1.911865, 852584896.000000, -102.550003,  1.050000,  25.129999, 0.000000,  0.000000 
 15196480.000000, -9.609575 , -0.167498, 2.029114, 852604544.000000, -102.269997,  0.350000,  16.379999, 0.000000,  0.000000 
 15216448.000000, -10.980663 , -0.351745, 2.471786, 852624512.000000, -97.090004,  9.660000,  9.870000, 0.000000,  0.000000 
 15236416.000000, -11.504691 , -0.047856, 3.007778, 852644544.000000, -87.150002,  20.370001,  3.850000, 0.000000,  0.000000 
 15256768.000000, -10.195816 , 0.308674, 2.957529, 852664512.000000, -68.529999,  14.980000,  3.570000, 0.000000,  0.000000 
 15276608.000000, -8.776874 , 0.267996, 2.794817, 852684800.000000, -52.009998,  -2.380000,  6.580000, 0.000000,  0.000000 
 15296384.000000, -8.580662 , -0.004786, 2.880959, 852704640.000000, -46.689999,  -6.650000,  4.620000, 0.000000,  0.000000 
 15316416.000000, -9.466006 , 0.057428, 2.916851, 852724480.000000, -44.799999,  9.520000,  -0.140000, 0.000000,  0.000000 
 15336384.000000, -10.418350 , 0.507278, 2.395216, 852744448.000000, -35.420002,  29.610001,  -2.170000, 0.000000,  0.000000 
 15356672.000000, -12.011970 , 0.253639, 2.215754, 852764480.000000, -28.980000,  40.250000,  -3.360000, 0.000000,  0.000000 
 15376384.000000, -14.694324 , -0.567099, 2.766103, 852784768.000000, -35.840000,  55.230000,  -3.990000, 0.000000,  0.000000 
 15396352.000000, -16.998611 , -1.619941, 3.211168, 852824448.000000, -50.889999,  75.250000,  3.430000, 912814144.000000,  1010.980835 
 15416320.000000, -15.890735 , -2.002793, 3.737589, 0.000000, 0.000000,  0.000000,  0.000000, 0.000000,  0.000000 
 15436352.000000, -12.727424 , -1.959722, 4.340580, 852844416.000000, -28.210001,  35.139999,  5.040000, 0.000000,  0.000000 
 15456640.000000, -10.497313 , -1.280160, 3.558127, 852864384.000000, -0.700000,  -11.270000,  -9.870000, 0.000000,  0.000000 
 15476288.000000, -10.076177 , 0.588634, 3.510271, 852904384.000000, 77.840004,  -35.840000,  -92.470001, 0.000000,  0.000000 
 15496320.000000, -11.131411 , 2.481357, 2.423929, 0.000000, 0.000000,  0.000000,  0.000000, 0.000000,  0.000000 
 15516288.000000, -12.155540 , 1.421337, 1.689333, 852924352.000000, 114.099998,  -36.750000,  -122.709999, 0.000000,  0.000000 
 15536256.000000, -11.784652 , -1.213161, 2.833102, 852944384.000000, 77.419998,  -58.590000,  -156.240005, 0.000000,  0.000000 
 15556544.000000, -11.047661 , -2.457429, 3.558127, 852964352.000000, 12.460000,  -83.650002,  -178.990005, 0.000000,  0.000000 
 15576256.000000, -10.243673 , -1.703690, 2.947958, 852984640.000000, -2.660000,  -99.330002,  -184.660004, 0.000000,  0.000000 
 15596288.000000, -9.463614 , -1.256232, 2.076970, 853004352.000000, 22.960001,  -112.840004,  -186.270004, 0.000000,  0.000000 
 15616256.000000, -8.614161 , -1.890330, 2.323431, 853024384.000000, 34.930000,  -124.180000,  -185.220001, 0.000000,  0.000000 
 15636224.000000, -7.936993 , -2.428715, 2.943172, 853044288.000000, 22.610001,  -128.309998,  -183.889999, 0.000000,  0.000000 
 15656512.000000, -7.456036 , -2.299503, 3.139383, 853064320.000000, 27.090000,  -129.360001,  -178.149994, 0.000000,  0.000000 
 15676224.000000, -7.022934 , -2.196611, 2.679961, 853084608.000000, 51.240002,  -132.860001,  -169.050003, 0.000000,  0.000000 
 15696192.000000, -6.841080 , -2.715853, 2.507678, 853104256.000000, 62.580002,  -134.820007,  -157.009995, 0.000000,  0.000000 
 15716160.000000, -7.274181 , -3.373880, 2.612962, 853124288.000000, 51.240002,  -127.190002,  -140.139999, 0.000000,  0.000000 
 15736192.000000, -7.575676 , -3.287738, 3.019742, 853144256.000000, 42.980000,  -114.169998,  -120.470001, 0.000000,  0.000000 
 15756480.000000, -7.788638 , -2.878566, 3.093920, 853164224.000000, 47.180000,  -103.320000,  -99.820000, 0.000000,  0.000000 
 15776128.000000, -8.434700 , -2.880959, 2.842674, 853184512.000000, 50.189999,  -95.199997,  -77.349998, 0.000000,  0.000000 
 15796160.000000, -9.406186 , -3.189633, 3.026921, 853204224.000000, 39.060001,  -79.239998,  -57.889999, 0.000000,  0.000000 
 15816128.000000, -9.700503 , -2.775674, 3.483950, 853224192.000000, 24.500000,  -60.970001,  -42.349998, 0.000000,  0.000000 
 15836096.000000, -9.174082 , -2.182254, 3.000600, 853244224.000000, 24.990000,  -53.970001,  -26.740000, 0.000000,  0.000000 
 15856384.000000, -8.338986 , -1.761117, 2.751746, 853264192.000000, 34.650002,  -52.430000,  -14.490000, 0.000000,  0.000000 
 15876096.000000, -7.587641 , -1.756332, 2.727818, 853284480.000000, 31.990000,  -45.779999,  -7.700000, 0.000000,  0.000000 
 15896064.000000, -7.051648 , -1.655833, 2.806781, 853304192.000000, 29.469999,  -34.439999,  -3.850000, 0.000000,  0.000000 
 15916096.000000, -7.345965 , -1.605584, 2.732604, 853324160.000000, 35.420002,  -19.740000,  0.210000, 0.000000,  0.000000 
 15936064.000000, -8.664411 , -1.596013, 2.548356, 853344128.000000, 45.570000,  4.830000,  7.000000, 0.000000,  0.000000 
 15956352.000000, -10.018748 , -1.478764, 1.801795, 853364160.000000, 53.830002,  34.650002,  15.680000, 0.000000,  0.000000 
 15976064.000000, -11.495120 , -1.567299, 1.153341, 853384448.000000, 59.990002,  53.830002,  26.180000, 0.000000,  0.000000 
 15996032.000000, -12.961920 , -1.478764, 0.483350, 853404096.000000, 62.860001,  72.660004,  36.820000, 0.000000,  0.000000 
 16016000.000000, -14.029119 , -0.545564, 0.167498, 853424128.000000, 66.220001,  93.730003,  47.459999, 0.000000,  0.000000 
 16036032.000000, -13.947763 , 0.244068, 0.600598, 853444096.000000, 70.349998,  109.129997,  57.330002, 0.000000,  0.000000 
 16056320.000000, -12.701102 , 0.107677, 1.481157, 853464064.000000, 63.349998,  114.379997,  66.570000, 0.000000,  0.000000 
 16075968.000000, -11.866007 , 0.019143, 2.440679, 853484352.000000, 39.830002,  119.279999,  73.570000, 0.000000,  0.000000 
 16095936.000000, -11.720046 , 1.081556, 1.823331, 853504064.000000, 18.969999,  129.919998,  81.269997, 0.000000,  0.000000 
 16115968.000000, -11.511869 , 1.021735, 1.359123, 853524032.000000, 5.530000,  137.270004,  92.400002, 0.000000,  0.000000 
 16135936.000000, -11.550155 , 0.220140, 1.890330, 853544064.000000, -21.980000,  135.800003,  99.889999, 0.000000,  0.000000 
 16156224.000000, -11.758330 , -0.203390, 2.660819, 853564032.000000, -48.650002,  135.380005,  106.750000, 0.000000,  0.000000 
 16175936.000000, -11.456835 , 0.275175, 3.361916, 853584320.000000, -47.670002,  133.490005,  111.930000, 0.000000,  0.000000 
 16195904.000000, -10.889735 , 1.158126, 3.739982, 853603968.000000, -25.690001,  122.430000,  112.489998, 0.000000,  0.000000 
 16215872.000000, -10.370493 , 1.694118, 3.644269, 853624000.000000, -6.230000,  108.639999,  108.150002, 0.000000,  0.000000 
 16235904.000000, -9.829715 , 1.679761, 3.275774, 853643968.000000, -2.450000,  96.040001,  96.320000, 0.000000,  0.000000 
 16256192.000000, -9.049655 , 1.182054, 2.708675, 853663936.000000, -9.450000,  82.250000,  85.260002, 0.000000,  0.000000 
 16275840.000000, -8.329416 , 0.394816, 2.457429, 853684288.000000, -22.260000,  68.180000,  77.209999, 0.000000,  0.000000 
 16295872.000000, -7.850852 , 0.078963, 2.316252, 853703936.000000, -32.759998,  58.170002,  73.989998, 0.000000,  0.000000 
 16315840.000000, -7.709675 , 0.583849, 2.117648, 853723904.000000, -33.740002,  52.990002,  73.849998, 0.000000,  0.000000 
 16335808.000000, -7.750352 , 0.863809, 1.612763, 853743936.000000, -33.599998,  50.610001,  76.930000, 0.000000,  0.000000 
 16356160.000000, -8.015956 , 0.473779, 1.354338, 853763904.000000, -47.880001,  50.470001,  82.180000, 0.000000,  0.000000 
 16375808.000000, -8.606983 , -0.210568, 1.335195, 853784256.000000, -78.959999,  52.150002,  83.440002, 0.000000,  0.000000 
 16395776.000000, -9.600004 , -0.717847, 1.406980, 853823872.000000, -117.879997,  66.360001,  85.190002, 913813632.000000,  1010.958252 
 16415808.000000, -10.688738 , -0.736989, 1.789831, 0.000000, 0.000000,  0.000000,  0.000000, 0.000000,  0.000000 
 16435776.000000, -11.160125 , -0.394816, 2.002793, 853843840.000000, -115.500000,  71.400002,  86.730003, 0.000000,  0.000000 
 16456064.000000, -10.966305 , -0.748954, 2.301895, 853863872.000000, -109.410004,  68.040001,  89.040001, 0.000000,  0.000000 
 16475776.000000, -11.157731 , -1.256232, 2.909672, 853884160.000000, -108.360001,  64.820000,  88.129997, 0.000000,  0.000000 
 16495744.000000, -11.131411 , -1.339981, 3.352344, 853903808.000000, -111.300003,  69.510002,  82.389999, 0.000000,  0.000000 
 16515712.000000, -10.695917 , -0.732204, 3.474378, 853923840.000000, -100.239998,  71.889999,  73.919998, 0.000000,  0.000000 
 16535744.000000, -10.327423 , -0.866202, 3.550949, 853943808.000000, -85.120003,  65.800003,  63.700001, 0.000000,  0.000000 
 16556032.000000, -11.018949 , -2.366502, 3.663411, 853963776.000000, -74.129997,  62.510002,  48.439999, 0.000000,  0.000000 
 16575680.000000, -13.311273 , -3.538985, 3.634698, 853984128.000000, -65.169998,  60.480000,  23.520000, 0.000000,  0.000000 
 16595712.000000, -15.402599 , -2.249253, 2.699104, 854003776.000000, -35.000000,  67.129997,  -2.800000, 0.000000,  0.000000 
 16615680.000000, -14.842678 , -0.327817, 2.596212, 854023808.000000, 11.830000,  56.139999,  -23.940001, 0.000000,  0.000000 
 16635648.000000, -12.184253 , 0.208176, 3.014957, 854043776.000000, 45.220001,  18.760000,  -38.570000, 0.000000,  0.000000 
 16656000.000000, -10.018748 , 0.210568, 3.196811, 854063744.000000, 46.619999,  -18.620001,  -58.939999, 0.000000,  0.000000 
 16675648.000000, -9.501899 , -0.289532, 3.117848, 854084032.000000, 33.740002,  -35.560001,  -82.669998, 0.000000,  0.000000 
 16695616.000000, -10.930414 , -1.220340, 3.180061, 854103744.000000, 21.420000,  -34.720001,  -104.650002, 0.000000,  0.000000 
 16715648.000000, -12.361321 , -1.741975, 3.239882, 854123712.000000, 15.330000,  -27.510000,  -122.430000, 0.000000,  0.000000 
 16735616.000000, -12.492928 , -1.074377, 3.160919, 854143680.000000, 25.760000,  -36.959999,  -133.770004, 0.000000,  0.000000 
 16755904.000000, -12.524034 , -0.595813, 2.785245, 854163712.000000, 49.840000,  -65.940002,  -139.649994, 0.000000,  0.000000 
 16775616.000000, -12.602997 , -0.160319, 3.366701, 854184000.000000, 57.470001,  -89.110001,  -151.899994, 0.000000,  0.000000 
 16795584.000000, -12.299109 , 1.452443, 3.058028, 854203648.000000, 39.830002,  -107.099998,  -168.070007, 0.000000,  0.000000 
 16815552.000000, -10.573883 , 0.772882, 1.371087, 854223680.000000, 19.670000,  -133.630005,  -174.580002, 0.000000,  0.000000 
 16835584.000000, -8.630912 , -2.749353, 2.277967, 854243648.000000, -27.650000,  -162.330002,  -179.479996, 0.000000,  0.000000 
 16855872.000000, -7.654640 , -5.034499, 4.177868, 854263616.000000, -97.019997,  -167.229996,  -191.729996, 0.000000,  0.000000 
 16875520.000000, -7.683353 , -4.670790, 4.340580, 854283968.000000, -104.930000,  -152.250000,  -195.649994, 0.000000,  0.000000 
 16895552.000000, -8.331808 , -2.912065, 2.933600, 854303616.000000, -24.710001,  -131.110001,  -188.160004, 0.000000,  0.000000 
 16915520.000000, -8.439486 , -2.239682, 2.031506, 854323584.000000, 23.100000,  -117.949997,  -173.389999, 0.000000,  0.000000 
 16935488.000000, -8.116454 , -2.749353, 2.349752, 854343616.000000, 81.059998,  -116.199997,  -163.940002, 0.000000,  0.000000 
 16955776.000000, -8.137990 , -3.239882, 2.560320, 854363584.000000, 85.330002,  -116.480003,  -147.139999, 0.000000,  0.000000 
 16975488.000000, -8.238488 , -3.146562, 2.194218, 854383872.000000, 89.879997,  -110.180000,  -130.759995, 0.000000,  0.000000 
 16995456.000000, -8.547162 , -2.519642, 1.899901, 854403584.000000, 116.340004,  -97.440002,  -107.309998, 0.000000,  0.000000 
 17015424.000000, -8.580662 , -2.177469, 1.210768, 854423552.000000, 136.009995,  -85.400002,  -81.830002, 0.000000,  0.000000 
 17035456.000000, -8.465806 , -2.112862, 0.875773, 854443520.000000, 133.139999,  -76.440002,  -58.099998, 0.000000,  0.000000 
 17055872.000000, -8.403593 , -1.679761, 1.167697, 854463552.000000, 118.370003,  -65.309998,  -35.980000, 0.000000,  0.000000 
 17075392.000000, -8.707481 , -1.122234, 1.177269, 854483968.000000, 106.400002,  -51.170002,  -14.910000, 0.000000,  0.000000 
 17095424.000000, -9.025726 , -0.636491, 1.112662, 854503488.000000, 99.400002,  -34.720001,  3.010000, 0.000000,  0.000000 
 17115392.000000, -9.408579 , -0.220140, 1.672583, 854523520.000000, 84.279999,  -17.500000,  15.610000, 0.000000,  0.000000 
 17135360.000000, -10.047462 , 0.452243, 1.859223, 854543488.000000, 64.260002,  0.910000,  25.059999, 0.000000,  0.000000 
 17155712.000000, -11.002198 , 0.803988, 1.921437, 854563456.000000, 50.540001,  18.760000,  37.099998, 0.000000,  0.000000 
 17175360.000000, -11.526227 , 0.619741, 2.435893, 854583808.000000, 34.369999,  33.950001,  44.099998, 0.000000,  0.000000 
 17195328.000000, -10.983055 , 0.713061, 2.641676, 854603456.000000, 17.850000,  44.520000,  49.279999, 0.000000,  0.000000 
 17215360.000000, -10.829915 , 1.234696, 1.820938, 854623424.000000, 16.030001,  43.959999,  55.650002, 0.000000,  0.000000 
 17235328.000000, -12.796815 , 1.538585, 1.797010, 854643456.000000, 21.559999,  55.720001,  56.910000, 0.000000,  0.000000 
 17255616.000000, -15.321243 , 1.720440, 1.957329, 854663424.000000, 17.780001,  98.910004,  55.230000, 0.000000,  0.000000 
 17275328.000000, -15.421742 , 1.921437, 2.751746, 854683712.000000, 17.639999,  134.399994,  62.439999, 0.000000,  0.000000 
 17295296.000000, -12.390036 , 1.816152, 3.089134, 854703424.000000, 20.510000,  131.180008,  76.720001, 0.000000,  0.000000 
 17315264.000000, -10.420743 , 1.256232, 2.787638, 854723392.000000, 20.510000,  106.260002,  92.120003, 0.000000,  0.000000 
 17335296.000000, -10.243673 , 0.308674, 2.644069, 854743360.000000, 12.670000,  111.580002,  99.959999, 0.000000,  0.000000 
 17355584.000000, -11.676974 , 0.765703, 3.871587, 854763392.000000, 12.530000,  136.850006,  103.949997, 0.000000,  0.000000 
 17375232.000000, -12.528819 , 2.017149, 2.773281, 854783680.000000, 38.220001,  161.630005,  107.940002, 0.000000,  0.000000 
 17395264.000000, -11.997612 , 1.741975, 2.522035, 854803328.000000, 79.449997,  158.690002,  117.879997, 0.000000,  0.000000 
 17415232.000000, -10.727024 , 0.686740, 2.804388, 854823360.000000, 73.989998,  136.149994,  115.010002, 914813056.000000,  1010.937256 
 17435200.000000, -9.468399 , 0.717847, 3.510271, 854843328.000000, 60.270000,  112.070000,  108.919998, 0.000000,  0.000000 
 17455552.000000, -8.726624 , 2.672783, 3.182454, 854863296.000000, 71.889999,  96.180000,  99.470001, 0.000000,  0.000000 
 17475200.000000, -8.090133 , 3.677768, 2.120041, 854883584.000000, 95.970001,  84.070000,  85.540001, 0.000000,  0.000000 
 17495168.000000, -7.771888 , 2.572284, 1.414158, 854903296.000000, 88.620003,  72.239998,  68.320000, 0.000000,  0.000000 
 17515200.000000, -7.970492 , 1.115055, 1.289732, 854923264.000000, 46.970001,  64.050003,  48.860001, 0.000000,  0.000000 
 17535168.000000, -8.243275 , 1.306481, 1.263410, 854943296.000000, 14.770000,  63.630001,  36.049999, 0.000000,  0.000000 
 17555456.000000, -7.948956 , 2.100898, 0.543171, 854963264.000000, 8.820000,  60.619999,  32.830002, 0.000000,  0.000000 
 17575168.000000, -7.544570 , 1.610370, 0.765703, 854983552.000000, -5.180000,  49.070000,  34.790001, 0.000000,  0.000000 
 17595200.000000, -7.025328 , 0.863809, 1.272982, 855003264.000000, -50.540001,  41.580002,  30.730000, 0.000000,  0.000000 
 17615104.000000, -6.343372 , 0.882952, 1.787439, 855023296.000000, -95.199997,  33.950001,  25.900000, 0.000000,  0.000000 
 17635136.000000, -6.338587 , 1.134198, 0.863809, 855043200.000000, -116.760002,  27.370001,  21.629999, 0.000000,  0.000000 
 17655424.000000, -7.611568 , 0.574277, 0.184247, 855063232.000000, -129.570007,  32.480000,  18.340000, 0.000000,  0.000000 
 17675072.000000, -9.193225 , -0.473779, 0.746561, 855083520.000000, -157.430008,  52.779999,  11.760000, 0.000000,  0.000000 
 17695104.000000, -10.683953 , -0.344566, 1.844866, 855103168.000000, -180.180008,  72.309998,  7.700000, 0.000000,  0.000000 
 17715072.000000, -12.083755 , 0.655633, 2.292324, 855123200.000000, -174.160004,  84.840004,  14.420000, 0.000000,  0.000000 
 17735040.000000, -12.186646 , 0.425922, 2.756532, 855143168.000000, -157.430008,  91.489998,  23.450001, 0.000000,  0.000000 
 17755392.000000, -11.126624 , -0.306281, 3.555735, 855163136.000000, -167.930008,  83.440002,  27.299999, 0.000000,  0.000000 
 17775040.000000, -10.511670 , -0.411566, 4.407579, 855183424.000000, -186.830002,  69.090004,  25.480000, 0.000000,  0.000000 
 17795008.000000, -11.576476 , -0.394816, 4.658825, 855203136.000000, -178.919998,  71.750000,  24.080000, 0.000000,  0.000000 
 17815040.000000, -13.225130 , -1.155733, 4.256832, 855223104.000000, -145.809998,  86.660004,  20.719999, 0.000000,  0.000000 
 17835008.000000, -15.098711 , -2.467000, 4.381258, 855243136.000000, -107.870003,  88.550003,  13.580000, 0.000000,  0.000000 
 17855296.000000, -16.488941 , -3.043670, 4.405186, 855263104.000000, -70.349998,  82.250000,  5.600000, 0.000000,  0.000000 
 17875008.000000, -15.182461 , -1.220340, 3.783052, 855283392.000000, -13.510000,  64.750000,  -5.600000, 0.000000,  0.000000 
 17894976.000000, -11.720046 , 0.722632, 3.505485, 855303104.000000, 51.520000,  23.450001,  -17.920000, 0.000000,  0.000000 
 17914944.000000, -9.087940 , 0.765703, 3.251846, 855323072.000000, 93.169998,  -19.600000,  -35.000000, 0.000000,  0.000000 
 17934976.000000, -8.915657 , -0.179462, 3.330809, 855343040.000000, 100.800003,  -36.049999,  -63.840000, 0.000000,  0.000000 
 17955264.000000, -10.688738 , -0.488136, 2.581856, 855363008.000000, 97.860001,  -25.900000,  -96.459999, 0.000000,  0.000000 
 17974912.000000, -11.968900 , -0.404387, 2.218147, 855383360.000000, 109.270004,  -14.910000,  -112.070000, 0.000000,  0.000000 
 17994944.000000, -11.533404 , -0.583849, 1.758725, 855403008.000000, 118.020004,  -31.920000,  -116.690002, 0.000000,  0.000000 
 18014912.000000, -10.616954 , -0.679562, 1.758725, 855422976.000000, 115.919998,  -64.190002,  -113.400002, 0.000000,  0.000000 
 18034880.000000, -10.013963 , -0.416351, 1.562513, 855443008.000000, 111.930000,  -87.500000,  -110.879997, 0.000000,  0.000000 
 18055232.000000, -9.542577 , -0.057428, 1.435694, 855462976.000000, 115.080002,  -97.650002,  -108.430000, 0.000000,  0.000000 
 18074880.000000, -9.123833 , 0.004786, 1.280160, 855483264.000000, 115.150002,  -103.529999,  -107.029999, 0.000000,  0.000000 
 18094848.000000, -8.712267 , -0.315853, 1.119841, 855502976.000000, 108.919998,  -108.080002,  -108.500000, 0.000000,  0.000000 
 18114880.000000, -8.463413 , -0.830309, 1.007378, 855522944.000000, 101.360001,  -111.160004,  -109.270004, 0.000000,  0.000000 
 18134848.000000, -8.666803 , -1.725225, 1.196411, 855542912.000000, 96.180000,  -110.250000,  -109.129997, 0.000000,  0.000000 
 18155136.000000, -9.267403 , -2.775674, 1.392623, 855562944.000000, 95.830002,  -103.320000,  -106.330002, 0.000000,  0.000000 
 18174848.000000, -9.662218 , -3.220739, 1.232304, 855583232.000000, 100.449997,  -93.940002,  -100.730003, 0.000000,  0.000000 
 18194816.000000, -8.918050 , -2.622534, 0.827917, 855602880.000000, 113.400002,  -91.840004,  -89.529999, 0.000000,  0.000000 
 18214784.000000, -8.260024 , -2.340181, 0.660419, 855622912.000000, 127.260002,  -99.959999,  -74.760002, 0.000000,  0.000000 
 18234816.000000, -8.197811 , -2.651247, 0.957129, 855642880.000000, 119.419998,  -102.269997,  -69.230003, 0.000000,  0.000000 
 18255104.000000, -8.468199 , -2.723032, 1.804188, 855662848.000000, 84.559998,  -93.730003,  -70.209999, 0.000000,  0.000000 
 18274752.000000, -7.989635 , -2.294717, 2.423929, 855683200.000000, 47.880001,  -86.309998,  -70.769997, 0.000000,  0.000000 
 18294720.000000, -6.917650 , -2.062613, 3.873980, 855702848.000000, 22.120001,  -86.169998,  -70.629997, 0.000000,  0.000000 
 18314752.000000, -6.364908 , -2.562713, 5.704489, 855722816.000000, -11.060000,  -86.940002,  -75.180000, 0.000000,  0.000000 
 18334720.000000, -6.218946 , -3.792624, 6.857830, 855742848.000000, -56.209999,  -75.040001,  -80.360001, 0.000000,  0.000000 
 18355072.000000, -5.989235 , -4.661219, 7.176075, 855762816.000000, -81.199997,  -69.230003,  -77.769997, 0.000000,  0.000000 
 18374720.000000, -6.168696 , -5.036892, 7.994420, 855783104.000000, -71.820000,  -68.250000,  -70.000000, 0.000000,  0.000000 
 18394688.000000, -7.503892 , -4.905287, 8.140383, 855802816.000000, -46.619999,  -55.650002,  -55.930000, 0.000000,  0.000000 
 18414656.000000, -9.145369 , -4.426722, 7.243074, 855822784.000000, -12.530000,  -32.759998,  -38.430000, 915812544.000000,  1010.912476 
 18434688.000000, -10.133603 , -4.058227, 5.776274, 855842752.000000, 23.030001,  -22.400000,  -21.700001, 0.000000,  0.000000 
 18454976.000000, -11.021341 , -3.864408, 5.647062, 855862784.000000, 47.250000,  -22.750000,  -0.560000, 0.000000,  0.000000 
 18474624.000000, -11.392227 , -3.617948, 3.998406, 855883072.000000, 59.220001,  -13.580000,  18.200001, 0.000000,  0.000000 
 18494656.000000, -11.925828 , -2.730211, 1.909473, 855902720.000000, 72.730003,  -15.470000,  28.070000, 0.000000,  0.000000 
 18514624.000000, -13.715660 , -1.280160, 0.574277, 855922752.000000, 79.870003,  -5.880000,  28.840000, 0.000000,  0.000000 
 18534592.000000, -14.943177 , 0.638884, -0.727418, 855942720.000000, 72.379997,  26.809999,  33.810001, 0.000000,  0.000000 
 18554944.000000, -13.335200 , 2.065006, -0.825524, 855962688.000000, 64.330002,  40.599998,  35.420002, 0.000000,  0.000000 
 18574592.000000, -10.985448 , 2.120041, -0.959522, 855982976.000000, 59.990002,  21.559999,  31.500000, 0.000000,  0.000000 
 18594624.000000, -10.844273 , 1.019342, -1.306481, 856002688.000000, 39.130001,  14.210000,  30.309999, 0.000000,  0.000000 
 18614592.000000, -11.717653 , -0.162712, -1.878366, 856022720.000000, 10.500000,  36.889999,  25.129999, 0.000000,  0.000000 
 18634560.000000, -11.801401 , -0.334995, -1.103091, 856042688.000000, -3.290000,  55.930000,  27.790001, 0.000000,  0.000000 
 18654848.000000, -11.875579 , 0.897308, -0.775275, 856062656.000000, 0.910000,  60.689999,  41.090000, 0.000000,  0.000000 
 18674560.000000, -11.480762 , 1.519442, -0.792024, 856082944.000000, 12.950000,  68.320000,  55.720001, 0.000000,  0.000000 
 18694528.000000, -10.485349 , 1.414158, -0.665205, 856102656.000000, 2.870000,  74.970001,  63.070000, 0.000000,  0.000000 
 18714496.000000, -10.238889 , 2.464607, 0.189033, 856122624.000000, -26.950001,  80.220001,  62.439999, 0.000000,  0.000000 
 18734528.000000, -10.080962 , 2.825923, 1.174876, 856142592.000000, -50.189999,  94.430000,  61.110001, 0.000000,  0.000000 
 18754816.000000, -9.647861 , 1.548156, 2.364109, 856162560.000000, -71.120003,  101.919998,  61.040001, 0.000000,  0.000000 
 18774464.000000, -9.700503 , 0.263210, 2.988636, 856182912.000000, -84.840004,  101.779999,  59.990002, 0.000000,  0.000000 
 18794496.000000, -9.805787 , -0.275175, 2.565106, 856202560.000000, -76.300003,  105.279999,  67.340004, 0.000000,  0.000000 
 18814464.000000, -9.190832 , -0.198604, 1.794617, 856222592.000000, -66.919998,  107.590004,  79.099998, 0.000000,  0.000000 
 18834432.000000, -8.434700 , 0.315853, 0.981057, 856242560.000000, -37.730000,  106.260002,  86.590004, 0.000000,  0.000000 
 18854784.000000, -8.061419 , 0.562313, 0.442672, 856262528.000000, -10.080000,  100.519997,  93.449997, 0.000000,  0.000000 
 18874432.000000, -8.039884 , 0.428315, 0.284746, 856282816.000000, 1.470000,  99.190002,  91.629997, 0.000000,  0.000000 
 18894400.000000, -8.035098 , 0.205783, 0.373280, 856302528.000000, -7.280000,  102.059998,  86.099998, 0.000000,  0.000000 
 18914432.000000, -7.896315 , -0.468993, 0.200997, 856322496.000000, -27.580000,  102.690002,  80.779999, 0.000000,  0.000000 
 18934400.000000, -7.714460 , -0.782453, 0.014357, 856342464.000000, -45.080002,  101.849998,  81.129997, 0.000000,  0.000000 
 18954688.000000, -7.984849 , -0.856631, 0.315853, 856362496.000000, -61.950001,  103.250000,  84.070000, 0.000000,  0.000000 
 18974400.000000, -8.946764 , -0.569492, 0.655633, 856382784.000000, -77.209999,  112.770004,  90.720001, 0.000000,  0.000000 
