time,seconds_elapsed,z,y,x
1633781309368962800,0.023962890625,0.02251110701560974,0.10581307508051395,-0.07623655972331762
1633781309388842000,0.043842041015625,-0.10259762016534804,0.3110162064567208,0.033408567800745366
1633781309408720600,0.063720703125,0.07101414889991282,0.3770607502505183,0.16133439822904766
1633781309428598800,0.083598876953125,0.32081133202314377,0.16366700589507818,0.06075294932485558
1633781309448477700,0.103477783203125,0.4363976130992174,-0.16520868237912653,-0.02878470739237964
1633781309468356900,0.12335693359375,0.2705640768200159,-0.2815153866842389,-0.015550245893886311
1633781309488236000,0.143236083984375,-0.047124154746532435,-0.19836656335443256,0.1082786706096027
1633781309508114700,0.16311474609375,-0.12023439914286135,-0.06357523107081652,0.19371822609193623
1633781309527993900,0.182993896484375,-0.22525720062851903,-0.10460983677059411,0.31923706844374533
1633781309547872800,0.202872802734375,-0.0696077892333269,-0.22519670261293648,0.15943725937083364
1633781309567752000,0.222751953125,-0.07153203529417515,-0.19932430247068403,0.1894469054482877
1633781309587630800,0.242630859375,-0.11555822402536868,-0.23096856401264665,0.1403732240691781
1633781309607509000,0.262509033203125,-0.09259118993580341,-0.30271424205750225,0.19671112429760396
1633781309627387600,0.2823876953125,-0.12383446946144103,-0.4456742677494883,0.1954186002690345
1633781309647266800,0.302266845703125,-0.271026433634758,-0.5390048778757452,0.1685284744516015
1633781309667145700,0.322145751953125,-0.18109774090647696,-0.6324307650700212,0.23724691362977027
1633781309687025000,0.34202490234375,-0.3091325846672058,-0.939927565228939,0.20175898227170108
1633781309706903800,0.36190380859375,-0.5755681833803653,-1.199528934007883,0.17953882102668284
1633781309726782700,0.38178271484375,-0.8275204987108707,-1.4299918865859507,0.19113222818672657
1633781309746662000,0.401661865234375,-0.9264479059308767,-1.6106702330365776,0.07687325019165873
1633781309766540800,0.421540771484375,-1.0787532675951719,-1.724263002207875,-0.07683700983449816
1633781309786419000,0.4414189453125,-1.3274018652051687,-1.5564602116823196,-0.28662951482757926
1633781309806297900,0.4612978515625,-1.306199502700567,-1.1358797609180211,-0.26364085342809557
1633781309826176800,0.4811767578125,-0.751763539198041,-0.9517793310642242,-0.6251445535846054
1633781309846055700,0.5010556640625,-0.4014700921028852,-1.0722069146916269,-1.03820659154281
1633781309865934800,0.520934814453125,-0.5349333906531334,-0.8331777938202023,-1.2118148534767328
1633781309885814000,0.54081396484375,-0.6714426327705383,-0.35764205629229545,-1.1187813266009092
1633781309905693000,0.56069287109375,-0.3998842842161655,-0.23695582172870636,-0.9470213228821754
1633781309925571800,0.58057177734375,0.08097966259717941,-0.38614626624286175,-0.8773656028538942
1633781309945449700,0.60044970703125,0.39598143155872817,-0.543921583750844,-0.9100668261028826
1633781309965329000,0.620328857421875,-0.006172551155090331,-0.5891361054837704,-0.8172245840154587
1633781309985207800,0.640207763671875,-0.5026449859887361,-0.40843934659361836,-0.32246991288512944
1633781310005087000,0.6600869140625,-0.7308300567626953,-0.2765519190579653,0.32219080368280406
1633781310024966000,0.6799658203125,-0.6321054786384105,-0.32586101662814615,0.6405433443769812
1633781310044844800,0.6998447265625,-0.22740590309500694,-0.4189993190526962,0.7783589929178356
1633781310064723700,0.7197236328125,-0.025902503019571303,-0.3393102807879448,0.8031894827917218
1633781310084603000,0.739602783203125,0.12797171539664268,-0.0686497578561306,0.6976265830799937
1633781310104481800,0.759481689453125,0.28656419450640674,0.3434229768037796,0.8826669241324067
1633781310124360000,0.77935986328125,-0.3721311848938465,0.5861772556781768,1.1650009337231517
1633781310144238600,0.799238525390625,-1.2120891403734684,0.37393268135786056,0.8500354051187634
1633781310164117800,0.81911767578125,-1.533592546314001,0.40258068369328975,0.5720253962069749
1633781310183996700,0.83899658203125,-1.3114672139704227,0.5700087956875562,0.24814342456683516
1633781310203875800,0.858875732421875,-0.9604214872032404,1.0926987908393144,0.2241565824428573
1633781310223754800,0.878754638671875,-0.7991524823606013,1.4876432805657387,0.1060847316287458
1633781310243633700,0.898633544921875,-0.40339375364184377,1.9198808513760566,0.2861564904883504
1633781310263512800,0.918512939453125,-0.1014841059654951,1.5052578477114438,0.44882633857224136
1633781310283390700,0.938390625,-0.20626140825748443,1.072494207200408,-0.14825857049152255
1633781310303270000,0.958269775390625,-0.7961825266391038,0.34939269886314867,-0.14161942473798989
1633781310323148800,0.978148681640625,-0.28961539877057074,0.19915829825401304,-0.0026036066271364687
1633781310343027700,0.99802783203125,0.6274094297766685,0.5797568672418594,-0.07722498623877763
1633781310362906600,1.01790673828125,0.7484329334706068,1.3603946187466383,0.17783983508907258
1633781310382785800,1.037785888671875,0.27886136504411696,2.3090625397920608,0.6249605022545903
1633781310402664700,1.057664794921875,-0.26455577631592747,2.8794010058254003,1.2456116168774665
1633781310422544000,1.0775439453125,-0.7887678664684296,2.4756769973158836,1.3507511766105889
1633781310442421800,1.097421875,-0.961293009340763,1.8289228156000374,0.9462531149886548
1633781310462300700,1.11730078125,-1.0450585032641888,1.7789654832541941,0.6972365608491004
1633781310482179600,1.1371796875,-0.7999801653563976,2.1234078662335873,0.8688314371339976
1633781310502058800,1.157058837890625,-0.20470015029013156,2.020530844604969,0.8604676595449448
1633781310521938000,1.17693798828125,0.32260289161503314,1.2608254064917563,0.5578986711770296
1633781310541816800,1.19681689453125,0.30451193912923336,0.6051122577726841,0.22494586965702473
1633781310561695700,1.21669580078125,-0.02746376098692417,-0.1817979981303215,-0.35116949927732344
1633781310581574700,1.23657470703125,0.594291588550806,-0.03553893089294433,-0.653051382163912
1633781310601453800,1.256453857421875,1.1233984650075435,0.6164613347828388,-0.43793066788539287
1633781310621331700,1.276331787109375,1.1591729582220316,0.7925269267410039,-0.1663932159885764
1633781310641211000,1.2962109375,0.49014790798723695,0.8550853819847106,-0.16299524411335586
1633781310661089500,1.316089599609375,0.10970482182204723,0.976248586410284,-0.17637115077599883
1633781310680968700,1.33596875,0.4008230263710022,1.0851309859335423,-0.2677469735726714
1633781310700847900,1.355847900390625,0.6078197631657123,0.9658359134674072,-0.4729153258964419
1633781310720726800,1.375726806640625,0.35831308742165563,0.36055239078104495,-0.38910613896176216
1633781310740606000,1.39560595703125,-0.014850363129377365,-0.2778314374744892,-0.3258811826333403
1633781310760484600,1.415484619140625,-0.4703273552298546,-0.827794054955244,-0.320110307614319
1633781310780362800,1.43536279296875,-0.8362339665204286,-0.928784239923954,-0.39953908750768746
1633781310800241700,1.45524169921875,-1.1446148560374974,-0.8586030347168445,-0.4935632693886757
1633781310820120800,1.475120849609375,-1.1742010160058736,-0.5221896444141865,-0.19668750595999882
1633781310839999700,1.494999755859375,-0.6719423989862203,0.10060206243395804,-0.12023907531797885
1633781310859878700,1.514878662109375,-0.3379237948656082,0.049938627645373344,-0.15061390144601464
1633781310879757600,1.534757568359375,-0.5440788201391696,-0.056654784157872194,-0.1259858022764325
1633781310899636700,1.55463671875,-0.38592823957800865,0.4642822298467159,-0.09682999654933809
1633781310919516000,1.574515869140625,-0.09122720810621976,1.1381026976644992,0.06536744824983179
1633781310939393800,1.594393798828125,-0.12516834841370583,1.3367992236256598,0.15661168055608868
1633781310959273000,1.61427294921875,-0.09458324053585529,0.6005670155584811,-0.1059586210310459
1633781310979151600,1.634151611328125,0.2951695257663727,-0.018963059145212173,-0.34144480859860776
1633781310999030800,1.65403076171875,0.6468257856473326,-0.5316062920570374,-0.7625894691169262
1633781311018909700,1.67390966796875,0.771260266828537,-0.6946276935249567,-1.0730334286436438
1633781311038788900,1.693788818359375,0.47295390434116125,-0.6166220783025026,-1.0183893997862934
1633781311058667800,1.713667724609375,0.20733342140316963,-0.39249885013997554,-0.8741610346589237
1633781311078546700,1.733546630859375,0.3980073844283819,-0.14050854088664055,-0.7791947130896151
1633781311098425000,1.753425048828125,0.7444187293931841,0.07479600552618502,-0.5960927927538752
1633781311118303200,1.77330322265625,0.6621084027141332,0.08478899175226688,-0.45426447450555857
1633781311138182100,1.79318212890625,0.26862171058058737,-0.07260112583041191,-0.44367030751593406
1633781311158061300,1.813061279296875,-0.029074703314900398,0.06054945350885391,-0.3769089206896722
1633781311177940500,1.8329404296875,0.08558452604413032,0.4645861812293529,-0.23781309614516793
1633781311197819100,1.852819091796875,0.043864276167750356,0.7323936528176069,-0.04214358985498547
1633781311217698300,1.8726982421875,-0.38115561834871764,0.6925041254997253,0.20809899894818662
1633781311237577200,1.8925771484375,-0.6840805805474519,0.26819091794788835,0.33675679691284893
1633781311257456400,1.912456298828125,-0.644352089010179,-0.31831074737906456,0.07175769727621227
1633781311277334300,1.932334228515625,-0.47250353022515773,-0.705085959175229,-0.031433979792147876
1633781311297213400,1.95221337890625,-0.19751579174399375,-0.8726350672006606,-0.00895619052425027
1633781311317092000,1.972092041015625,0.05067512522637844,-0.9062667031675576,-0.18335567590110002
1633781311336971300,1.99197119140625,0.24392156908810136,-0.704166506242752,-0.3343406026165932
1633781311356850200,2.01185009765625,0.3626239363580942,-0.3358329600661993,-0.40847755971215666
1633781311376729300,2.031729248046875,0.2973679125934839,-0.135434890884161,-0.39448797813057895
1633781311396608300,2.051608154296875,0.15612258186489342,0.09239888223409652,-0.2725698636844754
1633781311416487200,2.071487060546875,-0.006322773280739784,0.1966337482124567,-0.07928476831279695
1633781311436365300,2.091365234375,-0.06946078197807073,0.29123510892689225,-0.03599485796689987
1633781311456244200,2.111244140625,0.11089900004267692,0.404760365819931,-0.08485285076871514
1633781311476123400,2.131123291015625,0.3905447934627533,0.5135077407866716,-0.08947744182944298
1633781311496002300,2.151002197265625,0.39495442659854885,0.4669523258388042,-0.1955859927251935
1633781311515881200,2.170881103515625,0.04403729464709759,0.3288034998208284,-0.2816389399986714
1633781311535760100,2.190760009765625,-0.2613110953062773,0.19280629887878895,-0.2388227846443653
1633781311555639300,2.210639404296875,-0.1994523127645254,0.16923136202394962,-0.21830701616443693
1633781311575518500,2.2305185546875,0.006727554689347744,0.25910569421648977,-0.36229908831790086
1633781311595397000,2.250397216796875,0.14391279637217522,0.5363099397033453,-0.32479156076572835
1633781311615275300,2.270275146484375,0.15824118145406246,0.5346446368396282,-0.38748686719685793
1633781311635154200,2.290154296875,-0.0344619493111968,0.4487970759451389,-0.40376879749931394
1633781311655033300,2.310033447265625,-0.29663083049058914,0.47099429470598697,-0.2324485734373331
1633781311674912300,2.329912353515625,-0.4615832000210881,0.38270050970315933,-0.1770055762220174
1633781311694791400,2.34979150390625,-0.3210337426021695,0.27268939841091633,-0.09881766323521733
1633781311714670000,2.369670166015625,-0.03012859628200531,0.13159808920025826,0.03022358108907938
1633781311734549200,2.38954931640625,0.2954965657636523,0.08777648313045501,0.016380714501813054
1633781311754428200,2.40942822265625,0.574902997469902,0.19282208096981046,0.003181552645564079
1633781311774306300,2.429306396484375,0.12312749023586511,0.2638607797890901,0.03934533743858337
1633781311794185200,2.449185302734375,-0.5128016383439302,0.10017886858582496,0.19434600260145962
1633781311814064400,2.469064453125,-0.7619745520889759,-0.040592707151174544,0.17033749663494527
1633781311833943300,2.488943359375,-0.439007503336668,0.0011795651733875275,0.021236849296092986
1633781311853822200,2.508822265625,0.12680851683616637,0.03979834190309047,-0.08367343172580004
1633781311873701400,2.528701416015625,0.47202831392884254,-0.05398059651255607,-0.0691709321860224
1633781311893580300,2.548580322265625,0.3690799806296825,-0.18113631935119628,-0.05257014519274234
1633781311913459200,2.568459228515625,0.11501228058040142,-0.26289807223677636,-0.03370265537649393
1633781311933337000,2.588337158203125,-0.08943009555637836,-0.4080249205738306,0.0020513065066188572
1633781311953216300,2.60821630859375,-0.030922961530089377,-0.3268471050560474,0.04640511975698173
1633781311973095200,2.62809521484375,0.10148527500927447,-0.08126023310422897,0.015356924412027
1633781311992974300,2.647974365234375,0.08265724042057991,0.12481588171422481,-0.010063786439970135
1633781312012853200,2.667853271484375,0.05732230815589428,0.1742348693996668,0.019500307827070355
1633781312032732200,2.687732177734375,-0.04903554132580757,0.04785013093352317,-0.024938041901588437
1633781312052611300,2.707611328125,0.07303367202877997,0.0933580826550722,0.013037176227569579
1633781312072490200,2.727490234375,0.3145259681433439,0.1284539459556341,0.06330247854404152
1633781312092368400,2.747368408203125,0.23095102835595607,0.07581599622368812,-0.0033076632432639595
1633781312112247300,2.767247314453125,0.10292056850939989,0.05562251850068569,-0.004246113137155771
1633781312132126200,2.787126220703125,0.04668167167603969,0.07478139247894287,0.08180076972171664
1633781312152005000,2.807005126953125,-0.06280804609060286,0.007659574842453002,0.09315576501600444
1633781312171884000,2.826884033203125,-0.18418197065740824,-0.13635551286041736,0.01319083241932094
1633781312191763200,2.84676318359375,-0.19002222111821174,-0.2219382853388786,-0.0653795770790428
1633781312211642000,2.86664208984375,-0.04695815052986145,-0.18491583788990973,-0.08003032598309219
1633781312231521000,2.88652099609375,0.08103343861103057,-0.17770809846818447,0.023959406127780674
1633781312251399200,2.906399169921875,0.10101473488807677,-0.08329846093356609,0.039789647139981385
1633781312271278000,2.926278076171875,0.06029752457439899,0.016297639328241346,-0.013209975511208175
1633781312291157200,2.9461572265625,0.09771160168945789,0.11246785679459571,-0.06432999496087431
1633781312311036200,2.9660361328125,0.032786417314410204,0.05966624093353748,-0.06805515296384691
1633781312330915300,2.985915283203125,0.015368834045529365,0.08676409121751785,-0.049721550828590984
1633781312350794000,3.0057939453125,0.043348143339157104,0.09820143103301525,-0.02405921324044466
1633781312370673200,3.025673095703125,0.21821604994535446,0.08855798889696598,-0.07045417692959308
1633781312390552000,3.045552001953125,0.3061722735568881,-0.0050958618342876435,-0.09018471331596374
1633781312410430200,3.06543017578125,0.32325463352203365,0.014303835162520408,-0.056538902693241834
1633781312430309000,3.08530908203125,0.15710779350996015,0.07153320433795451,0.005227379259467125
1633781312450188000,3.10518798828125,-0.046486441364884376,0.1511333952754736,0.07421908242106437
1633781312470067000,3.12506689453125,-0.12635931176394224,0.22263737351894378,0.06768485834673046
1633781312489946000,3.144946044921875,-0.04628127418160438,0.22232991500496863,0.14835435901619493
1633781312509825300,3.1648251953125,-0.03696779465228319,0.10197335078716277,0.10964688108973204
1633781312529704200,3.1847041015625,-0.09225596663206816,-0.005534253251552581,0.04951565299294889
1633781312549583000,3.2045830078125,-0.01818330694437027,-0.06883738938272,0.1076348106149584
1633781312569461000,3.2244609375,0.14039134424775837,-0.07862637746930122,0.07503302915245294
1633781312589340200,3.244340087890625,0.1848135465592146,-0.06095686526596546,0.19573314611092207
1633781312609219000,3.264218994140625,0.16731705283522605,-0.11143617565929889,0.19809834087230263
1633781312629098200,3.28409814453125,0.04579495196938514,-0.2671440392434597,0.14605558055453002
1633781312648977200,3.30397705078125,0.031098318096995353,-0.19328677587211132,0.10449249400123953
1633781312668856000,3.32385595703125,-0.002598199799656868,-0.004998246678709984,0.051547378016263246
1633781312688735200,3.3437353515625,-0.003453647585213184,0.20031740516126154,0.14736863591447472
1633781312708614100,3.3636142578125,0.07660276268720627,0.1602998675495386,0.08334368831478059
1633781312728492000,3.383491943359375,0.14389029227942227,0.0352133522003889,-0.022818638594821094
1633781312748371200,3.40337109375,0.16931202604472637,0.0968090998917818,0.028471915116161105
1633781312768250000,3.42325,0.1457449802353978,0.18212533038854598,0.0006537146683782338
1633781312788129000,3.44312890625,0.10715367603451013,0.26127602399289607,0.007176832826808094
1633781312808008200,3.46300830078125,0.02326104860007763,0.3005249153196812,0.05040807178802788
1633781312827887000,3.48288720703125,0.1062616956308484,0.26808278139829633,-0.04607924880348146
1633781312847766300,3.502766357421875,0.08782382940351963,0.23242577708363532,-0.051319049153104423
1633781312867645000,3.52264501953125,0.06867898395061492,0.21814707636237143,0.04817527123466134
1633781312887523000,3.542523193359375,0.10002981550395489,0.20008944162428377,0.02124254838451743
1633781312907402000,3.562402099609375,0.15810674141943454,-0.018463292929530143,-0.011223404803872107
1633781312927281200,3.58228125,0.12232844881266355,-0.08121171778738498,0.03140584967620671
1633781312947160300,3.602160400390625,-0.02598462834507227,-0.14109540086388586,0.11264708581902086
1633781312967039200,3.622039306640625,-0.045675124981999396,-0.03758183489739895,0.1847819093119353
1633781312986918100,3.641918212890625,0.0029389760613441466,0.04551730407178402,0.2035655933022499
1633781313006797000,3.661797119140625,0.002186111867427826,0.11397533874809741,0.12735738289058207
1633781313026676200,3.68167626953125,-0.07246960840523242,0.14159399803578854,0.07477109028063714
1633781313046554000,3.70155419921875,-0.14202128353714943,0.04775719195306301,-0.009485986552014946
1633781313066433300,3.721433349609375,-0.021575871992111206,0.14834230325222014,-0.025458047187700866
1633781313086312000,3.74131201171875,0.028541034829616545,0.1407160461574793,-0.07130436401814222
1633781313106191600,3.761191650390625,-0.05546469759047031,0.12347557302117347,-0.08575323367454112
1633781313126070800,3.78107080078125,-0.1809527794778347,-0.04194879793524742,-0.12821867589503527
1633781313145950000,3.800949951171875,-0.09199731569588183,-0.14161036464869975,-0.25324111303202806
1633781313165828600,3.82082861328125,-0.14604863935708998,-0.10897533850371836,-0.25809980510957536
1633781313185706800,3.840706787109375,-0.21729893510043619,-0.007381342422962189,-0.2886086328808218
1633781313205585700,3.860585693359375,-0.27185119402110575,0.05005903915464878,-0.2683220700468868
1633781313225464800,3.88046484375,-0.22027122890949247,0.09482523259818554,-0.1958683167979121
1633781313245343700,3.90034375,-0.10387421597242355,0.07704641480147838,-0.18194076760187744
1633781313265223000,3.920222900390625,0.030201076996326445,0.10421674579977988,-0.19582075132913887
1633781313285101600,3.9401015625,0.0558878914386034,0.17793197035193442,-0.18230046775974332
1633781313304980700,3.959980712890625,-0.002083236014842987,0.23618542187809943,-0.1781442979283631
1633781313324860000,3.97985986328125,-0.14002572580575942,0.299493818706274,-0.09901026319786906
1633781313344737800,3.99973779296875,-0.1761374881505966,0.31864977007508277,-0.015449936457723377
1633781313364617000,4.019616943359375,-0.10763093815743922,0.2151981634289026,-0.06614267040602863
1633781313384495600,4.03949560546875,-0.10652034656703471,0.04770049332976341,-0.03376417630538344
1633781313404374800,4.059374755859375,-0.0672813921123743,0.0183563254237175,-0.01370404263846576
1633781313424253700,4.079253662109375,-0.13301029408574103,-0.014441197806596756,0.019897052059695122
1633781313444132900,4.0991328125,-0.19480536374151705,0.0456792166352272,0.08832184205353259
1633781313464011800,4.11901171875,-0.33003917909562586,0.06628361324667931,0.14946692336797712
1633781313483890700,4.138890625,-0.3180798612326383,0.033012627285718917,0.12245463247559964
1633781313503768600,4.1587685546875,-0.12826572990715504,-0.003984101200103759,0.07498151816092431
1633781313523647700,4.178647705078125,0.04601122506856918,-0.04686170441806316,0.04390219702534377
1633781313543526700,4.198526611328125,0.1694108102440834,-0.07568857045173645,-0.02490633158907294
1633781313563405800,4.21840576171875,-0.019488544324040413,-0.07698094834983349,0.030881168214976787
1633781313583284700,4.23828466796875,-0.136305828499794,-0.0015039748221635817,0.05658011148646474
1633781313603163600,4.25816357421875,-0.20422844112515448,-0.046581718432903284,0.026709800814464685
1633781313623042800,4.278042724609375,-0.23001345524489877,-0.01399345403909683,0.13824249565079808
1633781313642920700,4.297920654296875,-0.277033565095067,-0.029061843833327293,0.11746654186472295
1633781313662800000,4.3177998046875,-0.1629787313699722,-0.01337093822658062,0.048393078703805804
1633781313682678800,4.3376787109375,-0.03207856130599975,0.06274024155139923,0.011716595148295164
1633781313702557700,4.3575576171875,0.07732172461152076,0.09077098877131938,0.042285628674179315
1633781313722436600,4.3774365234375,0.20117256068587303,0.06812544172108173,0.05235884052962064
1633781313742315800,4.397315673828125,0.161162621858716,0.06542436606884003,0.055573930118605494
1633781313762195000,4.41719482421875,0.050825931873917575,0.10054010311365127,0.002947890020161867
1633781313782073900,4.437073974609375,0.029333646512031554,0.13327449797987936,-0.029234277790784833
1633781313801951700,4.45695166015625,0.10775953297317027,0.16486089185476302,-0.12075645025558769
1633781313821830700,4.47683056640625,0.1431499953061342,0.18468495174348354,-0.0913408245485276
1633781313841709800,4.496709716796875,0.19701018030941486,0.17101415378749368,-0.1207240823559463
1633781313861588700,4.516588623046875,0.14164952761530875,0.003706453302502632,-0.2285599685009569
1633781313881468000,4.536468017578125,-0.004026186776161194,-0.043641573327779765,-0.1690280945368111
1633781313901346600,4.5563466796875,-0.04524900852441788,-0.05403437252640724,-0.2145845615752041
1633781313921225700,4.576225830078125,0.008894669595360755,0.05640168617963791,-0.21578363516665994
1633781313941103600,4.596103515625,0.07213409284055232,0.18131576757133006,-0.20812552162893116
1633781313960982800,4.615982666015625,0.06830898159444332,0.1468365748643875,-0.2611621883548796
1633781313980861700,4.63586181640625,-0.014620646026730537,0.0714028559565544,-0.27715397660434243
1633781314000740900,4.655740966796875,-0.07615326535403728,0.035037411111593246,-0.2667926685225218
1633781314020619800,4.675619873046875,-0.029995909813046454,0.03113280488848686,-0.20638795724660158
1633781314040498700,4.695498779296875,0.05642214444577694,0.06550093843638896,-0.15500658344700932
1633781314060377900,4.7153779296875,0.14420681088268755,0.06930149976313114,-0.16042656266912816
1633781314080256800,4.7352568359375,0.13361585876345633,0.004885433954000473,-0.1513541984193027
1633781314100135000,4.755135009765625,0.06827215671539306,-0.06228665256500244,-0.15379991107098756
1633781314120014300,4.775014404296875,-0.017504677030444143,0.03855506384372711,-0.060644365250691765
1633781314139893200,4.794893310546875,-0.08118541430234909,0.17616963685452938,-0.05178768957816064
1633781314159772400,4.8147724609375,-0.0032961189359426496,0.22317980983257293,-0.054969753680378194
1633781314179651300,4.8346513671875,0.1562701736420393,0.19259119482338427,-0.05584792475439608
1633781314199530200,4.8545302734375,0.2204617830455303,0.07256897712647914,-0.022186770432069895
1633781314219409200,4.8744091796875,0.17073709041178226,-0.007141688448190689,-0.017625746126845476
1633781314239287300,4.894287353515625,0.20028291836977005,0.04473287569582462,-0.012300021059438586
1633781314259166200,4.914166259765625,0.3178969058811664,0.10935177060067652,0.020663360257074236
1633781314279045400,4.93404541015625,0.33970892471671105,0.05592530083954334,0.05707622444033622
1633781314298924500,4.953924560546875,0.2574959209322929,-0.004355857121944427,0.13389262987822292
1633781314318803200,4.97380322265625,0.12681260848939419,-0.023859014493227002,0.10309840929433703
1633781314338682400,4.993682373046875,0.0020239070430397984,0.020810148316621778,0.18574710108228026
1633781314358561300,5.013561279296875,-0.06750204912573099,0.016815525722503662,0.21541443652808664
1633781314378439400,5.033439453125,-0.11142916139662265,-0.036787469649314876,0.1401970637846738
1633781314398318300,5.053318359375,-0.15941139427721499,-0.019138415712118148,0.10500051658861338
1633781314418197500,5.073197509765625,-0.3303393310859799,0.04968903679847717,0.15882658012658357
1633781314438076200,5.093076171875,-0.383493705907464,0.1327723936766386,0.24518881254494188
1633781314457955300,5.112955322265625,-0.38416970547288654,0.033522330373525616,0.2053613176126033
1633781314477834200,5.132834228515625,-0.5259945896551013,-0.04511223040223122,0.2062774826094508
1633781314497713400,5.15271337890625,-0.5252227284997701,0.004414309310913086,0.24283275093808768
1633781314517592300,5.17259228515625,-0.28149755876660343,0.10877952367067337,0.21421390163190662
1633781314537470500,5.192470458984375,-0.011567688196897507,0.15470248593389987,0.15814108208045363
1633781314557349400,5.212349365234375,0.0439887793302536,0.10051204606294631,0.12892952757813037
1633781314577228300,5.232228271484375,0.07592559407800435,0.06729249802827834,0.13530388491563497
1633781314597107500,5.252107421875,0.1791869388490915,0.0007107786178588867,0.07154657527618109
1633781314616986400,5.271986328125,0.350263051956892,-0.007481880187988281,0.030662995419651267
1633781314636865300,5.291865234375,0.5796978305310011,-0.0007779986351728439,-0.13204590603299438
1633781314656744200,5.311744140625,0.6623033407643437,0.09303893370330334,-0.20214834691546857
1633781314676622300,5.331622314453125,0.6132149002075195,0.2467261051148176,-0.037118674365058536
1633781314696501200,5.351501220703125,0.6909414062276482,0.15143442404866217,-0.15755867908261714
1633781314716380400,5.37138037109375,0.5276584312140942,-0.14642448693215845,-0.29430194915160535
1633781314736259300,5.39125927734375,0.3238406167164445,-0.1759288138359785,-0.08040091286115347
1633781314756138200,5.41113818359375,0.09518968199640512,-0.12775135064423085,-0.02219597665183246
1633781314776017400,5.431017333984375,-0.08583499367386102,-0.10038695837855338,-0.12039550798870623
1633781314795896300,5.450896240234375,-0.23263941983431577,-0.010517302361130713,-0.13759301876612007
1633781314815774500,5.4707744140625,-0.3360872270882129,0.012703998750448225,-0.1019721817433834
1633781314835653400,5.4906533203125,-0.356734586058557,-0.04306874187588691,-0.08458229019902647
1633781314855532300,5.5105322265625,-0.3562111467063427,-0.17349778729677198,-0.08463073245063424
1633781314875411200,5.5304111328125,-0.38542788884043694,-0.22794015610218046,-0.055033247370645404
1633781314895290400,5.550290283203125,-0.35241555381566286,-0.2105938845038414,-0.0966437532622367
1633781314915169300,5.570169189453125,-0.23099632880240678,-0.028641572594642638,0.0032366438336670395
1633781314935048400,5.59004833984375,-0.04909223994910717,0.13687515282034873,0.0745412270475179
1633781314954927400,5.60992724609375,0.0882172126352787,0.07424947755932808,-0.02119132965393364
1633781314974805200,5.62980517578125,0.22204583736658096,0.08244739706218242,-0.1077941658951342
1633781314994684200,5.64968408203125,0.18300182096213102,0.16802666240930555,-0.046719884794577955
1633781315014563300,5.669563232421875,0.1526516908839345,0.32135143024921414,-0.014786723308637737
1633781315034442500,5.6894423828125,0.09478665415346622,0.33987025275826455,0.07455722833424806
1633781315054321400,5.7093212890625,0.10299041887521743,0.21522855856716633,0.07818206776790321
1633781315074200300,5.729200439453125,0.201724641610682,0.12236498143076896,0.07422361246570944
1633781315094079200,5.749079345703125,0.31598230443149805,0.16725100186169148,0.09794446059726178
1633781315113960700,5.768960693359375,0.27050971628427506,0.23075638256669043,0.09825484172068535
1633781315133839600,5.788839599609375,0.1329553490281105,0.2687900528848171,0.11632789322361349
1633781315153718800,5.80871875,0.02952712325751781,0.26481530403494835,0.23076588104739784
1633781315173597700,5.82859765625,0.08250497246831655,0.19943769971728323,0.2428206951741129
1633781315193476600,5.8484765625,0.16099457181543111,0.004021510601043701,0.21858378727920352
1633781315213355800,5.868355712890625,0.19605097988843917,-0.10319149440526962,0.21590996496006845
1633781315233234700,5.888234619140625,0.19523849446177483,-0.0908095672160387,0.22832959381118414
1633781315253112800,5.90811279296875,0.0285778597086668,-0.11104454599320888,0.27160949421972036
1633781315272991700,5.92799169921875,-0.09620908817201852,-0.14706512292325497,0.29696061043422667
1633781315292870700,5.94787060546875,-0.05711246479749679,-0.12323241191506384,0.21750717102363704
1633781315312749600,5.96774951171875,0.04319324503839016,-0.02028115600645542,0.2689141907211393
1633781315332628700,5.987628662109375,0.2159218015283346,0.0922258637547493,0.28316571117453276
1633781315352508000,6.0075078125,0.2280605676114559,0.09072598058581352,0.23184015921540557
1633781315372386800,6.02738671875,0.0769736418262124,0.11117080272138118,0.26631690423693505
1633781315392264700,6.0472646484375,-0.13282266255915165,0.15037936203777788,0.22036913632601499
1633781315412143600,6.0671435546875,-0.16564619701355696,0.2537941438049078,0.18814042595960198
1633781315432022800,6.087022705078125,-0.019973697492480277,0.2773445307403803,0.05380874707698822
1633781315451901700,6.106901611328125,0.10996785667240619,0.22277005998790264,-0.08618556067720055
1633781315471780900,6.12678076171875,0.14041560190618038,0.13638707704246045,-0.11532185798622667
1633781315491659500,6.146659423828125,0.17326923923790455,-0.05947919392883777,-0.18202106629647313
1633781315511538700,6.16653857421875,0.06487374644875527,-0.15190437964797018,-0.23153913044221697
1633781315531416600,6.18641650390625,-0.05054302327930927,-0.029939211189746854,-0.17472944798357784
1633781315551295700,6.206295654296875,0.02836684730648994,0.10241875646710395,-0.19655987925864754
1633781315571174700,6.226174560546875,0.041372459352016444,0.10620528926849365,-0.23680508814640341
1633781315591053800,6.2460537109375,0.0609200403869152,0.140522569411993,-0.19786613955162463
1633781315610932700,6.2659326171875,0.05363952798992395,0.06397942795753479,-0.19027707266211508
1633781315630811600,6.285811767578125,0.056417176009714604,0.060090019303560255,-0.13645385866835713
1633781315650690800,6.30569091796875,-0.08070902896225451,0.06808160257935524,-0.022860797236114738
1633781315670568700,6.325568603515625,-0.3356587725430727,0.047133507096767426,0.07205605916827916
1633781315690448000,6.34544775390625,-0.37418987098932266,0.035406828945875164,0.10630874964296817
1633781315710326800,6.365326904296875,-0.23649054230451583,-0.008110825741291046,0.04585428094118833
1633781315730205700,6.385205810546875,-0.12399755106866359,-0.012706336838006973,0.09733860365860164
1633781315750084600,6.405084716796875,-0.051174891442060465,-0.030943419796228406,0.072817764255777
1633781315769963800,6.4249638671875,-0.07549421692341565,-0.06670271544158458,0.008697466522827744
1633781315789842700,6.4448427734375,-0.04803893150389194,-0.02140226899087429,0.04302504886463284
1633781315809720800,6.464720947265625,0.10345599056035279,0.04935001410245895,0.05906973634511232
1633781315829599700,6.484599853515625,0.13045710247159004,0.04357435331046581,0.09865845408551395
1633781315849478700,6.504478759765625,0.08676467573940753,0.04163198707103729,0.1474084564682096
1633781315869357800,6.52435791015625,0.0747282009869814,0.08597674023211002,0.08969656447283923
1633781315889236700,6.54423681640625,0.005809270800650119,0.1606231081545353,0.11191606813073157
1633781315909116000,6.564115966796875,-0.04582943876087665,0.14082476722896098,0.16648798159994185
1633781315928994600,6.58399462890625,0.028765783496201038,0.04243862727880478,0.11256181868836283
1633781315948872700,6.603872802734375,0.1277633333429694,0.009275193345546722,0.09078450584001839
1633781315968751600,6.623751708984375,0.20764146443903445,-0.007884615769982338,-0.013554331969469785
1633781315988630800,6.643630859375,0.23272622133493423,-0.016502806511521338,-0.09966814258471131
1633781316008509700,6.663509765625,0.173425014321506,0.020297522619366643,-0.13738032586351037
1633781316028388900,6.683388916015625,-0.025900164932012557,0.07711655742824078,-0.09769969205595552
1633781316048267500,6.703267578125,-0.07211305005252361,0.09771569334268569,-0.14595307002812624
1633781316068146700,6.723146728515625,-0.01316343295574188,0.10687748944163322,-0.2714917130589485
1633781316088024600,6.743024658203125,0.09884265154600143,0.17443594492971895,-0.1985646432098001
1633781316107899400,6.7628994140625,0.11427052230238914,0.14432079265117645,-0.1178469194844365
1633781316127778300,6.7827783203125,-0.029060382528603074,-0.05308218636810779,-0.10000800553094595
1633781316147657500,6.802657470703125,-0.12338497212827206,-0.14575696293413637,-0.09073971685022116
1633781316167536400,6.822536376953125,-0.13002777114361525,-0.05913081888258457,0.0013263897655531763
1633781316187415300,6.842415283203125,-0.09447978016138077,0.08961889612674713,0.14174487774856387
1633781316207294500,6.86229443359375,-0.07731529487073421,0.12344225527346134,0.15883454423733054
1633781316227172400,6.88217236328125,-0.0819780259847641,0.02792085710465908,0.13068667344376445
1633781316247051500,6.902051513671875,-0.061648354661464684,0.04481587780416012,0.1362180040858686
1633781316266930400,6.921930419921875,0.018129530930519104,0.1081675292521715,0.16688786763772367
1633781316286809300,6.941809326171875,0.09188742558062075,0.10040683212280273,0.13783793343789874
1633781316306688300,6.961688232421875,0.194177002710104,0.027599370065331457,0.08097703224867582
1633781316326567400,6.9815673828125,0.2584270643025636,-0.015825930163264272,0.04480637932345271
1633781316346446300,7.0014462890625,0.21525720013976096,-0.01869534811973572,0.06252316473461687
1633781316366324500,7.021324462890625,0.039647535255551335,-0.0004319616764783859,0.06287519304268062
1633781316386203400,7.041203369140625,-0.10522913771271705,0.036760581642389295,0.0645337739046663
1633781316406082300,7.061082275390625,-0.11732932535111903,0.07458323955833912,0.04167180762477219
1633781316425961500,7.08096142578125,-0.04824877486228943,0.05710720410048961,0.037244273506104944
1633781316445840400,7.10084033203125,0.010151391658186912,-0.04806465046703815,-0.05183562037311494
1633781316465719600,7.120719482421875,-0.08450169924348593,-0.10200608401298522,-0.09605265550129115
1633781316485598200,7.14059814453125,-0.17454525052309036,-0.012381342667341231,-0.09768317931257188
1633781316505476400,7.160476318359375,-0.2731944253236055,0.0896335091739893,-0.0744306062798947
1633781316525355300,7.180355224609375,-0.45986265983879565,0.1897013186007738,-0.11209347052425145
1633781316545234400,7.200234375,-0.33702947637438774,0.26887422403693195,-0.016319412768632174
1633781316565113300,7.22011328125,-0.03788607854098081,0.12098258716166019,-0.09124920074231922
1633781316584992500,7.239992431640625,0.27289339655041694,-0.0640875645071268,-0.15560834873244164
1633781316604871200,7.25987109375,0.4444587544798851,-0.08919511775672435,-0.0797684601765126
1633781316624750300,7.279750244140625,0.4960147541940212,-0.031332126852869985,-0.1325960872616619
1633781316644628200,7.299628173828125,0.36698563869893547,0.04091068705916404,-0.18518340278491377
1633781316664507400,7.31950732421875,0.29796178683340546,0.09703940151631832,-0.20205986491441724
1633781316684386600,7.339386474609375,0.14578969615995882,0.19707213962972164,-0.09386011389307677
1633781316704265500,7.359265380859375,0.0298261062040925,0.08774959512352942,-0.09456628940105438
1633781316724144400,7.379144287109375,-0.011898527586460112,0.06855857244133949,-0.0952381242480129
1633781316744023300,7.399023193359375,-0.07565759079158306,0.0452303038239479,-0.07770867810249328
1633781316763901400,7.4189013671875,-0.13196107729375361,0.031981530672311784,-0.09142989107146858
1633781316783780400,7.4387802734375,-0.2269371165394783,0.007523965764045715,-0.10018807480558753
1633781316803659500,7.458659423828125,-0.2706517551034689,0.025167759004235266,-0.003888897197321057
1633781316823538200,7.4785380859375,-0.2101578311741352,0.026478841602802276,-0.030183979731053114
1633781316843417300,7.498417236328125,-0.18106325411498544,0.03165302937030792,-0.07320376789867877
1633781316863296300,7.518296142578125,-0.10040917021036147,0.06442249554991722,-0.08400310207158326
1633781316883175400,7.538175537109375,-0.01116495261490345,0.10379589003920554,-0.10344495770968497
1633781316903053300,7.55805322265625,-0.0281768776923418,0.11772913832366466,-0.026696283745765683
1633781316922932500,7.577932373046875,-0.07190729834735393,0.06931961994171142,-0.011173355117067693
1633781316942811400,7.597811279296875,-0.09439268639981746,0.022479542833566665,-0.026585516847670077
1633781316962690300,7.617690185546875,-0.011581716722249984,0.09762216984033584,-0.010091478164494037
1633781316982569500,7.637569580078125,0.08761164795756339,0.16969605692625045,-0.01716967292241752
1633781317002448400,7.657448486328125,0.16519933002889156,0.1523831030756235,-0.02739551805630326
1633781317022327300,7.677327392578125,0.20055589009225366,0.06719020669758319,-0.038528906489163635
1633781317042205400,7.697205322265625,0.10236381140947341,0.006371288597583771,-0.06574643763005733
1633781317062084400,7.71708447265625,-0.061485857576131814,0.04003741135597229,0.007994871211424469
1633781317081963300,7.73696337890625,-0.07221592590510845,0.11440613138079643,0.05694361103661358
1633781317101842400,7.756842529296875,-0.06666647508442401,0.06153203480541706,0.09502192421406506
1633781317121721300,7.776721435546875,-0.028991116684675217,-0.01928688427209854,0.08180471524447203
1633781317141600300,7.796600341796875,-0.06391337698400021,-0.11107494113147258,0.044700726991891856
1633781317161479200,7.816479248046875,-0.028062603662908074,-0.054880760222673415,0.05392185206264257
1633781317181357000,7.836357177734375,0.05219195953011512,-0.0505634815454483,0.009742810857295989
1633781317201236200,7.856236328125,0.10526011737287044,-0.05832008702158928,-0.007308569447696208
1633781317221115100,7.876115234375,0.11426116995215416,-0.07878069124817848,0.015499547753110528
1633781317240994300,7.895994384765625,0.07276479195952415,-0.04528232627213001,0.026524799636378882
1633781317260873200,7.915873291015625,0.0050385786890983575,0.020182956328988075,0.02653809750936925
1633781317280752000,7.935752197265625,-0.07881956195384264,0.10121639494001865,0.06475070459097623
1633781317300631300,7.95563134765625,-0.027387773141264914,0.184630006685853,0.05639408739507198
1633781317320509200,7.97550927734375,0.06056026716381311,0.1666787549316883,-0.0604332797832787
1633781317340388400,7.995388427734375,0.1299830552190542,0.1663350560605526,-0.06856668268255889
1633781317360267300,8.015267333984376,0.15165245071351527,0.11528174517154693,-0.020969649727270005
1633781317380146200,8.035146240234376,0.1429877904817462,-0.024037878191471098,-0.0881214241106063
1633781317400025000,8.055025146484375,0.030757541835308072,-0.05554828422069549,-0.023663857247307896
1633781317419904300,8.074904296875,-0.0602969400525093,0.025890228059887884,0.02513451432175934
1633781317439783200,8.094783203125,-0.028159342035651205,0.08722878611981869,0.04603321770466864
1633781317459661300,8.114661376953125,0.0023410101681947708,0.10043547369539738,0.07883673228435217
1633781317479540200,8.134540283203124,0.13876812696009874,0.04770049332976341,0.030992227374017238
1633781317499419100,8.154419189453124,0.26484891404360533,-0.051202363970875735,0.009615238954871892
1633781317519298300,8.17429833984375,0.4130190755993128,-0.13173194471299648,-0.0037808337129652497
1633781317539177200,8.19417724609375,0.3240694570362568,-0.17964637305438516,-0.01873999097906053
1633781317559056400,8.214056396484375,0.09239069892764092,-0.052905076235532755,0.10137370439358055
1633781317578934300,8.233934326171875,-0.022712767067551612,0.08519991064071655,0.16875673024952412
1633781317598813200,8.253813232421875,-0.04084171347618103,0.20114625720083712,0.2176189608350396
1633781317618692000,8.273692138671874,-0.04002192152589559,0.1644914740204811,0.20522190914191304
1633781317638571300,8.2935712890625,-0.027682372173666953,0.07321428929269314,0.15748846339061856
1633781317658450200,8.3134501953125,0.08981909487396478,-0.05769932477474212,0.046745969083905214
1633781317678329300,8.333329345703126,0.03769435536116361,-0.011071429112553596,0.1402010823726654
1633781317698208000,8.3532080078125,-0.17013678643107413,0.04130348576903343,0.20427659111581742
1633781317718086100,8.373086181640625,-0.20928397094905377,0.051767012116312974,0.1980980486113578
1633781317737965000,8.392965087890625,-0.1532540406912565,0.02604337279498577,0.1358096424806863
1633781317757844200,8.41284423828125,0.04169862256646156,0.00807400086224079,0.1034147817671299
1633781317777723400,8.432723388671874,0.20620003345906734,0.04210954145491123,0.1241103637933731
1633781317797602300,8.452602294921874,0.19046675001531838,0.056022915995121,0.13664828526191414
1633781317817481200,8.472481201171876,0.21868454423993824,0.0773854374974966,0.16584793013073504
1633781317837360000,8.492360107421876,0.26882074028402564,0.10137830750346183,0.10370200121067463
1633781317857238300,8.51223828125,0.3565992692410946,0.11872107197046279,0.09341390449553727
1633781317877117200,8.5321171875,0.320706410343945,0.09581716624498367,0.10218874710351228
1633781317896996400,8.551996337890625,0.1894549426242709,0.0042763621449470515,-0.014706278483569622
1633781317916875000,8.571875,0.1687161059781909,0.013859598526358603,0.02809935547672212
1633781317936754200,8.591754150390624,0.12367723307311534,0.003066401833295822,0.06377886388413607
1633781317956633300,8.61163330078125,0.03753624219000339,-0.02287058797776699,0.07556830507293343
1633781317976511200,8.63151123046875,-0.13489713074564932,-0.007733809122443198,0.10390409965403377
1633781317996390100,8.65139013671875,-0.24662585961073635,0.02373100419938564,0.08768938936889172
1633781318016269300,8.671269287109375,-0.1848690761387348,0.028455694633722304,0.026545477098226546
1633781318036148200,8.691148193359375,-0.006081950262188911,0.003226560831069946,-0.057311494500935076
1633781318056027100,8.711027099609375,0.060281157961487766,0.0037894554108381267,-0.018177461725473402
1633781318075906300,8.73090625,0.06703735422343016,0.006850012025237083,-0.03196362968944013
1633781318095785200,8.75078515625,-0.037597616988420485,0.0037619828820228576,0.0058611471183598034
1633781318115664100,8.7706640625,-0.12418693616092204,0.015137363377213477,0.003811740307882428
1633781318135542800,8.790542724609375,-0.05028057295083999,-0.005571078130602836,-0.020906448297947643
1633781318155422000,8.810421875,0.05419307021945714,0.03688391576111316,-0.06050561436712742
1633781318175301000,8.830301025390625,0.13218904083073138,0.13858312578201293,-0.024311361370608207
1633781318195180000,8.850179931640625,0.17222294505536556,0.15816928526163102,-0.07397336403168737
1633781318215059000,8.870058837890625,0.107614571544528,0.03474398112297058,-0.1328236854724586
1633781318234937900,8.889937744140624,-0.05078852247297763,-0.01625263114273548,-0.08910685495138168
1633781318254816000,8.90981591796875,-0.06284720905721188,0.027426936107873914,-0.05216485232748091
1633781318274695000,8.92969482421875,-0.02489829441308975,0.054286885982751845,-0.08848485059551894
1633781318294574000,8.949573974609375,0.014701602308452128,0.020787351962924003,-0.0699797643508762
1633781318314453000,8.969452880859375,0.04253156625926494,-0.023036007672548292,-0.12191146550960838
1633781318334332000,8.989331787109375,-0.013739187017083166,0.013347557350993156,-0.08980718524046241
1633781318354210800,9.0092109375,0.012512275570631027,0.10915654028952121,-0.02452631929554045
1633781318374089000,9.0290888671875,0.0055360068172216415,0.11481062052845954,0.004711538691818714
1633781318393967900,9.0489677734375,-0.023730127416551113,0.07469371419548988,0.008483531511202454
1633781318413847000,9.068846923828126,-0.019959376706182957,0.01495206993818283,-0.03688990711048245
1633781318433726000,9.088725830078126,0.11632277865707874,0.055202831783890724,-0.04370141375623643
1633781318453604900,9.10860498046875,0.17743454222381114,0.02510579968392849,-0.039780513985455034
1633781318473484000,9.128484130859375,0.13447218333184718,-0.0007990414232015609,-0.0370495546516031
1633781318493363000,9.148363037109375,-0.0639917029172182,-0.016569442006945607,-0.02923040533326566
1633781318513241000,9.168240966796875,-0.03715279583036899,0.05124269598126411,-0.011297419888153672
1633781318533120000,9.1881201171875,0.08708119434267282,0.08421089960336685,-0.08861578349880873
1633781318552999000,9.2079990234375,-0.006404021823406219,0.0909837547391653,-0.006504048131778836
1633781318572877800,9.2278779296875,-0.11121697995066641,0.049859717190265655,-0.011383563801646231
1633781318592757000,9.247757080078125,-0.12077420510798692,0.08162029858827591,-0.020915143061056733
1633781318612636000,9.267635986328125,-0.06553600974977015,0.16037760896086692,-0.04208871786259114
1633781318632514000,9.28751416015625,-0.060656421014666555,0.17210194902420042,0.024497677722945806
1633781318652393000,9.30739306640625,-0.08041296862512827,0.08638590555489063,0.04970942199937999
1633781318672272000,9.32727197265625,-0.11995119828730821,-0.018731003955006598,0.020332374737039208
1633781318692151000,9.347151123046874,-0.1348544606477022,-0.11005670399963854,0.049367184432968496
1633781318712030000,9.367030029296876,0.05986731646358966,-0.016902034962177275,0.029945348669588565
1633781318731909000,9.3869091796875,0.09030921647846699,0.05173310984671116,0.06925378816388547
1633781318751787800,9.406787841796875,0.04358955087959766,0.10583820952177048,0.09022131899930536
1633781318771666200,9.426666259765625,-0.11838029570877551,0.0339326647400856,0.1013362219274044
1633781318791544800,9.446544921875,-0.11737842518985271,-0.04231646220386028,0.08033062410391867
1633781318811424000,9.466424072265625,0.023201427367329597,-0.027100772893428802,0.05287307366207242
1633781318831303000,9.486302978515624,0.14690116453319788,0.0497357985496521,0.042328591033071274
1633781318851182000,9.50618212890625,0.13758096300214528,0.04533201063275337,0.011726605085656046
1633781318871060700,9.526060791015626,0.08833411701321602,-0.012425181809067725,0.012127733232453464
1633781318890939000,9.54593896484375,0.028534897349774834,0.022017186018824575,0.008757233886048198
1633781318910817800,9.56581787109375,-0.07941372845470905,0.08822890307307243,0.05364836888350546
1633781318930697000,9.585697021484375,-0.17106266910433768,0.11820903079509734,0.053384018858894704
1633781318950576000,9.605576171875,-0.0847796394020319,0.11629705969393253,0.02890979507677257
1633781318970455000,9.625455078125,-0.04427928670942783,0.012383680754899979,-0.03550524781905114
1633781318990334000,9.645333984375,0.012014262920618057,0.025250761112570762,-0.028956264567002652
1633781319010212900,9.665212890625,0.01071399397701025,0.06744914989471436,-0.07384286951981485
1633781319030091000,9.685091064453125,0.07568155618906021,0.16823066054880617,-0.05781885950118303
1633781319049970000,9.704969970703125,0.044184009641408915,0.049938043123483655,-0.060066126971319314
1633781319069849000,9.72484912109375,0.09713058693110942,-0.036621465432643885,-0.10219744186662137
1633781319089728000,9.74472802734375,0.10898761346340179,-0.027414661148190498,-0.11682334859035909
1633781319109606400,9.7646064453125,0.15637129592895507,0.07813362551629544,-0.09769099729284643
1633781319129485600,9.784485595703124,0.13093290328979493,0.09917699806690215,-0.0688894118309021
1633781319149363500,9.804363525390626,0.06519932514131069,0.04449672885239124,-0.07557276205234228
1633781319169242600,9.82424267578125,-0.0013286182552576064,-0.021174889975786208,-0.06587780892476439
1633781319189121500,9.84412158203125,-0.042704584738612175,-0.03156827369630336,-0.1059220884129405
1633781319209000700,9.864000732421875,-0.054390346357226366,0.03992226054370403,-0.09270575622618198
1633781319228879400,9.88387939453125,-0.0038233576804399486,0.01699848107397556,-0.123996308959648
1633781319248758500,9.903758544921875,-0.028747371056675908,0.05192892467975616,-0.11254165268316864
1633781319268637400,9.923637451171874,-0.06677870328724383,0.0710416214287281,-0.07775368628799915
1633781319288515600,9.943515625,-0.0434723542407155,0.04970248080193996,-0.11915325284264981
1633781319308394500,9.96339453125,-0.005426116701960563,0.06369535031914711,-0.130165279918164
1633781319328273400,9.9832734375,0.08229220650047063,0.12404665090739726,-0.10923778883218764
1633781319348152300,10.00315234375,0.07425941443145274,0.13443009775578976,-0.05910173891857266
1633781319368031500,10.023031494140625,0.06184124688506126,0.09581073650419711,-0.10061631015501916
1633781319387910700,10.04291064453125,0.08227759345322846,0.06867781490683555,-0.09111329940296709
1633781319407789600,10.06278955078125,0.2229243737667799,0.03200315798223018,-0.13001418100968
1633781319427667700,10.082667724609376,0.27417525305449963,0.05043605577349662,-0.08022460644617677
1633781319447546400,10.10254638671875,0.12568038958907127,0.07825052989423274,0.03206504423730075
1633781319467425500,10.122425537109375,-0.02595803259909153,0.11484569184184074,0.05548340229094028
1633781319487304400,10.142304443359375,-0.0851738994166255,0.12362170349359512,0.07785385872684418
1633781319507183600,10.16218359375,0.048854047279059884,0.11303835015892982,0.07766622720025479
1633781319527062500,10.1820625,0.11862199551016092,0.08635726398229598,0.0861130068976432
1633781319546940700,10.201940673828124,0.09328530967980622,0.04061082732975483,0.06028371524475515
1633781319566819300,10.2218193359375,0.06365238796025514,0.051017070531845087,0.06484861200749874
1633781319586698500,10.241698486328126,0.05676613557785749,0.04012684320509433,0.0527359302137047
1633781319606577400,10.261577392578126,0.1675333259344101,0.046180151894688604,0.07021656878143548
1633781319626456600,10.28145654296875,0.1911860042005777,0.0069207391738891596,0.10793386662676929
1633781319646335500,10.30133544921875,0.016075521010160444,-0.06228314543366432,0.14064283479079603
1633781319666213600,10.321213623046875,-0.11262421640008688,-0.026329788520932196,0.16534728713221847
1633781319686092500,10.341092529296875,-0.07781973726153374,-0.01742518205344677,0.11185118620097637
1633781319705971500,10.360971435546874,0.0022311200529336927,-0.02135433819591999,0.12434833726771174
1633781319725850600,10.3808505859375,0.1081263204589486,0.03499240292608738,0.0913172975424677
1633781319745729500,10.4007294921875,0.0673711162224412,0.05289280127584934,0.11089001301862299
1633781319765608400,10.4206083984375,-0.03855331027805805,0.05229658894836902,0.08841003179363906
1633781319785487400,10.4404873046875,-0.13138620001524687,0.0201730194568634,0.07323467449359596
1633781319805365500,10.460365478515625,-0.1314370534196496,0.017474281892180442,0.051086847832426424
1633781319825244400,10.480244384765625,-0.06496639316827059,0.09177402833402157,0.07522657896317542
1633781319845123600,10.50012353515625,0.023586627292633056,0.12538462151288984,0.02787672570198774
1633781319865002500,10.52000244140625,0.10701046817153692,0.07927870389819144,0.007601122653484344
1633781319884881400,10.53988134765625,0.143182144010067,-0.0010188216537237167,-0.005158771002665162
1633781319904760600,10.559760498046876,0.11937427518218754,0.006772270613908767,-0.018149185479059814
1633781319924638500,10.579638427734375,0.07003098308146,0.08193184875547885,-0.028068010490387676
1633781319944517600,10.599517578125,0.08447831836789846,0.16623393377363682,-0.07320157594159245
1633781319964396500,10.619396484375,0.15904665261805057,0.19227029230594633,-0.12149046361856161
1633781319984275500,10.639275390625,0.19774989276081323,0.19339082076847552,-0.10149674625135957
1633781320004154400,10.659154296875,0.03091419370174408,-0.007905074036121368,0.010365765061229467
1633781320024033500,10.679033447265626,-0.13620645977854728,-0.10964929224252701,0.03974485815018415
1633781320043912400,10.698912353515626,-0.1352224171772599,-0.03817980079054832,0.025178353463485837
1633781320063790600,10.71879052734375,-0.09593757775425911,0.003933832317590713,0.0639032209161669
1633781320083669500,10.73866943359375,-0.01693272236138582,-0.028950200152397153,0.007108370700478554
1633781320103548400,10.75854833984375,-0.03702916945070028,-0.06089081429243087,0.014586670691892505
1633781320123428400,10.778428466796875,-0.08368979833871126,-0.016895605221390723,-0.006681596655771136
1633781320143307500,10.7983076171875,-0.10441548324227333,0.03550736671090126,-0.023446342039108274
1633781320163186400,10.8181865234375,-0.09734861359596252,0.06659574793577194,0.04955532741621137
1633781320183064600,10.838064697265626,-0.05645575445443392,0.0433393755108118,0.008439253978058696
1633781320202943200,10.857943115234375,0.01059504377245903,0.07085048277080058,0.018136764388903975
1633781320222822400,10.877822509765625,0.07768412818312645,0.04152735765278339,-0.0027761867150664326
1633781320242701300,10.897701416015625,0.17214286555647848,0.036199440628290176,-0.05617883720919489
1633781320262580500,10.91758056640625,0.26589754631370305,0.047183775979280466,-0.04418561707660556
1633781320282459100,10.937459228515625,0.20993366702944039,0.06996610115170479,-0.027408596733585
1633781320302337500,10.957337646484374,0.10890110422372817,0.11355272942185402,-0.023254034337401388
1633781320322216200,10.97721630859375,-0.004354980339109898,0.09950549936890601,0.069111530148983
1633781320342095400,10.997095458984376,0.08451192837655544,0.05959259117543697,0.004858472881838679
1633781320361974500,11.016974609375,0.185187640568614,0.02229892556965351,-0.01089417284950614
1633781320381853400,11.036853515625,0.12332125924229621,0.019635843840241432,0.03129077192917466
1633781320401732400,11.056732421875,-0.017603461229801175,0.020272388178110123,-0.0017648907806724309
1633781320421611300,11.076611328125,-0.1586573610395193,0.029463994893431662,0.03784881527051329
1633781320441489400,11.096489501953124,-0.1520677535161376,0.10826923606097698,0.08883300644606351
1633781320461368300,11.116368408203124,-0.03734568805396556,0.0852799901396036,0.033270036112889645
1633781320481247500,11.13624755859375,-0.015609657064080237,-0.010311550655961036,0.04717778462991118
1633781320501126400,11.15612646484375,0.01080021095573902,-0.07640928594172,-0.00011770809553563594
1633781320521005300,11.17600537109375,-0.05165186130404472,-0.022256839993596074,0.05420812165811657
1633781320540884500,11.195884521484375,-0.09446633615791797,0.09474924475252627,0.11941139232218265
1633781320560762400,11.215762451171875,-0.17301321865022182,0.09069558544754981,0.16185089638382197
1633781320580641300,11.235641357421875,-0.06891834566444158,0.12253858443200588,0.1408134421173483
1633781320600520400,11.2555205078125,0.03019990795254707,0.04150865295231342,0.05871303186193108
1633781320620399400,11.2753994140625,0.17017010417878628,0.03996668420732021,0.058917614523321386
1633781320640278300,11.2952783203125,0.20624591842740772,0.009167056795954703,0.01806260317414999
1633781320660157400,11.315157470703125,0.20264380228221415,-0.010651157873868942,0.010860124449431895
1633781320680036400,11.335036376953125,0.17407178779244423,-0.001360182437300682,0.02384359772838652
1633781320699914500,11.35491455078125,0.0934323169350624,0.023037176716327667,0.04176277384385466
1633781320719793400,11.37479345703125,0.01244680911898613,0.06568740091919899,0.019182327919080852
1633781320739672300,11.39467236328125,-0.04042407258599996,0.11918109069764614,0.041650984032452106
1633781320759551200,11.41455126953125,-0.042540041826665397,0.08978314677774905,0.029305516396090386
1633781320779430400,11.434430419921876,0.048399581509828565,0.008513561323285103,0.004634381802380085
1633781320799309600,11.4543095703125,0.04395692288726568,-0.0024620061993598937,0.03694594814665615
1633781320819187500,11.4741875,-0.047643794706463814,0.04128419654667377,0.042930064057558774
1633781320839066400,11.49406640625,-0.17777824109494686,0.06495967116653918,0.051314592173695564
1633781320858945300,11.5139453125,-0.14832301402986048,0.10188391893804073,-0.0033220570947974917
1633781320878824400,11.533824462890625,0.12157996853291987,0.148866619387269,-0.1162023671478033
1633781320898703400,11.553703369140624,0.12407032404392956,0.18342004637420176,-0.12352496512085198
1633781320918582500,11.57358251953125,-0.05690905117988586,0.12598667905926703,-0.044728857107833024
1633781320938461200,11.593461181640626,-0.1517079802930355,-0.05686287395060062,-0.09724149995967746
1633781320958339300,11.61333935546875,-0.10298983435332774,-0.09507131631374359,-0.0397357249956578
1633781320978218200,11.63321826171875,0.024970775127410888,-0.027018939828872678,-0.027354236197844144
1633781320998097400,11.653097412109375,0.10864099198281764,0.023538696497678754,0.01904533060118556
1633781321017976300,11.672976318359375,0.21317571769058702,0.04964812026619911,-0.05258526969663799
1633781321037855500,11.69285546875,0.1417874747812748,0.028366262784600256,-0.06684723847880959
1633781321057734400,11.712734375,0.05750263315886259,-0.00797989283800125,-0.04135309706442058
1633781321077612300,11.7326123046875,-0.027454408636689184,0.03456628646850586,-0.006945289093255996
1633781321097491200,11.7524912109375,-0.08340425939559937,0.10970540634393691,0.04272292411290109
1633781321117370000,11.7723701171875,0.002992752075195312,0.132872346919775,0.07619293977729975
1633781321137249300,11.792249267578125,0.12078911041617393,0.00928220760822296,-0.0269319921977818
1633781321157128200,11.812128173828125,0.12542115413099528,-0.06178513278365135,-0.09699395493939518
1633781321177007000,11.832007080078125,0.08673106573075055,0.0063613517254590985,-0.10087408430837094
1633781321196885000,11.851885009765626,0.05927051961421966,0.10408405933082103,-0.1594466117210686
1633781321216764200,11.87176416015625,0.06472469336688517,0.16801438744962213,-0.09541720714196562
1633781321236643300,11.891643310546876,-0.03436316511183977,0.05891103865206241,-0.09496727141737937
1633781321256522200,11.911522216796875,-0.11861673481315374,0.022713936111330983,-0.07362170104980469
1633781321276401400,11.9314013671875,-0.14262451012730598,0.058458618709445,-0.0487528519269079
1633781321296280000,11.951280029296875,-0.13748013297617434,0.12761574156582356,-0.034635625377669926
1633781321316158200,11.971158203125,-0.05894435639977455,0.19055764316916465,0.01063048041202128
1633781321336037000,11.991037109375,-0.0058329439371824264,0.09012626112699508,-0.0012751345023512839
1633781321355916300,12.010916259765626,0.011922492983937263,-0.028358079478144643,0.0008206687331199646
1633781321375795200,12.030795166015626,0.061408700686693185,-0.08568798641860484,0.007294613987579942
1633781321395674000,12.050674072265625,0.1273000997453928,-0.019693711507320404,-0.012277663097158074
1633781321415553000,12.070552978515625,0.13996376648545264,0.04430617471635341,-0.002626110719889402
1633781321435431200,12.09043115234375,0.18728841224014758,0.07416179927587509,-0.006671659783646464
1633781321455310000,12.11031005859375,0.13223492579907178,0.010387538501620292,-0.02402633388414979
1633781321475189200,12.130189208984374,0.07511924613118172,-0.0454395626604557,-0.0005109451968222856
1633781321495068400,12.150068359375,0.046990883755683895,-0.0029816461592912674,0.022219576723128555
1633781321514947000,12.169947021484376,0.07442366508245468,0.13297814538180827,0.026279665768891573
1633781321534826200,12.189826171875,0.08775777842998504,0.1575765800654888,0.040949046308174725
1633781321554705200,12.209705078125,0.018225392520427704,0.07898819651901721,0.011728139455616474
1633781321574583300,12.229583251953125,-0.052604047462344164,0.004385667738318443,-0.011259352900087833
1633781321594462200,12.249462158203125,-0.03049801411628723,0.038489597392082214,0.01806260317414999
1633781321614341400,12.26934130859375,0.02521948919147253,-0.010658756658434868,0.03236789964139462
1633781321634220000,12.289219970703124,-0.03399871571362018,-0.050748190462589264,0.12435695896558463
1633781321654099200,12.30909912109375,-0.15197627584040163,-0.06998129872083664,0.1098598662532866
1633781321673978400,12.328978271484376,-0.1723345887362957,0.059604866135120387,0.1589787750136107
1633781321693856300,12.348856201171875,-0.05624269622564315,0.1618687243014574,0.08548274617008865
1633781321713735200,12.368735107421875,0.043351942731440066,0.16609306399822235,0.06794329008720815
1633781321733614000,12.388614013671875,0.09295183994174003,0.07508125220835209,0.05857837263159454
1633781321753493200,12.4084931640625,0.038675475353002545,-0.020728315252065657,0.03553367019593715
1633781321773372200,12.4283720703125,0.06188771637529134,0.017052841609716415,0.0052696840312331916
1633781321793251300,12.448251220703124,0.13463584946095944,0.04457213217616081,0.05879135779514909
1633781321813129200,12.468129150390626,0.06629004298746585,0.009498480707406998,0.0533259319961071
1633781321833008400,12.48800830078125,-0.016286825673282147,0.0043289691150188445,0.06805244955010711
1633781321852887000,12.507886962890625,-0.059279579703509805,0.01146948851943016,0.059495195215567946
1633781321872766200,12.52776611328125,-0.016601006188988684,0.09191898976266384,0.06275434314198791
1633781321892645000,12.54764501953125,0.12767097888439893,0.11217267324030399,0.023343539251759648
1633781321912524300,12.567524169921874,0.12390285852253437,0.06110533382594585,0.07450915140882133
1633781321932403200,12.5874033203125,0.1340428520038724,-0.028829204121232032,-0.02700819923914969
1633781321952281300,12.60728125,0.010592121163010596,-0.06401040761768817,0.048597515234723686
1633781321972160000,12.627159912109375,-0.05214402873516082,0.0007072714865207671,0.006443477050960064
1633781321992039200,12.6470390625,-0.03220540255606174,0.047182022413611406,0.012873583163693546
1633781322011918300,12.66691845703125,-0.0720028676763177,0.06450958931148051,0.03234839122332633
1633781322031797200,12.68679736328125,-0.06251227801442145,0.03037818712890148,-0.046917818519473076
1633781322051676200,12.70667626953125,-0.046479719363152976,0.010376432585716248,-0.06482822680659592
1633781322071554300,12.72655419921875,-0.0170534261316061,0.054343000084161756,-0.06828801187165082
1633781322091433200,12.74643310546875,0.004827274025976658,0.09181026869118213,-0.041121041874215
1633781322111315000,12.76631494140625,0.04265577716082334,0.07614274396002292,-0.09563910626433789
1633781322131194000,12.786194091796874,0.05621580821871757,0.06459960568249225,-0.09442498123422265
1633781322151073000,12.806072998046876,0.024590251377224922,-0.01777589518725872,-0.11164017379879951
1633781322170952200,12.8259521484375,0.028964228677749632,0.024013328272104263,-0.0767508659210056
1633781322190830000,12.845830078125,0.017874971647560595,0.13076163837611673,0.019368059749528765
1633781322210709000,12.865708984375,-0.031630817538499834,0.13559037370681762,0.015158625360950827
1633781322230588200,12.885588134765625,-0.0037391865283250805,0.08205693643987179,-0.004627221409231424
1633781322250467000,12.905467041015624,-0.0018856676161289215,0.010718962413072585,-0.014989552404358982
1633781322270346200,12.92534619140625,0.058443421140313145,0.01653553973734379,-0.05355338407643139
1633781322290225200,12.94522509765625,0.09442249701619147,0.004606032490730286,-0.058852075006440276
1633781322310103300,12.965103271484375,0.13191869945675133,0.0334796602755785,-0.030910394309461114
1633781322329982000,12.98498193359375,0.08745148895978927,0.008537526720762252,-0.026081001391634343
1633781322349861000,13.004861083984375,0.006792144358158111,-0.037917350462079044,0.00009966098219156265
1633781322369740000,13.024739990234375,-0.06323299350440502,-0.0001397007316350937,0.014806962379068136
1633781322389619200,13.044619140625,-0.0424178767517209,0.08671791398823261,0.0275098651509732
1633781322409497900,13.064497802734374,0.029699557214975355,0.09492401679754256,0.020904548601806162
1633781322429377000,13.084376953125,0.05518120447397232,0.04295534462928772,0.01668831914626062
1633781322449255000,13.1042548828125,0.04071779483556747,-0.006062661039829254,0.0036621027041226625
1633781322469134000,13.124134033203125,0.06490180349946022,-0.03277706496417522,-0.011923954288661479
1633781322489013200,13.14401318359375,0.07443886265158653,-0.06048340253531932,-0.0140803286049515
1633781322508892200,13.16389208984375,0.09852233355045319,-0.0033750293910503387,-0.016249562402814624
1633781322528771000,13.18377099609375,0.028788872110843657,0.046748307171463964,0.03205934514887631
1633781322548650000,13.20364990234375,0.07916647569537162,0.09822773451805114,-0.017987419046089054
1633781322568528100,13.223528076171876,0.08328618597388267,0.11317746636867522,-0.04591324458681047
1633781322588407000,13.243406982421876,0.06012684418261051,0.11574877816140651,-0.0403284301918
1633781322608286200,13.2632861328125,0.03824000654518604,0.14010814339220523,-0.03995966994464397
1633781322628165000,13.2831650390625,0.04872399115860462,0.12276070275008678,-0.032088352047652
1633781322648044000,13.3030439453125,0.1044578610792756,0.1251858840703964,-0.1130672109272331
1633781322667923000,13.3229228515625,0.1022124202400446,0.19482348392009735,-0.11640782659202814
1633781322687801000,13.342801025390624,-0.001502221256494522,0.03920855931639671,-0.050837476181238885
1633781322707680000,13.362679931640624,0.06431318995654582,-0.036758828076720235,-0.020493556648120283
1633781322727559200,13.38255908203125,0.07540449281334877,-0.03178630036115646,0.08835698643215
1633781322747438000,13.40243798828125,0.028880349786579607,-0.05640928496420383,0.05263539244867861
1633781322767317000,13.42231689453125,-0.0038841479569673536,0.00535305146574974,0.08230725793913006
1633781322787196200,13.442196044921875,0.02828676780760288,0.06231120248436928,0.11395239626392721
1633781322807074000,13.462073974609375,0.036733401374518866,0.047126492834091184,0.1191241728786379
1633781322826953200,13.481953125,0.10656418570876121,0.032733810344338414,0.04859598086476326
1633781322846832000,13.50183203125,0.10579758525043725,0.015417933884263038,0.08330920152328908
1633781322866711000,13.5217109375,0.03851970026940107,0.013554478099942207,0.11492131436131894
1633781322886590000,13.54158984375,-0.10572452001422643,0.012163316002488135,0.1470518250502646
1633781322906469000,13.56146923828125,-0.09196487473100423,0.02106499986052513,0.1204399316523224
1633781322926347000,13.581346923828125,0.04788958616107702,0.04277472736537456,0.06878565919548273
1633781322946226200,13.60122607421875,0.218955470135808,0.15154372964203358,0.031221286889538166
1633781322966105000,13.62110498046875,0.2305138059824705,0.17463175976276396,0.011547302995994687
1633781322985984000,13.64098388671875,0.1254658700555563,0.07945464498698711,0.03111848410218954
1633781323005863200,13.66086328125,0.026146833169460294,-0.06059212360680103,-0.012075345458090305
1633781323025742000,13.6807421875,-0.025883213797211646,-0.06699205377697945,0.03178257403410971
1633781323045620200,13.7006201171875,-0.07196662731915712,-0.03572890050709247,0.006798647164180874
1633781323065499100,13.7204990234375,-0.027379005312919615,0.05779986253976822,-0.01237228257805109
1633781323085378000,13.7403779296875,-0.058817222888767715,0.11207330451905727,-0.02086268222145736
1633781323105257000,13.760257080078125,-0.0882975843951106,0.06296703604459762,-0.038385333300009365
1633781323125132300,13.78013232421875,-0.07738777558505534,0.04328676854074001,-0.011248539245128631
1633781323145011500,13.800011474609375,-0.0747647336050868,0.06859948897361755,0.03142294694148004
1633781323164889300,13.819889404296875,-0.009047522069513798,0.09023732028603554,0.019998539672791957
1633781323184768500,13.8397685546875,-0.0368517670571804,0.024839257702231405,0.015269611454755068
1633781323204647400,13.8596474609375,-0.00660918900668621,0.010807809740304946,-0.013005538980290292
1633781323224526300,13.8795263671875,0.010109890604019164,0.0290483998298645,0.004047814086079597
1633781323244405200,13.8994052734375,0.05794774657785892,0.059468088012933726,0.005776537574827671
1633781323264284400,13.919284423828126,0.11053221255689859,0.03199088302254677,0.01612542456649244
1633781323284163600,13.93916357421875,0.07378741300553084,0.008198504024744034,0.04134418310560286
1633781323304041500,13.95904150390625,0.0681833093881607,0.01598725820481777,0.06029029111601412
1633781323323920400,13.97892041015625,0.0030319150418043135,0.041671734559535975,0.05857252741269767
1633781323343799300,13.99879931640625,0.007924655519425868,0.09025368689894675,0.014978008097037672
1633781323363678500,14.018678466796874,0.08476502635478973,0.11105740547478199,-0.02789879140332341
1633781323383557400,14.038557373046874,0.1649357106566429,0.09070259971022605,-0.06720189713537693
1633781323403436500,14.0584365234375,0.08239595913589,-0.01346153911948204,0.0024304420173168182
1633781323423314400,14.078314453125,-0.06700082160532474,-0.07392272982299328,0.0008668459624052047
1633781323443193300,14.098193359375,-0.21368425173461436,-0.01792611731290817,0.07132876780703663
1633781323463072300,14.118072265625,-0.2039376414850354,0.09413666581213474,0.08014474614299834
1633781323482951400,14.137951416015625,-0.12032353873103856,0.11857494149804114,0.027546690030023455
1633781323502830300,14.157830322265625,0.023971534956991673,0.11357786386311054,0.01768624414242804
1633781323522709200,14.177709228515624,0.0659872606486082,-0.0038350481182336804,-0.010570932244509458
1633781323542587400,14.19758740234375,0.1126864679813385,0.023923311901092526,-0.025490488152578473
1633781323562466300,14.21746630859375,0.08159837901741265,0.10314531717598438,0.025991496477276086
1633781323582345500,14.237345458984375,-0.006783376529812812,0.12548632832169532,0.040216275054216384
1633781323602224400,14.257224365234375,-0.07040390804708004,0.09480302076637745,0.04024214014783501
1633781323622103600,14.277103515625,-0.01691664800941944,0.03193944509625435,0.01210420622639358
1633781323641982200,14.296982177734375,0.1032055229306221,0.05629881032705307,-0.006569879909604787
1633781323661860400,14.3168603515625,0.18452888439893722,0.07646247743368148,-0.008803338050097226
1633781323681739300,14.3367392578125,0.1323652741804719,0.04788169511556625,0.01151478896588087
1633781323701618400,14.356618408203126,0.061306409355998036,0.03589899637699127,0.09040237465463578
1633781323721497300,14.376497314453125,0.0037409400939941405,-0.022066285857558248,0.07363492585755885
1633781323741376500,14.39637646484375,0.008138298270106314,-0.020271219134330748,0.04446012316904962
1633781323761255200,14.416255126953125,0.06142331373393535,0.03482932131886482,0.038930473027378315
1633781323781133300,14.43613330078125,0.12001169630289077,0.08117723099589347,0.038168402613699436
1633781323801012200,14.45601220703125,0.1791962911993265,0.06284428644776344,0.08889496576637029
1633781323820891400,14.475891357421874,0.09971300463974475,-0.0060942252218723295,0.056742170180380344
1633781323840770600,14.4957705078125,-0.16668576919436454,-0.02976210105717182,0.10186389906331896
1633781323860649500,14.5156494140625,-0.20139497126489878,-0.0055921209186315535,0.11966587853990494
1633781323880528400,14.5355283203125,-0.022942191909253597,-0.005580430480837822,0.07290551560446619
1633781323900406300,14.55540625,0.17916151214689016,0.005101122531294822,-0.021487243860587476
1633781323920285400,14.575285400390625,0.18524229336529968,-0.013441080853343008,-0.04460771494619548
1633781323940164400,14.595164306640624,0.07088146243095397,0.0017436287969350814,-0.009143237528949976
1633781323960043500,14.61504345703125,-0.06592763941586018,-0.0055097033321857445,-0.008502820733562112
1633781323979922200,14.634922119140626,-0.13877426443994045,0.06849427503347397,0.03694638653807342
1633781323999801300,14.65480126953125,-0.04042261128127575,0.0714028559565544,-0.0198746210321784
1633781324019679200,14.67467919921875,0.056870472735166544,0.0650765755444765,-0.006456555728241801
1633781324039558400,14.694558349609375,0.17758593339323997,0.0663315440416336,-0.041422362908348435
1633781324059437300,14.714437255859375,0.20699556775093078,0.04932487966120243,-0.054322395687550304
1633781324079316500,14.73431640625,0.09087386462390422,0.0014127894073724745,0.0008676496800035238
1633781324099195400,14.7541953125,0.0011766425639390945,0.020934066957235334,0.007875190354511142
1633781324119074300,14.77407421875,0.01980535518825054,0.056583472487330436,-0.01057641213722527
1633781324138952200,14.7939521484375,0.006522679767012596,0.07944412359297275,0.0004244359571486711
1633781324158831400,14.813831298828125,-0.02925269023030996,0.04048223251402378,0.005721957843378186
1633781324178710300,14.833710205078125,-0.0438753820836544,0.01293956107199192,-0.048079921101406214
1633781324198589400,14.85358935546875,-0.05682721811532974,0.0604319646090269,-0.007301189858838915
1633781324218468000,14.873468017578125,0.009096329647302627,0.04971417123973369,0.029453473499417303
1633781324238347300,14.89334716796875,0.07227496261596679,-0.012011340311169624,-0.0032242227435111998
1633781324258225200,14.91322509765625,0.12914017465412617,-0.06427753412127495,-0.005643997236341238
1633781324278104300,14.933104248046876,0.09971242011785507,-0.03226443926692009,-0.0427311074193567
1633781324297983200,14.952983154296875,0.0732768331348896,0.0397404742360115,-0.04289806148409843
1633781324317862400,14.9728623046875,0.06920885304361582,0.108328857293725,0.02534669576771557
1633781324337741000,14.992740966796875,0.032656653454899785,0.11162789883911609,0.0453038805168122
1633781324357620200,15.0126201171875,0.08091711875498295,0.09843757787644862,0.05456957538165152
1633781324377499400,15.03249951171875,0.10274228933304548,0.046866380593180657,-0.014609832371771334
1633781324397377300,15.052377197265624,0.04892214407920837,0.05397708938121795,-0.01598652755245566
1633781324417256400,15.07225634765625,0.044271687924861906,0.06269172623455524,-0.08113258813656866
1633781324437135000,15.092135009765625,0.1077361520975828,0.10207155046463012,-0.08609327928386629
1633781324457014300,15.11201416015625,0.13462298997938632,0.05561608875989914,-0.1462639626082033
1633781324476893200,15.13189306640625,0.010398644417524337,-0.04411035988330841,-0.1082721586704254
1633781324496771300,15.151771240234375,-0.04806114333570003,0.00827273830473423,-0.07896598468720913
1633781324516650200,15.171650146484374,-0.1319812432989478,0.04153437191545963,-0.07634476933814585
1633781324536529400,15.191529296875,-0.18529753068387508,0.11311901417970657,-0.024873086906597015
1633781324556408000,15.211407958984376,-0.0899725318700075,0.14608487971425055,-0.06331687239557504
1633781324576287200,15.231287353515626,0.10058452677726745,0.13871172059774398,-0.09765841019749641
1633781324596166100,15.251166259765625,0.14823562800735235,0.09842530291676521,-0.0986101579643786
1633781324616044300,15.271044189453125,0.035551205852627756,0.03566986379623413,-0.028337109755352138
1633781324635923200,15.290923095703125,-0.11511983260810374,0.02183189257979393,0.003065451985225081
1633781324655802400,15.31080224609375,-0.06099456692785024,0.06846563346087932,0.031400077522546053
1633781324675681300,15.330681396484374,0.025250176590681076,0.05721417160630226,-0.004705255081504583
1633781324695560200,15.350560302734374,0.127721247766912,0.050393385675549504,0.004912979548051953
1633781324715439400,15.370439453125,0.15177403126657008,-0.030378771650791166,-0.022954539934173224
1633781324735317200,15.390317138671875,-0.009471592700481415,0.009235445857048033,0.046208428141102195
1633781324755196400,15.410196533203125,-0.08336626547276973,0.0435486343473196,0.04848777124993503
1633781324775075000,15.430074951171875,-0.05294716181159019,0.04662438853085041,0.023164017966389654
1633781324794954200,15.449954345703125,-0.0411304672896862,0.011235679763555526,0.037813890087604524
1633781324814833200,15.469833251953125,-0.01207680676281452,0.01790098287165165,-0.039869069051742555
1633781324834712300,15.48971240234375,0.01997837366759777,0.04546645066738128,-0.04388451523818075
1633781324854591500,15.509591552734374,-0.09668342768549919,0.07366261758208274,0.0349054552949965
1633781324874469400,15.529469482421876,-0.07498188348710537,0.09123451462984085,-0.0016695406474173068
1633781324894348000,15.54934814453125,-0.045941082441806794,0.08916063096523284,0.05145063964352011
1633781324914227200,15.569227294921875,0.03656476680934429,0.0777992789953947,0.01255611471235752
1633781324934106400,15.5891064453125,0.11353519376516341,0.08324526944160461,-0.04563428151495755
1633781324953985300,15.6089853515625,0.1019546460866928,0.06223346107304096,0.003652677288651466
1633781324973864200,15.6288642578125,0.12028116089403629,0.0713467418551445,-0.024492051699757576
1633781324993742300,15.648742431640626,0.09591741174906492,0.07342763978242874,0.015167977711185813
1633781325013621200,15.668621337890626,0.06822656400799751,0.08277180671095848,0.04133673045150935
1633781325033500200,15.688500244140625,-0.04295651367306709,0.049938627645373344,0.0676945760231465
1633781325053379300,15.70837939453125,-0.04117489095330238,0.030558219870924948,0.052062414866313335
1633781325073258200,15.72825830078125,-0.07902268331050873,0.04570727368593216,0.11003967979960143
1633781325093137200,15.74813720703125,-0.051534956926107406,0.056095396709442136,0.12863500161096453
1633781325113015600,15.768015625,-0.03865793969631195,0.04069558300375938,0.11881254964619874
1633781325132894500,15.78789453125,0.04536357481479644,-0.02539981419444084,0.09088862380161881
1633781325152773600,15.807773681640626,0.08205635191798209,-0.056868719169497484,0.0920342136401683
1633781325172652500,15.827652587890626,0.08578852418363093,-0.04633680376112461,0.06010229426324367
1633781325192531700,15.84753173828125,0.09550970773100853,0.019635843840241432,0.0575466184310615
1633781325212410600,15.86741064453125,0.10961948162615298,0.048611762955784794,0.04672799503579735
1633781325232288500,15.88728857421875,0.06099544371068477,0.052744332715868945,0.04771021100617945
1633781325252167700,15.907167724609375,0.005842296287417411,0.1008697734594345,0.0640092385739088
1633781325272046600,15.927046630859374,0.02634440156817436,0.08453238664269447,0.0032735417779535055
1633781325291925800,15.94692578125,0.02969546556174755,0.059548167511820786,0.022843188514187932
1633781325311804400,15.966804443359376,0.13438684313595295,0.054469256812334055,-0.015601254561915993
1633781325331683600,15.98668359375,0.0508031355202198,0.054364042872190474,0.012178221310675143
1633781325351561500,16.0065615234375,-0.0075695584714412685,0.02618365804851055,0.014399696752429008
1633781325371440600,16.026440673828127,-0.041778117543458934,-0.004054243826866149,0.04071487222611904
1633781325391319600,16.046319580078126,-0.15217092162966728,-0.005277648141980171,0.11574753605239092
1633781325411198700,16.06619873046875,-0.1421352653056383,-0.0238286193549633,0.10935286657921969
1633781325431077400,16.086077392578126,-0.05589724378883838,-0.04466565567851066,0.10901260177418588
1633781325450956500,16.10595654296875,0.012456161469221114,-0.05462123250365257,0.08832695662006736
1633781325470834400,16.12583447265625,0.03877601311802864,-0.06816460468769073,0.02198569490201771
1633781325490713600,16.145713623046873,0.07400807001888751,-0.004910568395256996,0.01319879653006792
1633781325510592800,16.1655927734375,0.09433774134218692,0.0521405216038227,0.00507693793810904
1633781325530471700,16.1854716796875,0.05366787730157375,0.03934358387291431,0.008100304347276687
1633781325550350600,16.2053505859375,-0.048158758491277695,-0.012231705063581465,0.00407119496166706
1633781325570229500,16.2252294921875,-0.08600771989226341,0.020880875465273854,0.000817161601781845
1633781325590107600,16.245107666015624,-0.049718847414851185,0.0957020154327154,-0.012626038143411279
1633781325609986600,16.264986572265624,0.05560848997533321,0.09071545919179916,-0.08447166943140327
1633781325629865700,16.28486572265625,0.08986322627663612,0.04120411704778671,-0.0816155493479222
1633781325649744400,16.304744384765623,0.08181435985565184,0.0402069227039814,-0.0605433160290122
1633781325669623600,16.32462353515625,0.04522212051749229,0.04682312597334384,-0.04445062468834221
1633781325689501400,16.34450146484375,-0.07509294264614581,0.0003945522755384445,-0.034269568544253705
1633781325709380600,16.364380615234374,-0.1300762864604592,0.0037508769661188123,0.026232684822008013
1633781325729259500,16.384259521484374,-0.09007336189597845,0.04530395358204841,-0.02943111553713679
1633781325749138700,16.404138671875,0.0587874122723937,0.10423252789080142,-0.05133936128877103
1633781325769017600,16.424017578125,0.1440396376222372,0.07795359277427195,-0.09134769268073141
1633781325788896500,16.443896484375,0.061726096072793,0.03866670752465725,-0.06437946012578905
1633781325808775700,16.463775634765625,0.012316460737586021,0.046108255702257156,-0.019707301641255615
1633781325828653600,16.483653564453125,-0.09297200594693422,0.02675532045662403,0.0033968028314411637
1633781325848532700,16.50353271484375,0.029172318470478055,0.06859189018905162,-0.06095058165565133
1633781325868411600,16.52341162109375,0.11903057631105184,0.09050678487718104,-0.12094072078131139
1633781325888290600,16.54329052734375,0.18265490722060201,0.07983341517150401,-0.13108151798024772
1633781325908169500,16.56316943359375,0.1503010361045599,0.0869406168282032,-0.06694573041722178
1633781325928047600,16.583047607421875,-0.055962125718593596,0.05602642312645912,-0.03180310536548495
1633781325947926500,16.602926513671875,-0.17369067952036857,0.06765490159988403,-0.007809066315740346
1633781325967805700,16.6228056640625,-0.08964403056800364,0.11480185270011424,-0.030536738691478965
1633781325987684600,16.6426845703125,0.11448445731401442,0.10026479330360889,-0.1141986991751939
1633781326007563500,16.6625634765625,0.20947160247564314,0.05828560023009777,-0.07979987822808325
1633781326027442700,16.682442626953126,0.13355799109637737,-0.004575052830576897,-0.09124488989338278
1633781326047320600,16.702320556640625,-0.013152911561727524,-0.0024281039297580718,-0.056311962069571016
1633781326067199500,16.722199462890625,-0.11859715332984924,0.0501888030141592,-0.021768691150471565
1633781326087078700,16.74207861328125,-0.04431289671808481,0.1307803430765867,0.01496441796310246
1633781326106957600,16.76195751953125,-0.000493044213950634,0.13654782056212425,0.025749139088764784
1633781326126836500,16.78183642578125,-0.00679740505516529,0.08633739023804664,0.038874870382621884
1633781326146715400,16.80171533203125,-0.015410627360641955,0.010142623829841614,-0.015571151684597134
1633781326166593500,16.821593505859376,0.024901217022538183,0.05681377411186695,0.04103109856843948
1633781326186472400,16.841472412109376,0.1518213775396347,0.09576397475302219,0.04432181067690253
1633781326206351600,16.8613515625,0.20691051981598138,0.06070493633151054,0.05041216344125569
1633781326226230500,16.88123046875,0.15885376039445398,0.02730944720804691,0.05730163069404661
1633781326246109400,16.901109375,0.09948328753709793,0.059039048945903776,0.023545637695118783
1633781326265988600,16.920988525390626,0.09932371306121349,0.14028057734966276,0.04426891144588589
1633781326285866500,16.940866455078126,0.0985603274732828,0.16504267816245555,0.06163973296359181
1633781326305745700,16.96074560546875,0.11489128454923629,0.1259574529647827,0.004699409862607717
1633781326325624600,16.98062451171875,0.11757862393707036,0.02802840913236141,0.018715660255402326
1633781326345503500,17.00050341796875,0.1119695518836379,-0.066959320551157,-0.028596637474372983
1633781326365382400,17.02038232421875,0.05937573355436325,-0.010985504394769668,0.012257570157200097
1633781326385261600,17.040261474609373,-0.0004278700232505798,0.05969254441857338,-0.009882000132277607
1633781326405139500,17.060139404296876,-0.04939969846308231,0.05087094005942344,0.02254588606804609
1633781326425018600,17.0800185546875,-0.10157353781461716,0.00187222361266613,-0.019024580074101686
1633781326444897500,17.0998974609375,-0.13163871347159148,0.010590367597341537,0.03683291622623801
1633781326464776400,17.1197763671875,-0.09885375746190547,0.023906945288181304,0.036727775351330635
1633781326484655600,17.139655517578124,-0.15319909563362596,0.037378421279788014,0.07919431355036795
1633781326504534500,17.159534423828124,-0.13930851744711398,0.0443546900331974,0.07306793962456286
1633781326524412400,17.179412353515627,-0.04365560185313225,0.022857143974304196,0.01084098135754466
1633781326544291600,17.19929150390625,0.10264672000408172,0.03318506124317646,-0.02191613679714501
1633781326564170500,17.21917041015625,0.16372808843255043,0.07817278848290443,-0.012371844186633825
1633781326584049400,17.23904931640625,0.1027241691544652,0.08735212023854255,0.025631284862756728
1633781326603928600,17.258928466796874,0.04812018004655838,0.01953530607521534,0.02894990789145231
1633781326623807500,17.278807373046874,-0.005013736508786678,-0.02604161922931671,0.05404430939853191
1633781326643685600,17.298685546875,0.04914543144106864,0.03930675899386406,0.0652135728623718
1633781326663564500,17.318564453125,0.10576280619800091,0.0858165812343359,0.02257058211788535
1633781326683443500,17.338443359375,0.11468494832217693,0.1131868187189102,0.08451192837655544
1633781326703322400,17.358322265625,0.08235445808172226,0.01899286976158619,0.07454831437543034
1633781326723201500,17.378201416015624,-0.025835867524147033,-0.06270283215045928,0.12895831528119742
1633781326743080700,17.398080810546876,-0.11547346835136413,-0.06706453449130058,0.1563230728730559
1633781326762958600,17.41795849609375,-0.05794365492463111,0.004902385088801383,0.1345971248857677
1633781326782837500,17.43783740234375,0.0024447628036141393,0.03988777375221252,0.10969817288555204
1633781326802716400,17.45771630859375,0.025255437287688254,0.0070984338283538815,0.1114740965168923
1633781326822595600,17.477595703125,-0.053444589939713474,-0.06050795245468616,0.11354162350594997
1633781326842474500,17.497474609375,-0.10651040969491005,-0.06312193434536456,0.08634718097969889
1633781326862353700,17.517353759765626,-0.02809212201833725,0.037895723152160644,0.07279043785743415
1633781326882231600,17.5372314453125,0.0861211171388626,0.08454173899292945,0.0181801651392132
1633781326902110500,17.5571103515625,0.16810089668929576,0.0744751030087471,-0.04510419322624802
1633781326921989400,17.5769892578125,0.14043518338948488,0.048074002817273136,-0.046253071000427005
1633781326941868500,17.59686865234375,0.02935907321423292,0.04461655583977699,-0.07464892520569265
1633781326961747500,17.61674755859375,-0.009509586623311042,0.1326543202549219,-0.05452054860815406
1633781326981625600,17.63662548828125,0.02185878058671951,0.209076465678215,-0.09301840237192809
1633781327001504500,17.65650439453125,0.08708148660361767,0.25623569173812866,-0.04439392606504261
1633781327021383400,17.676383544921876,0.04861906947940588,0.14816285503208637,-0.07282382867038249
1633781327041262300,17.696262451171876,-0.04028407959342003,0.08073299435973166,-0.07720671992972493
1633781327061141500,17.7161416015625,-0.025780337944626808,0.0734340695232153,-0.06416004522144794
1633781327081020700,17.736020751953124,0.06382803678810596,0.06532908900082111,-0.06834105723313987
1633781327100899600,17.755899658203123,0.10086538954526185,0.01058452237844467,-0.01766162115782499
1633781327120777700,17.77577783203125,0.0264081144541502,-0.10176993716955185,-0.009765095754340291
1633781327140657000,17.795656982421875,-0.06261340030133723,-0.09976210447847843,0.014458952658995985
1633781327160536000,17.8155361328125,-0.05855886421352625,-0.023993454527854917,0.019210092708840967
1633781327180415000,17.8354150390625,-0.03286474324762821,0.06283025792241097,0.04675276415087282
1633781327200294100,17.855294189453126,0.0035468788266181943,0.08101590295433998,0.06107428110055625
1633781327220172000,17.875172119140625,0.03405366077125072,-0.008833294796943664,0.036642362090200185
1633781327240051000,17.895051025390625,0.08417582828998565,-0.05296294390261173,-0.024596169661357997
1633781327259929900,17.914929931640625,0.1399526605695486,-0.016921908706426618,-0.03897993819229305
1633781327279809000,17.93480908203125,0.17892565756440162,0.10862345632612705,-0.051841392526775595
1633781327299688000,17.95468798828125,0.10570260044336319,0.13276128776073454,-0.0029001053556799885
1633781327319566800,17.97456689453125,0.05351385578364134,0.06666413699686527,-0.06493702094331383
1633781327339445000,17.994445068359376,0.04016542164981365,-0.003252279794216156,-0.08679792042188346
1633781327359324000,18.014323974609376,-0.007904197253286838,0.05162438877522945,-0.07103950253687799
1633781327379202800,18.034202880859375,0.06697042646706104,0.12331833663284777,-0.15063808603920043
1633781327399082000,18.05408203125,-0.026412206107378003,0.1536030002593994,-0.04890760409720242
1633781327418961200,18.073961181640627,-0.036628479695320126,0.08879355121850967,-0.07537884691543877
1633781327438839800,18.09383984375,0.019797171881794928,0.00955108767747879,-0.11167444139458238
1633781327458718000,18.113718017578126,0.12737433402538298,0.05390577771067619,-0.11711970118843018
1633781327478596900,18.133596923828126,0.09938158072829247,0.06508651241660118,-0.04679368068315089
1633781327498476000,18.15347607421875,-0.013142097906768322,0.07188742460310459,0.029875425238534807
1633781327518355000,18.17335498046875,-0.1627484297454357,0.020152561190724373,0.10379070240743457
1633781327538234000,18.193234130859373,-0.11651976253390312,-0.02240706211924553,0.08773600498959422
1633781327558112800,18.21311279296875,0.020688860024511813,-0.020528408765792844,0.0909345087699592
1633781327577991000,18.232990966796876,0.0816384187668562,0.025864509096741675,0.08784764867052436
1633781327597869800,18.252869873046876,0.1311570674344897,0.03397241222858429,0.06762494485303759
1633781327617749000,18.2727490234375,0.038514147311449046,-0.008607669347524643,0.054280090915784236
1633781327637628200,18.292628173828124,-0.020589783564209936,-0.03242226017713547,0.045103389508649706
1633781327657506800,18.3125068359375,-0.01220277123004198,0.01972469116747379,0.04170388326346874
1633781327677386000,18.332385986328124,0.05357406153827905,0.06849895120859145,0.04976970081925392
1633781327697263900,18.352263916015627,0.0319458748370409,0.09385317269563674,0.03146474025659263
1633781327717143000,18.37214306640625,-0.010479892960190772,0.07839315323531627,0.04544131622612476
1633781327737022000,18.39202197265625,0.07238514499217272,0.040888475227355954,0.005508022831752896
1633781327756901000,18.411901123046874,0.083755557051301,-0.002415244448184967,0.0291105052806437
1633781327776779800,18.43177978515625,0.029620354498922825,0.03216331698000431,0.07222586277723311
1633781327796659000,18.451658935546874,-0.012198971837759018,0.020142039796710014,0.032641602016240355
1633781327816536800,18.471536865234373,-0.009820552268624305,0.02605214062333107,0.03369710241854191
1633781327836416000,18.491416015625,0.06881810016036033,-0.031415128961205484,-0.04641191482394933
1633781327856295000,18.511294921875,0.06191431212127208,-0.008980594313144684,-0.019745295564085243
1633781327876174000,18.531174072265625,0.05698533128648996,0.04795885200500488,-0.004774009468778968
1633781327896053000,18.551052978515624,-0.07169131750911474,0.037082068681716915,0.03808766552768648
1633781327915931000,18.570930908203124,-0.12395341966599226,0.055713703915476795,0.031323870481178163
1633781327935809800,18.590809814453124,-0.10751111117005348,0.032201310902833936,0.005873568208515644
1633781327955689000,18.61068896484375,-0.0072772975265979764,0.03842705354988575,-0.02825147729851305
1633781327975568100,18.630568115234375,0.09286240809261798,0.03148176445662975,-0.05752236077263951
1633781327995447000,18.650447021484375,0.1145835337743163,0.0658785395771265,-0.016308014591783285
1633781328015326000,18.670325927734375,0.06544774694442748,0.011458967125415801,-0.053246583149582145
1633781328035203800,18.690203857421874,0.06635024874210357,0.03505260868072509,-0.014426803955063223
1633781328055083000,18.7100830078125,-0.02668517782986164,0.040327334213256835,-0.009433744908124209
1633781328074962000,18.7299619140625,-0.10161328530311584,0.08215572063922881,0.08162950480803847
1633781328094841000,18.749841064453125,-0.0518859623208642,0.07199848376214504,0.0623100334405899
1633781328114719200,18.76971923828125,-0.003112579062581062,0.03352876011431217,0.010783405951410531
1633781328134598100,18.78959814453125,0.027149872732162475,0.039513679742813106,0.0065347355309873815
1633781328154476300,18.809476318359376,0.06904138752222061,-0.0029828152030706404,-0.06159202136434614
1633781328174355200,18.829355224609376,0.07835662061721085,0.027297172248363494,-0.046308892840892076
1633781328194234400,18.849234375,0.022097850039601324,0.06753507461249827,-0.007250701780617237
1633781328214113300,18.86911328125,-0.027948329633474347,0.049990650093555446,-0.00007679156325757503
1633781328233992400,18.888992431640624,-0.04564706793129444,0.04386018451452255,0.022186112844943998
1633781328253871000,18.90887109375,0.007723872250318527,0.034359950241446495,-0.030841274596005677
1633781328273749200,18.928749267578127,0.08950549888014793,0.07156243043243884,-0.03769077516458928
1633781328293628200,18.948628173828126,0.16837708328217266,0.12381927189230918,-0.030742563461884854
1633781328313507300,18.96850732421875,0.113356914588809,0.0850578718215227,-0.01395779820382595
1633781328333386200,18.98838623046875,0.08161942180544138,0.05106675489246845,0.01591711557805538
1633781328353265400,19.008265380859374,0.1173810555383563,-0.006013561201095581,-0.03126483377031982
1633781328373143300,19.028143310546874,0.11503858406543731,0.031761750441789624,-0.01171367253884673
1633781328393022200,19.048022216796873,0.11935323239415883,0.08173661844432353,-0.030310017263516783
1633781328412901000,19.067901123046877,0.0498337059661746,0.08711363530755042,0.006273235050588846
1633781328432780300,19.0877802734375,-0.08407178339362144,0.04093406793475151,0.029187516039609906
1633781328452659500,19.107659423828125,-0.05515314742326736,0.05045417595207691,0.004540200712904334
1633781328472538000,19.1275380859375,0.01693944436311722,0.07062719540894032,0.004412994136661291
1633781328492416300,19.147416259765624,0.08101619521528482,0.06781389155387878,0.0037887978237122295
1633781328512295200,19.167295166015624,0.0114198041588068,0.023372107759118077,-0.005352686139568686
1633781328532174300,19.18717431640625,-0.08984978227317332,-0.006045125383138656,0.006571048953384161
1633781328552053200,19.20705322265625,-0.15001637394428252,-0.03866378491520881,-0.014244725386425851
1633781328571932400,19.226932373046875,-0.029560148744285104,0.04967208566367626,0.0038569676890969273
1633781328591811000,19.24681103515625,0.0008797054439783096,0.07621288658678531,0.03825980722419917
1633781328611689200,19.266689208984374,-0.001118190374970436,0.07287175946533679,0.04826674891039729
1633781328631568100,19.286568115234374,-0.07382774501591921,0.06218611479997634,0.08292845857739448
1633781328651447300,19.306447265625,-0.1095271271675825,0.09439794709682464,0.09844546892195939
1633781328671326200,19.326326171875,0.04206394874751568,0.09459025479853153,0.05829341821037232
1633781328691205400,19.346205322265625,0.18613661185652017,0.05936345859467983,0.011516323335841298
1633781328711084300,19.366084228515625,0.24626199473440646,0.023239421290159223,-0.043004225272312756
1633781328730962200,19.385962158203125,0.1640998443543911,0.07120236494839191,-0.015434592758119106
1633781328750841000,19.405841064453124,0.10146218639463185,0.08879472026228905,-0.028883564656972883
1633781328770720300,19.42572021484375,0.03481003209650516,0.07465747383832931,0.011340455312281846
1633781328790599400,19.445599365234376,-0.011193009665608405,0.056280690148472784,-0.007604483654350042
1633781328810478300,19.465478271484375,-0.02327829199582338,0.05746668506264686,-0.0070823594763875005
1633781328830357200,19.485357177734375,-0.09885492650568485,0.05001110835969448,0.009207096545398235
1633781328850235100,19.505235107421875,-0.12618892363309858,0.06733692169189452,0.03448313822969794
1633781328870114300,19.5251142578125,-0.06394143403470516,0.06918167277574538,0.02054996301047504
1633781328889993200,19.5449931640625,0.05887625959962606,0.012379004579782485,0.02052358646020293
1633781328909872400,19.564872314453126,0.07856003423482179,-0.0169575645416975,0.014717895856127141
1633781328929751000,19.5847509765625,-0.0596717938914895,-0.0154500825881958,0.08321063651964068
1633781328949629200,19.604629150390625,-0.0571273701056838,-0.02032733323574066,0.03455430376976728
1633781328969508000,19.624508056640625,0.01977496004998684,0.0342114816814661,0.02585691031217575
1633781328989387300,19.64438720703125,0.14382044191360474,0.07644961795210838,0.04732252686284482
1633781329009266200,19.66426611328125,0.09113719173520803,-0.015756956580281256,-0.020536226746067403
1633781329029145300,19.684145263671876,0.044019758990406985,-0.03995674733519554,0.013698343550041316
1633781329049024300,19.704024169921876,0.024177578923106194,-0.03292144187092781,-0.06395918888710439
1633781329068902100,19.723902099609376,-0.021421265952289104,0.06632336073517799,0.01577295786701143
1633781329088781300,19.74378125,0.07395254043936729,0.14754852252602577,-0.08668598448000847
1633781329108660200,19.76366015625,-0.002377250525355339,0.11544365773499012,-0.05602547327838838
1633781329128540200,19.7835400390625,0.031605098575353624,0.08764555022716522,-0.02215864031612873
1633781329148419000,19.803419189453123,0.0918511852234602,0.03221826203763485,-0.06872296922281385
1633781329168298000,19.823298095703127,0.09260229585170746,0.04636018463671207,-0.05784055987633764
1633781329188176100,19.843176025390626,0.05024082546234131,0.08467617902755736,0.05303235587701201
1633781329208055000,19.863054931640626,-0.04978928230255842,0.047716275420784944,0.08837832148112357
1633781329227934200,19.882934326171874,0.07255407181829214,-0.02251929032206535,-0.01799267974309623
1633781329247812900,19.902812744140626,0.1856283700734377,-0.03246025409996509,-0.07692066952995956
1633781329267692000,19.922692138671874,0.12051789225935935,0.07025836209654808,-0.014905454317480325
1633781329287570000,19.94256982421875,0.12893266938328743,0.09349719886481761,-0.0428013231113553
1633781329307449000,19.962448974609377,-0.14385785131454468,0.024649872609972954,0.03322152079604566
1633781329327328300,19.982328369140625,-0.24296909066885708,0.008618190741539002,0.08754095734152942
1633781329347207200,20.002207275390624,-0.11037643747329712,-0.03381634488403797,0.03826170692034066
1633781329367086000,20.022086181640624,0.007059270861744881,-0.028985855987668036,0.1085104244057089
1633781329386965000,20.041965087890624,0.050742345243692394,0.012592939591407774,0.07753755931928753
1633781329406843100,20.061843017578123,0.011409282764792441,0.005514379507303237,0.06577244885414839
1633781329426722000,20.08172216796875,-0.06239128198325634,0.028663784426450727,0.1447754776161164
1633781329446601200,20.101601318359375,-0.010148469048738479,-0.02273205628991127,0.0976408745408058
1633781329466480000,20.121480224609375,0.01690145044028759,0.012685294049978256,0.11789711530171335
1633781329486359000,20.141359130859374,0.031818449065089224,0.0662269146233797,0.10839278937540947
1633781329506238000,20.161238037109374,0.054716509571671484,0.06369535031914711,0.130656716696918
1633781329526116000,20.1811162109375,0.14989654695689678,-0.028216040658950805,0.08013882785886525
1633781329545995000,20.2009951171875,0.06995207262635231,-0.08055120805203914,0.09626425242535769
1633781329565874200,20.220874267578125,0.07296031453162431,0.004520692294836044,0.07319927438665182
1633781329585753000,20.240753173828125,0.029848610296845435,0.002239303359389305,0.10046455365940928
1633781329605632000,20.260632080078125,0.1311515144765377,-0.048289691394567485,0.0834220142479986
1633781329625510000,20.280510009765624,0.02706248670965433,-0.14640461318790912,0.05570570327211171
1633781329645389000,20.30038916015625,0.05070552036464214,-0.07043196509778499,0.012264438289403915
1633781329665268200,20.320268310546876,0.14704408013522624,0.08023848884105682,-0.048420916558802124
1633781329685147100,20.340147216796876,-0.3594564122378826,0.11281097114384174,0.030302564609423276
1633781329705026000,20.360026123046875,-0.2588797765061259,0.1734627159833908,0.19088230854626745
1633781329724905000,20.379905029296875,0.12771920194029807,-0.08168050434291363,-0.23459449942484498
1633781329744783000,20.399783203125,0.9209364490330219,-0.21409341705739496,-0.3349539852745831
1633781329764662000,20.419662109375,0.09088292471319437,0.08915595479011536,0.12293200419638305
1633781329784541200,20.439541259765626,0.0005886135429143905,0.33436990177631376,0.17217574491277335
1633781329804420000,20.459420166015626,0.015825930163264272,0.27357144194245336,0.22904431795179842
1633781329824299000,20.479299072265626,0.11689034941196441,0.27182547505795956,0.24620441932827233
