time,seconds_elapsed,z,y,x
1633781309368962800,0.023962890625,-9.039673109579086,-3.8014129751354453,-0.06292640720668714
1633781309388842000,0.043842041015625,-9.039511781537533,-3.8014632440179583,-0.08054441298507153
1633781309408720600,0.063720703125,-9.041488634568452,-3.796130066296458,-0.10611818637377582
1633781309428598800,0.083598876953125,-9.045281597110629,-3.7866926681265234,-0.11926126152807846
1633781309448477700,0.103477783203125,-9.049687723115087,-3.7762460929140444,-0.11621412151767871
1633781309468356900,0.12335693359375,-9.056086484241485,-3.7612434618324038,-0.10356127756573259
1633781309488236000,0.143236083984375,-9.065057141682505,-3.7397958923950787,-0.0951105523455888
1633781309508114700,0.16311474609375,-9.073948888668417,-3.71821592874974,-0.09331134830336085
1633781309527993900,0.182993896484375,-9.079806967046856,-3.703666886654496,-0.10166397431073709
1633781309547872800,0.202872802734375,-9.079833855053781,-3.7033892387568947,-0.10915896970862522
1633781309567752000,0.222751953125,-9.075515407332777,-3.713848381190002,-0.11283249798906035
1633781309587630800,0.242630859375,-9.071143183597922,-3.724551561512053,-0.11164272194891237
1633781309607509000,0.262509033203125,-9.069420013067125,-3.7289717160418627,-0.1037861358301714
1633781309627387600,0.2823876953125,-9.067954616689681,-3.7328061796382066,-0.0935153921086341
1633781309647266800,0.302266845703125,-9.06471402733326,-3.740780227257311,-0.0889213057840243
1633781309667145700,0.322145751953125,-9.054235303416847,-3.766315942791104,-0.07788278342722915
1633781309687025000,0.34202490234375,-9.03334156847,-3.816602945482731,-0.05167253419931512
1633781309706903800,0.36190380859375,-9.003034108489752,-3.8878503186166284,-0.019576286539575084
1633781309726782700,0.38178271484375,-8.967008270862697,-3.9702795955002306,0.004893049863231135
1633781309746662000,0.401661865234375,-8.931078294825554,-4.050419300141931,0.017996918668440776
1633781309766540800,0.421540771484375,-8.894144110181927,-4.130907087568938,0.013839538694085786
1633781309786419000,0.4414189453125,-8.853641419401765,-4.217007454180718,-0.016236991757253415
1633781309806297900,0.4612978515625,-8.799426429611444,-4.32828697797358,-0.0800768046064768
1633781309826176800,0.4811767578125,-8.719249315568804,-4.485452931411564,-0.1606025220242329
1633781309846055700,0.5010556640625,-8.618535024932026,-4.6734281568720935,-0.22428596270987763
1633781309865934800,0.520934814453125,-8.511407944643498,-4.86352548905313,-0.26914845613474025
1633781309885814000,0.54081396484375,-8.405275136089324,-5.041731600171327,-0.32043318289313466
1633781309905693000,0.56069287109375,-8.299747307690977,-5.209702733001112,-0.3789174840331077
1633781309925571800,0.58057177734375,-8.18834503430128,-5.380288432243466,-0.4169997427333146
1633781309945449700,0.60044970703125,-8.061317321756482,-5.569073805043101,-0.4134778887500986
1633781309965329000,0.620328857421875,-7.911153063774108,-5.782582700210809,-0.3818214618463069
1633781309985207800,0.640207763671875,-7.745679008457064,-6.004429800134897,-0.3488044141137972
1633781310005087000,0.6600869140625,-7.5722613006591795,-6.223406313058733,-0.3169535971490666
1633781310024966000,0.6799658203125,-7.382634216338396,-6.447934030368923,-0.3020630664060823
1633781310044844800,0.6998447265625,-7.170078676372766,-6.683549543404578,-0.30086538105411453
1633781310064723700,0.7197236328125,-6.9609764917314045,-6.900456264317035,-0.3144730689123273
1633781310084603000,0.739602783203125,-6.79477587570548,-7.063527350145578,-0.3286203252736479
1633781310104481800,0.759481689453125,-6.671151834124326,-7.181413140335678,-0.3056642509695142
1633781310124360000,0.77935986328125,-6.542772122448683,-7.30041653637886,-0.25774806906245645
1633781310144238600,0.799238525390625,-6.387255982044339,-7.437576351359486,-0.23622195449620484
1633781310164117800,0.81911767578125,-6.217934019127488,-7.578751247200369,-0.26496906982455404
1633781310183996700,0.83899658203125,-6.066115564197301,-7.6979954662621015,-0.33687848706375806
1633781310203875800,0.858875732421875,-5.948046818655729,-7.785389672076701,-0.4228752837032079
1633781310223754800,0.878754638671875,-5.8610670388609165,-7.845895286443829,-0.5101062252474948
1633781310243633700,0.898633544921875,-5.795044706898928,-7.889822690975666,-0.5818404685828834
1633781310263512800,0.918512939453125,-5.724955271628499,-7.939973500066995,-0.593376300336793
1633781310283390700,0.938390625,-5.636189192938804,-8.004455616849661,-0.576585945588164
1633781310303270000,0.958269775390625,-5.547853322359919,-8.064259220427274,-0.5995356997493654
1633781310323148800,0.978148681640625,-5.467092855471372,-8.113490576586127,-0.6727108991406857
1633781310343027700,0.99802783203125,-5.390075082242489,-8.158153309655189,-0.7496724121376872
1633781310362906600,1.01790673828125,-5.307440638175606,-8.20915752070546,-0.7817771307982504
1633781310382785800,1.037785888671875,-5.2264785112351175,-8.263142208871244,-0.7581378965355455
1633781310402664700,1.057664794921875,-5.160854823201895,-8.310647471889853,-0.684919661720097
1633781310422544000,1.0775439453125,-5.106804084062576,-8.349701132905484,-0.6110925377586857
1633781310442421800,1.097421875,-5.052642285764217,-8.38469587391913,-0.5814367100875825
1633781310462300700,1.11730078125,-5.010476045686007,-8.40850988022685,-0.6020670083252713
1633781310482179600,1.1371796875,-4.993389886328577,-8.414621056583524,-0.6561964021913707
1633781310502058800,1.157058837890625,-4.999695708474516,-8.40481862449348,-0.7296844669241458
1633781310521938000,1.17693798828125,-5.02960335548222,-8.378338029325008,-0.8227571567665785
1633781310541816800,1.19681689453125,-5.08872482201457,-8.329853692141175,-0.9427574548926204
1633781310561695700,1.21669580078125,-5.157628846892714,-8.26883720564246,-1.09343200048469
1633781310581574700,1.23657470703125,-5.217344772186875,-8.211139634433389,-1.2356744524918495
1633781310601453800,1.256453857421875,-5.256987631267309,-8.169718659764527,-1.3379684135355054
1633781310621331700,1.276331787109375,-5.281090391388535,-8.147664064344763,-1.3769690291896461
1633781310641211000,1.2962109375,-5.306532875680923,-8.132261328029632,-1.3701914978787302
1633781310661089500,1.316089599609375,-5.321432338649034,-8.126382206863164,-1.3470891469717026
1633781310680968700,1.33596875,-5.3179146859169,-8.138748351961373,-1.284892949169129
1633781310700847900,1.355847900390625,-5.292524224072695,-8.174627474594116,-1.1554410051520914
1633781310720726800,1.375726806640625,-5.244131072303652,-8.230592522922159,-0.9627199003387242
1633781310740606000,1.39560595703125,-5.195381362181902,-8.28473152486682,-0.7359472536459565
1633781310760484600,1.415484619140625,-5.165772405859828,-8.319851353564857,-0.5150171224363148
1633781310780362800,1.43536279296875,-5.141638666078448,-8.343359654924273,-0.3496964310500771
1633781310800241700,1.45524169921875,-5.106046543693542,-8.368051028588413,-0.2727310273292474
1633781310820120800,1.475120849609375,-5.059551334500313,-8.396210955145955,-0.2737731202607043
1633781310839999700,1.494999755859375,-5.01039596618712,-8.423895080885291,-0.3229875800836831
1633781310859878700,1.514878662109375,-4.961940855097771,-8.449546824014186,-0.39331875168811525
1633781310879757600,1.534757568359375,-4.929963416078686,-8.463411098715662,-0.4863312723085284
1633781310899636700,1.55463671875,-4.919024088913202,-8.462711426013708,-0.5967402968771756
1633781310919516000,1.574515869140625,-4.896044195342063,-8.468249186396598,-0.6984840036269276
1633781310939393800,1.594393798828125,-4.8523769030511374,-8.486783206474781,-0.7741660712726414
1633781310959273000,1.61427294921875,-4.809489655221999,-8.506520172601938,-0.823590173524618
1633781310979151600,1.634151611328125,-4.781005903537571,-8.520106799405813,-0.8486231271680444
1633781310999030800,1.65403076171875,-4.7609620634183285,-8.530595460194348,-0.8558907800834625
1633781311018909700,1.67390966796875,-4.738451833185553,-8.543547880747914,-0.8516054309144616
1633781311038788900,1.693788818359375,-4.715329316273332,-8.557658823686838,-0.8381643500611186
1633781311058667800,1.713667724609375,-4.702596968211234,-8.56690362189412,-0.8149482365813105
1633781311078546700,1.733546630859375,-4.703081536857783,-8.570793615069984,-0.7700033255700022
1633781311098425000,1.753425048828125,-4.7074210273668164,-8.574809864974021,-0.6951300900891423
1633781311118303200,1.77330322265625,-4.706214574186504,-8.582111127898097,-0.607713599377498
1633781311138182100,1.79318212890625,-4.707471588510274,-8.586179400250316,-0.536306359506771
1633781311158061300,1.813061279296875,-4.719674652001261,-8.581662799608706,-0.5001171114789321
1633781311177940500,1.8329404296875,-4.735572770617902,-8.573746035134791,-0.4853853697605431
1633781311197819100,1.852819091796875,-4.744729890541732,-8.569363874527811,-0.47320835402626543
1633781311217698300,1.8726982421875,-4.760841359648108,-8.56134715681076,-0.4561981094492599
1633781311237577200,1.8925771484375,-4.790560498346388,-8.545694245126843,-0.43821109226197
1633781311257456400,1.912456298828125,-4.8156245047152035,-8.531555829659103,-0.438968340370059
1633781311277334300,1.932334228515625,-4.820178514757752,-8.527853468009829,-0.4604247872335836
1633781311297213400,1.95221337890625,-4.812800094944238,-8.530142455729841,-0.4939757591797039
1633781311317092000,1.972092041015625,-4.810048750409484,-8.529132401904464,-0.5364011251181364
1633781311336971300,1.99197119140625,-4.814152970857918,-8.523535020288824,-0.5862298991808668
1633781311356850200,2.01185009765625,-4.808507073925435,-8.522863404637574,-0.6398835652939975
1633781311376729300,2.031729248046875,-4.786496025386453,-8.531126206070184,-0.6926292131841182
1633781311396608300,2.051608154296875,-4.752540564292669,-8.546025669038295,-0.7410751180537044
1633781311416487200,2.071487060546875,-4.721327679905295,-8.559131234326959,-0.7878650724098086
1633781311436365300,2.091365234375,-4.705923482285439,-8.563051622641087,-0.835943313010782
1633781311456244200,2.111244140625,-4.699536411596834,-8.561806591016053,-0.8833025186222047
1633781311476123400,2.131123291015625,-4.68948351187706,-8.563262635043262,-0.9217734113138168
1633781311496002300,2.151002197265625,-4.676535475237667,-8.567733058455586,-0.9457000842157751
1633781311515881200,2.170881103515625,-4.66828787137419,-8.56994488928616,-0.9661890377540141
1633781311535760100,2.190760009765625,-4.666404541845619,-8.566825880482792,-1.0022715009391308
1633781311555639300,2.210639404296875,-4.6687075580909845,-8.559111360582708,-1.0560067443884908
1633781311575518500,2.2305185546875,-4.674373036506772,-8.549028357985616,-1.1111822497740387
1633781311595397000,2.250397216796875,-4.677931898032129,-8.541172383788227,-1.1557227447029204
1633781311615275300,2.270275146484375,-4.674154133059084,-8.53965671852827,-1.1819122479703277
1633781311635154200,2.290154296875,-4.671042138518393,-8.540150639525056,-1.1906197974957524
1633781311655033300,2.310033447265625,-4.68016594069451,-8.535114398923517,-1.1909043865907936
1633781311674912300,2.329912353515625,-4.708245787753165,-8.519394267222285,-1.192776975529641
1633781311694791400,2.34979150390625,-4.748837618121504,-8.496023913028836,-1.1985403613619505
1633781311714670000,2.369670166015625,-4.794337094275653,-8.469405370694398,-1.2057767423562704
1633781311734549200,2.38954931640625,-4.838493631388246,-8.444287880572675,-1.2055506785154342
1633781311754428200,2.40942822265625,-4.8641152716398235,-8.432467094397545,-1.1850192740749568
1633781311774306300,2.429306396484375,-4.86319786453396,-8.437664078518749,-1.1513022979121654
1633781311794185200,2.449185302734375,-4.858290218748152,-8.445019117456674,-1.1176100177992134
1633781311814064400,2.469064453125,-4.872030574809014,-8.439370297914744,-1.1003352040018886
1633781311833943300,2.488943359375,-4.896321258717775,-8.42577665684819,-1.0966823075175285
1633781311853822200,2.508822265625,-4.9182040047019715,-8.414266251796484,-1.0870910339601336
1633781311873701400,2.528701416015625,-4.927936878687143,-8.411916473799943,-1.0608922514077275
1633781311893580300,2.548580322265625,-4.929734283497929,-8.415842707332969,-1.0206307489722966
1633781311913459200,2.568459228515625,-4.9302007319659,-8.420422436338663,-0.9797927618231623
1633781311933337000,2.588337158203125,-4.939739544683695,-8.417600364655256,-0.9556917552676051
1633781311953216300,2.60821630859375,-4.94901649159491,-8.412737142533063,-0.9505155947387218
1633781311973095200,2.62809521484375,-4.948996033328771,-8.412470016029477,-0.952986368766427
1633781311992974300,2.647974365234375,-4.939145670443773,-8.417881519684196,-0.9562959317058324
1633781312012853200,2.667853271484375,-4.928026895058155,-8.424505321738124,-0.9553341009363532
1633781312032732200,2.687732177734375,-4.92611550847888,-8.42590992783904,-0.9527941341299563
1633781312052611300,2.707611328125,-4.928175363618135,-8.425030222395062,-0.9499182133674621
1633781312072490200,2.727490234375,-4.923364163944125,-8.429000879591703,-0.9395801400307565
1633781312092368400,2.747368408203125,-4.907426005578041,-8.440110302627087,-0.9230988877639174
1633781312112247300,2.767247314453125,-4.891922146975994,-8.451339552649856,-0.9024081280432641
1633781312132126200,2.787126220703125,-4.883717505471408,-8.45897633113861,-0.8748800696484744
1633781312152005000,2.807005126953125,-4.881667294943332,-8.463530925703049,-0.841643059022352
1633781312171884000,2.826884033203125,-4.8798535235196345,-8.467057930785417,-0.8162957787327468
1633781312191763200,2.84676318359375,-4.872816172228753,-8.472156130707264,-0.8053616391990334
1633781312211642000,2.86664208984375,-4.861005907447636,-8.47895119767487,-0.8052258109249174
1633781312231521000,2.88652099609375,-4.852228142230213,-8.48346604475081,-0.8106042890928685
1633781312251399200,2.906399169921875,-4.850212418493628,-8.483902682602405,-0.8180548242945224
1633781312271278000,2.926278076171875,-4.846605918434262,-8.485037824112176,-0.8276037200149148
1633781312291157200,2.9461572265625,-4.837482700780034,-8.489180915266274,-0.8384337415870279
1633781312311036200,2.9660361328125,-4.831514440025389,-8.49144593758881,-0.8498219815637916
1633781312330915300,2.985915283203125,-4.832801849487423,-8.489514092743397,-0.8617210206069051
1633781312350794000,3.0057939453125,-4.838784723289311,-8.485089846560358,-0.8716715559307485
1633781312370673200,3.025673095703125,-4.841419455707073,-8.483078506737947,-0.8766022172659635
1633781312390552000,3.045552001953125,-4.833308337704837,-8.48788444571495,-0.8748281933307647
1633781312410430200,3.06543017578125,-4.817620354707539,-8.497858142718671,-0.8644805484481155
1633781312430309000,3.08530908203125,-4.805600246568024,-8.506604928275943,-0.8451431760977953
1633781312450188000,3.10518798828125,-4.796983809392154,-8.513780518993736,-0.8215093486625701
1633781312470067000,3.12506689453125,-4.789983867502213,-8.519892279872298,-0.7986644796479493
1633781312489946000,3.144946044921875,-4.784169920526445,-8.525271634823083,-0.7757848315808922
1633781312509825300,3.1648251953125,-4.7786689850226045,-8.530311382555961,-0.7539863298140466
1633781312529704200,3.1847041015625,-4.773360064959526,-8.53473212160766,-0.7373997174765914
1633781312549583000,3.2045830078125,-4.767825811707973,-8.538616854086518,-0.7281819534067064
1633781312569461000,3.2244609375,-4.762098666232824,-8.542444303420185,-0.7207192893758416
1633781312589340200,3.244340087890625,-4.75938473109901,-8.544851364561914,-0.7100376632984727
1633781312609219000,3.264218994140625,-4.761640401071309,-8.544351013824343,-0.7008806164398789
1633781312629098200,3.28409814453125,-4.768358018888533,-8.540675540181994,-0.7000139166079461
1633781312648977200,3.30397705078125,-4.770868832665681,-8.538515731799603,-0.7091781238596886
1633781312668856000,3.32385595703125,-4.764406943175197,-8.540955526167155,-0.7231209436900913
1633781312688735200,3.3437353515625,-4.752478020450472,-8.546803083151579,-0.7324516666151583
1633781312708614100,3.3636142578125,-4.744847087180614,-8.550629363441466,-0.7372599436797201
1633781312728492000,3.383491943359375,-4.74823935996741,-8.548245683175326,-0.7430266174476593
1633781312748371200,3.40337109375,-4.758547403492034,-8.541755736634135,-0.7516704540871083
1633781312768250000,3.42325,-4.7671521502301095,-8.53609288856685,-0.7614112191177904
1633781312788129000,3.44312890625,-4.767317569924891,-8.535187464159726,-0.7704781034749001
1633781312808008200,3.46300830078125,-4.76497802106142,-8.535981244885921,-0.7761505961533636
1633781312827887000,3.48288720703125,-4.765677109241485,-8.535559804603457,-0.7764785859987139
1633781312847766300,3.502766357421875,-4.774174011690914,-8.531177643996477,-0.7724359595444052
1633781312867645000,3.52264501953125,-4.792438859438896,-8.521687931117414,-0.7640415676213801
1633781312887523000,3.542523193359375,-4.817055998823046,-8.50871739038527,-0.753718545723334
1633781312907402000,3.562402099609375,-4.842063014307618,-8.495616501271725,-0.7411544669002295
1633781312927281200,3.58228125,-4.866588091494143,-8.482398123258351,-0.7318593267451972
1633781312947160300,3.602160400390625,-4.888862467144429,-8.469799922969937,-0.729303650913015
1633781312967039200,3.622039306640625,-4.903887894579768,-8.460486151179671,-0.7364957543741911
1633781312986918100,3.641918212890625,-4.916439333117008,-8.452008245691657,-0.7500421222329139
1633781313006797000,3.661797119140625,-4.938731244423985,-8.43786632309258,-0.7627187215197831
1633781313026676200,3.68167626953125,-4.974806181889772,-8.415655660328268,-0.7735786267735063
1633781313046554000,3.70155419921875,-5.014340904420614,-8.390951427182555,-0.7865860654499381
1633781313066433300,3.721433349609375,-5.041113176012039,-8.373771744322775,-0.7984465991135686
1633781313086312000,3.74131201171875,-5.051874808523059,-8.366743453121185,-0.8040756179764866
1633781313106191600,3.761191650390625,-5.056155846843123,-8.364467324882746,-0.8008494955368339
1633781313126070800,3.78107080078125,-5.062648131471872,-8.36125011640191,-0.7933993256613612
1633781313145950000,3.800949951171875,-5.074239785066247,-8.354961829912662,-0.7855429861377924
1633781313165828600,3.82082861328125,-5.084682853147387,-8.349289629495143,-0.7782900924000888
1633781313185706800,3.840706787109375,-5.088551219013333,-8.347334988296032,-0.7739679914172738
1633781313205585700,3.860585693359375,-5.088167772653699,-8.347464167633651,-0.7751008679047227
1633781313225464800,3.88046484375,-5.0885716772794725,-8.34629220124483,-0.7850062489125877
1633781313245343700,3.90034375,-5.09722961550951,-8.339885256811977,-0.7968387985907495
1633781313265223000,3.920222900390625,-5.111894100677967,-8.330095099681616,-0.8052548178236931
1633781313285101600,3.9401015625,-5.1214194693923,-8.323903259304165,-0.8087493088759481
1633781313304980700,3.959980712890625,-5.121807591927051,-8.323798045364022,-0.8073689604334533
1633781313324860000,3.97985986328125,-5.117191622564197,-8.32710234760642,-0.8025562994547187
1633781313344737800,3.99973779296875,-5.1144490458577865,-8.329498887354134,-0.7951370361741632
1633781313364617000,4.019616943359375,-5.116366862177848,-8.329296642780303,-0.784846236045286
1633781313384495600,4.03949560546875,-5.122715354421734,-8.326549974420667,-0.7724831596869974
1633781313404374800,4.059374755859375,-5.129632586464286,-8.323392971694469,-0.7605209922797977
1633781313424253700,4.079253662109375,-5.13378444544673,-8.321869707649945,-0.7490810951810329
1633781313444132900,4.0991328125,-5.1337897061437365,-8.322733631002903,-0.7393950560122728
1633781313464011800,4.11901171875,-5.132780821362138,-8.324035361251234,-0.7317069126624614
1633781313483890700,4.138890625,-5.1305245668679476,-8.32562876792252,-0.729384753325209
1633781313503768600,4.1587685546875,-5.124313437268138,-8.329483689785004,-0.7290474111296236
1633781313523647700,4.178647705078125,-5.11483541482687,-8.335537582996487,-0.7263993077736347
1633781313543526700,4.198526611328125,-5.107002236983179,-8.341126196783781,-0.7172961099941283
1633781313563405800,4.21840576171875,-5.102307941687107,-8.345073473104835,-0.7046992979452014
1633781313583284700,4.23828466796875,-5.094874576815963,-8.350518294507264,-0.6938865928340703
1633781313603163600,4.25816357421875,-5.08561048938632,-8.356617195904255,-0.688407211574912
1633781313623042800,4.278042724609375,-5.078829450944066,-8.360624677979946,-0.6898067031092942
1633781313642920700,4.297920654296875,-5.076251709410548,-8.36156692726612,-0.6973121833685785
1633781313662800000,4.3177998046875,-5.072541164454817,-8.362743569830059,-0.7100906355947255
1633781313682678800,4.3376787109375,-5.061137142387032,-8.36822638515532,-0.7266852120429277
1633781313702557700,4.3575576171875,-5.045589444643259,-8.376055471345781,-0.7443851924497634
1633781313722436600,4.3774365234375,-5.03581390056014,-8.380493746054173,-0.7604440545860678
1633781313742315800,4.397315673828125,-5.034709738710522,-8.379738543772698,-0.7759293546181172
1633781313762195000,4.41719482421875,-5.036300807294249,-8.376995382544397,-0.794979653655365
1633781313782073900,4.437073974609375,-5.033813666653633,-8.376361176294088,-0.8171159360092133
1633781313801951700,4.45695166015625,-5.022756266066431,-8.380712941762804,-0.8402163141548633
1633781313821830700,4.47683056640625,-5.011310158422589,-8.385873101004957,-0.8569126704771071
1633781313841709800,4.496709716796875,-5.003070153343677,-8.38985895577073,-0.8659861307054758
1633781313861588700,4.516588623046875,-4.997987735512853,-8.392091244867444,-0.8736705477282405
1633781313881468000,4.536468017578125,-4.995964705252647,-8.392028701025247,-0.8857673743657767
1633781313901346600,4.5563466796875,-4.994246210896969,-8.391063070863485,-0.9044054393403231
1633781313921225700,4.576225830078125,-4.991826290273666,-8.390317220932245,-0.9244548324175178
1633781313941103600,4.596103515625,-4.988327926763892,-8.390733985039592,-0.9394452616047113
1633781313960982800,4.615982666015625,-4.985999191555381,-8.391419629216193,-0.9456650859676301
1633781313980861700,4.63586181640625,-4.9831245129019015,-8.392599778911471,-0.9503232870370149
1633781314000740900,4.655740966796875,-4.977707164028287,-8.39484142035842,-0.9588888708084821
1633781314020619800,4.675619873046875,-4.973436647102236,-8.396174130266905,-0.9693147685591131
1633781314040498700,4.695498779296875,-4.969922501501441,-8.39717249365449,-0.9786479757022112
1633781314060377900,4.7153779296875,-4.966278007519245,-8.398579437842965,-0.9850492941118776
1633781314080256800,4.7352568359375,-4.962421916612983,-8.40030319289565,-0.9897821678526699
1633781314100135000,4.755135009765625,-4.960374336433411,-8.40091694087982,-0.994818262323737
1633781314120014300,4.775014404296875,-4.960638540327548,-8.40000508673191,-1.0011839979633688
1633781314139893200,4.794893310546875,-4.955765965855122,-8.402197628340124,-1.006898357022181
1633781314159772400,4.8147724609375,-4.943872698965668,-8.40895528590679,-1.0089536090515554
1633781314179651300,4.8346513671875,-4.930009008786082,-8.417571723082661,-1.0049330482985823
1633781314199530200,4.8545302734375,-4.921775433447957,-8.42384305843711,-0.9926553121361881
1633781314219409200,4.8744091796875,-4.921731009784341,-8.425385611703991,-0.9797088098667561
1633781314239287300,4.894287353515625,-4.923443658921122,-8.426084699884056,-0.9649830960303545
1633781314259166200,4.914166259765625,-4.915512865921855,-8.432644204530119,-0.9479676638215779
1633781314279045400,4.93404541015625,-4.899765261691808,-8.443861179593204,-0.9294634543597697
1633781314298924500,4.953924560546875,-4.887732001809775,-8.452862232172489,-0.910811068598926
1633781314318803200,4.97380322265625,-4.884240944823622,-8.45625362817645,-0.8979732874009758
1633781314338682400,4.993682373046875,-4.88245406140685,-8.457976214185356,-0.8914379673480987
1633781314358561300,5.013561279296875,-4.885502635322511,-8.456824706062674,-0.8856412637680768
1633781314378439400,5.033439453125,-4.892452600590884,-8.453799805283547,-0.8761147990752011
1633781314398318300,5.053318359375,-4.897441787180305,-8.452146192857622,-0.8641120073966682
1633781314418197500,5.073197509765625,-4.896202308513224,-8.454533380255103,-0.8476083971675484
1633781314438076200,5.093076171875,-4.886293493439257,-8.462349606963992,-0.8265309031516314
1633781314457955300,5.112955322265625,-4.8724490924820305,-8.472334994405507,-0.8057073108315468
1633781314477834200,5.132834228515625,-4.8655976191520685,-8.47749690721333,-0.7927071056134999
1633781314497713400,5.15271337890625,-4.8674172357946635,-8.476895434188842,-0.7879624683696776
1633781314517592300,5.17259228515625,-4.867382456742226,-8.477112876331805,-0.7858295479942112
1633781314537470500,5.192470458984375,-4.859136021922528,-8.482184772768615,-0.7821298897586763
1633781314557349400,5.212349365234375,-4.848702306191623,-8.488746615502238,-0.7756633240930736
1633781314577228300,5.232228271484375,-4.839339434562623,-8.494732704174519,-0.7685701509617269
1633781314597107500,5.252107421875,-4.828875908215344,-8.500874275669455,-0.7664636802017688
1633781314616986400,5.271986328125,-4.817544366861879,-8.507197048950195,-0.7676281208712608
1633781314636865300,5.291865234375,-4.804416589741408,-8.51464911852181,-0.7672760194979608
1633781314656744200,5.311744140625,-4.786016425175965,-8.525266958647967,-0.7643608627036214
1633781314676622300,5.331622314453125,-4.763413548223674,-8.53874427985847,-0.7550627999391406
1633781314696501200,5.351501220703125,-4.743277061384916,-8.551640001788735,-0.7356280316289514
1633781314716380400,5.37138037109375,-4.733671905432641,-8.558144561377167,-0.721737307311967
1633781314736259300,5.39125927734375,-4.742339780534803,-8.553928404986857,-0.7147732404530048
1633781314756138200,5.41113818359375,-4.76253588860631,-8.543298874422907,-0.7075866168845445
1633781314776017400,5.431017333984375,-4.773496843081713,-8.537293496528267,-0.7062025421150028
1633781314795896300,5.450896240234375,-4.770643207216263,-8.538578275641798,-0.7099543689291924
1633781314815774500,5.4707744140625,-4.7652083226859565,-8.541748722371459,-0.7083154426157474
1633781314835653400,5.4906533203125,-4.764911093305051,-8.542687464526296,-0.6989201300218701
1633781314855532300,5.5105322265625,-4.766482288144529,-8.542593941023945,-0.6892950272601097
1633781314875411200,5.5304111328125,-4.764350244551896,-8.543965813899039,-0.6870196296740323
1633781314895290400,5.550290283203125,-4.7593543359607455,-8.546049049913883,-0.695687285580486
1633781314915169300,5.570169189453125,-4.7531329772278665,-8.548286015185713,-0.7105734506756067
1633781314935048400,5.59004833984375,-4.745895134928822,-8.55129688743949,-0.722621761996299
1633781314954927400,5.60992724609375,-4.741647122095525,-8.553014797273278,-0.7301390788238495
1633781314974805200,5.62980517578125,-4.737061255609989,-8.555078159543871,-0.7357130795639008
1633781314994684200,5.64968408203125,-4.730488599221408,-8.558505795904994,-0.7381292738601565
1633781315014563300,5.669563232421875,-4.721237371273339,-8.563838973626494,-0.7354961488775908
1633781315034442500,5.6894423828125,-4.71140571308881,-8.569788821941614,-0.7292217447832227
1633781315054321400,5.7093212890625,-4.705543835318088,-8.573386554172634,-0.7247662266790866
1633781315074200300,5.729200439453125,-4.703422313119471,-8.57464444527924,-0.7236508127830922
1633781315094079200,5.749079345703125,-4.702308798919618,-8.575387372601032,-0.722082832814008
1633781315113960700,5.768960693359375,-4.699633149969578,-8.577242645078897,-0.7174552460785955
1633781315133839600,5.788839599609375,-4.6979497269272805,-8.5789143776834,-0.7084439643662422
1633781315153718800,5.80871875,-4.697621810147166,-8.580027307361364,-0.6970366543628275
1633781315173597700,5.82859765625,-4.698076860438287,-8.580939161509274,-0.6826055395588279
1633781315193476600,5.8484765625,-4.704889755323529,-8.578405259117483,-0.6673468878895044
1633781315213355800,5.868355712890625,-4.716752919335663,-8.573096046793461,-0.6516547401737421
1633781315233234700,5.888234619140625,-4.724469192801416,-8.570214938399195,-0.6333985871888697
1633781315253112800,5.90811279296875,-4.723757245139778,-8.57182704977095,-0.6166738084897398
1633781315272991700,5.92799169921875,-4.7195776213675735,-8.574711665296554,-0.6085060283968224
1633781315292870700,5.94787060546875,-4.718571366934478,-8.57535113224387,-0.6073130922852084
1633781315312749600,5.96774951171875,-4.720714808703959,-8.574154615935683,-0.6075440514968707
1633781315332628700,5.987628662109375,-4.725400043910741,-8.571739371487498,-0.6051857614003121
1633781315352508000,6.0075078125,-4.732002803176641,-8.568444421595334,-0.6002479762045666
1633781315372386800,6.02738671875,-4.73893318696171,-8.56479700500369,-0.5976145589610561
1633781315392264700,6.0472646484375,-4.745812132820487,-8.560611243751644,-0.6029925256723537
1633781315412143600,6.0671435546875,-4.752342995893955,-8.555987091082335,-0.6170017252698541
1633781315432022800,6.087022705078125,-4.759002746044099,-8.55125597090721,-0.6311106954474002
1633781315451901700,6.106901611328125,-4.766989068622887,-8.546212131521106,-0.6391079047463833
1633781315471780900,6.12678076171875,-4.778134147493541,-8.539735044461489,-0.6424430405184626
1633781315491659500,6.146659423828125,-4.794826631358266,-8.530168174692989,-0.6451756072875112
1633781315511538700,6.16653857421875,-4.814820202594995,-8.518248019796609,-0.6537169334005564
1633781315531416600,6.18641650390625,-4.82749322168529,-8.509878835380077,-0.6690770726829767
1633781315551295700,6.206295654296875,-4.830686757029593,-8.506814771634339,-0.6848055338211357
1633781315571174700,6.226174560546875,-4.831721653035283,-8.505365157347917,-0.6954372563421726
1633781315591053800,6.2460537109375,-4.838698798571527,-8.501074766677618,-0.6993608595266938
1633781315610932700,6.2659326171875,-4.852068567754328,-8.493663613638281,-0.6967745693605393
1633781315630811600,6.285811767578125,-4.861878890889883,-8.488726741757988,-0.6884981777939945
1633781315650690800,6.30569091796875,-4.861371818150579,-8.489834995260834,-0.6783409409169108
1633781315670568700,6.325568603515625,-4.8557189069554205,-8.493577104398607,-0.6719531395759433
1633781315690448000,6.34544775390625,-4.84950953092128,-8.4971140463531,-0.672088529458642
1633781315710326800,6.365326904296875,-4.844753276304901,-8.499684773623942,-0.6738833039209247
1633781315730205700,6.385205810546875,-4.841427054491639,-8.501672732570768,-0.6726952631801366
1633781315750084600,6.405084716796875,-4.839281274634599,-8.503188397830725,-0.6689739776346832
1633781315769963800,6.4249638671875,-4.839352586305141,-8.503342127087711,-0.6665042995855212
1633781315789842700,6.4448427734375,-4.839574120101332,-8.503152741995454,-0.6673130586851388
1633781315809720800,6.464720947265625,-4.8390375290066,-8.503724988925457,-0.6639047846116125
1633781315829599700,6.484599853515625,-4.838505029565096,-8.504683604824542,-0.6554599776756018
1633781315849478700,6.504478759765625,-4.837608665247261,-8.50573340613842,-0.6483951538559048
1633781315869357800,6.52435791015625,-4.8341018261700865,-8.508031161686777,-0.6444032346755266
1633781315889236700,6.54423681640625,-4.82623445379585,-8.512795015087724,-0.6404360115449875
1633781315909116000,6.564115966796875,-4.817991233846545,-8.51783710090816,-0.6354522317830473
1633781315928994600,6.58399462890625,-4.81447533468008,-8.520006846162676,-0.6330014045648277
1633781315948872700,6.603872802734375,-4.8151609788566825,-8.519614047452807,-0.6330711088001728
1633781315968751600,6.623751708984375,-4.817826398673653,-8.518166771253943,-0.6322816389229148
1633781315988630800,6.643630859375,-4.820764205691218,-8.516729431927203,-0.629216625329107
1633781316008509700,6.663509765625,-4.82236579566896,-8.51612152916193,-0.6251729028962553
1633781316028388900,6.683388916015625,-4.827895080484449,-8.513085522466897,-0.6238528332736343
1633781316048267500,6.703267578125,-4.83854390027076,-8.506900111830234,-0.6257280525609851
1633781316068146700,6.723146728515625,-4.849459846560657,-8.500349959534406,-0.6302244141321629
1633781316088024600,6.743024658203125,-4.85612135027647,-8.496531278029083,-0.6304276085540652
1633781316107899400,6.7628994140625,-4.86047633061558,-8.494697048339248,-0.6215124076273292
1633781316127778300,6.7827783203125,-4.866633099679649,-8.492122229415179,-0.6083764106677845
1633781316147657500,6.802657470703125,-4.873613460086286,-8.4884824116081,-0.6032794893875718
1633781316167536400,6.822536376953125,-4.87804355148822,-8.485774321693182,-0.6055629972148686
1633781316187415300,6.842415283203125,-4.8785763431906695,-8.485484983357786,-0.6053221741963177
1633781316207294500,6.86229443359375,-4.87748474856168,-8.486238432073593,-0.603557502611354
1633781316227172400,6.88217236328125,-4.878358901047706,-8.485737496814131,-0.6035415378572418
1633781316247051500,6.902051513671875,-4.87983452655822,-8.484676005062461,-0.6065289927028119
1633781316266930400,6.921930419921875,-4.878958035984635,-8.4850308098495,-0.6086180739365518
1633781316286809300,6.941809326171875,-4.875801617780327,-8.486846334838866,-0.6085977983335032
1633781316306688300,6.961688232421875,-4.8725969765201205,-8.488708037057519,-0.608299984430708
1633781316326567400,6.9815673828125,-4.871006200197339,-8.489724520623684,-0.6068452190451323
1633781316346446300,7.0014462890625,-4.870931381395459,-8.489996907824278,-0.6036127033973112
1633781316366324500,7.021324462890625,-4.872343586280942,-8.489407125237584,-0.6005231398841366
1633781316386203400,7.041203369140625,-4.870969667579233,-8.490088093239068,-0.6020320831423625
1633781316406082300,7.061082275390625,-4.86635136012882,-8.492446639063953,-0.6061049220718443
1633781316425961500,7.08096142578125,-4.860762161819636,-8.495470955321192,-0.6085606811935081
1633781316445840400,7.10084033203125,-4.859008303889632,-8.496392161819339,-0.6097122258488088
1633781316465719600,7.120719482421875,-4.862367551189661,-8.49407511704862,-0.6151748021036386
1633781316485598200,7.14059814453125,-4.867643445765972,-8.4901769405663,-0.6271613732997328
1633781316505476400,7.160476318359375,-4.87523696963489,-8.48475199290812,-0.6414356170415878
1633781316525355300,7.180355224609375,-4.878907474841177,-8.481120358407496,-0.6612336657062172
1633781316545234400,7.200234375,-4.878439857329428,-8.479489542335271,-0.685181673657149
1633781316565113300,7.22011328125,-4.883395433910191,-8.474650870132447,-0.7093118332419545
1633781316584992500,7.239992431640625,-4.895498544158041,-8.465704178088902,-0.7323412650432437
1633781316604871200,7.25987109375,-4.9148815822809935,-8.452867492869496,-0.7505706030864268
1633781316624750300,7.279750244140625,-4.930674779218435,-8.442795011666417,-0.7602914943728596
1633781316644628200,7.299628173828125,-4.930931968849897,-8.442013505899906,-0.7672598720807582
1633781316664507400,7.31950732421875,-4.916525842356681,-8.450109134072065,-0.7705844133935869
1633781316684386600,7.339386474609375,-4.900674485491216,-8.4596117064327,-0.7673042957443743
1633781316704265500,7.359265380859375,-4.89648930876106,-8.462517364746331,-0.7619592083893716
1633781316724144400,7.379144287109375,-4.901751467072963,-8.459786478477715,-0.75844440520145
1633781316744023300,7.399023193359375,-4.90817244003117,-8.456060151430965,-0.7584663247723132
1633781316763901400,7.4189013671875,-4.91591384793818,-8.451490943819284,-0.7592599593680351
1633781316783780400,7.4387802734375,-4.922542326167226,-8.447234455418586,-0.7636697386343032
1633781316803659500,7.458659423828125,-4.929852941441536,-8.442432023572922,-0.7695878035716712
1633781316823538200,7.4785380859375,-4.936328274935484,-8.438207099354267,-0.7744174887504428
1633781316843417300,7.498417236328125,-4.936991122758388,-8.437245560845732,-0.7806283260893077
1633781316863296300,7.518296142578125,-4.932352357041835,-8.439489540380238,-0.7856907240454107
1633781316883175400,7.538175537109375,-4.925678286105394,-8.443398238256574,-0.7855519000966101
1633781316903053300,7.55805322265625,-4.921984692284465,-8.446109250780939,-0.7795511253118514
1633781316922932500,7.577932373046875,-4.921498954594135,-8.4467802819103,-0.7753218171790242
1633781316942811400,7.597811279296875,-4.922506670331955,-8.446029171282053,-0.7771179798807948
1633781316962690300,7.617690185546875,-4.918378776746988,-8.447848787924647,-0.7834368076387792
1633781316982569500,7.637569580078125,-4.909085463222861,-8.453035250651835,-0.7857857088524848
1633781317002448400,7.657448486328125,-4.899882458330691,-8.458767072302102,-0.7815454409342258
1633781317022327300,7.677327392578125,-4.894986502982675,-8.462607965639233,-0.770561617039889
1633781317042205400,7.697205322265625,-4.893909813661873,-8.464337565910816,-0.7583078462749719
1633781317062084400,7.71708447265625,-4.893763390928506,-8.465383275571465,-0.7475039089921861
1633781317081963300,7.73696337890625,-4.889168464353681,-8.468823186892271,-0.7385428230971097
1633781317101842400,7.756842529296875,-4.882148356458544,-8.47370862084627,-0.7288868137404322
1633781317121721300,7.776721435546875,-4.876428517507017,-8.477734223100542,-0.7203083704873919
1633781317141600300,7.796600341796875,-4.876372111144661,-8.478273152282833,-0.7143290768820793
1633781317161479200,7.816479248046875,-4.8778059433400625,-8.477754096844793,-0.7106812218990176
1633781317181357000,7.836357177734375,-4.8750119287073606,-8.47967834290564,-0.7069044798392802
1633781317201236200,7.856236328125,-4.869123162929713,-8.48359405504465,-0.7004773694012314
1633781317221115100,7.876115234375,-4.867050448308885,-8.485428869256376,-0.69260970476605
1633781317240994300,7.895994384765625,-4.870894264255464,-8.483761812826991,-0.685977719405666
1633781317260873200,7.915873291015625,-4.87544330586195,-8.481291623321175,-0.6841954390987753
1633781317280752000,7.935752197265625,-4.87717758230865,-8.480023795342445,-0.6875423383738846
1633781317300631300,7.95563134765625,-4.875039108975232,-8.480837449812888,-0.6926531055163592
1633781317320509200,7.97550927734375,-4.87006248960644,-8.483387134295702,-0.6964336469683796
1633781317340388400,7.995388427734375,-4.864666768042743,-8.486634153392911,-0.6945850964922458
1633781317360267300,8.015267333984376,-4.861346391448378,-8.48930132677555,-0.685170202415064
1633781317380146200,8.035146240234376,-4.860612231954932,-8.490640466424823,-0.6736836166303605
1633781317400025000,8.055025146484375,-4.858964464747905,-8.492200555348395,-0.6658661478124559
1633781317419904300,8.074904296875,-4.852155953776836,-8.496126788881421,-0.6654338208097964
1633781317439783200,8.094783203125,-4.843142918498814,-8.50120160792768,-0.6662810122236609
1633781317459661300,8.114661376953125,-4.838178866350651,-8.504083885365723,-0.6655657766263932
1633781317479540200,8.134540283203124,-4.838735038928688,-8.504020172479748,-0.6623132776364684
1633781317499419100,8.154419189453124,-4.837774084942042,-8.504925596886872,-0.6576956277731806
1633781317519298300,8.17429833984375,-4.827777591584622,-8.510887135639786,-0.6540259993497282
1633781317539177200,8.19417724609375,-4.81693792540133,-8.516990713211893,-0.6544795152708888
1633781317559056400,8.214056396484375,-4.8140556479632854,-8.51833686712384,-0.6581751549184321
1633781317578934300,8.233934326171875,-4.816119010233879,-8.516830554214119,-0.6625608957219868
1633781317598813200,8.253813232421875,-4.817592005395889,-8.515909347715974,-0.6636887307081372
1633781317618692000,8.273692138671874,-4.81811222987771,-8.51591519293487,-0.6598208762988448
1633781317638571300,8.2935712890625,-4.819229251208901,-8.515618255814909,-0.6554823356378823
1633781317658450200,8.3134501953125,-4.816571430176496,-8.517432611760496,-0.6514314528118819
1633781317678329300,8.333329345703126,-4.812480653731525,-8.520216689521074,-0.6452279950618743
1633781317698208000,8.3532080078125,-4.811747955542803,-8.520967215627431,-0.6407694082178175
1633781317718086100,8.373086181640625,-4.815995676115155,-8.51841227044761,-0.6428210069853812
1633781317737965000,8.392965087890625,-4.818006723676621,-8.516481594645976,-0.6532566224124282
1633781317757844200,8.41284423828125,-4.8184305020466445,-8.515121996730565,-0.6676982586104423
1633781317777723400,8.432723388671874,-4.822519817186892,-8.511746382817625,-0.6810615249872207
1633781317797602300,8.452602294921874,-4.8311780476778745,-8.505908178183436,-0.6925519832294433
1633781317817481200,8.472481201171876,-4.838147009907662,-8.501084119027853,-0.7030468545630574
1633781317837360000,8.492360107421876,-4.837406128412485,-8.500536422017216,-0.7146722642965614
1633781317857238300,8.51223828125,-4.830464054189622,-8.503963473856448,-0.7208443039949983
1633781317877117200,8.5321171875,-4.826144729685783,-8.50664642933011,-0.7180969780482351
1633781317896996400,8.551996337890625,-4.825826165255904,-8.507282973667978,-0.7126820403274148
1633781317916875000,8.571875,-4.823792029079795,-8.508635557320714,-0.7102971179522574
1633781317936754200,8.591754150390624,-4.817210312601923,-8.512657652443647,-0.706771647239849
1633781317956633300,8.61163330078125,-4.809778701296448,-8.517097680717706,-0.7038966032601892
1633781317976511200,8.63151123046875,-4.808979367612302,-8.517419752278924,-0.7054471937030553
1633781317996390100,8.65139013671875,-4.81247130138129,-8.514916245025395,-0.7118278346508741
1633781318016269300,8.671269287109375,-4.816020226034522,-8.512010586711764,-0.7225101183153688
1633781318036148200,8.691148193359375,-4.820179683801531,-8.508777011618017,-0.7327750533506274
1633781318056027100,8.711027099609375,-4.828483109505474,-8.503505208694934,-0.7392880885064601
1633781318075906300,8.73090625,-4.837932782635092,-8.497885615247487,-0.7421116214945912
1633781318095785200,8.75078515625,-4.846125149179994,-8.492852881777287,-0.7462680105216801
1633781318115664100,8.7706640625,-4.852161214473843,-8.48836784531772,-0.7579853363223373
1633781318135542800,8.790542724609375,-4.857682900504767,-8.48367004289031,-0.7750158930350095
1633781318155422000,8.810421875,-4.861599781687557,-8.47988584817648,-0.7916805390447378
1633781318175301000,8.830301025390625,-4.86043833669275,-8.479683603602647,-0.8009400964297354
1633781318195180000,8.850179931640625,-4.854234221355616,-8.483107148310541,-0.8023043705202638
1633781318215059000,8.870058837890625,-4.849929802159965,-8.485827513185143,-0.7995681504894048
1633781318234937900,8.889937744140624,-4.853882923699915,-8.483761812826991,-0.7974960203904659
1633781318254816000,8.90981591796875,-4.8611277802616355,-8.479556762352585,-0.7980760853007436
1633781318274695000,8.92969482421875,-4.864510408437252,-8.477387601619958,-0.8005120802760124
1633781318294574000,8.949573974609375,-4.863259239332377,-8.477855219131708,-0.80315558052212
1633781318314453000,8.969452880859375,-4.861460665477812,-8.478774087542295,-0.8043453017633407
1633781318334332000,8.989331787109375,-4.859359893806278,-8.47984376260042,-0.805773946326971
1633781318354210800,9.0092109375,-4.857478317843377,-8.480931557837128,-0.8056630332984029
1633781318374089000,9.0290888671875,-4.858133859142661,-8.480749771529435,-0.8036266320999711
1633781318393967900,9.0489677734375,-4.859842416626215,-8.479837332859635,-0.8029094968065619
1633781318413847000,9.068846923828126,-4.861218965676427,-8.478754213798046,-0.8060185687378049
1633781318433726000,9.088725830078126,-4.858488371668756,-8.480099198666215,-0.8083351751171052
1633781318453604900,9.10860498046875,-4.855704293908179,-8.481874976167083,-0.8064201352760195
1633781318473484000,9.128484130859375,-4.855688219556212,-8.482306353321672,-0.8019684165641665
1633781318493363000,9.148363037109375,-4.858037997552752,-8.480901162698865,-0.8026050339672715
1633781318513241000,9.168240966796875,-4.860037354676425,-8.479431090146303,-0.8060232449129223
1633781318533120000,9.1881201171875,-4.8596226363956925,-8.479777127104997,-0.8048702754855156
1633781318552999000,9.2079990234375,-4.858015201199055,-8.481014559945464,-0.8015390121709555
1633781318572877800,9.2278779296875,-4.85809820330739,-8.48089122582674,-0.802345652378723
1633781318592757000,9.247757080078125,-4.861559157416224,-8.478533849045634,-0.8062813843924552
1633781318612636000,9.267635986328125,-4.86277847007811,-8.4773852635324,-0.8109952611718326
1633781318632514000,9.28751416015625,-4.86361842803359,-8.476989542213081,-0.8100951705269515
1633781318652393000,9.30739306640625,-4.865857439132035,-8.476267073157429,-0.8041822201561182
1633781318672272000,9.32727197265625,-4.868966218802332,-8.474698800927401,-0.801889579174295
1633781318692151000,9.347151123046874,-4.87261801930815,-8.47195914683044,-0.8086284589752555
1633781318712030000,9.367030029296876,-4.874457801955938,-8.470095106524228,-0.8170392175111919
1633781318731909000,9.3869091796875,-4.874073478813469,-8.470045422163604,-0.8198360816881061
1633781318751787800,9.406787841796875,-4.869103289185464,-8.472973876830935,-0.8191060138478875
1633781318771666200,9.426666259765625,-4.8660482855290175,-8.474840255224704,-0.8179507793981582
1633781318791544800,9.446544921875,-4.864805884252489,-8.474906306198239,-0.8246280652049929
1633781318811424000,9.466424072265625,-4.862780515904724,-8.474858959925173,-0.8369741904284804
1633781318831303000,9.486302978515624,-4.86048539070487,-8.475379768928885,-0.8449846245352178
1633781318851182000,9.50618212890625,-4.860741995814442,-8.4750161963135,-0.847153200745955
1633781318871060700,9.526060791015626,-4.864317516213656,-8.472924776992201,-0.8475544019579887
1633781318890939000,9.54593896484375,-4.866318334642052,-8.47160317299962,-0.8492715811394155
1633781318910817800,9.56581787109375,-4.864912267236411,-8.471974344399571,-0.8536109985832124
1633781318930697000,9.585697021484375,-4.864541972619294,-8.471578623080253,-0.8596314279165118
1633781318950576000,9.605576171875,-4.865681498043239,-8.470415424519777,-0.8646358851402998
1633781318970455000,9.625455078125,-4.867425126840174,-8.468853582030535,-0.8701015301350503
1633781318990334000,9.645333984375,-4.869699793773889,-8.467055592697859,-0.8748547890767454
1633781319010212900,9.665212890625,-4.870943364094197,-8.46585907638967,-0.8794982309684157
1633781319030091000,9.685091064453125,-4.867526249127089,-8.467730715480446,-0.8804089891377836
1633781319049970000,9.704969970703125,-4.865058689969778,-8.469148181062936,-0.8804062857240438
1633781319069849000,9.72484912109375,-4.866979136638343,-8.467882106649876,-0.881969078061357
1633781319089728000,9.74472802734375,-4.872252108605205,-8.464220077010989,-0.8879930875912309
1633781319109606400,9.7646064453125,-4.877138711602986,-8.460981825742126,-0.8920121870394796
1633781319129485600,9.784485595703124,-4.880131171417236,-8.459280282521247,-0.8917840043067932
1633781319149363500,9.804363525390626,-4.88233277311474,-8.458020637848973,-0.8916847086507826
1633781319169242600,9.82424267578125,-4.8850873325198885,-8.456244275826215,-0.893448868779093
1633781319189121500,9.84412158203125,-4.885011344674229,-8.455726973953842,-0.898744856295362
1633781319209000700,9.864000732421875,-4.881406013658642,-8.45703688750863,-0.9059756112664937
1633781319228879400,9.88387939453125,-4.879749186362326,-8.457157883539795,-0.9137404000490903
1633781319248758500,9.903758544921875,-4.882807404889166,-8.454978201413153,-0.9175636115990579
1633781319268637400,9.923637451171874,-4.885926705953478,-8.452842942950129,-0.9206284790623932
1633781319288515600,9.943515625,-4.8851414007946845,-8.452751173013448,-0.9256164235427975
1633781319308394500,9.96339453125,-4.880840488730371,-8.454324121418594,-0.933907647352293
1633781319328273400,9.9832734375,-4.874884795196354,-8.457065529081225,-0.9401705802045762
1633781319348152300,10.00315234375,-4.870742873086035,-8.45936854532659,-0.940926367007941
1633781319368031500,10.023031494140625,-4.8683507172524925,-8.460702424278855,-0.9413103248242288
1633781319387910700,10.04291064453125,-4.867089611275494,-8.461102237251401,-0.944229207945615
1633781319407789600,10.06278955078125,-4.866328856036067,-8.461388068455458,-0.945580841750279
1633781319427667700,10.082667724609376,-4.865655194558203,-8.46216489804685,-0.942099502440542
1633781319447546400,10.10254638671875,-4.866947864717245,-8.46199655574262,-0.9369237072378397
1633781319467425500,10.122425537109375,-4.867940382885933,-8.461780282643437,-0.9337064987570047
1633781319487304400,10.142304443359375,-4.865735566318035,-8.462775138899683,-0.9361750808276236
1633781319507183600,10.16218359375,-4.860001698841154,-8.465809392029046,-0.9385313616301864
1633781319527062500,10.1820625,-4.855400050264596,-8.468756551396845,-0.93575517491512
1633781319546940700,10.201940673828124,-4.857447338183224,-8.468349724161625,-0.9287803674664348
1633781319566819300,10.2218193359375,-4.862828738960624,-8.466037355566025,-0.9216733850054443
1633781319586698500,10.241698486328126,-4.865520170001686,-8.465172263169288,-0.9153965697582811
1633781319606577400,10.261577392578126,-4.865405895972252,-8.46628753093481,-0.9056433836374431
1633781319626456600,10.28145654296875,-4.8645182994827625,-8.468179628291725,-0.8926335338082164
1633781319646335500,10.30133544921875,-4.86508177858442,-8.469005557721852,-0.8816482486091554
1633781319666213600,10.321213623046875,-4.865219725750387,-8.469344580417872,-0.8776222079634666
1633781319686092500,10.341092529296875,-4.865009297870099,-8.469270930659771,-0.8794920934885739
1633781319705971500,10.360971435546874,-4.865303020119667,-8.468783439403772,-0.8825619293879717
1633781319725850600,10.3808505859375,-4.868247841399908,-8.46707137478888,-0.8827504376973956
1633781319745729500,10.4007294921875,-4.872533848156035,-8.464920334234833,-0.8797279480710625
1633781319765608400,10.4206083984375,-4.873899875812232,-8.464323537385463,-0.8778981022953987
1633781319785487400,10.4404873046875,-4.8732431654691695,-8.464521690306068,-0.8796315750245004
1633781319805365500,10.460365478515625,-4.873192312064766,-8.46406751679778,-0.8842688794363289
1633781319825244400,10.480244384765625,-4.872625325831771,-8.463997374171019,-0.888057969520986
1633781319845123600,10.50012353515625,-4.8712464386939995,-8.464688279044628,-0.8890411353394388
1633781319865002500,10.52000244140625,-4.872219667640328,-8.464370883658528,-0.8867219716768712
1633781319884881400,10.53988134765625,-4.87517237996608,-8.463082597413658,-0.882790769707784
1633781319904760600,10.559760498046876,-4.878448625157773,-8.461596158248186,-0.8789281759954989
1633781319924638500,10.579638427734375,-4.878037121747433,-8.462085987591744,-0.8764913773026317
1633781319944517600,10.599517578125,-4.872731708815693,-8.465584351101517,-0.8722087315473706
1633781319964396500,10.619396484375,-4.863503277221322,-8.472018183541298,-0.8611797533370554
1633781319984275500,10.639275390625,-4.850581544066966,-8.481068920481205,-0.8448113137949258
1633781320004154400,10.659154296875,-4.839368368396163,-8.489116617858409,-0.8281353426735848
1633781320024033500,10.679033447265626,-4.837448213988543,-8.49122089666128,-0.8177107600972056
1633781320043912400,10.698912353515626,-4.841873921476305,-8.488919049459696,-0.8154144658535718
1633781320063790600,10.71879052734375,-4.844497840239107,-8.487338502269983,-0.8162810926202684
1633781320083669500,10.73866943359375,-4.841800271718204,-8.488870534142851,-0.8163483857028185
1633781320103548400,10.75854833984375,-4.839809974683821,-8.490149468037485,-0.8148485025338829
1633781320123428400,10.778428466796875,-4.840285190980136,-8.489851361873745,-0.8151280501276255
1633781320143307500,10.7983076171875,-4.84125695862174,-8.48928437564075,-0.8152725731648505
1633781320163186400,10.8181865234375,-4.842637307064235,-8.4884993627429,-0.8152509458549321
1633781320183064600,10.838064697265626,-4.842080549964308,-8.488885731711983,-0.8145369523666799
1633781320202943200,10.857943115234375,-4.839549862442911,-8.490359895917774,-0.8142088163908571
1633781320222822400,10.877822509765625,-4.836908115762472,-8.491862117174268,-0.8142451298132538
1633781320242701300,10.897701416015625,-4.835748132072389,-8.492519704300165,-0.8142631769265979
1633781320262580500,10.91758056640625,-4.836278585687279,-8.492430856972932,-0.8120406785715371
1633781320282459100,10.937459228515625,-4.838075113715231,-8.492018769040703,-0.805623870331794
1633781320302337500,10.957337646484374,-4.838048225708306,-8.49265998955369,-0.7990045983225107
1633781320322216200,10.97721630859375,-4.837319034650921,-8.493575935354828,-0.7936566614232957
1633781320342095400,10.997095458984376,-4.836702948579192,-8.494365039905905,-0.7889595896482468
1633781320361974500,11.016974609375,-4.834727849113941,-8.495977735799551,-0.7836815761800855
1633781320381853400,11.036853515625,-4.832416941823065,-8.497952835264801,-0.7764859655875712
1633781320401732400,11.056732421875,-4.831104105658829,-8.499338152143359,-0.7694673189971596
1633781320421611300,11.076611328125,-4.829512452553212,-8.500449328255653,-0.7671824229303746
1633781320441489400,11.096489501953124,-4.828320612420141,-8.501142571216821,-0.7669906266853213
1633781320461368300,11.116368408203124,-4.829018823817372,-8.500898825588822,-0.7652972667708993
1633781320481247500,11.13624755859375,-4.832798342356085,-8.49898042474687,-0.7627447327438741
1633781320501126400,11.15612646484375,-4.837211774884164,-8.49677853078842,-0.7592932771157472
1633781320521005300,11.17600537109375,-4.841049161089956,-8.494965928408503,-0.7551105846036225
1633781320540884500,11.195884521484375,-4.841779228930175,-8.49480518488884,-0.7522288186222315
1633781320560762400,11.215762451171875,-4.841193245735764,-8.495091600614785,-0.7527698666963726
1633781320580641300,11.235641357421875,-4.839793315809965,-8.495510118287802,-0.7570209482695907
1633781320600520400,11.2555205078125,-4.840151043206453,-8.494686526945232,-0.7639550583817064
1633781320620399400,11.2753994140625,-4.843352177335322,-8.4925460077852,-0.7674516683258116
1633781320640278300,11.2952783203125,-4.848003802533447,-8.489877665358781,-0.7675973604068159
1633781320660157400,11.315157470703125,-4.851883858837187,-8.4877172724545,-0.7669789362475276
1633781320680036400,11.335036376953125,-4.850845163439214,-8.488179629269242,-0.7684403140369802
1633781320699914500,11.35491455078125,-4.846671092624962,-8.490431792110204,-0.7698993537388742
1633781320719793400,11.37479345703125,-4.843945174792409,-8.4917808686316,-0.7721588231034576
1633781320739672300,11.39467236328125,-4.8441956424221395,-8.491554658660291,-0.7730795181449502
1633781320759551200,11.41455126953125,-4.846569093555212,-8.49013836212158,-0.7737525951009243
1633781320779430400,11.434430419921876,-4.850120356296003,-8.488026484534144,-0.7746694907501339
1633781320799309600,11.4543095703125,-4.852710665050148,-8.486478670570254,-0.7754074496358633
1633781320819187500,11.4741875,-4.8531376582905645,-8.485783089521528,-0.7803441023204475
1633781320839066400,11.49406640625,-4.856479369933903,-8.483122345879673,-0.7884295013595372
1633781320858945300,11.5139453125,-4.85989823846668,-8.480242991051078,-0.7982866593115031
1633781320878824400,11.533824462890625,-4.8550662882655855,-8.482633685579895,-0.802273244729638
1633781320898703400,11.553703369140624,-4.843939037312567,-8.489653793475032,-0.7952498488988727
1633781320918582500,11.57358251953125,-4.836689504575729,-8.494918582135439,-0.7830663668911904
1633781320938461200,11.593461181640626,-4.836012335966527,-8.495824006542563,-0.7773903670813888
1633781320958339300,11.61333935546875,-4.839091305020451,-8.493378951478004,-0.7849171823896467
1633781320978218200,11.63321826171875,-4.842703065776825,-8.490054190969467,-0.7984956989523023
1633781320998097400,11.653097412109375,-4.846915715035796,-8.486742289942503,-0.8080843421611934
1633781321017976300,11.672976318359375,-4.847901218941807,-8.485617085304856,-0.8139659475456923
1633781321037855500,11.69285546875,-4.847141925007104,-8.485883627286553,-0.8157154215615242
1633781321057734400,11.712734375,-4.846504211625456,-8.486198100063204,-0.8162200100827962
1633781321077612300,11.7326123046875,-4.845644087664783,-8.486546475109458,-0.8177075452268123
1633781321097491200,11.7524912109375,-4.844012394809723,-8.487017015230656,-0.8224844773050397
1633781321117370000,11.7723701171875,-4.843021337945759,-8.486990127223729,-0.828570738416165
1633781321137249300,11.792249267578125,-4.843501230417192,-8.486102822995186,-0.8348309678547083
1633781321157128200,11.812128173828125,-4.847983636528253,-8.482820732584596,-0.8421315001264214
1633781321177007000,11.832007080078125,-4.854783087410032,-8.47839297927022,-0.8475289752557873
1633781321196885000,11.851885009765626,-4.858148764450847,-8.476307405167818,-0.8491107645545154
1633781321216764200,11.87176416015625,-4.855372285474837,-8.478288349851965,-0.8452046970266849
1633781321236643300,11.891643310546876,-4.851005322436988,-8.48126298174858,-0.840417243554443
1633781321256522200,11.911522216796875,-4.849650692957639,-8.482176004940271,-0.8390178981505334
1633781321276401400,11.9314013671875,-4.850183776921034,-8.481409696742892,-0.8436858899615705
1633781321296280000,11.951280029296875,-4.850839318220317,-8.4805364210397,-0.8486752226814627
1633781321316158200,11.971158203125,-4.8491690469205375,-8.481229079478979,-0.8512944652691483
1633781321336037000,11.991037109375,-4.844670274196565,-8.483748368823528,-0.8518089175973087
1633781321355916300,12.010916259765626,-4.840578036446869,-8.485721714723109,-0.8554010238051414
1633781321375795200,12.030795166015626,-4.841432022927701,-8.484655546796322,-0.8611267810408025
1633781321395674000,12.050674072265625,-4.84716881301403,-8.480918698355556,-0.8656459389656782
1633781321415553000,12.070552978515625,-4.851602996069192,-8.478329850906134,-0.8661696705788373
1633781321435431200,12.09043115234375,-4.851641866774857,-8.47885708965063,-0.8607774561464786
1633781321455310000,12.11031005859375,-4.849560092064738,-8.480773152405023,-0.8535980660364031
1633781321475189200,12.130189208984374,-4.850653440259396,-8.48046218675971,-0.850478180450201
1633781321495068400,12.150068359375,-4.854697454953193,-8.478028822132945,-0.8516608143635094
1633781321514947000,12.169947021484376,-4.8563931529551745,-8.4769205686301,-0.8530273534763604
1633781321534826200,12.189826171875,-4.856109952099621,-8.477577571234107,-0.8480942809883505
1633781321554705200,12.209705078125,-4.854961658847332,-8.47889508357346,-0.8414685792382806
1633781321574583300,12.229583251953125,-4.8561079062730075,-8.478663612905144,-0.8371858604177832
1633781321594462200,12.249462158203125,-4.86160416560173,-8.475955522990226,-0.832689718042314
1633781321614341400,12.26934130859375,-4.868689447687566,-8.472595691168308,-0.8254471995681524
1633781321634220000,12.289219970703124,-4.875012220968306,-8.469616967618466,-0.8186753673456609
1633781321654099200,12.30909912109375,-4.876146777956188,-8.46878928462267,-0.8204887734431773
1633781321673978400,12.328978271484376,-4.874043668197095,-8.469238197433947,-0.8283077035658061
1633781321693856300,12.348856201171875,-4.869228961391746,-8.471245445603131,-0.8360650396943092
1633781321713735200,12.368735107421875,-4.866470602594315,-8.47262608630657,-0.8381278905082493
1633781321733614000,12.388614013671875,-4.869084584484994,-8.47154530533254,-0.833850724645704
1633781321753493200,12.4084931640625,-4.874064710985124,-8.468961134058237,-0.8310071717828512
1633781321773372200,12.4283720703125,-4.873634210613369,-8.469182667854428,-0.8312691837199032
1633781321793251300,12.448251220703124,-4.8699175281777975,-8.471413203385472,-0.8303228427805006
1633781321813129200,12.468129150390626,-4.869208210864663,-8.472252576819061,-0.8259049532730132
1633781321833008400,12.48800830078125,-4.871625501139461,-8.470974227446318,-0.8247697386980056
1633781321852887000,12.507886962890625,-4.873823303444683,-8.469435181310772,-0.8275849422492086
1633781321872766200,12.52776611328125,-4.871910163299739,-8.47012900879383,-0.8317419888634234
1633781321892645000,12.54764501953125,-4.8671428027674555,-8.472873923587798,-0.8316857286315411
1633781321912524300,12.567524169921874,-4.866367726741731,-8.47373141719997,-0.8274855004627257
1633781321932403200,12.5874033203125,-4.870820906758308,-8.471483930534124,-0.8242799824196845
1633781321952281300,12.60728125,-4.877705113314092,-8.467577570745348,-0.8237203027103096
1633781321972160000,12.627159912109375,-4.879013565564155,-8.466454704195261,-0.8275050819460302
1633781321992039200,12.6470390625,-4.875160105006397,-8.468336864680051,-0.8309423629183321
1633781322011918300,12.66691845703125,-4.872771748565137,-8.469503570371865,-0.8330592089418322
1633781322031797200,12.68679736328125,-4.874481182831525,-8.468442663142085,-0.8338490441452712
1633781322051676200,12.70667626953125,-4.876447222207486,-8.466995386943221,-0.837037464923039
1633781322071554300,12.72655419921875,-4.873851945017278,-8.468017715728282,-0.8418078941952437
1633781322091433200,12.74643310546875,-4.870592943221331,-8.469570790389179,-0.8450327745258808
1633781322111315000,12.76631494140625,-4.869665599243342,-8.469913904738426,-0.8469280867531895
1633781322131194000,12.786194091796874,-4.870506726242602,-8.469294896057248,-0.8482919224523008
1633781322151073000,12.806072998046876,-4.872249478256702,-8.468172614029049,-0.849482155150175
1633781322170952200,12.8259521484375,-4.8718353444978595,-8.468212946039438,-0.8514511171355843
1633781322190830000,12.845830078125,-4.869724343693256,-8.469316523367166,-0.8525501644186675
1633781322210709000,12.865708984375,-4.867653674899041,-8.470554540729522,-0.8520816701240838
1633781322230588200,12.885588134765625,-4.863373221100867,-8.472984982746839,-0.8523472622577101
1633781322250467000,12.905467041015624,-4.85699696406722,-8.476466395121813,-0.8541055771671235
1633781322270346200,12.92534619140625,-4.852682315738499,-8.478841307559609,-0.8550462190181016
1633781322290225200,12.94522509765625,-4.8531981563061475,-8.478734340053796,-0.8531891929745674
1633781322310103300,12.965103271484375,-4.852984805816412,-8.47932470716238,-0.8485097299214452
1633781322329982000,12.98498193359375,-4.850117433686554,-8.4816189555794,-0.841966738018766
1633781322349861000,13.004861083984375,-4.847269058518111,-8.483794546052813,-0.8364243014607579
1633781322369740000,13.024739990234375,-4.843832946589589,-8.485958446088432,-0.8343721912365406
1633781322389619200,13.044619140625,-4.83786264000833,-8.489467330992222,-0.8333082883320748
1633781322409497900,13.064497802734374,-4.832168520019948,-8.493035252606868,-0.8299950721308589
1633781322429377000,13.084376953125,-4.8320618447750805,-8.49373843244016,-0.8233845679499209
1633781322449255000,13.1042548828125,-4.837351183354854,-8.4914067746222,-0.8163438556581735
1633781322469134000,13.124134033203125,-4.840585635231435,-8.489981710255146,-0.811980692012608
1633781322489013200,13.14401318359375,-4.8389001663625235,-8.491006377127766,-0.8113206937339157
1633781322508892200,13.16389208984375,-4.83455220028609,-8.49334738729596,-0.8127427624262868
1633781322528771000,13.18377099609375,-4.831258127176762,-8.495137777844072,-0.8136166226513684
1633781322548650000,13.20364990234375,-4.830010465203225,-8.496039695119856,-0.8116035292632877
1633781322568528100,13.223528076171876,-4.830988078063726,-8.496175304198264,-0.8043276199761777
1633781322588407000,13.243406982421876,-4.832369011028111,-8.49620336124897,-0.7956969350792467
1633781322608286200,13.2632861328125,-4.832329263539612,-8.497069038167595,-0.7866383801590651
1633781322628165000,13.2831650390625,-4.831141515059769,-8.498575935599208,-0.7776007218964397
1633781322648044000,13.3030439453125,-4.831210196381807,-8.499504156360029,-0.7669514637187123
1633781322667923000,13.3229228515625,-4.830760114526749,-8.501206868624687,-0.7507420141305774
1633781322687801000,13.342801025390624,-4.832689913545549,-8.501364689534903,-0.736405957198888
1633781322707680000,13.362679931640624,-4.837004854135215,-8.499916828814149,-0.7247016370102762
1633781322727559200,13.38255908203125,-4.837171735134721,-8.50040022841692,-0.7178823854494839
1633781322747438000,13.40243798828125,-4.834791269738972,-8.501813602346182,-0.7171759176805615
1633781322767317000,13.42231689453125,-4.832104222612083,-8.50312293137908,-0.7197635230209678
1633781322787196200,13.442196044921875,-4.830905952738225,-8.503518068176508,-0.7231271542351693
1633781322807074000,13.462073974609375,-4.833366497632861,-8.502099433550239,-0.7233607437953352
1633781322826953200,13.481953125,-4.836758478158712,-8.500276894298196,-0.7221149084527045
1633781322846832000,13.50183203125,-4.837637891341745,-8.500168757748604,-0.7174733662571757
1633781322866711000,13.5217109375,-4.834404608508944,-8.502495154869555,-0.7116759320247918
1633781322886590000,13.54158984375,-4.833064884337783,-8.503497609910369,-0.7087913164991885
1633781322906469000,13.56146923828125,-4.833656128229201,-8.502972709253429,-0.7110594806268811
1633781322926347000,13.581346923828125,-4.833000294668972,-8.503134037294984,-0.7135740937963128
1633781322946226200,13.60122607421875,-4.828841421423852,-8.505960785153508,-0.7080320956297218
1633781322966105000,13.62110498046875,-4.823490123523771,-8.510343530282377,-0.6916502120841294
1633781322985984000,13.64098388671875,-4.81899924184531,-8.514377900364995,-0.6730639503620565
1633781323005863200,13.66086328125,-4.818590076522529,-8.515437054029107,-0.6624908992256969
1633781323025742000,13.6807421875,-4.823572248849272,-8.512928286078571,-0.6584649316452443
1633781323045620200,13.7006201171875,-4.830609892401099,-8.508727911779284,-0.6611638153403997
1633781323065499100,13.7204990234375,-4.83434644858092,-8.506338970816135,-0.6645882368311286
1633781323085378000,13.7403779296875,-4.835679158489405,-8.5056948276937,-0.6631307314991951
1633781323105257000,13.760257080078125,-4.838221244187653,-8.504622230026126,-0.6583272767402232
1633781323125132300,13.78013232421875,-4.840153089033067,-8.503796885117888,-0.6547883620243519
1633781323145011500,13.800011474609375,-4.839034606397152,-8.504418816408515,-0.654962695677951
1633781323164889300,13.819889404296875,-4.838013738916814,-8.504957745590806,-0.6555093697752803
1633781323184768500,13.8397685546875,-4.84058592749238,-8.5034561088562,-0.6560177576888352
1633781323204647400,13.8596474609375,-4.843594169397652,-8.501544722276925,-0.6585679536283016
1633781323224526300,13.8795263671875,-4.844751522739231,-8.500780752167104,-0.6599095044303686
1633781323244405200,13.8994052734375,-4.843657297761738,-8.50157336384952,-0.6577475040908902
1633781323264284400,13.919284423828126,-4.842970776802301,-8.50222685932219,-0.6543297315366566
1633781323284163600,13.93916357421875,-4.843485156065225,-8.50207722171843,-0.6524640837952494
1633781323304041500,13.95904150390625,-4.8441667085886,-8.501635907691716,-0.6531544772122055
1633781323323920400,13.97892041015625,-4.844107964138686,-8.501433663117885,-0.6562251168292016
1633781323343799300,13.99879931640625,-4.843613750880956,-8.501382809713482,-0.6605146307166665
1633781323363678500,14.018678466796874,-4.843091480572522,-8.501686761096119,-0.6604341128263622
1633781323383557400,14.038557373046874,-4.841559448699653,-8.50302940787673,-0.654350701259449
1633781323403436500,14.0584365234375,-4.841170157121121,-8.503910282364487,-0.6457225005805493
1633781323423314400,14.078314453125,-4.84245902788788,-8.503453186246752,-0.6420639050077647
1633781323443193300,14.098193359375,-4.843019292119145,-8.502887953579425,-0.6453386158294976
1633781323463072300,14.118072265625,-4.841094169275462,-8.503470137381553,-0.6520595215823501
1633781323482951400,14.137951416015625,-4.838815702949464,-8.504415309277176,-0.6566230301056056
1633781323502830300,14.157830322265625,-4.834969841176271,-8.506451783540845,-0.6585839549150317
1633781323522709200,14.177709228515624,-4.834488487400114,-8.506654028114676,-0.6595061843264848
1633781323542587400,14.19758740234375,-4.837344169092178,-8.504933780193328,-0.6607474896244704
1633781323562466300,14.21746630859375,-4.839475920423865,-8.503650170123576,-0.6616519641835242
1633781323582345500,14.237345458984375,-4.839679334041476,-8.503546125227212,-0.6615116058647632
1633781323602224400,14.257224365234375,-4.839505146518349,-8.503538526442647,-0.6628842093922197
1633781323622103600,14.277103515625,-4.839871057221293,-8.503073247018456,-0.666170172260329
1633781323641982200,14.296982177734375,-4.839085752062499,-8.503341542565822,-0.6684453506506979
1633781323661860400,14.3168603515625,-4.8372103135794395,-8.50450123399496,-0.6672593557365238
1633781323681739300,14.3367392578125,-4.837569502280652,-8.50465028707683,-0.6627376405283808
1633781323701618400,14.356618408203126,-4.840282560631633,-8.503442080330847,-0.6584267915919423
1633781323721497300,14.376497314453125,-4.84242220300883,-8.50218944992125,-0.6588675941620021
1633781323741376500,14.39637646484375,-4.84203174238652,-8.502039227795601,-0.6636604544617235
1633781323761255200,14.416255126953125,-4.841297290632128,-8.502222767668963,-0.6666602207995951
1633781323781133300,14.43613330078125,-4.843621934187412,-8.501285194557905,-0.6617082974806427
1633781323801012200,14.45601220703125,-4.846692135412991,-8.500309627524018,-0.6516819935068487
1633781323820891400,14.475891357421874,-4.846517363367974,-8.501103992772101,-0.6425733888998627
1633781323840770600,14.4957705078125,-4.845725043946504,-8.501526602098345,-0.6429535473238677
1633781323860649500,14.5156494140625,-4.84662929930985,-8.500257605075836,-0.6528246607359498
1633781323880528400,14.5355283203125,-4.847312897659838,-8.498922557079792,-0.6650214406166225
1633781323900406300,14.55540625,-4.845609893134236,-8.4992791154325,-0.6728310914542526
1633781323920285400,14.575285400390625,-4.845106619787216,-8.499441612517833,-0.6744008249890059
1633781323940164400,14.595164306640624,-4.847613341911137,-8.498166770276427,-0.6724559745315462
1633781323960043500,14.61504345703125,-4.8495180064886805,-8.496898357775807,-0.6747424780335277
1633781323979922200,14.634922119140626,-4.8468514176279305,-8.49773013242483,-0.6833807617150247
1633781323999801300,14.65480126953125,-4.840756023362279,-8.500339438140392,-0.6940463865056633
1633781324019679200,14.67467919921875,-4.836295829083025,-8.502243225935102,-0.7017781498014927
1633781324039558400,14.694558349609375,-4.834457507739961,-8.50304869709909,-0.7046707294378429
1633781324059437300,14.714437255859375,-4.835136429914832,-8.502802028861641,-0.7029935169406235
1633781324079316500,14.73431640625,-4.835582712377607,-8.502624334207177,-0.7020694608982652
1633781324099195400,14.7541953125,-4.83656587819606,-8.501794897645711,-0.7053360614787787
1633781324119074300,14.77407421875,-4.83738771597296,-8.501081780940293,-0.7082826363246888
1633781324138952200,14.7939521484375,-4.837721770232916,-8.500898241066933,-0.7082102286756038
1633781324158831400,14.813831298828125,-4.83546580799967,-8.50233850300312,-0.7063250725161284
1633781324178710300,14.833710205078125,-4.83101847320199,-8.50487357443869,-0.7062432394515723
1633781324198589400,14.85358935546875,-4.826446342980861,-8.507325059244037,-0.7079665561128408
1633781324218468000,14.873468017578125,-4.825630934944749,-8.507679864031076,-0.7092569612495601
1633781324238347300,14.89334716796875,-4.82970300668925,-8.50536106569469,-0.7093500463604927
1633781324258225200,14.91322509765625,-4.83180114801228,-8.503971657162904,-0.7117186751879752
1633781324278104300,14.933104248046876,-4.828560558655858,-8.505459849894047,-0.7159316167078912
1633781324297983200,14.952983154296875,-4.824419805589318,-8.507581664353609,-0.7186076309841126
1633781324317862400,14.9728623046875,-4.824392040799558,-8.507786247014998,-0.7163730037998408
1633781324337741000,14.992740966796875,-4.82734416860342,-8.506445938321948,-0.7123881719473749
1633781324357620200,15.0126201171875,-4.8311628501087425,-8.504479606685042,-0.709982279849425
1633781324377499400,15.03249951171875,-4.8344323732987045,-8.502587509328126,-0.7103842117138206
1633781324397377300,15.052377197265624,-4.838222997753322,-8.500271633601189,-0.7122996899463236
1633781324417256400,15.07225634765625,-4.841054421786963,-8.498362000587582,-0.715837289487943
1633781324437135000,15.092135009765625,-4.841671384641528,-8.498088444343209,-0.7149167405769229
1633781324457014300,15.11201416015625,-4.839827510340512,-8.499516431319712,-0.7104112458512186
1633781324476893200,15.13189306640625,-4.841897886873781,-8.49855080115795,-0.7078513322353363
1633781324496771300,15.151771240234375,-4.848530749017,-8.49481921341419,-0.7072299854665994
1633781324516650200,15.171650146484374,-4.854841247338056,-8.490970721292495,-0.7101504760231823
1633781324536529400,15.191529296875,-4.855843702378869,-8.489832072651385,-0.7168805149305612
1633781324556408000,15.211407958984376,-4.851659694692493,-8.491523679000139,-0.72512366181463
1633781324576287200,15.231287353515626,-4.849333882093429,-8.492679863297939,-0.7271439886610954
1633781324596166100,15.251166259765625,-4.852691668088734,-8.49114900046885,-0.7226009384039789
1633781324616044300,15.271044189453125,-4.862710373277962,-8.486004623317719,-0.7156611292034387
1633781324635923200,15.290923095703125,-4.871403675082326,-8.481144908326863,-0.7141434181168675
1633781324655802400,15.31080224609375,-4.87076128552556,-8.481091132313013,-0.7191345044024289
1633781324675681300,15.330681396484374,-4.8672237590491765,-8.482858141985535,-0.7222341509182005
1633781324695560200,15.350560302734374,-4.8677910375431175,-8.482771048223972,-0.7194325375009327
1633781324715439400,15.370439453125,-4.871942312003672,-8.480858492600918,-0.7138610209789127
1633781324735317200,15.390317138671875,-4.877542616228759,-8.477976215162872,-0.7098512738808989
1633781324755196400,15.410196533203125,-4.882656890502572,-8.475029055795073,-0.7098859798680991
1633781324775075000,15.430074951171875,-4.885542967332899,-8.473167353576422,-0.7122452563453465
1633781324794954200,15.449954345703125,-4.885387484510242,-8.472941728127003,-0.7159713641963898
1633781324814833200,15.469833251953125,-4.88541203442961,-8.47257523290217,-0.720140320444107
1633781324834712300,15.48971240234375,-4.886043318070471,-8.472159053316712,-0.7207636399742215
1633781324854591500,15.509591552734374,-4.886697690325975,-8.47177326886952,-0.7208442309297621
1633781324874469400,15.529469482421876,-4.886700905196369,-8.471687344151734,-0.7218282004658132
1633781324894348000,15.54934814453125,-4.886413320426643,-8.471559918379784,-0.7252687693737447
1633781324914227200,15.569227294921875,-4.886019937194884,-8.471271749088167,-0.731265598635748
1633781324934106400,15.5891064453125,-4.887124391305447,-8.470283322572708,-0.7353243725072592
1633781324953985300,15.6089853515625,-4.88931021091193,-8.468873455774784,-0.7370265002500266
1633781324973864200,15.6288642578125,-4.893122170415521,-8.466763916274905,-0.7359662506073713
1633781324993742300,15.648742431640626,-4.896440793444216,-8.465103874108195,-0.7329794168163091
1633781325013621200,15.668621337890626,-4.896583124524355,-8.46532073172927,-0.7295201432079076
1633781325033500200,15.688500244140625,-4.899423900908231,-8.464060502535105,-0.7250525693397969
1633781325053379300,15.70837939453125,-4.905993926948309,-8.46054226528108,-0.7216906916912644
1633781325073258200,15.72825830078125,-4.908997200417518,-8.458781685349345,-0.721907841573283
1633781325093137200,15.74813720703125,-4.907306178590655,-8.459593586254119,-0.723893316302076
1633781325113015600,15.768015625,-4.9046203005075455,-8.460953184169531,-0.7261915102418511
1633781325132894500,15.78789453125,-4.903797293686867,-8.461296883040665,-0.7277462654031813
1633781325152773600,15.807773681640626,-4.906521750214695,-8.459605276691914,-0.7290414197802543
1633781325172652500,15.827652587890626,-4.9116012454360725,-8.456520170158146,-0.7306283236455172
1633781325192531700,15.84753173828125,-4.916235334977507,-8.453660104551911,-0.7325619220566004
1633781325212410600,15.86741064453125,-4.918671622213721,-8.452259005582333,-0.7323674954630434
1633781325232288500,15.88728857421875,-4.918979665249585,-8.452201722437144,-0.7309555097732693
1633781325252167700,15.907167724609375,-4.919192431217431,-8.452143854770064,-0.730195704381913
1633781325272046600,15.927046630859374,-4.91949345999062,-8.451967329159379,-0.7302128747124225
1633781325291925800,15.94692578125,-4.919702134305238,-8.451822952252625,-0.7304792705636471
1633781325311804400,15.966804443359376,-4.919348498561978,-8.45213157981038,-0.7292947369541972
1633781325331683600,15.98668359375,-4.921506553378701,-8.451278177851439,-0.7246028528109193
1633781325351561500,16.0065615234375,-4.926131290569901,-8.449134736081957,-0.7181452741693705
1633781325371440600,16.026440673828127,-4.930530402311683,-8.447178341317176,-0.7109417725313455
1633781325391319600,16.046319580078126,-4.9322155789196485,-8.446553487417102,-0.7066664332997054
1633781325411198700,16.06619873046875,-4.930878777357935,-8.447305767089128,-0.7070053829304873
1633781325431077400,16.086077392578126,-4.928381699845194,-8.448615096122026,-0.7087601176433265
1633781325450956500,16.10595654296875,-4.926704706543684,-8.449433426767587,-0.7106697506569325
1633781325470834400,16.12583447265625,-4.926837977534532,-8.449207801318169,-0.7124135986495763
1633781325490713600,16.145713623046873,-4.925557290074229,-8.449912734717131,-0.7129041586454957
1633781325510592800,16.1655927734375,-4.921197341299057,-8.452644790029526,-0.7106180935349315
1633781325530471700,16.1854716796875,-4.915692314141989,-8.45615893563032,-0.7069077677749097
1633781325550350600,16.2053505859375,-4.91367454457879,-8.457405720821022,-0.7060212672639637
1633781325570229500,16.2252294921875,-4.914581138029694,-8.45670078742206,-0.7081541145741939
1633781325590107600,16.245107666015624,-4.914658294919133,-8.456403850302099,-0.7111709781773388
1633781325609986600,16.264986572265624,-4.910749012520909,-8.458599314519763,-0.7120492953818292
1633781325629865700,16.28486572265625,-4.906397831574082,-8.461311496087909,-0.7098177369374782
1633781325649744400,16.304744384765623,-4.903886141014099,-8.463158585259318,-0.7051523024097085
1633781325669623600,16.32462353515625,-4.902159463351965,-8.464536887875198,-0.7005950044315308
1633781325689501400,16.34450146484375,-4.897963180705904,-8.467039810606837,-0.6997029509626329
1633781325709380600,16.364380615234374,-4.893706692305207,-8.469198449945448,-0.7033427687697112
1633781325729259500,16.384259521484374,-4.890763624590635,-8.470498426628112,-0.708132633394748
1633781325749138700,16.404138671875,-4.886844697581231,-8.472565296030044,-0.7104655333217234
1633781325769017600,16.424017578125,-4.880219434222579,-8.476513741394877,-0.7089142122264951
1633781325788896500,16.443896484375,-4.8740717252478,-8.480322486028074,-0.7056555757567287
1633781325808775700,16.463775634765625,-4.87119938468188,-8.482077805262804,-0.7043890629522502
1633781325828653600,16.483653564453125,-4.87125549878329,-8.481728261172771,-0.7081897704094648
1633781325848532700,16.50353271484375,-4.8702480753064155,-8.481666886374354,-0.7158181463960558
1633781325868411600,16.52341162109375,-4.86718108895123,-8.482930622699856,-0.7216686259899288
1633781325888290600,16.54329052734375,-4.862869947753846,-8.485425946646929,-0.721403910639137
1633781325908169500,16.56316943359375,-4.859994976839423,-8.487446638819575,-0.717005602614954
1633781325928047600,16.583047607421875,-4.859483227925002,-8.487955172863602,-0.7144396245844662
1633781325947926500,16.602926513671875,-4.858621642659604,-8.487912502765655,-0.7207763533253222
1633781325967805700,16.6228056640625,-4.853784139500558,-8.489719259926677,-0.7320164900682866
1633781325987684600,16.6426845703125,-4.846025488197803,-8.493436819145083,-0.7402318721625953
1633781326007563500,16.6625634765625,-4.842700727689266,-8.495452250620723,-0.7388673788763582
1633781326027442700,16.682442626953126,-4.846095338563621,-8.49409265270531,-0.7322109166618436
1633781326047320600,16.702320556640625,-4.849021455143392,-8.492648299115896,-0.729584732876718
1633781326067199500,16.722199462890625,-4.846827452230453,-8.493490595158933,-0.7343501206476241
1633781326087078700,16.74207861328125,-4.840756315623223,-8.496569271951913,-0.7387614342838525
1633781326106957600,16.76195751953125,-4.83504641354382,-8.499792910173534,-0.7390714500810951
1633781326126836500,16.78183642578125,-4.832931613346934,-8.501208037668466,-0.7366350897796452
1633781326146715400,16.80171533203125,-4.833744975556433,-8.500729314240813,-0.7368066469542681
1633781326166593500,16.821593505859376,-4.8332060463741415,-8.500863754275441,-0.7387911718349903
1633781326186472400,16.841472412109376,-4.830689971899986,-8.502254916372895,-0.739238842537254
1633781326206351600,16.8613515625,-4.829365445297956,-8.503257955935597,-0.7363507929455488
1633781326226230500,16.88123046875,-4.831138300189376,-8.502483464431762,-0.7336636727534234
1633781326246109400,16.901109375,-4.834915188379585,-8.500395552241802,-0.7329775901854038
1633781326265988600,16.920988525390626,-4.839095396673679,-8.498139297747612,-0.7315544255144893
1633781326285866500,16.940866455078126,-4.841025195692479,-8.497462421399355,-0.7266292440719903
1633781326305745700,16.96074560546875,-4.839249710452556,-8.499079208946227,-0.7195183160882442
1633781326325624600,16.98062451171875,-4.83894400550425,-8.499760761469602,-0.7134829814467579
1633781326345503500,17.00050341796875,-4.842462827280164,-8.497997258928418,-0.7106131250988692
1633781326365382400,17.02038232421875,-4.84957470511198,-8.494116618102789,-0.7085212673861533
1633781326385261600,17.040261474609373,-4.855312956503034,-8.491024497306347,-0.7062836445271968
1633781326405139500,17.060139404296876,-4.860359426237642,-8.488636140865086,-0.7002546665612608
1633781326425018600,17.0800185546875,-4.862354399447143,-8.487969785910844,-0.6944474415872246
1633781326444897500,17.0998974609375,-4.861618486388028,-8.488607499292492,-0.6917965617522597
1633781326464776400,17.1197763671875,-4.860435414083302,-8.48935568731129,-0.6909434520542621
1633781326484655600,17.139655517578124,-4.862353814925253,-8.488161509090661,-0.692109938550368
1633781326504534500,17.159534423828124,-4.86726613688618,-8.485112058392167,-0.6949617477849126
1633781326524412400,17.179412353515627,-4.870443013356626,-8.482918347740172,-0.699473233859986
1633781326544291600,17.19929150390625,-4.867856211733818,-8.484118371179699,-0.7029284158151596
1633781326564170500,17.21917041015625,-4.863995152391493,-8.486459381347894,-0.7013995257474481
1633781326584049400,17.23904931640625,-4.862696052491665,-8.487706751060486,-0.6952595616877079
1633781326603928600,17.258928466796874,-4.864056819450855,-8.487377665236592,-0.6897496391598135
1633781326623807500,17.278807373046874,-4.865689973610639,-8.48654179893434,-0.6885076762747019
1633781326643685600,17.298685546875,-4.866429101540148,-8.486049631503224,-0.6893520181443542
1633781326663564500,17.318564453125,-4.865884619399905,-8.486471656307577,-0.6880090060375631
1633781326683443500,17.338443359375,-4.862835753223299,-8.488701607316733,-0.6820148071240634
1633781326703322400,17.358322265625,-4.859834817841649,-8.491026250872016,-0.6744454678483307
1633781326723201500,17.378201416015624,-4.86013117043972,-8.491181149172782,-0.6703472387492656
1633781326743080700,17.398080810546876,-4.862371058320999,-8.489662561303376,-0.6733210669282823
1633781326762958600,17.41795849609375,-4.864535250617563,-8.488007779833675,-0.6785297414872795
1633781326782837500,17.43783740234375,-4.864021163615584,-8.48812702229917,-0.6807151957675814
1633781326802716400,17.45771630859375,-4.861392860938609,-8.489754915761948,-0.6791992382466793
1633781326822595600,17.477595703125,-4.858709320943057,-8.491281102415918,-0.67932147638686
1633781326842474500,17.497474609375,-4.856968907016515,-8.491659872600435,-0.6869925224713981
1633781326862353700,17.517353759765626,-4.857276657791435,-8.4906246843338,-0.6975274335544556
1633781326882231600,17.5372314453125,-4.859709730157256,-8.488637309908867,-0.7047173450585454
1633781326902110500,17.5571103515625,-4.860585928469896,-8.48784878987968,-0.7081715041004121
1633781326921989400,17.5769892578125,-4.857162091501057,-8.48958014371693,-0.7109130578935146
1633781326941868500,17.59686865234375,-4.852927230410278,-8.491658703556656,-0.7149886367693543
1633781326961747500,17.61674755859375,-4.853862173172831,-8.490662093734741,-0.7204526743289082
1633781326981625600,17.63662548828125,-4.859792440004647,-8.48687906806469,-0.7250504504479467
1633781327001504500,17.65650439453125,-4.86082032174766,-8.486303898525238,-0.7248929217986763
1633781327021383400,17.676383544921876,-4.854080784359574,-8.49015940490961,-0.7248940908424556
1633781327041262300,17.696262451171876,-4.848825348049402,-8.492910164922476,-0.7278436613630503
1633781327061141500,17.7161416015625,-4.8522559070199724,-8.490549281010031,-0.7325106302607804
1633781327081020700,17.736020751953124,-4.858815411666035,-8.48678262195289,-0.732668889562413
1633781327100899600,17.755899658203123,-4.860687635278701,-8.48590817720592,-0.7303766869720071
1633781327120777700,17.77577783203125,-4.860899524463713,-8.485932142603398,-0.7286965518653392
1633781327140657000,17.795656982421875,-4.8631569480016825,-8.484498310407997,-0.7303253221109509
1633781327160536000,17.8155361328125,-4.86302163118422,-8.484100835523009,-0.7358245040491223
1633781327180415000,17.8354150390625,-4.858190265505016,-8.486529523974657,-0.7397245071623474
1633781327200294100,17.855294189453126,-4.853451254284382,-8.48915285821557,-0.7407282773774116
1633781327220172000,17.875172119140625,-4.853881170134246,-8.488936585116386,-0.7403879395071417
1633781327240051000,17.895051025390625,-4.855670099377632,-8.48760329068601,-0.7439425632487983
1633781327259929900,17.914929931640625,-4.854434712363779,-8.487731300979853,-0.7505080592442304
1633781327279809000,17.93480908203125,-4.850312079475819,-8.48967542078495,-0.7551542776148766
1633781327299688000,17.95468798828125,-4.850561378061771,-8.489572544932365,-0.7547150094147771
1633781327319566800,17.97456689453125,-4.857629124490916,-8.485724637332558,-0.7525331353310495
1633781327339445000,17.994445068359376,-4.8641821993961925,-8.481798403799534,-0.7544647609807551
1633781327359324000,18.014323974609376,-4.86549328199476,-8.480560386437178,-0.759897965010628
1633781327379202800,18.034202880859375,-4.8624070064172145,-8.482074882653356,-0.7627497742451727
1633781327399082000,18.05408203125,-4.861499828444421,-8.482730716213583,-0.7612303095929324
1633781327418961200,18.073961181640627,-4.8628056503459804,-8.482116383707522,-0.7597486196678132
1633781327438839800,18.09383984375,-4.864912851758301,-8.48083452720344,-0.7605631509210914
1633781327458718000,18.113718017578126,-4.865050506663322,-8.480747433441877,-0.7606544094011187
1633781327478596900,18.133596923828126,-4.8663864314422005,-8.48055571026206,-0.7542163391776382
1633781327498476000,18.15347607421875,-4.8705797914788125,-8.478976332116126,-0.7448438229374587
1633781327518355000,18.17335498046875,-4.875100776034594,-8.476772100070118,-0.7403490688014776
1633781327538234000,18.193234130859373,-4.874792440737783,-8.476559918624162,-0.7447946500334889
1633781327558112800,18.21311279296875,-4.869844755202531,-8.478737262663245,-0.752332644322887
1633781327577991000,18.232990966796876,-4.868395433177054,-8.47919260521531,-0.7565780268076807
1633781327597869800,18.252869873046876,-4.871825992147624,-8.477423257455229,-0.7543117623761296
1633781327617749000,18.2727490234375,-4.876148239260911,-8.475245913416147,-0.7508430633522569
1633781327637628200,18.292628173828124,-4.8779465208545325,-8.47417506931424,-0.7512431685857475
1633781327657506800,18.3125068359375,-4.877205639359355,-8.474398356676101,-0.7535298912834376
1633781327677386000,18.332385986328124,-4.8745980872094625,-8.475887133929133,-0.7536648427747189
1633781327697263900,18.352263916015627,-4.872872286330163,-8.477149701210855,-0.7506231369912624
1633781327717143000,18.37214306640625,-4.872194825460016,-8.47785112747848,-0.7470919671904295
1633781327737022000,18.39202197265625,-4.87201099332571,-8.47820476322174,-0.7442687995284796
1633781327756901000,18.411901123046874,-4.8720092397600405,-8.47844558624029,-0.7415350637156516
1633781327776779800,18.43177978515625,-4.87413748396039,-8.477560035577415,-0.7376642866969109
1633781327796659000,18.451658935546874,-4.877957919031381,-8.475565062367915,-0.7353397892720996
1633781327816536800,18.471536865234373,-4.879737788185477,-8.474591248899698,-0.7347492760330439
1633781327836416000,18.491416015625,-4.879518007954955,-8.474735625806451,-0.7345468853287398
1633781327856295000,18.511294921875,-4.880095515581965,-8.474723350846768,-0.730836924894899
1633781327876174000,18.531174072265625,-4.880852471429109,-8.474799923214317,-0.724858873398602
1633781327896053000,18.551052978515624,-4.882210900300741,-8.474547409757971,-0.7186393412966281
1633781327915931000,18.570930908203124,-4.879029639916122,-8.476420217892526,-0.7181604717385024
1633781327935809800,18.590809814453124,-4.874074355596304,-8.479093821015953,-0.7202434885576366
1633781327955689000,18.61068896484375,-4.87180641066432,-8.480231885135174,-0.7221811786219478
1633781327975568100,18.630568115234375,-4.872885730333626,-8.479721597525478,-0.7208924539856613
1633781327995447000,18.650447021484375,-4.872161507712304,-8.480449327278137,-0.7172154459733515
1633781328015326000,18.670325927734375,-4.8695630156517025,-8.482292909318208,-0.7130475126389414
1633781328035203800,18.690203857421874,-4.867622110716998,-8.48389099216461,-0.7072753589782863
1633781328055083000,18.7100830078125,-4.8654172941491005,-8.485424777603148,-0.7040382767532021
1633781328074962000,18.7299619140625,-4.863961250121891,-8.486401513680816,-0.7023263582687824
1633781328094841000,18.749841064453125,-4.861014967536926,-8.487916009896994,-0.7044049181085079
1633781328114719200,18.76971923828125,-4.856667878243327,-8.490147714471817,-0.7074960890568792
1633781328134598100,18.78959814453125,-4.853710489742458,-8.491644675031305,-0.7098314001366496
1633781328154476300,18.809476318359376,-4.853105509586632,-8.491943950238824,-0.7103883033670485
1633781328174355200,18.829355224609376,-4.853292556591332,-8.491996557208894,-0.7084631074581295
1633781328194234400,18.849234375,-4.850304772952199,-8.49392781753242,-0.7057725531999022
1633781328214113300,18.86911328125,-4.845299804271757,-8.496884913772345,-0.7045668306719511
1633781328233992400,18.888992431640624,-4.840768590582907,-8.499432260167598,-0.7049824988007545
1633781328253871000,18.90887109375,-4.837576808804274,-8.501005793094635,-0.7079196482311934
1633781328273749200,18.928749267578127,-4.836159635482728,-8.501696113446354,-0.7093001428041606
1633781328293628200,18.948628173828126,-4.834226913854479,-8.503076169627905,-0.7059233598474413
1633781328313507300,18.96850732421875,-4.832777299568057,-8.504417647364734,-0.6996638610612601
1633781328333386200,18.98838623046875,-4.83246311905235,-8.504992232382296,-0.6948227777056396
1633781328353265400,19.008265380859374,-4.833509413234889,-8.504474930509925,-0.6938789940495044
1633781328373143300,19.028143310546874,-4.835656069874763,-8.50334504969716,-0.692780239027366
1633781328393022200,19.048022216796873,-4.837276656813919,-8.502741823107003,-0.6888483064059168
1633781328412901000,19.067901123046877,-4.838386079360545,-8.502731886234878,-0.6811387549418956
1633781328432780300,19.0877802734375,-4.839005672563612,-8.502640700820088,-0.6778664552729576
1633781328452659500,19.107659423828125,-4.839193888612091,-8.502434949114917,-0.6791065184619277
1633781328472538000,19.1275380859375,-4.840208034090698,-8.501808341649173,-0.6797274999044836
1633781328492416300,19.147416259765624,-4.842185179382563,-8.50108937972486,-0.6746141024135053
1633781328512295200,19.167295166015624,-4.84516361067146,-8.500043085542321,-0.6663705171380192
1633781328532174300,19.18717431640625,-4.846545420418679,-8.499656716573238,-0.6612355654023587
1633781328552053200,19.20705322265625,-4.845634443053603,-8.500106213906406,-0.6621172436077147
1633781328571932400,19.226932373046875,-4.844136313450337,-8.501053723889589,-0.6609156127329915
1633781328591811000,19.24681103515625,-4.843601183660328,-8.501707803884148,-0.6564128214210272
1633781328611689200,19.266689208984374,-4.841304304894805,-8.50345435529053,-0.6507076685819775
1633781328631568100,19.286568115234374,-4.83638058475703,-8.50638573256731,-0.6490073674701153
1633781328651447300,19.306447265625,-4.831357203637063,-8.508969319319725,-0.6525535156443715
1633781328671326200,19.326326171875,-4.8298684263840315,-8.509459733185171,-0.657142962326482
1633781328691205400,19.346205322265625,-4.829541094125807,-8.509398358386754,-0.6603449001729488
1633781328711084300,19.366084228515625,-4.829960488581657,-8.509186761462688,-0.6599932371910661
1633781328730962200,19.385962158203125,-4.832493514190614,-8.507920102527738,-0.6577849865570664
1633781328750841000,19.405841064453124,-4.834349955712258,-8.507106448057293,-0.6546610093176365
1633781328770720300,19.42572021484375,-4.836381169278919,-8.506286948367952,-0.650293023366481
1633781328790599400,19.445599365234376,-4.837514264962077,-8.505867261651158,-0.6473592349369078
1633781328810478300,19.465478271484375,-4.837698973879218,-8.506005208817124,-0.6441403459556401
1633781328830357200,19.485357177734375,-4.836941725771129,-8.506630647239088,-0.6415756830994039
1633781328850235100,19.505235107421875,-4.836691842663288,-8.506897773742676,-0.6399168830417096
1633781328870114300,19.5251142578125,-4.833547114896774,-8.508742524826527,-0.6391518169533461
1633781328889993200,19.5449931640625,-4.826180093260109,-8.512991414442658,-0.638227468650043
1633781328909872400,19.564872314453126,-4.8184801864072675,-8.517472943770885,-0.6366116309512406
1633781328929751000,19.5847509765625,-4.818663434019684,-8.51748404968679,-0.6350740461204201
1633781328949629200,19.604629150390625,-4.824499885088205,-8.514103175076842,-0.636097470884025
1633781328969508000,19.624508056640625,-4.825685587741434,-8.513276661124825,-0.6381739848971366
1633781328989387300,19.64438720703125,-4.818649113233387,-8.517356623914837,-0.6368946856763213
1633781329009266200,19.66426611328125,-4.813998949339986,-8.5201699277699,-0.6344274918451905
1633781329029145300,19.684145263671876,-4.813419103625416,-8.520511288553475,-0.6342455594070255
1633781329049024300,19.704024169921876,-4.815125030760467,-8.519166303685306,-0.639337548783794
1633781329068902100,19.723902099609376,-4.8172602892234915,-8.51755594587922,-0.6446998064693064
1633781329088781300,19.74378125,-4.815070670224726,-8.518575352054834,-0.6475857371691613
1633781329108660200,19.76366015625,-4.812811200860143,-8.519989895027875,-0.6457748883549124
1633781329128540200,19.7835400390625,-4.808187340451776,-8.522866911768913,-0.6422323203772307
1633781329148419000,19.803419189453123,-4.799749474713206,-8.527893800020218,-0.6386139837495982
1633781329168298000,19.823298095703127,-4.788081248751283,-8.534554426953196,-0.6372262557182461
1633781329188176100,19.843176025390626,-4.777442365837097,-8.540548114410042,-0.6367685750786215
1633781329208055000,19.863054931640626,-4.774078150101006,-8.54249340325892,-0.6359022405728697
1633781329227934200,19.882934326171874,-4.774765840104222,-8.54183873874247,-0.6395148781120776
1633781329247812900,19.902812744140626,-4.773217733879387,-8.542522044831514,-0.6419383058667183
1633781329267692000,19.922692138671874,-4.768411794902384,-8.545582601445913,-0.636916020725295
1633781329287570000,19.94256982421875,-4.760665418559313,-8.55086492576301,-0.6238342016384005
1633781329307449000,19.962448974609377,-4.754229832553864,-8.555190387746691,-0.6135161481764168
1633781329327328300,19.982328369140625,-4.751784192967414,-8.55696499620378,-0.6076812680104747
1633781329347207200,20.002207275390624,-4.7513490164205425,-8.557327399775385,-0.6059868121175095
1633781329367086000,20.022086181640624,-4.747428920367359,-8.55961404940784,-0.6044094067329541
1633781329386965000,20.041965087890624,-4.743527236753702,-8.561987792801856,-0.6014187370169908
1633781329406843100,20.061843017578123,-4.740706041853129,-8.564037126547097,-0.5944420298721641
1633781329426722000,20.08172216796875,-4.736935875664651,-8.566537126669287,-0.5884509727638214
1633781329446601200,20.101601318359375,-4.730520455664396,-8.570356977218388,-0.5844119995713234
1633781329466480000,20.121480224609375,-4.722555468134582,-8.574949565705657,-0.5814744482820853
1633781329486359000,20.141359130859374,-4.712482694670558,-8.580756206157803,-0.5775066040970385
1633781329506238000,20.161238037109374,-4.699767297743261,-8.588100723701714,-0.5719379736518487
1633781329526116000,20.1811162109375,-4.687506951107085,-8.595249426412582,-0.5651143747095019
1633781329545995000,20.2009951171875,-4.6819326581060885,-8.598729085221887,-0.558345209368132
1633781329565874200,20.220874267578125,-4.680151912169158,-8.600152980545163,-0.5512913088012487
1633781329585753000,20.240753173828125,-4.676844102795422,-8.602361304244399,-0.544888163760677
1633781329605632000,20.260632080078125,-4.667714455400407,-8.607647135692835,-0.5396670315789058
1633781329625510000,20.280510009765624,-4.658046755605936,-8.61293179809749,-0.5388854162145406
1633781329645389000,20.30038916015625,-4.6453278515473,-8.619472013521193,-0.544076482051611
1633781329665268200,20.320268310546876,-4.630336326381564,-8.627388777995108,-0.5463885949188843
1633781329685147100,20.340147216796876,-4.622578259600699,-8.631679753187298,-0.5443076604589819
1633781329705026000,20.360026123046875,-4.61167429600954,-8.637413912925124,-0.5458227046644315
1633781329724905000,20.379905029296875,-4.588565807622671,-8.64937439983189,-0.5511525944503024
1633781329744783000,20.399783203125,-4.547403776150942,-8.67004075576365,-0.5673607653968036
1633781329764662000,20.419662109375,-4.5271886711180205,-8.68029911492765,-0.5721440541505813
1633781329784541200,20.439541259765626,-4.521888518883288,-8.683100728344916,-0.5715584362823516
1633781329804420000,20.459420166015626,-4.5269510629698635,-8.680511296373606,-0.5708165318738668
1633781329824299000,20.479299072265626,-4.537035526871681,-8.675473302206397,-0.5673267535293475
