 Acc_timestamp,Accx,Accy,Accz,Gyro_timestamp,Gyrox,Gyroy,Gyroz,Baro_timestamp,Pressure_Reading
 229465600.000000, -9.518648 , 0.126820, 2.431108, 1560711680.000000, -4.340000,  2.380000,  0.140000, 0.000000,  0.000000 
 229485568.000000, -9.506684 , 0.119641, 2.433501, 1560731648.000000, -2.940000,  1.960000,  -0.140000, 0.000000,  0.000000 
 229505920.000000, -9.568897 , 0.107677, 2.371287, 1560751616.000000, 0.700000,  2.310000,  -1.400000, 0.000000,  0.000000 
 229526144.000000, -9.595219 , 0.169890, 2.409572, 1560771968.000000, 4.760000,  2.310000,  -1.890000, 0.000000,  0.000000 
 229545600.000000, -9.525827 , 0.172283, 2.301895, 1560792192.000000, 6.300000,  2.100000,  -1.610000, 0.000000,  0.000000 
 229565568.000000, -9.544970 , 0.162712, 2.266003, 1560811648.000000, 6.160000,  1.540000,  -1.050000, 0.000000,  0.000000 
 229585536.000000, -9.614362 , 0.138784, 2.330609, 1560831616.000000, 4.690000,  1.120000,  -1.050000, 0.000000,  0.000000 
 229605888.000000, -9.564112 , 0.241675, 2.086541, 1560851584.000000, 3.360000,  1.050000,  -0.980000, 0.000000,  0.000000 
 229626112.000000, -9.578469 , 0.289532, 2.179861, 1560871936.000000, 3.150000,  0.210000,  -0.700000, 0.000000,  0.000000 
 229645568.000000, -9.482756 , 0.193819, 2.067399, 1560892160.000000, 2.520000,  0.210000,  -1.050000, 0.000000,  0.000000 
 229665536.000000, -9.607183 , 0.189033, 2.143969, 1560911616.000000, 0.140000,  0.070000,  -1.120000, 0.000000,  0.000000 
 229685504.000000, -9.635897 , 0.160319, 2.177469, 1560931584.000000, -1.470000,  0.770000,  -1.540000, 0.000000,  0.000000 
 229705856.000000, -9.667004 , 0.117248, 2.158326, 1560951552.000000, -3.150000,  1.750000,  -1.400000, 0.000000,  0.000000 
 229726080.000000, -9.678967 , 0.074178, 2.213361, 1560971904.000000, -4.200000,  1.960000,  -0.280000, 0.000000,  0.000000 
 229745408.000000, -9.678967 , 0.102891, 2.234896, 1560992128.000000, -4.900000,  1.820000,  0.280000, 0.000000,  0.000000 
 229765504.000000, -9.705289 , 0.100499, 2.258825, 1561011584.000000, -5.530000,  1.610000,  0.630000, 0.000000,  0.000000 
 229785472.000000, -9.631111 , 0.141177, 2.285146, 1561051520.000000, -4.970000,  0.910000,  0.630000, 0.000000,  0.000000 
 229805696.000000, -9.549755 , 0.193819, 2.321038, 0.000000, 0.000000,  0.000000,  0.000000, 0.000000,  0.000000 
 229826048.000000, -9.588040 , 0.131605, 2.330609, 1561071872.000000, -4.830000,  0.280000,  0.980000, 0.000000,  0.000000 
 229845376.000000, -9.626326 , 0.011964, 2.325824, 1561092096.000000, -4.620000,  0.210000,  0.770000, 0.000000,  0.000000 
 229865344.000000, -9.580862 , 0.011964, 2.306681, 1561111424.000000, -3.500000,  -0.140000,  0.560000, 0.000000,  0.000000 
 229885440.000000, -9.549755 , 0.052642, 2.220540, 1561131520.000000, -1.400000,  -0.420000,  -0.140000, 0.000000,  0.000000 
 229905664.000000, -9.540184 , 0.052642, 2.100898, 1561151488.000000, 1.330000,  -0.490000,  -0.280000, 0.000000,  0.000000 
 229926016.000000, -9.559326 , 0.078963, 2.096112, 1561171712.000000, 2.310000,  -0.070000,  -0.770000, 0.000000,  0.000000 
 229945344.000000, -9.602397 , 0.040678, 2.098505, 1561192064.000000, 1.120000,  0.210000,  -0.980000, 0.000000,  0.000000 
 229965312.000000, -9.669396 , 0.023928, 2.177469, 1561211392.000000, -1.120000,  0.630000,  -0.770000, 0.000000,  0.000000 
 229985280.000000, -9.635897 , 0.081356, 2.218147, 1561231360.000000, -3.360000,  0.980000,  -0.630000, 0.000000,  0.000000 
 230005632.000000, -9.712467 , 0.023928, 2.237289, 1561251456.000000, -4.410000,  0.910000,  -1.050000, 0.000000,  0.000000 
 230027904.000000, -9.671788 , 0.114855, 2.277967, 1561271680.000000, -4.340000,  0.910000,  -0.700000, 0.000000,  0.000000 
 230045312.000000, -9.635897 , 0.162712, 2.268396, 1561293952.000000, -3.570000,  0.630000,  -0.700000, 0.000000,  0.000000 
 230065280.000000, -9.595219 , 0.071785, 2.263610, 1561311360.000000, -2.170000,  -0.140000,  -0.770000, 1558606592.000000,  1010.251160 
 230085248.000000, -9.607183 , 0.160319, 2.297110, 1561331328.000000, -1.050000,  -0.420000,  -0.140000, 0.000000,  0.000000 
 230105600.000000, -9.626326 , 0.112463, 2.196611, 1561351296.000000, -0.770000,  -0.420000,  0.630000, 0.000000,  0.000000 
 230125824.000000, -9.645468 , 0.078963, 2.199004, 1561371648.000000, -0.700000,  -0.910000,  -0.210000, 0.000000,  0.000000 
 230145280.000000, -9.592826 , 0.069392, 2.232504, 1561391872.000000, -1.330000,  -1.120000,  -0.420000, 0.000000,  0.000000 
 230165248.000000, -9.614362 , 0.110070, 2.225325, 1561411328.000000, -1.470000,  -1.330000,  -0.560000, 0.000000,  0.000000 
 230185216.000000, -9.600004 , 0.102891, 2.239682, 1561431296.000000, -1.120000,  -1.680000,  -0.560000, 0.000000,  0.000000 
 230205568.000000, -9.595219 , 0.088534, 2.263610, 1561451264.000000, -1.120000,  -1.680000,  0.280000, 0.000000,  0.000000 
 230225792.000000, -9.616754 , 0.138784, 2.285146, 1561471616.000000, -1.260000,  -1.610000,  1.050000, 0.000000,  0.000000 
 230245248.000000, -9.705289 , 0.107677, 2.234896, 1561491840.000000, -1.680000,  -1.330000,  0.980000, 0.000000,  0.000000 
 230265216.000000, -9.561719 , 0.069392, 2.258825, 1561511296.000000, -1.610000,  -1.680000,  0.140000, 0.000000,  0.000000 
 230285184.000000, -9.540184 , 0.086142, 2.222932, 1561531264.000000, -0.140000,  -2.450000,  0.840000, 0.000000,  0.000000 
 230305536.000000, -9.576077 , 0.184247, 2.139183, 1561551232.000000, 2.170000,  -1.820000,  0.840000, 0.000000,  0.000000 
 230325760.000000, -9.607183 , 0.169890, 2.172683, 1561571584.000000, 3.360000,  -1.190000,  0.350000, 0.000000,  0.000000 
 230345088.000000, -9.659825 , 0.145962, 2.165504, 1561591808.000000, 1.680000,  -0.910000,  0.350000, 0.000000,  0.000000 
 230365056.000000, -9.537791 , 0.105284, 2.218147, 1561611264.000000, -1.120000,  -0.630000,  0.420000, 0.000000,  0.000000 
 230385152.000000, -9.533006 , 0.205783, 2.237289, 1561631232.000000, -2.660000,  -0.560000,  0.840000, 0.000000,  0.000000 
 230405376.000000, -9.590433 , 0.141177, 2.306681, 1561651200.000000, -3.500000,  -0.140000,  1.330000, 0.000000,  0.000000 
 230425728.000000, -9.631111 , 0.179462, 2.287539, 1561671552.000000, -4.270000,  0.280000,  0.910000, 0.000000,  0.000000 
 230445056.000000, -9.585647 , 0.124427, 2.380858, 1561691776.000000, -4.340000,  0.070000,  0.420000, 0.000000,  0.000000 
 230465024.000000, -9.595219 , 0.155533, 2.392823, 1561711104.000000, -3.990000,  -0.280000,  0.840000, 0.000000,  0.000000 
 230484992.000000, -9.540184 , 0.150748, 2.316252, 1561731072.000000, -2.870000,  -0.630000,  1.190000, 0.000000,  0.000000 
 230505344.000000, -9.561719 , 0.174676, 2.349752, 1561751168.000000, -0.910000,  -0.350000,  0.770000, 0.000000,  0.000000 
 230525568.000000, -9.559326 , 0.191426, 2.354537, 1561771392.000000, -0.700000,  -0.280000,  1.050000, 0.000000,  0.000000 
 230545024.000000, -9.547362 , 0.162712, 2.321038, 1561791744.000000, -1.260000,  -0.280000,  0.980000, 0.000000,  0.000000 
 230564992.000000, -9.607183 , 0.162712, 2.325824, 1561811072.000000, -1.330000,  -0.210000,  0.280000, 0.000000,  0.000000 
 230584960.000000, -9.623933 , 0.205783, 2.318645, 1561831168.000000, -1.330000,  -0.140000,  -0.070000, 0.000000,  0.000000 
 230605312.000000, -9.655040 , 0.205783, 2.376073, 1561851008.000000, -1.750000,  -0.140000,  0.210000, 0.000000,  0.000000 
 230625536.000000, -9.619147 , 0.179462, 2.368894, 1561871360.000000, -1.960000,  -0.140000,  0.700000, 0.000000,  0.000000 
 230644992.000000, -9.590433 , 0.167498, 2.352145, 1561891584.000000, -1.750000,  -0.210000,  1.540000, 0.000000,  0.000000 
 230664960.000000, -9.544970 , 0.160319, 2.411965, 1561911040.000000, -1.820000,  -0.420000,  2.450000, 0.000000,  0.000000 
 230684928.000000, -9.547362 , 0.129212, 2.383251, 1561931008.000000, -1.680000,  -0.350000,  2.590000, 0.000000,  0.000000 
 230705280.000000, -9.580862 , 0.145962, 2.361716, 1561950976.000000, -1.260000,  0.070000,  1.610000, 0.000000,  0.000000 
 230725504.000000, -9.530612 , 0.174676, 2.383251, 1561971328.000000, -0.140000,  0.140000,  1.400000, 0.000000,  0.000000 
 230744960.000000, -9.578469 , 0.162712, 2.354537, 1561991552.000000, 0.070000,  0.140000,  2.100000, 0.000000,  0.000000 
 230764928.000000, -9.564112 , 0.141177, 2.388037, 1562011008.000000, -0.770000,  0.280000,  2.100000, 0.000000,  0.000000 
 230784896.000000, -9.516255 , 0.208176, 2.443072, 1562030976.000000, -1.610000,  0.420000,  1.470000, 0.000000,  0.000000 
 230805248.000000, -9.535398 , 0.191426, 2.414358, 1562050944.000000, -1.050000,  0.350000,  1.190000, 0.000000,  0.000000 
 230825472.000000, -9.537791 , 0.193819, 2.376073, 1562071296.000000, 0.700000,  0.280000,  0.910000, 0.000000,  0.000000 
 230844800.000000, -9.559326 , 0.236889, 2.323431, 1562091520.000000, 2.380000,  0.210000,  0.350000, 0.000000,  0.000000 
 230864896.000000, -9.540184 , 0.220140, 2.318645, 1562110976.000000, 2.800000,  0.210000,  0.070000, 0.000000,  0.000000 
 230884864.000000, -9.585647 , 0.212961, 2.313859, 1562130944.000000, 2.310000,  -0.070000,  0.070000, 0.000000,  0.000000 
 230905088.000000, -9.571291 , 0.239282, 2.313859, 1562150912.000000, 2.380000,  0.210000,  -0.070000, 0.000000,  0.000000 
 230925440.000000, -9.556933 , 0.205783, 2.325824, 1562171264.000000, 2.030000,  0.490000,  -0.070000, 0.000000,  0.000000 
 230944768.000000, -9.523434 , 0.236889, 2.285146, 1562191488.000000, 1.190000,  0.420000,  -0.070000, 0.000000,  0.000000 
 230964736.000000, -9.583255 , 0.241675, 2.311467, 1562210816.000000, 1.190000,  0.490000,  -0.210000, 0.000000,  0.000000 
 230984832.000000, -9.580862 , 0.234497, 2.337788, 1562230912.000000, -1.260000,  0.700000,  -0.350000, 0.000000,  0.000000 
 231005056.000000, -9.552148 , 0.174676, 2.359323, 1562250880.000000, -1.680000,  0.770000,  -0.490000, 0.000000,  0.000000 
 231027328.000000, -9.561719 , 0.222532, 2.347359, 1562271104.000000, -1.820000,  0.910000,  -0.490000, 0.000000,  0.000000 
 231044736.000000, -9.626326 , 0.157926, 2.373680, 1562293376.000000, -2.030000,  0.910000,  -0.070000, 0.000000,  0.000000 
 231064704.000000, -9.576077 , 0.138784, 2.423929, 1562310784.000000, -2.100000,  0.840000,  -0.350000, 1559606016.000000,  1010.251892 
 231084672.000000, -9.511470 , 0.157926, 2.378466, 1562330752.000000, -2.310000,  0.420000,  0.280000, 0.000000,  0.000000 
 231105024.000000, -9.533006 , 0.191426, 2.342573, 1562350848.000000, -1.050000,  0.140000,  0.070000, 0.000000,  0.000000 
 231125248.000000, -9.583255 , 0.246461, 2.368894, 1562371072.000000, 0.210000,  0.630000,  -0.700000, 0.000000,  0.000000 
 231144704.000000, -9.537791 , 0.181855, 2.366502, 1562391424.000000, -0.420000,  0.630000,  -0.630000, 0.000000,  0.000000 
 231164672.000000, -9.576077 , 0.189033, 2.318645, 1562410752.000000, -0.490000,  0.350000,  -0.560000, 0.000000,  0.000000 
 231184640.000000, -9.604790 , 0.258425, 2.342573, 1562430720.000000, -0.210000,  0.350000,  -0.980000, 0.000000,  0.000000 
 231204992.000000, -9.616754 , 0.246461, 2.359323, 1562450688.000000, -0.980000,  0.420000,  -1.540000, 0.000000,  0.000000 
 231225216.000000, -9.659825 , 0.160319, 2.364109, 1562471040.000000, -2.520000,  0.140000,  -1.260000, 0.000000,  0.000000 
 231244672.000000, -9.573684 , 0.169890, 2.364109, 1562491264.000000, -3.430000,  -0.140000,  -0.280000, 0.000000,  0.000000 
 231264640.000000, -9.549755 , 0.136391, 2.368894, 1562510720.000000, -3.500000,  -0.560000,  0.630000, 0.000000,  0.000000 
 231284608.000000, -9.566505 , 0.143569, 2.359323, 1562530688.000000, -3.080000,  -0.840000,  0.770000, 0.000000,  0.000000 
 231304960.000000, -9.499505 , 0.088534, 2.361716, 1562550656.000000, -2.450000,  -0.980000,  0.560000, 0.000000,  0.000000 
 231325184.000000, -9.542577 , 0.141177, 2.335395, 1562571008.000000, -1.470000,  -0.910000,  0.350000, 0.000000,  0.000000 
 231344640.000000, -9.573684 , 0.167498, 2.325824, 1562591232.000000, -0.630000,  -0.560000,  -0.280000, 0.000000,  0.000000 
 231364736.000000, -9.535398 , 0.105284, 2.366502, 1562610688.000000, -0.840000,  -0.070000,  -0.840000, 0.000000,  0.000000 
 231384576.000000, -9.552148 , 0.095713, 2.378466, 1562630784.000000, -0.910000,  0.140000,  -1.260000, 0.000000,  0.000000 
 231404800.000000, -9.549755 , 0.141177, 2.349752, 1562650624.000000, -0.630000,  0.420000,  -1.120000, 0.000000,  0.000000 
 231425152.000000, -9.542577 , 0.155533, 2.352145, 1562670976.000000, -0.210000,  0.560000,  -0.840000, 0.000000,  0.000000 
 231444480.000000, -9.523434 , 0.172283, 2.325824, 1562691200.000000, 0.070000,  0.630000,  -0.770000, 0.000000,  0.000000 
 231464576.000000, -9.564112 , 0.150748, 2.366502, 1562710656.000000, 0.420000,  0.770000,  -1.330000, 0.000000,  0.000000 
 231484544.000000, -9.585647 , 0.155533, 2.349752, 1562730624.000000, 0.910000,  0.700000,  -1.680000, 0.000000,  0.000000 
 231504768.000000, -9.576077 , 0.217747, 2.359323, 1562750592.000000, 1.330000,  0.980000,  -1.190000, 0.000000,  0.000000 
 231525120.000000, -9.561719 , 0.126820, 2.373680, 1562770816.000000, 0.840000,  1.050000,  -0.700000, 0.000000,  0.000000 
 231544448.000000, -9.540184 , 0.066999, 2.400001, 1562791168.000000, 0.280000,  0.980000,  -0.350000, 0.000000,  0.000000 
 231564544.000000, -9.588040 , 0.136391, 2.340181, 1562810496.000000, -1.050000,  0.980000,  -0.560000, 0.000000,  0.000000 
 231584512.000000, -9.542577 , 0.181855, 2.388037, 1562830592.000000, -1.190000,  0.770000,  -0.910000, 0.000000,  0.000000 
 231604736.000000, -9.607183 , 0.162712, 2.364109, 1562850560.000000, -0.420000,  0.490000,  -0.770000, 0.000000,  0.000000 
 231625088.000000, -9.602397 , 0.138784, 2.342573, 1562870784.000000, -0.420000,  0.560000,  -0.490000, 0.000000,  0.000000 
 231644416.000000, -9.597611 , 0.129212, 2.366502, 1562891136.000000, 0.280000,  0.770000,  -0.490000, 0.000000,  0.000000 
 231664384.000000, -9.626326 , 0.153141, 2.333002, 1562910464.000000, 0.490000,  0.770000,  -0.350000, 0.000000,  0.000000 
 231684352.000000, -9.638289 , 0.181855, 2.328217, 1562930432.000000, 1.330000,  0.630000,  -0.140000, 0.000000,  0.000000 
 231704704.000000, -9.580862 , 0.174676, 2.364109, 1562950528.000000, 1.470000,  0.560000,  -0.070000, 0.000000,  0.000000 
 231724928.000000, -9.533006 , 0.105284, 2.342573, 1562970752.000000, 0.910000,  0.140000,  0.350000, 0.000000,  0.000000 
 231744384.000000, -9.561719 , 0.143569, 2.325824, 1562991104.000000, 1.260000,  0.140000,  0.490000, 0.000000,  0.000000 
 231764352.000000, -9.552148 , 0.153141, 2.385644, 1563010432.000000, 0.700000,  0.490000,  0.700000, 0.000000,  0.000000 
 231784320.000000, -9.544970 , 0.122034, 2.383251, 1563030400.000000, -0.910000,  0.210000,  1.050000, 0.000000,  0.000000 
 231804672.000000, -9.616754 , 0.129212, 2.359323, 1563050368.000000, -1.400000,  0.210000,  0.840000, 0.000000,  0.000000 
 231824896.000000, -9.604790 , 0.138784, 2.373680, 1563070720.000000, -1.330000,  0.210000,  0.420000, 0.000000,  0.000000 
 231844352.000000, -9.626326 , 0.122034, 2.366502, 1563090944.000000, -1.330000,  -0.210000,  0.280000, 0.000000,  0.000000 
 231864320.000000, -9.544970 , 0.126820, 2.347359, 1563110400.000000, -1.330000,  -0.490000,  0.980000, 0.000000,  0.000000 
 231884288.000000, -9.585647 , 0.150748, 2.304288, 1563130368.000000, -0.700000,  -0.420000,  1.540000, 0.000000,  0.000000 
 231904640.000000, -9.578469 , 0.136391, 2.289931, 1563150336.000000, -0.280000,  -0.420000,  1.610000, 0.000000,  0.000000 
 231924864.000000, -9.537791 , 0.107677, 2.340181, 1563170688.000000, -0.280000,  -0.420000,  1.540000, 0.000000,  0.000000 
 231944320.000000, -9.537791 , 0.138784, 2.361716, 1563190912.000000, -0.840000,  -0.280000,  1.330000, 0.000000,  0.000000 
 231964288.000000, -9.566505 , 0.083749, 2.333002, 1563210368.000000, -0.770000,  -0.140000,  1.190000, 0.000000,  0.000000 
 231984256.000000, -9.583255 , 0.124427, 2.333002, 1563230336.000000, -0.770000,  0.140000,  0.770000, 0.000000,  0.000000 
 232004480.000000, -9.578469 , 0.157926, 2.342573, 1563250304.000000, -1.190000,  0.630000,  0.280000, 0.000000,  0.000000 
 232026752.000000, -9.542577 , 0.153141, 2.361716, 1563270656.000000, -1.610000,  0.490000,  0.210000, 0.000000,  0.000000 
 232044160.000000, -9.564112 , 0.148355, 2.340181, 1563292800.000000, -1.820000,  0.490000,  0.420000, 0.000000,  0.000000 
 232064128.000000, -9.499505 , 0.129212, 2.356930, 1563310208.000000, -1.890000,  0.350000,  0.210000, 1560605568.000000,  1010.252136 
 232084224.000000, -9.583255 , 0.145962, 2.344966, 1563330304.000000, -1.470000,  0.560000,  -0.210000, 0.000000,  0.000000 
 232104448.000000, -9.564112 , 0.126820, 2.349752, 1563350272.000000, -0.980000,  0.770000,  -0.490000, 0.000000,  0.000000 
 232124800.000000, -9.544970 , 0.133998, 2.385644, 1563370496.000000, -0.770000,  0.910000,  -0.420000, 0.000000,  0.000000 
 232144128.000000, -9.578469 , 0.153141, 2.397608, 1563390848.000000, -0.700000,  0.700000,  -0.420000, 0.000000,  0.000000 
 232164096.000000, -9.585647 , 0.093320, 2.371287, 1563410176.000000, -0.280000,  0.700000,  -0.420000, 0.000000,  0.000000 
 232184064.000000, -9.619147 , 0.110070, 2.400001, 1563430144.000000, 0.770000,  0.630000,  -0.560000, 0.000000,  0.000000 
 232204416.000000, -9.585647 , 0.169890, 2.340181, 1563450240.000000, 1.330000,  0.490000,  -0.420000, 0.000000,  0.000000 
 232224640.000000, -9.554541 , 0.186640, 2.347359, 1563470464.000000, 2.030000,  0.420000,  -0.350000, 0.000000,  0.000000 
 232244096.000000, -9.578469 , 0.153141, 2.311467, 1563490816.000000, 2.450000,  0.350000,  -0.140000, 0.000000,  0.000000 
 232264064.000000, -9.571291 , 0.165105, 2.313859, 1563510144.000000, 2.590000,  0.350000,  -0.210000, 0.000000,  0.000000 
 232284032.000000, -9.611969 , 0.138784, 2.309074, 1563530112.000000, 3.150000,  0.490000,  -0.140000, 0.000000,  0.000000 
 232304384.000000, -9.604790 , 0.189033, 2.246860, 1563550080.000000, 3.710000,  0.770000,  -0.140000, 0.000000,  0.000000 
 232324608.000000, -9.561719 , 0.191426, 2.318645, 1563570432.000000, 3.990000,  0.770000,  0.490000, 0.000000,  0.000000 
 232344064.000000, -9.568897 , 0.177069, 2.364109, 1563590656.000000, 3.010000,  0.630000,  1.190000, 0.000000,  0.000000 
 232364032.000000, -9.564112 , 0.172283, 2.299503, 1563610112.000000, 2.100000,  0.630000,  1.050000, 0.000000,  0.000000 
 232384000.000000, -9.595219 , 0.196211, 2.285146, 1563630080.000000, 2.100000,  0.490000,  1.470000, 0.000000,  0.000000 
 232404352.000000, -9.544970 , 0.181855, 2.349752, 1563650048.000000, 1.260000,  0.420000,  1.750000, 0.000000,  0.000000 
 232424576.000000, -9.511470 , 0.136391, 2.359323, 1563670400.000000, 0.560000,  0.280000,  1.960000, 0.000000,  0.000000 
 232444032.000000, -9.611969 , 0.208176, 2.311467, 1563690624.000000, 0.630000,  0.210000,  1.260000, 0.000000,  0.000000 
 232464000.000000, -9.626326 , 0.229711, 2.380858, 1563710080.000000, 0.490000,  0.560000,  0.980000, 0.000000,  0.000000 
 232483968.000000, -9.619147 , 0.215354, 2.366502, 1563730048.000000, 0.490000,  0.350000,  1.610000, 0.000000,  0.000000 
 232504320.000000, -9.547362 , 0.210568, 2.325824, 1563750016.000000, -0.350000,  0.350000,  2.590000, 0.000000,  0.000000 
 232524544.000000, -9.528220 , 0.222532, 2.373680, 1563770368.000000, -0.630000,  -0.210000,  2.520000, 0.000000,  0.000000 
 232543872.000000, -9.521042 , 0.193819, 2.349752, 1563790592.000000, -0.700000,  -0.350000,  2.520000, 0.000000,  0.000000 
 232563968.000000, -9.525827 , 0.196211, 2.330609, 1563810048.000000, 0.070000,  -0.350000,  2.030000, 0.000000,  0.000000 
 232583936.000000, -9.516255 , 0.256032, 2.282753, 1563830016.000000, 0.840000,  -0.210000,  1.750000, 0.000000,  0.000000 
 232604160.000000, -9.580862 , 0.251246, 2.340181, 1563849984.000000, 0.980000,  -0.070000,  0.980000, 0.000000,  0.000000 
 232624512.000000, -9.537791 , 0.256032, 2.347359, 1563870208.000000, 0.210000,  0.280000,  0.350000, 0.000000,  0.000000 
 232643840.000000, -9.566505 , 0.232104, 2.366502, 1563890560.000000, -0.840000,  0.280000,  0.490000, 0.000000,  0.000000 
 232663808.000000, -9.585647 , 0.272782, 2.356930, 1563909888.000000, -1.750000,  0.280000,  0.770000, 0.000000,  0.000000 
 232683904.000000, -9.509077 , 0.232104, 2.400001, 1563929984.000000, -2.240000,  0.420000,  0.560000, 0.000000,  0.000000 
 232704128.000000, -9.559326 , 0.241675, 2.368894, 1563970176.000000, -1.610000,  0.140000,  0.140000, 0.000000,  0.000000 
 232724480.000000, -9.537791 , 0.196211, 2.333002, 0.000000, 0.000000,  0.000000,  0.000000, 0.000000,  0.000000 
 232743808.000000, -9.525827 , 0.222532, 2.416751, 1563990528.000000, -0.840000,  0.070000,  -0.350000, 0.000000,  0.000000 
 232763776.000000, -9.535398 , 0.287139, 2.397608, 1564009856.000000, -0.560000,  0.280000,  -0.700000, 0.000000,  0.000000 
 232783744.000000, -9.544970 , 0.227318, 2.385644, 1564029824.000000, -0.210000,  0.420000,  -0.910000, 0.000000,  0.000000 
 232804096.000000, -9.556933 , 0.246461, 2.388037, 1564049920.000000, -0.420000,  0.280000,  -0.840000, 0.000000,  0.000000 
 232824320.000000, -9.542577 , 0.248854, 2.428715, 1564070144.000000, -1.610000,  0.140000,  -0.770000, 0.000000,  0.000000 
 232843776.000000, -9.578469 , 0.186640, 2.404787, 1564090496.000000, -2.380000,  0.140000,  -0.980000, 0.000000,  0.000000 
 232863744.000000, -9.528220 , 0.239282, 2.395216, 1564109824.000000, -2.100000,  0.070000,  -1.190000, 0.000000,  0.000000 
 232883712.000000, -9.561719 , 0.267996, 2.419144, 1564129792.000000, -1.540000,  0.070000,  -1.050000, 0.000000,  0.000000 
 232904064.000000, -9.564112 , 0.210568, 2.388037, 1564149760.000000, -1.260000,  0.070000,  -0.980000, 0.000000,  0.000000 
 232924288.000000, -9.544970 , 0.215354, 2.368894, 1564170112.000000, -1.400000,  0.070000,  -0.910000, 0.000000,  0.000000 
 232943744.000000, -9.597611 , 0.150748, 2.366502, 1564190336.000000, -1.120000,  -0.140000,  -1.260000, 0.000000,  0.000000 
 232963712.000000, -9.544970 , 0.172283, 2.344966, 1564209792.000000, -0.420000,  -0.140000,  -1.400000, 0.000000,  0.000000 
 232983680.000000, -9.561719 , 0.174676, 2.371287, 1564229760.000000, -0.420000,  -0.350000,  -0.840000, 0.000000,  0.000000 
 233004032.000000, -9.559326 , 0.248854, 2.282753, 1564249728.000000, 0.350000,  -0.420000,  -0.980000, 0.000000,  0.000000 
 233026176.000000, -9.530612 , 0.246461, 2.340181, 1564270080.000000, 0.420000,  0.070000,  -1.120000, 0.000000,  0.000000 
 233043712.000000, -9.535398 , 0.200997, 2.368894, 1564292224.000000, -1.190000,  0.070000,  -0.840000, 0.000000,  0.000000 
 233063680.000000, -9.633504 , 0.189033, 2.392823, 1564309760.000000, -2.450000,  0.070000,  -0.840000, 1561604992.000000,  1010.252625 
 233083648.000000, -9.611969 , 0.126820, 2.380858, 1564329728.000000, -2.660000,  0.350000,  -1.050000, 0.000000,  0.000000 
 233104000.000000, -9.580862 , 0.160319, 2.380858, 1564349696.000000, -1.750000,  0.280000,  -0.980000, 0.000000,  0.000000 
 233124224.000000, -9.611969 , 0.153141, 2.359323, 1564370048.000000, -0.770000,  0.210000,  -0.490000, 0.000000,  0.000000 
 233143552.000000, -9.535398 , 0.246461, 2.359323, 1564390272.000000, 0.210000,  -0.070000,  0.350000, 0.000000,  0.000000 
 233163520.000000, -9.580862 , 0.200997, 2.328217, 1564409728.000000, 0.840000,  -0.070000,  0.560000, 0.000000,  0.000000 
 233183616.000000, -9.552148 , 0.203390, 2.354537, 1564429696.000000, 0.840000,  0.350000,  0.560000, 0.000000,  0.000000 
 233203840.000000, -9.561719 , 0.205783, 2.352145, 1564449664.000000, 0.210000,  0.420000,  0.840000, 0.000000,  0.000000 
 233224192.000000, -9.544970 , 0.212961, 2.301895, 1564469888.000000, -0.280000,  0.490000,  1.260000, 0.000000,  0.000000 
 233243520.000000, -9.578469 , 0.210568, 2.356930, 1564490240.000000, -0.630000,  0.490000,  1.470000, 0.000000,  0.000000 
 233263488.000000, -9.564112 , 0.155533, 2.340181, 1564509568.000000, -1.470000,  0.700000,  1.610000, 0.000000,  0.000000 
 233283456.000000, -9.590433 , 0.220140, 2.376073, 1564529536.000000, -1.120000,  0.700000,  1.120000, 0.000000,  0.000000 
 233303808.000000, -9.576077 , 0.265603, 2.318645, 1564549632.000000, -0.420000,  0.840000,  1.330000, 0.000000,  0.000000 
 233324032.000000, -9.561719 , 0.303888, 2.349752, 1564569856.000000, -0.700000,  1.050000,  1.750000, 0.000000,  0.000000 
 233343488.000000, -9.544970 , 0.200997, 2.325824, 1564590208.000000, -1.820000,  0.980000,  2.240000, 0.000000,  0.000000 
 233363456.000000, -9.521042 , 0.193819, 2.368894, 1564609536.000000, -2.520000,  0.910000,  2.170000, 0.000000,  0.000000 
 233383424.000000, -9.533006 , 0.272782, 2.438286, 1564629504.000000, -2.450000,  1.050000,  2.100000, 0.000000,  0.000000 
 233403776.000000, -9.554541 , 0.222532, 2.438286, 1564649600.000000, -2.170000,  1.190000,  1.960000, 0.000000,  0.000000 
 233424000.000000, -9.561719 , 0.193819, 2.462214, 1564669824.000000, -1.960000,  1.050000,  1.610000, 0.000000,  0.000000 
 233443456.000000, -9.533006 , 0.227318, 2.469393, 1564690048.000000, -1.820000,  0.980000,  1.470000, 0.000000,  0.000000 
 233463424.000000, -9.499505 , 0.241675, 2.364109, 1564709504.000000, -1.120000,  0.770000,  1.260000, 0.000000,  0.000000 
 233483392.000000, -9.537791 , 0.303888, 2.419144, 1564729472.000000, -0.070000,  0.560000,  1.120000, 0.000000,  0.000000 
 233503744.000000, -9.544970 , 0.229711, 2.416751, 1564749440.000000, 0.070000,  0.420000,  0.840000, 0.000000,  0.000000 
 233523968.000000, -9.566505 , 0.229711, 2.368894, 1564769792.000000, -0.420000,  0.490000,  0.420000, 0.000000,  0.000000 
 233543424.000000, -9.561719 , 0.234497, 2.359323, 1564790016.000000, -0.630000,  0.350000,  0.070000, 0.000000,  0.000000 
 233563392.000000, -9.568897 , 0.210568, 2.342573, 1564809472.000000, -0.560000,  0.350000,  0.140000, 0.000000,  0.000000 
 233583360.000000, -9.595219 , 0.208176, 2.359323, 1564829440.000000, -1.050000,  0.350000,  0.280000, 0.000000,  0.000000 
 233603712.000000, -9.590433 , 0.208176, 2.411965, 1564849408.000000, -0.490000,  0.140000,  0.140000, 0.000000,  0.000000 
 233623936.000000, -9.535398 , 0.217747, 2.342573, 1564869760.000000, 0.070000,  0.070000,  0.210000, 0.000000,  0.000000 
 233643392.000000, -9.611969 , 0.313460, 2.275574, 1564889984.000000, 0.770000,  0.140000,  -0.070000, 0.000000,  0.000000 
 233663360.000000, -9.504292 , 0.265603, 2.321038, 1564909440.000000, 0.560000,  0.350000,  -0.070000, 0.000000,  0.000000 
 233683328.000000, -9.580862 , 0.193819, 2.354537, 1564929408.000000, -1.750000,  0.490000,  0.070000, 0.000000,  0.000000 
 233703552.000000, -9.592826 , 0.184247, 2.388037, 1564949376.000000, -3.500000,  0.490000,  0.070000, 0.000000,  0.000000 
 233723904.000000, -9.552148 , 0.224925, 2.421536, 1564969728.000000, -4.200000,  0.700000,  -0.840000, 0.000000,  0.000000 
 233743232.000000, -9.588040 , 0.229711, 2.440679, 1564989952.000000, -4.620000,  0.490000,  -1.330000, 0.000000,  0.000000 
 233763200.000000, -9.616754 , 0.189033, 2.426322, 1565009280.000000, -3.920000,  0.140000,  -1.610000, 0.000000,  0.000000 
 233783296.000000, -9.504292 , 0.239282, 2.333002, 1565029376.000000, -1.820000,  -0.070000,  -1.050000, 0.000000,  0.000000 
 233803520.000000, -9.554541 , 0.246461, 2.321038, 1565049344.000000, -0.280000,  -0.280000,  -0.840000, 0.000000,  0.000000 
 233823872.000000, -9.597611 , 0.172283, 2.364109, 1565069568.000000, -0.280000,  -0.140000,  -0.770000, 0.000000,  0.000000 
 233843200.000000, -9.535398 , 0.138784, 2.335395, 1565089920.000000, -0.630000,  -0.070000,  -1.120000, 0.000000,  0.000000 
 233863168.000000, -9.566505 , 0.153141, 2.328217, 1565109248.000000, -0.560000,  0.070000,  -1.120000, 0.000000,  0.000000 
 233883136.000000, -9.573684 , 0.184247, 2.330609, 1565129216.000000, -0.980000,  -0.070000,  -0.840000, 0.000000,  0.000000 
 233903488.000000, -9.580862 , 0.179462, 2.366502, 1565149312.000000, -2.240000,  -0.070000,  -0.980000, 0.000000,  0.000000 
 233923712.000000, -9.616754 , 0.162712, 2.397608, 1565169536.000000, -3.010000,  0.070000,  -1.260000, 0.000000,  0.000000 
 233943168.000000, -9.576077 , 0.184247, 2.378466, 1565189888.000000, -2.310000,  0.070000,  -1.120000, 0.000000,  0.000000 
 233963136.000000, -9.585647 , 0.212961, 2.328217, 1565209216.000000, -1.050000,  -0.140000,  -0.910000, 0.000000,  0.000000 
 233983104.000000, -9.590433 , 0.193819, 2.311467, 1565229184.000000, -0.630000,  -0.070000,  -0.700000, 0.000000,  0.000000 
 234003456.000000, -9.602397 , 0.174676, 2.352145, 1565249152.000000, -0.840000,  -0.280000,  -0.490000, 0.000000,  0.000000 
 234025600.000000, -9.583255 , 0.157926, 2.309074, 1565269504.000000, -1.190000,  -0.140000,  -0.700000, 0.000000,  0.000000 
 234043136.000000, -9.561719 , 0.145962, 2.361716, 1565291776.000000, -1.190000,  -0.140000,  -0.910000, 0.000000,  0.000000 
 234063104.000000, -9.528220 , 0.117248, 2.304288, 1565309184.000000, -1.050000,  -0.070000,  -0.490000, 1562604416.000000,  1010.254211 
 234083072.000000, -9.559326 , 0.138784, 2.330609, 1565329152.000000, -0.770000,  0.070000,  -0.700000, 0.000000,  0.000000 
 234103424.000000, -9.552148 , 0.222532, 2.356930, 1565349120.000000, -0.070000,  0.210000,  -1.050000, 0.000000,  0.000000 
 234123648.000000, -9.604790 , 0.172283, 2.349752, 1565369472.000000, 0.070000,  0.560000,  -1.050000, 0.000000,  0.000000 
 234143104.000000, -9.583255 , 0.145962, 2.349752, 1565389696.000000, -0.770000,  0.630000,  -0.840000, 0.000000,  0.000000 
 234163072.000000, -9.590433 , 0.167498, 2.378466, 1565409152.000000, -2.100000,  0.420000,  -0.490000, 0.000000,  0.000000 
 234183040.000000, -9.576077 , 0.066999, 2.388037, 1565429120.000000, -2.940000,  0.140000,  -0.420000, 0.000000,  0.000000 
 234203392.000000, -9.566505 , 0.105284, 2.376073, 1565449088.000000, -2.310000,  0.210000,  -0.350000, 0.000000,  0.000000 
 234223616.000000, -9.609575 , 0.174676, 2.361716, 1565469440.000000, -1.400000,  0.210000,  -0.210000, 0.000000,  0.000000 
 234242944.000000, -9.619147 , 0.200997, 2.325824, 1565489664.000000, -0.630000,  0.280000,  -0.280000, 0.000000,  0.000000 
 234262912.000000, -9.542577 , 0.174676, 2.414358, 1565509120.000000, -0.630000,  0.280000,  0.210000, 0.000000,  0.000000 
 234283008.000000, -9.547362 , 0.198604, 2.349752, 1565529088.000000, -1.260000,  -0.140000,  0.840000, 0.000000,  0.000000 
 234303232.000000, -9.547362 , 0.184247, 2.397608, 1565549056.000000, -1.610000,  0.070000,  0.910000, 0.000000,  0.000000 
 234323584.000000, -9.556933 , 0.145962, 2.471786, 1565569408.000000, -2.730000,  0.490000,  0.210000, 0.000000,  0.000000 
 234342912.000000, -9.556933 , 0.133998, 2.419144, 1565589632.000000, -3.500000,  0.350000,  0.210000, 0.000000,  0.000000 
 234362880.000000, -9.547362 , 0.143569, 2.416751, 1565608960.000000, -3.220000,  0.140000,  0.350000, 0.000000,  0.000000 
 234382848.000000, -9.650253 , 0.131605, 2.474179, 1565628928.000000, -3.010000,  -0.140000,  1.050000, 0.000000,  0.000000 
 234403200.000000, -9.576077 , 0.102891, 2.428715, 1565649024.000000, -2.800000,  -0.210000,  0.910000, 0.000000,  0.000000 
 234423424.000000, -9.461221 , 0.157926, 2.368894, 1565669248.000000, -0.280000,  -0.420000,  1.260000, 0.000000,  0.000000 
 234442880.000000, -9.621540 , 0.150748, 2.325824, 1565689600.000000, 2.310000,  -0.560000,  1.260000, 0.000000,  0.000000 
 234462848.000000, -9.535398 , 0.095713, 2.333002, 1565708928.000000, 2.590000,  0.560000,  0.350000, 0.000000,  0.000000 
 234482816.000000, -9.542577 , 0.043071, 2.366502, 1565728896.000000, 2.100000,  0.560000,  1.120000, 0.000000,  0.000000 
 234503168.000000, -9.511470 , 0.095713, 2.289931, 1565748864.000000, 2.310000,  0.140000,  0.910000, 0.000000,  0.000000 
 234523392.000000, -9.530612 , 0.210568, 2.266003, 1565769216.000000, 3.850000,  0.770000,  0.280000, 0.000000,  0.000000 
 234542848.000000, -9.556933 , 0.263210, 2.277967, 1565789440.000000, 4.200000,  0.980000,  -0.630000, 0.000000,  0.000000 
 234562816.000000, -9.616754 , 0.289532, 2.325824, 1565808896.000000, 2.240000,  1.610000,  -0.560000, 0.000000,  0.000000 
 234582784.000000, -9.580862 , 0.296710, 2.321038, 1565828864.000000, -1.540000,  1.470000,  -0.070000, 0.000000,  0.000000 
 234603136.000000, -9.564112 , 0.162712, 2.450250, 1565848832.000000, -5.460000,  1.120000,  0.910000, 0.000000,  0.000000 
 234623360.000000, -9.533006 , 0.157926, 2.452643, 1565869184.000000, -8.050000,  0.560000,  1.540000, 0.000000,  0.000000 
 234642816.000000, -9.544970 , 0.078963, 2.450250, 1565889408.000000, -8.330000,  0.140000,  1.750000, 0.000000,  0.000000 
 234662784.000000, -9.509077 , 0.064606, 2.435893, 1565908864.000000, -7.280000,  -0.140000,  1.470000, 0.000000,  0.000000 
 234682752.000000, -9.544970 , 0.102891, 2.452643, 1565928832.000000, -5.880000,  -0.140000,  1.260000, 0.000000,  0.000000 
 234703104.000000, -9.547362 , 0.160319, 2.438286, 1565948800.000000, -4.270000,  -0.070000,  0.700000, 0.000000,  0.000000 
 234723328.000000, -9.556933 , 0.131605, 2.455036, 1565969152.000000, -3.080000,  -0.140000,  0.140000, 0.000000,  0.000000 
 234742656.000000, -9.576077 , 0.165105, 2.457429, 1565989376.000000, -1.890000,  -0.140000,  -0.350000, 0.000000,  0.000000 
 234762752.000000, -9.580862 , 0.157926, 2.445465, 1566008832.000000, -0.070000,  0.140000,  -0.910000, 0.000000,  0.000000 
 234782720.000000, -9.564112 , 0.174676, 2.402394, 1566028800.000000, 1.540000,  0.070000,  -0.980000, 0.000000,  0.000000 
 234802944.000000, -9.600004 , 0.198604, 2.371287, 1566048768.000000, 2.380000,  -0.140000,  -0.700000, 0.000000,  0.000000 
 234823296.000000, -9.568897 , 0.210568, 2.380858, 1566069120.000000, 1.750000,  -0.070000,  -0.280000, 0.000000,  0.000000 
 234842624.000000, -9.480364 , 0.169890, 2.356930, 1566089344.000000, 0.280000,  -0.280000,  0.070000, 0.000000,  0.000000 
 234862592.000000, -9.497113 , 0.150748, 2.438286, 1566108672.000000, -1.750000,  -0.980000,  1.120000, 0.000000,  0.000000 
 234882688.000000, -9.588040 , 0.143569, 2.457429, 1566128768.000000, -4.970000,  -0.560000,  0.980000, 0.000000,  0.000000 
 234902912.000000, -9.513863 , 0.074178, 2.438286, 1566148736.000000, -5.530000,  -0.350000,  0.560000, 0.000000,  0.000000 
 234923264.000000, -9.533006 , 0.145962, 2.433501, 1566168960.000000, -2.030000,  -0.980000,  1.120000, 0.000000,  0.000000 
 234942592.000000, -9.542577 , 0.174676, 2.321038, 1566189312.000000, 1.400000,  -0.700000,  1.750000, 0.000000,  0.000000 
 234962560.000000, -9.609575 , 0.167498, 2.268396, 1566208640.000000, 2.870000,  -0.210000,  1.120000, 0.000000,  0.000000 
 234982528.000000, -9.611969 , 0.157926, 2.340181, 1566228608.000000, 2.170000,  0.280000,  0.280000, 0.000000,  0.000000 
 235002880.000000, -9.528220 , 0.153141, 2.330609, 1566248704.000000, 0.910000,  0.490000,  0.560000, 0.000000,  0.000000 
 235025152.000000, -9.573684 , 0.275175, 2.294717, 1566268928.000000, 0.700000,  0.770000,  0.770000, 0.000000,  0.000000 
 235042560.000000, -9.600004 , 0.256032, 2.395216, 1566291200.000000, -0.770000,  1.120000,  0.350000, 0.000000,  0.000000 
 235062528.000000, -9.549755 , 0.167498, 2.447858, 1566308608.000000, -4.200000,  1.120000,  0.280000, 1563603840.000000,  1010.255005 
 235082496.000000, -9.513863 , 0.189033, 2.469393, 1566328576.000000, -6.230000,  0.910000,  0.420000, 0.000000,  0.000000 
 235102848.000000, -9.568897 , 0.177069, 2.455036, 1566348544.000000, -5.460000,  0.490000,  1.400000, 0.000000,  0.000000 
 235123072.000000, -9.525827 , 0.169890, 2.431108, 1566368896.000000, -4.270000,  0.560000,  1.820000, 0.000000,  0.000000 
 235142528.000000, -9.516255 , 0.133998, 2.443072, 1566389120.000000, -3.710000,  0.560000,  1.680000, 0.000000,  0.000000 
 235162496.000000, -9.556933 , 0.143569, 2.419144, 1566408576.000000, -4.200000,  0.630000,  1.610000, 0.000000,  0.000000 
 235182464.000000, -9.537791 , 0.105284, 2.474179, 1566428544.000000, -4.550000,  0.630000,  1.330000, 0.000000,  0.000000 
 235202816.000000, -9.549755 , 0.165105, 2.447858, 1566448512.000000, -3.990000,  0.910000,  0.840000, 0.000000,  0.000000 
 235223040.000000, -9.501899 , 0.215354, 2.445465, 1566468864.000000, -2.170000,  1.050000,  0.420000, 0.000000,  0.000000 
 235242496.000000, -9.578469 , 0.191426, 2.411965, 1566489088.000000, -0.280000,  1.120000,  0.420000, 0.000000,  0.000000 
 235262464.000000, -9.573684 , 0.236889, 2.433501, 1566508544.000000, 0.490000,  1.400000,  -0.210000, 0.000000,  0.000000 
 235282432.000000, -9.523434 , 0.131605, 2.400001, 1566528512.000000, 0.140000,  1.330000,  0.350000, 0.000000,  0.000000 
 235302656.000000, -9.535398 , 0.100499, 2.450250, 1566548480.000000, -0.350000,  1.050000,  0.560000, 0.000000,  0.000000 
 235323008.000000, -9.506684 , 0.145962, 2.431108, 1566568832.000000, -0.630000,  0.840000,  0.490000, 0.000000,  0.000000 
 235342336.000000, -9.540184 , 0.153141, 2.431108, 1566589056.000000, -1.050000,  0.770000,  0.490000, 0.000000,  0.000000 
 235362560.000000, -9.509077 , 0.196211, 2.426322, 1566608512.000000, -1.260000,  0.840000,  -0.140000, 0.000000,  0.000000 
 235382400.000000, -9.482756 , 0.229711, 2.426322, 1566628608.000000, -1.610000,  0.770000,  -0.070000, 0.000000,  0.000000 
 235402624.000000, -9.549755 , 0.167498, 2.411965, 1566648448.000000, -2.660000,  0.630000,  0.350000, 0.000000,  0.000000 
 235422976.000000, -9.475577 , 0.186640, 2.476572, 1566668672.000000, -3.850000,  0.630000,  0.350000, 0.000000,  0.000000 
 235442304.000000, -9.518648 , 0.148355, 2.486143, 1566689024.000000, -4.620000,  0.490000,  -0.070000, 0.000000,  0.000000 
 235462272.000000, -9.544970 , 0.088534, 2.474179, 1566708352.000000, -4.200000,  0.420000,  -0.490000, 0.000000,  0.000000 
 235482368.000000, -9.482756 , 0.071785, 2.471786, 1566728448.000000, -2.030000,  0.420000,  -1.120000, 0.000000,  0.000000 
 235502592.000000, -9.528220 , 0.124427, 2.443072, 1566748416.000000, 0.770000,  0.350000,  -1.190000, 0.000000,  0.000000 
 235522944.000000, -9.595219 , 0.145962, 2.395216, 1566768640.000000, 2.730000,  0.420000,  -1.120000, 0.000000,  0.000000 
 235542272.000000, -9.533006 , 0.093320, 2.385644, 1566788992.000000, 3.150000,  0.420000,  -1.540000, 0.000000,  0.000000 
 235562368.000000, -9.578469 , 0.114855, 2.380858, 1566808320.000000, 2.520000,  0.420000,  -1.750000, 0.000000,  0.000000 
 235582208.000000, -9.576077 , 0.131605, 2.390430, 1566828416.000000, 3.080000,  0.280000,  -2.170000, 0.000000,  0.000000 
 235602560.000000, -9.580862 , 0.172283, 2.383251, 1566848384.000000, 3.710000,  0.140000,  -1.680000, 0.000000,  0.000000 
 235622784.000000, -9.588040 , 0.157926, 2.311467, 1566868608.000000, 3.150000,  0.070000,  -0.910000, 0.000000,  0.000000 
 235642240.000000, -9.547362 , 0.224925, 2.380858, 1566888832.000000, 1.890000,  0.070000,  -0.420000, 0.000000,  0.000000 
 235662208.000000, -9.600004 , 0.095713, 2.407180, 1566908288.000000, -0.070000,  -0.350000,  -0.490000, 0.000000,  0.000000 
 235682176.000000, -9.576077 , 0.114855, 2.433501, 1566928256.000000, -1.470000,  0.280000,  -0.700000, 0.000000,  0.000000 
 235702528.000000, -9.568897 , 0.153141, 2.419144, 1566948224.000000, -1.120000,  -0.070000,  0.210000, 0.000000,  0.000000 
 235722752.000000, -9.595219 , 0.098106, 2.419144, 1566968576.000000, -1.120000,  -0.420000,  0.140000, 0.000000,  0.000000 
 235742208.000000, -9.621540 , 0.093320, 2.471786, 1566988800.000000, -0.980000,  0.420000,  -0.210000, 0.000000,  0.000000 
 235762176.000000, -9.590433 , 0.069392, 2.423929, 1567008256.000000, -0.630000,  -0.140000,  -0.210000, 0.000000,  0.000000 
 235782144.000000, -9.544970 , 0.181855, 2.356930, 1567028224.000000, 1.750000,  -0.210000,  0.700000, 0.000000,  0.000000 
 235802496.000000, -9.631111 , 0.160319, 2.325824, 1567048192.000000, 3.850000,  -0.350000,  0.840000, 0.000000,  0.000000 
 235822720.000000, -9.585647 , 0.138784, 2.297110, 1567068544.000000, 4.480000,  -0.140000,  0.770000, 0.000000,  0.000000 
 235842048.000000, -9.530612 , 0.138784, 2.287539, 1567088768.000000, 3.990000,  0.140000,  0.770000, 0.000000,  0.000000 
 235862144.000000, -9.556933 , 0.174676, 2.301895, 1567108224.000000, 3.710000,  0.350000,  0.350000, 0.000000,  0.000000 
 235882112.000000, -9.571291 , 0.208176, 2.368894, 1567128192.000000, 3.290000,  0.630000,  0.210000, 0.000000,  0.000000 
 235902336.000000, -9.566505 , 0.198604, 2.340181, 1567148160.000000, 2.450000,  0.840000,  0.630000, 0.000000,  0.000000 
 235922688.000000, -9.559326 , 0.172283, 2.380858, 1567168512.000000, 1.470000,  0.840000,  1.120000, 0.000000,  0.000000 
 235942016.000000, -9.561719 , 0.189033, 2.366502, 1567188736.000000, 0.560000,  0.770000,  1.400000, 0.000000,  0.000000 
 235961984.000000, -9.561719 , 0.210568, 2.392823, 1567208064.000000, -0.140000,  0.630000,  1.400000, 0.000000,  0.000000 
 235982080.000000, -9.528220 , 0.203390, 2.378466, 1567228160.000000, 0.210000,  0.700000,  1.190000, 0.000000,  0.000000 
 236002304.000000, -9.521042 , 0.234497, 2.407180, 1567248128.000000, 0.560000,  0.700000,  1.330000, 0.000000,  0.000000 
 236024576.000000, -9.568897 , 0.217747, 2.426322, 1567268352.000000, 0.070000,  0.840000,  1.330000, 0.000000,  0.000000 
 236041984.000000, -9.573684 , 0.133998, 2.469393, 1567308032.000000, -0.980000,  0.490000,  1.400000, 1564603392.000000,  1010.256165 
 236061952.000000, -9.518648 , 0.208176, 2.464607, 0.000000, 0.000000,  0.000000,  0.000000, 0.000000,  0.000000 
 236081920.000000, -9.554541 , 0.212961, 2.450250, 1567328000.000000, -0.420000,  0.140000,  1.120000, 0.000000,  0.000000 
 236102272.000000, -9.533006 , 0.227318, 2.435893, 1567348096.000000, 0.350000,  0.070000,  0.910000, 0.000000,  0.000000 
 236122496.000000, -9.518648 , 0.236889, 2.426322, 1567368320.000000, 0.630000,  0.070000,  0.630000, 0.000000,  0.000000 
 236141952.000000, -9.540184 , 0.256032, 2.440679, 1567388672.000000, 0.980000,  -0.140000,  0.420000, 0.000000,  0.000000 
 236161920.000000, -9.564112 , 0.200997, 2.404787, 1567408000.000000, 1.190000,  -0.350000,  0.280000, 0.000000,  0.000000 
 236181888.000000, -9.511470 , 0.210568, 2.385644, 1567427968.000000, 1.820000,  -0.350000,  -0.420000, 0.000000,  0.000000 
 236202240.000000, -9.523434 , 0.210568, 2.421536, 1567447936.000000, 2.170000,  -0.280000,  -0.910000, 0.000000,  0.000000 
 236222464.000000, -9.556933 , 0.169890, 2.373680, 1567468288.000000, 2.100000,  -0.140000,  -1.120000, 0.000000,  0.000000 
 236241920.000000, -9.556933 , 0.148355, 2.385644, 1567488512.000000, 2.520000,  0.140000,  -1.680000, 0.000000,  0.000000 
 236261888.000000, -9.501899 , 0.177069, 2.416751, 1567507968.000000, 3.010000,  0.420000,  -1.750000, 0.000000,  0.000000 
 236281856.000000, -9.573684 , 0.212961, 2.368894, 1567527936.000000, 3.080000,  0.630000,  -1.750000, 0.000000,  0.000000 
 236302208.000000, -9.626326 , 0.193819, 2.392823, 1567547904.000000, 2.660000,  0.770000,  -1.540000, 0.000000,  0.000000 
 236322432.000000, -9.552148 , 0.244068, 2.474179, 1567568256.000000, 0.350000,  0.420000,  -0.770000, 0.000000,  0.000000 
 236341888.000000, -9.535398 , 0.217747, 2.344966, 1567607936.000000, 0.210000,  0.280000,  -0.140000, 0.000000,  0.000000 
 236361856.000000, -9.554541 , 0.232104, 2.433501, 0.000000, 0.000000,  0.000000,  0.000000, 0.000000,  0.000000 
 236381824.000000, -9.604790 , 0.167498, 2.455036, 1567627904.000000, -1.120000,  0.070000,  -0.560000, 0.000000,  0.000000 
 236402176.000000, -9.576077 , 0.136391, 2.407180, 1567647872.000000, -2.310000,  0.420000,  -0.560000, 0.000000,  0.000000 
 236422400.000000, -9.588040 , 0.148355, 2.428715, 1567668224.000000, -0.980000,  0.210000,  -0.280000, 0.000000,  0.000000 
 236441728.000000, -9.580862 , 0.196211, 2.431108, 1567688448.000000, 0.770000,  0.350000,  -0.210000, 0.000000,  0.000000 
 236461824.000000, -9.552148 , 0.181855, 2.352145, 1567707904.000000, 2.030000,  0.210000,  -0.490000, 0.000000,  0.000000 
 236481792.000000, -9.578469 , 0.212961, 2.378466, 1567727872.000000, 2.870000,  0.140000,  -1.120000, 0.000000,  0.000000 
 236502016.000000, -9.573684 , 0.229711, 2.349752, 1567747840.000000, 2.730000,  0.280000,  -1.330000, 0.000000,  0.000000 
 236522368.000000, -9.518648 , 0.203390, 2.313859, 1567768192.000000, 2.730000,  0.350000,  -0.910000, 0.000000,  0.000000 
 236541696.000000, -9.530612 , 0.234497, 2.373680, 1567788416.000000, 2.520000,  0.560000,  -0.770000, 0.000000,  0.000000 
 236561792.000000, -9.549755 , 0.227318, 2.330609, 1567807744.000000, 1.470000,  0.910000,  -0.420000, 0.000000,  0.000000 
 236581760.000000, -9.588040 , 0.177069, 2.397608, 1567827840.000000, 0.420000,  0.910000,  -0.210000, 0.000000,  0.000000 
 236601984.000000, -9.549755 , 0.210568, 2.364109, 1567847808.000000, -0.070000,  0.770000,  0.280000, 0.000000,  0.000000 
 236622336.000000, -9.552148 , 0.220140, 2.349752, 1567868032.000000, -0.560000,  0.490000,  0.770000, 0.000000,  0.000000 
 236641664.000000, -9.528220 , 0.229711, 2.371287, 1567888384.000000, -1.400000,  0.630000,  0.700000, 0.000000,  0.000000 
 236661632.000000, -9.568897 , 0.172283, 2.378466, 1567907712.000000, -2.940000,  0.770000,  0.560000, 0.000000,  0.000000 
 236681600.000000, -9.578469 , 0.122034, 2.433501, 1567927680.000000, -4.200000,  0.840000,  0.630000, 0.000000,  0.000000 
 236701952.000000, -9.568897 , 0.227318, 2.426322, 1567947776.000000, -3.570000,  0.700000,  0.630000, 0.000000,  0.000000 
 236722176.000000, -9.571291 , 0.220140, 2.447858, 1567968000.000000, -2.590000,  0.420000,  1.190000, 0.000000,  0.000000 
 236741632.000000, -9.578469 , 0.217747, 2.452643, 1567988352.000000, -2.240000,  0.280000,  1.750000, 0.000000,  0.000000 
 236761600.000000, -9.516255 , 0.236889, 2.409572, 1568007680.000000, -2.520000,  0.070000,  1.680000, 0.000000,  0.000000 
 236781568.000000, -9.540184 , 0.167498, 2.409572, 1568027648.000000, -2.380000,  -0.070000,  1.470000, 0.000000,  0.000000 
 236801920.000000, -9.556933 , 0.165105, 2.409572, 1568047616.000000, -1.540000,  -0.140000,  1.120000, 0.000000,  0.000000 
 236822144.000000, -9.566505 , 0.212961, 2.373680, 1568067968.000000, -0.280000,  -0.140000,  0.910000, 0.000000,  0.000000 
 236841600.000000, -9.530612 , 0.239282, 2.311467, 1568088192.000000, 0.280000,  0.070000,  0.840000, 0.000000,  0.000000 
 236861568.000000, -9.568897 , 0.227318, 2.335395, 1568107648.000000, -0.070000,  0.140000,  0.980000, 0.000000,  0.000000 
 236881536.000000, -9.561719 , 0.227318, 2.380858, 1568127616.000000, -0.700000,  0.490000,  0.630000, 0.000000,  0.000000 
 236901888.000000, -9.542577 , 0.236889, 2.366502, 1568147584.000000, -1.330000,  0.560000,  0.700000, 0.000000,  0.000000 
 236922112.000000, -9.523434 , 0.212961, 2.356930, 1568167936.000000, -1.750000,  0.490000,  1.120000, 0.000000,  0.000000 
 236941568.000000, -9.547362 , 0.277567, 2.404787, 1568188160.000000, -1.960000,  0.700000,  1.050000, 0.000000,  0.000000 
 236961536.000000, -9.499505 , 0.169890, 2.419144, 1568207616.000000, -3.080000,  0.700000,  1.190000, 0.000000,  0.000000 
 236981504.000000, -9.477970 , 0.136391, 2.433501, 1568227584.000000, -3.990000,  0.490000,  0.770000, 0.000000,  0.000000 
 237001728.000000, -9.568897 , 0.236889, 2.447858, 1568247552.000000, -3.220000,  0.630000,  0.210000, 0.000000,  0.000000 
 237024000.000000, -9.588040 , 0.244068, 2.407180, 1568267904.000000, -1.610000,  0.770000,  -0.350000, 0.000000,  0.000000 
 237041408.000000, -9.602397 , 0.200997, 2.388037, 1568307584.000000, -0.840000,  0.420000,  -0.560000, 1565602816.000000,  1010.257874 
 237061504.000000, -9.576077 , 0.198604, 2.443072, 0.000000, 0.000000,  0.000000,  0.000000, 0.000000,  0.000000 
 237081472.000000, -9.571291 , 0.200997, 2.385644, 1568327552.000000, -0.210000,  0.210000,  0.070000, 0.000000,  0.000000 
 237101696.000000, -9.542577 , 0.198604, 2.359323, 1568347520.000000, 0.560000,  0.210000,  0.350000, 0.000000,  0.000000 
 237122048.000000, -9.549755 , 0.191426, 2.395216, 1568367744.000000, 0.420000,  0.350000,  0.210000, 0.000000,  0.000000 
 237141376.000000, -9.576077 , 0.172283, 2.404787, 1568388096.000000, 0.140000,  0.420000,  -0.070000, 0.000000,  0.000000 
 237161344.000000, -9.571291 , 0.200997, 2.318645, 1568407424.000000, 0.840000,  0.420000,  -0.140000, 0.000000,  0.000000 
 237181440.000000, -9.607183 , 0.210568, 2.323431, 1568427520.000000, 1.470000,  0.420000,  -0.140000, 0.000000,  0.000000 
 237201664.000000, -9.561719 , 0.284746, 2.395216, 1568447488.000000, 1.190000,  0.630000,  -0.280000, 0.000000,  0.000000 
 237221888.000000, -9.559326 , 0.227318, 2.376073, 1568467712.000000, 0.980000,  0.700000,  -0.210000, 0.000000,  0.000000 
 237241344.000000, -9.554541 , 0.256032, 2.356930, 1568488064.000000, 0.910000,  0.770000,  -0.140000, 0.000000,  0.000000 
 237261312.000000, -9.590433 , 0.239282, 2.395216, 1568507392.000000, 0.700000,  0.910000,  0.140000, 0.000000,  0.000000 
 237281280.000000, -9.611969 , 0.186640, 2.364109, 1568527360.000000, -0.140000,  0.840000,  0.420000, 0.000000,  0.000000 
 237301632.000000, -9.552148 , 0.208176, 2.423929, 1568547456.000000, -0.560000,  0.700000,  0.490000, 0.000000,  0.000000 
 237321856.000000, -9.585647 , 0.196211, 2.397608, 1568567680.000000, -0.420000,  0.560000,  0.630000, 0.000000,  0.000000 
 237341312.000000, -9.583255 , 0.224925, 2.356930, 1568587904.000000, -0.210000,  0.560000,  0.490000, 0.000000,  0.000000 
 237361280.000000, -9.585647 , 0.239282, 2.376073, 1568607360.000000, -0.560000,  0.630000,  0.490000, 0.000000,  0.000000 
 237381248.000000, -9.588040 , 0.239282, 2.364109, 1568627328.000000, -0.980000,  0.630000,  0.490000, 0.000000,  0.000000 
 237401600.000000, -9.521042 , 0.270389, 2.356930, 1568647296.000000, -0.980000,  0.630000,  0.420000, 0.000000,  0.000000 
 237421824.000000, -9.544970 , 0.244068, 2.392823, 1568667648.000000, -0.910000,  0.420000,  0.350000, 0.000000,  0.000000 
 237441280.000000, -9.559326 , 0.241675, 2.411965, 1568687872.000000, -1.400000,  0.630000,  0.280000, 0.000000,  0.000000 
 237461248.000000, -9.583255 , 0.212961, 2.380858, 1568707328.000000, -1.890000,  0.840000,  0.210000, 0.000000,  0.000000 
 237481216.000000, -9.583255 , 0.177069, 2.433501, 1568727296.000000, -2.310000,  0.910000,  0.350000, 0.000000,  0.000000 
 237501568.000000, -9.576077 , 0.196211, 2.416751, 1568747264.000000, -2.170000,  0.560000,  0.350000, 0.000000,  0.000000 
 237521792.000000, -9.537791 , 0.210568, 2.385644, 1568767616.000000, -1.190000,  0.420000,  0.140000, 0.000000,  0.000000 
 237541120.000000, -9.549755 , 0.251246, 2.337788, 1568787840.000000, 0.140000,  0.280000,  0.350000, 0.000000,  0.000000 
 237561216.000000, -9.485149 , 0.227318, 2.321038, 1568807296.000000, 0.210000,  0.140000,  0.560000, 0.000000,  0.000000 
 237581184.000000, -9.533006 , 0.246461, 2.342573, 1568827264.000000, -0.210000,  0.350000,  0.490000, 0.000000,  0.000000 
 237601408.000000, -9.549755 , 0.212961, 2.402394, 1568847232.000000, -1.400000,  0.560000,  0.420000, 0.000000,  0.000000 
 237621760.000000, -9.521042 , 0.217747, 2.364109, 1568867584.000000, -2.380000,  0.560000,  0.420000, 0.000000,  0.000000 
 237641088.000000, -9.583255 , 0.212961, 2.376073, 1568887808.000000, -2.520000,  0.560000,  0.350000, 0.000000,  0.000000 
 237661056.000000, -9.616754 , 0.220140, 2.378466, 1568907136.000000, -2.590000,  0.700000,  0.350000, 0.000000,  0.000000 
 237681152.000000, -9.556933 , 0.205783, 2.426322, 1568927232.000000, -2.940000,  0.490000,  -0.070000, 0.000000,  0.000000 
 237701376.000000, -9.595219 , 0.229711, 2.376073, 1568947200.000000, -2.590000,  0.350000,  0.210000, 0.000000,  0.000000 
 237721728.000000, -9.561719 , 0.220140, 2.380858, 1568967424.000000, -1.050000,  0.140000,  0.560000, 0.000000,  0.000000 
 237741056.000000, -9.518648 , 0.229711, 2.361716, 1568987776.000000, -0.070000,  0.140000,  0.630000, 0.000000,  0.000000 
 237761024.000000, -9.521042 , 0.227318, 2.340181, 1569007104.000000, 0.210000,  0.140000,  0.210000, 0.000000,  0.000000 
 237780992.000000, -9.573684 , 0.165105, 2.390430, 1569027072.000000, -0.280000,  0.420000,  -0.210000, 0.000000,  0.000000 
 237801344.000000, -9.564112 , 0.232104, 2.407180, 1569047168.000000, -0.070000,  0.420000,  -0.210000, 0.000000,  0.000000 
 237821568.000000, -9.662218 , 0.200997, 2.371287, 1569067392.000000, 0.350000,  0.350000,  -0.280000, 0.000000,  0.000000 
 237841024.000000, -9.614362 , 0.272782, 2.335395, 1569087744.000000, 0.420000,  0.350000,  -0.210000, 0.000000,  0.000000 
 237860992.000000, -9.549755 , 0.267996, 2.347359, 1569107072.000000, -0.140000,  0.140000,  0.350000, 0.000000,  0.000000 
 237880960.000000, -9.576077 , 0.277567, 2.373680, 1569127040.000000, -0.490000,  0.070000,  0.560000, 0.000000,  0.000000 
 237901312.000000, -9.592826 , 0.241675, 2.342573, 1569167360.000000, -1.750000,  0.490000,  1.050000, 0.000000,  0.000000 
 237921536.000000, -9.590433 , 0.208176, 2.404787, 0.000000, 0.000000,  0.000000,  0.000000, 0.000000,  0.000000 
 237940992.000000, -9.533006 , 0.236889, 2.459821, 1569187584.000000, -1.890000,  0.210000,  1.120000, 0.000000,  0.000000 
 237960960.000000, -9.554541 , 0.236889, 2.462214, 1569207040.000000, -1.610000,  0.280000,  0.630000, 0.000000,  0.000000 
 237980928.000000, -9.509077 , 0.191426, 2.383251, 1569227008.000000, -1.120000,  0.350000,  0.490000, 0.000000,  0.000000 
 238001280.000000, -9.537791 , 0.179462, 2.392823, 1569246976.000000, -0.700000,  0.140000,  0.630000, 0.000000,  0.000000 
 238023424.000000, -9.571291 , 0.232104, 2.414358, 1569267328.000000, -0.280000,  0.140000,  0.490000, 0.000000,  0.000000 
 238040960.000000, -9.576077 , 0.198604, 2.407180, 1569289472.000000, -0.280000,  0.140000,  0.700000, 0.000000,  0.000000 
 238060928.000000, -9.559326 , 0.198604, 2.426322, 1569307008.000000, 0.070000,  0.140000,  0.420000, 1566602240.000000,  1010.258789 
 238080896.000000, -9.566505 , 0.244068, 2.383251, 1569326976.000000, 0.910000,  0.070000,  0.210000, 0.000000,  0.000000 
 238101248.000000, -9.583255 , 0.258425, 2.378466, 1569346944.000000, 1.610000,  -0.070000,  0.420000, 0.000000,  0.000000 
 238121472.000000, -9.537791 , 0.246461, 2.368894, 1569367424.000000, 1.610000,  -0.070000,  0.560000, 0.000000,  0.000000 
 238140800.000000, -9.549755 , 0.256032, 2.368894, 1569387520.000000, 1.050000,  -0.070000,  0.560000, 0.000000,  0.000000 
 238160896.000000, -9.588040 , 0.205783, 2.380858, 1569406976.000000, 0.350000,  -0.070000,  0.770000, 0.000000,  0.000000 
 238180864.000000, -9.559326 , 0.248854, 2.356930, 1569426944.000000, 0.560000,  -0.070000,  0.560000, 0.000000,  0.000000 
 238201088.000000, -9.497113 , 0.260818, 2.359323, 1569446912.000000, 0.280000,  -0.070000,  0.910000, 0.000000,  0.000000 
 238221440.000000, -9.537791 , 0.272782, 2.325824, 1569467136.000000, -0.280000,  -0.070000,  0.910000, 0.000000,  0.000000 
 238240768.000000, -9.554541 , 0.330210, 2.366502, 1569487488.000000, -0.280000,  0.280000,  0.490000, 0.000000,  0.000000 
 238260736.000000, -9.509077 , 0.263210, 2.356930, 1569506816.000000, -1.260000,  0.350000,  0.350000, 0.000000,  0.000000 
 238280832.000000, -9.561719 , 0.270389, 2.371287, 1569526784.000000, -1.820000,  0.420000,  0.280000, 0.000000,  0.000000 
 238301056.000000, -9.602397 , 0.256032, 2.390430, 1569546880.000000, -1.680000,  0.490000,  0.280000, 0.000000,  0.000000 
 238321408.000000, -9.623933 , 0.251246, 2.438286, 1569567104.000000, -1.750000,  0.560000,  -0.210000, 0.000000,  0.000000 
 238340736.000000, -9.611969 , 0.174676, 2.421536, 1569587456.000000, -1.610000,  0.420000,  -0.140000, 0.000000,  0.000000 
 238360704.000000, -9.609575 , 0.301496, 2.371287, 1569606784.000000, -0.070000,  0.070000,  0.350000, 0.000000,  0.000000 
 238380672.000000, -9.516255 , 0.337388, 2.321038, 1569626752.000000, 1.330000,  -0.070000,  0.840000, 0.000000,  0.000000 
 238401024.000000, -9.554541 , 0.260818, 2.368894, 1569646720.000000, 0.770000,  -0.070000,  0.840000, 0.000000,  0.000000 
 238421248.000000, -9.547362 , 0.234497, 2.409572, 1569667072.000000, -0.140000,  0.070000,  0.490000, 0.000000,  0.000000 
 238440704.000000, -9.523434 , 0.212961, 2.330609, 1569687424.000000, -0.280000,  0.210000,  0.210000, 0.000000,  0.000000 
 238460672.000000, -9.530612 , 0.299103, 2.347359, 1569706752.000000, 0.630000,  0.280000,  0.210000, 0.000000,  0.000000 
 238480640.000000, -9.554541 , 0.294317, 2.366502, 1569726720.000000, 0.630000,  0.490000,  -0.140000, 0.000000,  0.000000 
 238500992.000000, -9.554541 , 0.272782, 2.347359, 1569746688.000000, -0.070000,  0.490000,  -0.350000, 0.000000,  0.000000 
 238521216.000000, -9.556933 , 0.284746, 2.388037, 1569767040.000000, -0.700000,  0.420000,  -0.350000, 0.000000,  0.000000 
 238540672.000000, -9.523434 , 0.291924, 2.383251, 1569787264.000000, -1.330000,  0.630000,  -0.070000, 0.000000,  0.000000 
 238560640.000000, -9.573684 , 0.241675, 2.414358, 1569806720.000000, -1.470000,  0.630000,  0.070000, 0.000000,  0.000000 
 238580608.000000, -9.554541 , 0.294317, 2.411965, 1569826688.000000, -1.260000,  0.560000,  -0.210000, 0.000000,  0.000000 
 238600960.000000, -9.544970 , 0.270389, 2.407180, 1569846656.000000, -1.400000,  0.490000,  -0.210000, 0.000000,  0.000000 
 238621184.000000, -9.547362 , 0.253639, 2.435893, 1569867008.000000, -1.610000,  0.350000,  -0.070000, 0.000000,  0.000000 
 238640512.000000, -9.552148 , 0.256032, 2.395216, 1569887232.000000, -2.170000,  0.350000,  -0.140000, 0.000000,  0.000000 
 238660608.000000, -9.595219 , 0.263210, 2.431108, 1569906688.000000, -1.960000,  0.210000,  -0.140000, 0.000000,  0.000000 
 238680576.000000, -9.585647 , 0.263210, 2.411965, 1569926656.000000, -1.190000,  0.210000,  -0.420000, 0.000000,  0.000000 
 238700800.000000, -9.571291 , 0.272782, 2.431108, 1569946624.000000, -0.630000,  0.140000,  -0.350000, 0.000000,  0.000000 
 238721152.000000, -9.554541 , 0.291924, 2.397608, 1569966976.000000, -0.630000,  0.070000,  -0.210000, 0.000000,  0.000000 
 238740480.000000, -9.528220 , 0.220140, 2.366502, 1569987200.000000, -0.560000,  0.140000,  -0.280000, 0.000000,  0.000000 
 238760576.000000, -9.533006 , 0.272782, 2.385644, 1570006528.000000, -0.210000,  0.070000,  -0.350000, 0.000000,  0.000000 
 238780544.000000, -9.600004 , 0.241675, 2.390430, 1570026624.000000, 0.280000,  0.210000,  -0.840000, 0.000000,  0.000000 
 238800768.000000, -9.559326 , 0.270389, 2.414358, 1570046592.000000, 0.700000,  0.350000,  -1.050000, 0.000000,  0.000000 
 238821120.000000, -9.611969 , 0.306281, 2.390430, 1570066816.000000, 0.560000,  0.280000,  -0.630000, 0.000000,  0.000000 
 238840448.000000, -9.585647 , 0.248854, 2.356930, 1570087168.000000, -0.140000,  0.350000,  -0.350000, 0.000000,  0.000000 
 238860416.000000, -9.547362 , 0.196211, 2.495714, 1570106496.000000, -1.120000,  0.210000,  -0.350000, 0.000000,  0.000000 
 238880384.000000, -9.518648 , 0.263210, 2.392823, 1570126592.000000, -0.910000,  0.070000,  0.140000, 0.000000,  0.000000 
 238900736.000000, -9.590433 , 0.325424, 2.368894, 1570146560.000000, 0.770000,  0.210000,  0.140000, 0.000000,  0.000000 
 238920960.000000, -9.573684 , 0.258425, 2.385644, 1570166784.000000, 0.280000,  0.350000,  0.140000, 0.000000,  0.000000 
 238940416.000000, -9.542577 , 0.217747, 2.428715, 1570187136.000000, -1.680000,  0.350000,  -0.140000, 0.000000,  0.000000 
 238960384.000000, -9.573684 , 0.234497, 2.390430, 1570206464.000000, -2.170000,  0.420000,  -0.070000, 0.000000,  0.000000 
 238980352.000000, -9.628718 , 0.251246, 2.426322, 1570226432.000000, -1.260000,  0.560000,  -0.490000, 0.000000,  0.000000 
 239000704.000000, -9.611969 , 0.270389, 2.416751, 1570246400.000000, -0.140000,  0.350000,  -0.560000, 0.000000,  0.000000 
 239022976.000000, -9.583255 , 0.241675, 2.371287, 1570266752.000000, 0.560000,  0.070000,  -0.560000, 0.000000,  0.000000 
 239040384.000000, -9.530612 , 0.323031, 2.376073, 1570289024.000000, 1.400000,  0.070000,  0.490000, 0.000000,  0.000000 
 239060352.000000, -9.561719 , 0.260818, 2.306681, 1570306432.000000, 1.400000,  0.070000,  0.840000, 1567601664.000000,  1010.258911 
 239080320.000000, -9.552148 , 0.258425, 2.361716, 1570326400.000000, 0.490000,  0.210000,  0.770000, 0.000000,  0.000000 
 239100672.000000, -9.542577 , 0.248854, 2.368894, 1570346368.000000, 0.070000,  0.350000,  0.490000, 0.000000,  0.000000 
 239120896.000000, -9.525827 , 0.279960, 2.349752, 1570366720.000000, -0.140000,  0.280000,  0.490000, 0.000000,  0.000000 
 239140352.000000, -9.631111 , 0.260818, 2.356930, 1570386944.000000, -0.140000,  0.350000,  0.490000, 0.000000,  0.000000 
 239160320.000000, -9.578469 , 0.244068, 2.397608, 1570406400.000000, -0.350000,  0.700000,  0.560000, 0.000000,  0.000000 
 239180288.000000, -9.561719 , 0.263210, 2.373680, 1570426368.000000, -0.840000,  0.630000,  0.630000, 0.000000,  0.000000 
 239200640.000000, -9.556933 , 0.294317, 2.414358, 1570446336.000000, -0.770000,  0.490000,  0.980000, 0.000000,  0.000000 
 239220864.000000, -9.533006 , 0.229711, 2.397608, 1570466688.000000, -0.490000,  0.420000,  0.840000, 0.000000,  0.000000 
 239240192.000000, -9.547362 , 0.244068, 2.361716, 1570486912.000000, -0.140000,  0.420000,  0.700000, 0.000000,  0.000000 
 239260288.000000, -9.556933 , 0.308674, 2.416751, 1570506368.000000, -0.140000,  0.490000,  0.770000, 0.000000,  0.000000 
 239280256.000000, -9.521042 , 0.256032, 2.423929, 1570526336.000000, 0.140000,  0.350000,  0.910000, 0.000000,  0.000000 
 239300480.000000, -9.504292 , 0.287139, 2.395216, 1570546304.000000, 0.140000,  0.350000,  0.700000, 0.000000,  0.000000 
 239320832.000000, -9.571291 , 0.229711, 2.414358, 1570566656.000000, -0.070000,  0.490000,  0.140000, 0.000000,  0.000000 
 239340160.000000, -9.573684 , 0.279960, 2.388037, 1570586880.000000, -0.350000,  0.490000,  -0.210000, 0.000000,  0.000000 
 239360384.000000, -9.537791 , 0.241675, 2.390430, 1570606208.000000, -0.700000,  0.560000,  -0.210000, 0.000000,  0.000000 
 239380224.000000, -9.492328 , 0.267996, 2.368894, 1570626432.000000, -0.980000,  0.490000,  -0.210000, 0.000000,  0.000000 
 239400448.000000, -9.549755 , 0.236889, 2.392823, 1570646272.000000, -1.330000,  0.490000,  0.140000, 0.000000,  0.000000 
 239420800.000000, -9.518648 , 0.251246, 2.409572, 1570666496.000000, -1.540000,  0.350000,  0.140000, 0.000000,  0.000000 
 239440128.000000, -9.482756 , 0.279960, 2.388037, 1570686848.000000, -1.470000,  0.280000,  -0.070000, 0.000000,  0.000000 
 239460096.000000, -9.585647 , 0.234497, 2.426322, 1570706176.000000, -1.820000,  0.210000,  -0.070000, 0.000000,  0.000000 
 239480064.000000, -9.583255 , 0.256032, 2.450250, 1570726144.000000, -1.890000,  0.350000,  -0.210000, 0.000000,  0.000000 
 239500416.000000, -9.592826 , 0.270389, 2.445465, 1570746240.000000, -1.400000,  0.420000,  -0.350000, 0.000000,  0.000000 
 239520640.000000, -9.592826 , 0.265603, 2.400001, 1570766464.000000, -0.700000,  0.280000,  -0.490000, 0.000000,  0.000000 
 239540096.000000, -9.573684 , 0.244068, 2.435893, 1570786816.000000, -0.140000,  0.070000,  -0.280000, 0.000000,  0.000000 
 239560064.000000, -9.559326 , 0.205783, 2.447858, 1570806144.000000, -0.490000,  -0.140000,  0.070000, 0.000000,  0.000000 
 239580032.000000, -9.578469 , 0.260818, 2.385644, 1570826112.000000, 0.070000,  -0.070000,  -0.140000, 0.000000,  0.000000 
 239600384.000000, -9.528220 , 0.256032, 2.445465, 1570846080.000000, 0.420000,  0.070000,  -0.140000, 0.000000,  0.000000 
 239620608.000000, -9.544970 , 0.193819, 2.433501, 1570866432.000000, -0.980000,  0.140000,  0.070000, 0.000000,  0.000000 
 239640064.000000, -9.549755 , 0.172283, 2.443072, 1570886656.000000, -1.260000,  0.070000,  -0.070000, 0.000000,  0.000000 
 239660032.000000, -9.600004 , 0.275175, 2.392823, 1570906112.000000, 0.140000,  0.210000,  -0.420000, 0.000000,  0.000000 
 239680000.000000, -9.564112 , 0.291924, 2.368894, 1570926080.000000, 1.120000,  0.280000,  -0.490000, 0.000000,  0.000000 
 239700352.000000, -9.533006 , 0.253639, 2.388037, 1570946048.000000, 1.330000,  0.140000,  -0.070000, 0.000000,  0.000000 
 239720576.000000, -9.525827 , 0.248854, 2.352145, 1570966400.000000, 1.330000,  0.070000,  0.280000, 0.000000,  0.000000 
 239739904.000000, -9.533006 , 0.270389, 2.349752, 1570986624.000000, 1.680000,  0.070000,  0.560000, 0.000000,  0.000000 
 239760000.000000, -9.568897 , 0.270389, 2.364109, 1571006080.000000, 1.750000,  0.070000,  0.560000, 0.000000,  0.000000 
 239779968.000000, -9.542577 , 0.244068, 2.359323, 1571026048.000000, 0.980000,  0.210000,  0.350000, 0.000000,  0.000000 
 239800192.000000, -9.542577 , 0.263210, 2.378466, 1571046016.000000, 0.560000,  0.350000,  0.280000, 0.000000,  0.000000 
 239820544.000000, -9.585647 , 0.260818, 2.378466, 1571066368.000000, 0.280000,  0.420000,  0.210000, 0.000000,  0.000000 
 239839872.000000, -9.566505 , 0.289532, 2.416751, 1571086592.000000, -0.140000,  0.490000,  0.420000, 0.000000,  0.000000 
 239859840.000000, -9.588040 , 0.287139, 2.440679, 1571105920.000000, -0.490000,  0.420000,  0.700000, 0.000000,  0.000000 
 239879936.000000, -9.588040 , 0.232104, 2.500499, 1571126016.000000, -0.140000,  0.280000,  0.700000, 0.000000,  0.000000 
 239900160.000000, -9.559326 , 0.294317, 2.423929, 1571145984.000000, 0.490000,  0.280000,  1.120000, 0.000000,  0.000000 
 239920512.000000, -9.506684 , 0.315853, 2.440679, 1571166208.000000, 1.540000,  -0.210000,  1.330000, 0.000000,  0.000000 
 239939840.000000, -9.549755 , 0.277567, 2.419144, 1571186560.000000, 2.450000,  -0.350000,  1.120000, 0.000000,  0.000000 
 239959808.000000, -9.513863 , 0.256032, 2.395216, 1571205888.000000, 3.150000,  -0.420000,  0.910000, 0.000000,  0.000000 
 239979776.000000, -9.559326 , 0.301496, 2.383251, 1571225856.000000, 3.500000,  -0.350000,  0.770000, 0.000000,  0.000000 
 240000128.000000, -9.554541 , 0.337388, 2.359323, 1571245952.000000, 3.500000,  -0.350000,  0.770000, 0.000000,  0.000000 
 240022400.000000, -9.576077 , 0.370888, 2.371287, 1571266176.000000, 3.080000,  -0.210000,  0.630000, 0.000000,  0.000000 
 240039808.000000, -9.552148 , 0.306281, 2.309074, 1571305856.000000, 1.540000,  -0.350000,  0.840000, 1568601088.000000,  1010.258423 
 240059776.000000, -9.521042 , 0.349352, 2.359323, 0.000000, 0.000000,  0.000000,  0.000000, 0.000000,  0.000000 
 240079744.000000, -9.537791 , 0.311067, 2.414358, 1571325824.000000, 0.700000,  -0.350000,  0.770000, 0.000000,  0.000000 
 240100096.000000, -9.583255 , 0.246461, 2.421536, 1571345792.000000, -0.070000,  -0.070000,  0.420000, 0.000000,  0.000000 
 240120320.000000, -9.499505 , 0.296710, 2.409572, 1571366144.000000, 0.700000,  0.140000,  0.070000, 0.000000,  0.000000 
 240139776.000000, -9.530612 , 0.325424, 2.378466, 1571386368.000000, 1.750000,  0.280000,  0.070000, 0.000000,  0.000000 
 240159744.000000, -9.535398 , 0.306281, 2.440679, 1571405824.000000, 1.890000,  0.560000,  -0.350000, 0.000000,  0.000000 
 240179712.000000, -9.592826 , 0.299103, 2.440679, 1571425792.000000, 1.190000,  0.910000,  -0.490000, 0.000000,  0.000000 
 240200064.000000, -9.561719 , 0.332602, 2.390430, 1571445760.000000, 1.190000,  0.980000,  -0.350000, 0.000000,  0.000000 
 240220288.000000, -9.556933 , 0.323031, 2.447858, 1571466112.000000, 2.030000,  0.910000,  -0.280000, 0.000000,  0.000000 
 240239744.000000, -9.528220 , 0.342174, 2.452643, 1571486336.000000, 1.820000,  0.770000,  -0.070000, 0.000000,  0.000000 
 240259712.000000, -9.516255 , 0.327817, 2.373680, 1571505792.000000, 1.330000,  0.770000,  -0.280000, 0.000000,  0.000000 
 240279680.000000, -9.544970 , 0.346959, 2.416751, 1571525760.000000, 1.190000,  0.420000,  -0.770000, 0.000000,  0.000000 
 240300032.000000, -9.554541 , 0.339781, 2.428715, 1571545728.000000, 0.560000,  0.280000,  -0.490000, 0.000000,  0.000000 
 240320256.000000, -9.504292 , 0.320638, 2.376073, 1571566080.000000, -0.070000,  0.280000,  -0.560000, 0.000000,  0.000000 
 240339584.000000, -9.537791 , 0.334995, 2.390430, 1571586304.000000, -0.630000,  0.350000,  -0.280000, 0.000000,  0.000000 
 240359680.000000, -9.600004 , 0.313460, 2.462214, 1571605760.000000, -1.540000,  0.420000,  -0.420000, 0.000000,  0.000000 
 240379648.000000, -9.542577 , 0.251246, 2.447858, 1571625728.000000, -2.100000,  0.280000,  -0.490000, 0.000000,  0.000000 
 240399872.000000, -9.537791 , 0.299103, 2.447858, 1571645696.000000, -1.610000,  0.280000,  -0.070000, 0.000000,  0.000000 
 240420224.000000, -9.513863 , 0.315853, 2.445465, 1571666048.000000, -0.770000,  -0.070000,  -0.140000, 0.000000,  0.000000 
 240439552.000000, -9.540184 , 0.320638, 2.467000, 1571686272.000000, -0.700000,  -0.070000,  -0.210000, 0.000000,  0.000000 
 240459520.000000, -9.511470 , 0.282353, 2.457429, 1571705600.000000, -0.840000,  -0.070000,  -0.630000, 0.000000,  0.000000 
 240479616.000000, -9.571291 , 0.296710, 2.435893, 1571725696.000000, -0.560000,  -0.070000,  -0.910000, 0.000000,  0.000000 
 240499840.000000, -9.533006 , 0.318245, 2.457429, 1571745664.000000, 0.140000,  -0.140000,  -1.050000, 0.000000,  0.000000 
 240520192.000000, -9.616754 , 0.301496, 2.457429, 1571765888.000000, 0.280000,  -0.140000,  -0.910000, 0.000000,  0.000000 
 240539520.000000, -9.568897 , 0.315853, 2.402394, 1571786240.000000, 0.350000,  0.070000,  -1.330000, 0.000000,  0.000000 
 240559616.000000, -9.559326 , 0.313460, 2.433501, 1571805568.000000, 1.050000,  -0.210000,  -0.840000, 0.000000,  0.000000 
 240579456.000000, -9.535398 , 0.349352, 2.392823, 1571825664.000000, 0.560000,  -0.420000,  -0.560000, 0.000000,  0.000000 
 240599808.000000, -9.533006 , 0.279960, 2.390430, 1571845632.000000, -0.630000,  -0.350000,  -0.140000, 0.000000,  0.000000 
 240620032.000000, -9.525827 , 0.299103, 2.380858, 1571865856.000000, -1.050000,  -0.280000,  -0.210000, 0.000000,  0.000000 
 240639488.000000, -9.504292 , 0.246461, 2.397608, 1571886208.000000, -0.700000,  -0.070000,  -0.280000, 0.000000,  0.000000 
 240659456.000000, -9.535398 , 0.282353, 2.368894, 1571905536.000000, -0.910000,  0.210000,  -0.560000, 0.000000,  0.000000 
 240679424.000000, -9.535398 , 0.296710, 2.416751, 1571925504.000000, -1.820000,  0.420000,  -0.560000, 0.000000,  0.000000 
 240699776.000000, -9.537791 , 0.251246, 2.457429, 1571945472.000000, -2.520000,  0.350000,  -0.210000, 0.000000,  0.000000 
 240720000.000000, -9.509077 , 0.265603, 2.435893, 1571965824.000000, -2.030000,  0.350000,  -0.350000, 0.000000,  0.000000 
 240739456.000000, -9.547362 , 0.282353, 2.438286, 1571986048.000000, -0.980000,  0.490000,  -0.490000, 0.000000,  0.000000 
 240759424.000000, -9.583255 , 0.265603, 2.378466, 1572005504.000000, -0.350000,  0.630000,  -0.630000, 0.000000,  0.000000 
 240779392.000000, -9.516255 , 0.318245, 2.447858, 1572025472.000000, -0.420000,  0.770000,  -0.770000, 0.000000,  0.000000 
 240799744.000000, -9.568897 , 0.303888, 2.431108, 1572045440.000000, -0.980000,  0.630000,  -0.420000, 0.000000,  0.000000 
 240819968.000000, -9.542577 , 0.241675, 2.452643, 1572065792.000000, -1.820000,  0.420000,  -0.350000, 0.000000,  0.000000 
 240839424.000000, -9.482756 , 0.260818, 2.419144, 1572086016.000000, -2.240000,  0.560000,  -0.070000, 0.000000,  0.000000 
 240859392.000000, -9.501899 , 0.234497, 2.433501, 1572105472.000000, -2.240000,  0.630000,  0.070000, 0.000000,  0.000000 
 240879360.000000, -9.549755 , 0.239282, 2.419144, 1572125440.000000, -2.240000,  0.770000,  -0.140000, 0.000000,  0.000000 
 240899584.000000, -9.501899 , 0.215354, 2.440679, 1572145408.000000, -1.960000,  0.840000,  -0.210000, 0.000000,  0.000000 
 240919936.000000, -9.566505 , 0.184247, 2.409572, 1572165760.000000, -1.750000,  0.700000,  0.070000, 0.000000,  0.000000 
 240939264.000000, -9.540184 , 0.253639, 2.395216, 1572185984.000000, -0.700000,  0.770000,  -0.070000, 0.000000,  0.000000 
 240959360.000000, -9.547362 , 0.323031, 2.383251, 1572205440.000000, 0.280000,  1.050000,  -0.350000, 0.000000,  0.000000 
 240979328.000000, -9.528220 , 0.279960, 2.390430, 1572225408.000000, 0.280000,  1.190000,  -0.350000, 0.000000,  0.000000 
 240999552.000000, -9.542577 , 0.267996, 2.356930, 1572245376.000000, -0.350000,  1.260000,  -0.420000, 0.000000,  0.000000 
 241021824.000000, -9.607183 , 0.320638, 2.390430, 1572265600.000000, -1.120000,  1.330000,  -0.420000, 0.000000,  0.000000 
 241039232.000000, -9.547362 , 0.284746, 2.447858, 1572305280.000000, -4.480000,  1.330000,  0.350000, 1569600640.000000,  1010.261475 
 241059200.000000, -9.592826 , 0.246461, 2.423929, 0.000000, 0.000000,  0.000000,  0.000000, 0.000000,  0.000000 
 241079168.000000, -9.556933 , 0.193819, 2.438286, 1572325376.000000, -5.880000,  0.980000,  0.700000, 0.000000,  0.000000 
 241099520.000000, -9.578469 , 0.224925, 2.433501, 1572345344.000000, -5.880000,  0.980000,  1.120000, 0.000000,  0.000000 
 241119744.000000, -9.542577 , 0.224925, 2.478964, 1572365568.000000, -4.970000,  0.700000,  1.540000, 0.000000,  0.000000 
 241139200.000000, -9.561719 , 0.210568, 2.462214, 1572385920.000000, -4.340000,  0.630000,  1.400000, 0.000000,  0.000000 
 241159168.000000, -9.537791 , 0.220140, 2.486143, 1572405248.000000, -3.990000,  0.700000,  1.190000, 0.000000,  0.000000 
 241179136.000000, -9.561719 , 0.282353, 2.469393, 1572425216.000000, -2.940000,  0.560000,  1.050000, 0.000000,  0.000000 
 241199488.000000, -9.561719 , 0.258425, 2.495714, 1572445184.000000, -2.100000,  0.350000,  1.190000, 0.000000,  0.000000 
 241219712.000000, -9.521042 , 0.258425, 2.471786, 1572465536.000000, -2.170000,  0.490000,  1.260000, 0.000000,  0.000000 
 241239168.000000, -9.583255 , 0.198604, 2.493321, 1572485760.000000, -1.890000,  0.280000,  1.330000, 0.000000,  0.000000 
 241259136.000000, -9.542577 , 0.260818, 2.510071, 1572505216.000000, -1.260000,  0.140000,  1.260000, 0.000000,  0.000000 
 241279104.000000, -9.454042 , 0.279960, 2.481357, 1572525184.000000, -0.210000,  0.140000,  1.120000, 0.000000,  0.000000 
 241299456.000000, -9.492328 , 0.318245, 2.404787, 1572545152.000000, 1.050000,  -0.280000,  0.910000, 0.000000,  0.000000 
 241319680.000000, -9.540184 , 0.339781, 2.378466, 1572565504.000000, 1.540000,  -0.350000,  0.980000, 0.000000,  0.000000 
 241339136.000000, -9.528220 , 0.270389, 2.428715, 1572585728.000000, -0.140000,  -0.420000,  1.400000, 0.000000,  0.000000 
 241359104.000000, -9.556933 , 0.236889, 2.431108, 1572605184.000000, -2.100000,  -0.490000,  1.260000, 0.000000,  0.000000 
 241379072.000000, -9.528220 , 0.205783, 2.383251, 1572625152.000000, -2.520000,  -0.490000,  0.910000, 0.000000,  0.000000 
 241399424.000000, -9.540184 , 0.246461, 2.411965, 1572645120.000000, -1.190000,  -0.420000,  0.560000, 0.000000,  0.000000 
 241419648.000000, -9.556933 , 0.308674, 2.433501, 1572665472.000000, -0.420000,  -0.140000,  0.560000, 0.000000,  0.000000 
 241438976.000000, -9.573684 , 0.244068, 2.435893, 1572685696.000000, -1.050000,  -0.140000,  0.490000, 0.000000,  0.000000 
 241459072.000000, -9.530612 , 0.258425, 2.455036, 1572705152.000000, -1.540000,  0.070000,  0.420000, 0.000000,  0.000000 
 241479040.000000, -9.511470 , 0.289532, 2.414358, 1572725120.000000, -0.910000,  0.210000,  0.210000, 0.000000,  0.000000 
 241499264.000000, -9.489935 , 0.291924, 2.435893, 1572745088.000000, 0.210000,  0.420000,  0.140000, 0.000000,  0.000000 
 241519616.000000, -9.609575 , 0.265603, 2.443072, 1572765440.000000, 0.560000,  0.560000,  0.140000, 0.000000,  0.000000 
 241538944.000000, -9.516255 , 0.236889, 2.471786, 1572785664.000000, -0.070000,  0.700000,  0.280000, 0.000000,  0.000000 
 241559040.000000, -9.542577 , 0.198604, 2.371287, 1572804992.000000, -0.210000,  0.630000,  -0.210000, 0.000000,  0.000000 
 241579008.000000, -9.544970 , 0.265603, 2.388037, 1572825088.000000, 0.910000,  0.420000,  -0.070000, 0.000000,  0.000000 
 241599232.000000, -9.506684 , 0.267996, 2.366502, 1572845056.000000, 1.190000,  0.210000,  0.210000, 0.000000,  0.000000 
 241619584.000000, -9.552148 , 0.267996, 2.349752, 1572865280.000000, 1.400000,  0.420000,  -0.140000, 0.000000,  0.000000 
 241638912.000000, -9.552148 , 0.294317, 2.340181, 1572885632.000000, 1.050000,  0.560000,  -0.210000, 0.000000,  0.000000 
 241658880.000000, -9.516255 , 0.303888, 2.364109, 1572904960.000000, -0.070000,  0.980000,  -0.140000, 0.000000,  0.000000 
 241678848.000000, -9.571291 , 0.320638, 2.419144, 1572924928.000000, -0.910000,  1.050000,  -0.280000, 0.000000,  0.000000 
 241699200.000000, -9.647861 , 0.306281, 2.433501, 1572945024.000000, -2.100000,  1.260000,  -0.420000, 0.000000,  0.000000 
 241719424.000000, -9.595219 , 0.220140, 2.462214, 1572965248.000000, -3.080000,  1.260000,  -0.210000, 0.000000,  0.000000 
 241738880.000000, -9.592826 , 0.224925, 2.462214, 1572985600.000000, -2.870000,  0.910000,  0.210000, 0.000000,  0.000000 
 241758848.000000, -9.547362 , 0.303888, 2.409572, 1573004928.000000, -0.840000,  0.560000,  0.910000, 0.000000,  0.000000 
 241778816.000000, -9.564112 , 0.334995, 2.400001, 1573024896.000000, 1.120000,  0.350000,  1.400000, 0.000000,  0.000000 
 241799168.000000, -9.525827 , 0.272782, 2.359323, 1573044864.000000, 0.980000,  0.420000,  1.330000, 0.000000,  0.000000 
 241819392.000000, -9.556933 , 0.265603, 2.462214, 1573065216.000000, -0.140000,  0.350000,  1.190000, 0.000000,  0.000000 
 241838848.000000, -9.561719 , 0.253639, 2.423929, 1573085440.000000, -0.420000,  0.420000,  0.980000, 0.000000,  0.000000 
 241858816.000000, -9.544970 , 0.279960, 2.421536, 1573104896.000000, 0.560000,  0.560000,  0.910000, 0.000000,  0.000000 
 241878784.000000, -9.525827 , 0.315853, 2.380858, 1573124864.000000, 0.840000,  0.560000,  0.980000, 0.000000,  0.000000 
 241899136.000000, -9.564112 , 0.289532, 2.407180, 1573144832.000000, 0.840000,  0.560000,  1.190000, 0.000000,  0.000000 
 241919360.000000, -9.552148 , 0.315853, 2.447858, 1573165184.000000, -0.840000,  0.280000,  1.400000, 0.000000,  0.000000 
 241938816.000000, -9.576077 , 0.344566, 2.385644, 1573185408.000000, -0.840000,  0.210000,  1.540000, 0.000000,  0.000000 
 241958784.000000, -9.523434 , 0.339781, 2.447858, 1573204864.000000, -0.210000,  0.350000,  1.330000, 0.000000,  0.000000 
 241978752.000000, -9.482756 , 0.320638, 2.392823, 1573224832.000000, 0.280000,  0.490000,  1.050000, 0.000000,  0.000000 
 241998976.000000, -9.568897 , 0.282353, 2.390430, 1573244800.000000, 0.140000,  0.420000,  1.260000, 0.000000,  0.000000 
 242021248.000000, -9.540184 , 0.277567, 2.388037, 1573265152.000000, -0.840000,  0.350000,  0.980000, 0.000000,  0.000000 
 242038656.000000, -9.554541 , 0.241675, 2.471786, 1573287296.000000, -1.680000,  0.350000,  0.350000, 0.000000,  0.000000 
 242058752.000000, -9.535398 , 0.334995, 2.464607, 1573304832.000000, -1.400000,  0.490000,  -0.140000, 1570600064.000000,  1010.259827 
 242078720.000000, -9.516255 , 0.354138, 2.421536, 1573324800.000000, -0.280000,  0.560000,  -0.350000, 0.000000,  0.000000 
 242098944.000000, -9.494720 , 0.361316, 2.433501, 1573344768.000000, -0.140000,  0.560000,  -0.210000, 0.000000,  0.000000 
 242119296.000000, -9.549755 , 0.325424, 2.433501, 1573364992.000000, -1.050000,  0.490000,  -0.140000, 0.000000,  0.000000 
 242138624.000000, -9.552148 , 0.275175, 2.467000, 1573385344.000000, -2.030000,  0.210000,  -0.490000, 0.000000,  0.000000 
 242158592.000000, -9.518648 , 0.301496, 2.440679, 1573404672.000000, -1.330000,  0.140000,  -0.770000, 0.000000,  0.000000 
 242178688.000000, -9.552148 , 0.361316, 2.443072, 1573424768.000000, -0.070000,  0.140000,  -0.210000, 0.000000,  0.000000 
 242198912.000000, -9.559326 , 0.270389, 2.459821, 1573444736.000000, -0.070000,  0.280000,  -1.470000, 0.000000,  0.000000 
 242219136.000000, -9.549755 , 0.232104, 2.440679, 1573464960.000000, -0.070000,  0.350000,  -1.470000, 0.000000,  0.000000 
 242238592.000000, -9.528220 , 0.318245, 2.368894, 1573485312.000000, 1.960000,  0.210000,  -1.890000, 0.000000,  0.000000 
 242258560.000000, -9.554541 , 0.442672, 2.340181, 1573504640.000000, 5.390000,  0.350000,  -1.400000, 0.000000,  0.000000 
 242278528.000000, -9.533006 , 0.334995, 2.342573, 1573524608.000000, 4.760000,  0.630000,  -1.120000, 0.000000,  0.000000 
 242298880.000000, -9.576077 , 0.289532, 2.416751, 1573544704.000000, 2.450000,  0.980000,  -1.470000, 0.000000,  0.000000 
 242319104.000000, -9.544970 , 0.327817, 2.373680, 1573564928.000000, 1.260000,  1.120000,  -1.540000, 0.000000,  0.000000 
 242338560.000000, -9.535398 , 0.337388, 2.397608, 1573585152.000000, 1.330000,  1.050000,  -1.400000, 0.000000,  0.000000 
 242358528.000000, -9.516255 , 0.311067, 2.347359, 1573604608.000000, 1.890000,  0.770000,  -0.980000, 0.000000,  0.000000 
 242378496.000000, -9.604790 , 0.358923, 2.378466, 1573624576.000000, 1.890000,  0.840000,  -0.840000, 0.000000,  0.000000 
 242398848.000000, -9.652647 , 0.306281, 2.361716, 1573644544.000000, 1.260000,  0.980000,  -0.910000, 0.000000,  0.000000 
 242419072.000000, -9.576077 , 0.330210, 2.376073, 1573664896.000000, 0.700000,  0.910000,  -0.630000, 0.000000,  0.000000 
 242438528.000000, -9.561719 , 0.330210, 2.306681, 1573685120.000000, 1.120000,  0.560000,  0.070000, 0.000000,  0.000000 
 242458496.000000, -9.537791 , 0.311067, 2.354537, 1573704576.000000, 2.310000,  0.490000,  0.630000, 0.000000,  0.000000 
 242478464.000000, -9.585647 , 0.334995, 2.337788, 1573724544.000000, 2.660000,  0.630000,  0.770000, 0.000000,  0.000000 
 242498816.000000, -9.585647 , 0.313460, 2.347359, 1573744512.000000, 2.100000,  0.770000,  0.560000, 0.000000,  0.000000 
 242519040.000000, -9.554541 , 0.342174, 2.356930, 1573764864.000000, 1.890000,  1.050000,  0.490000, 0.000000,  0.000000 
 242538496.000000, -9.578469 , 0.358923, 2.383251, 1573785088.000000, 2.030000,  1.050000,  0.700000, 0.000000,  0.000000 
 242558464.000000, -9.554541 , 0.346959, 2.318645, 1573804544.000000, 1.750000,  1.050000,  0.980000, 0.000000,  0.000000 
 242578432.000000, -9.602397 , 0.339781, 2.321038, 1573824512.000000, 0.420000,  0.980000,  1.260000, 0.000000,  0.000000 
 242598656.000000, -9.554541 , 0.323031, 2.426322, 1573844480.000000, -0.910000,  0.910000,  1.540000, 0.000000,  0.000000 
 242619008.000000, -9.561719 , 0.315853, 2.404787, 1573864832.000000, -1.750000,  0.910000,  1.960000, 0.000000,  0.000000 
 242638336.000000, -9.559326 , 0.299103, 2.397608, 1573885056.000000, -2.100000,  0.770000,  2.100000, 0.000000,  0.000000 
 242658432.000000, -9.523434 , 0.308674, 2.392823, 1573904512.000000, -1.540000,  0.630000,  2.240000, 0.000000,  0.000000 
 242678400.000000, -9.540184 , 0.378066, 2.376073, 1573924480.000000, -0.700000,  0.420000,  2.310000, 0.000000,  0.000000 
 242698624.000000, -9.518648 , 0.330210, 2.407180, 1573944448.000000, -0.630000,  0.420000,  2.100000, 0.000000,  0.000000 
 242718976.000000, -9.540184 , 0.351745, 2.423929, 1573964672.000000, -1.260000,  0.350000,  1.960000, 0.000000,  0.000000 
 242738304.000000, -9.564112 , 0.358923, 2.395216, 1573985024.000000, -1.610000,  0.420000,  1.750000, 0.000000,  0.000000 
 242758272.000000, -9.530612 , 0.356531, 2.404787, 1574004352.000000, -1.330000,  0.350000,  1.540000, 0.000000,  0.000000 
 242778368.000000, -9.489935 , 0.311067, 2.402394, 1574024448.000000, -0.490000,  0.210000,  1.400000, 0.000000,  0.000000 
 242798592.000000, -9.506684 , 0.373280, 2.421536, 1574044416.000000, 0.140000,  0.070000,  1.400000, 0.000000,  0.000000 
 242818816.000000, -9.528220 , 0.339781, 2.380858, 1574064640.000000, 0.490000,  0.070000,  0.980000, 0.000000,  0.000000 
 242838272.000000, -9.501899 , 0.351745, 2.388037, 1574084992.000000, 0.700000,  0.070000,  0.910000, 0.000000,  0.000000 
 242858240.000000, -9.516255 , 0.397209, 2.385644, 1574104320.000000, 0.770000,  0.140000,  0.560000, 0.000000,  0.000000 
 242878208.000000, -9.540184 , 0.380459, 2.423929, 1574124288.000000, 0.630000,  0.350000,  0.420000, 0.000000,  0.000000 
 242898560.000000, -9.588040 , 0.390030, 2.414358, 1574144256.000000, 0.420000,  0.280000,  0.420000, 0.000000,  0.000000 
 242918784.000000, -9.547362 , 0.363709, 2.337788, 1574164608.000000, 0.070000,  0.210000,  0.280000, 0.000000,  0.000000 
 242938240.000000, -9.542577 , 0.397209, 2.421536, 1574184832.000000, 0.980000,  0.140000,  -0.070000, 0.000000,  0.000000 
 242958208.000000, -9.530612 , 0.375673, 2.428715, 1574204288.000000, 1.260000,  0.140000,  0.140000, 0.000000,  0.000000 
 242978176.000000, -9.513863 , 0.373280, 2.340181, 1574224256.000000, 0.980000,  0.140000,  -0.140000, 0.000000,  0.000000 
 242998528.000000, -9.537791 , 0.418744, 2.309074, 1574244224.000000, 2.240000,  0.350000,  -0.490000, 0.000000,  0.000000 
 243020672.000000, -9.549755 , 0.332602, 2.476572, 1574264576.000000, 1.190000,  0.560000,  -0.840000, 0.000000,  0.000000 
 243038208.000000, -9.530612 , 0.361316, 2.409572, 1574286720.000000, -0.140000,  0.910000,  -0.840000, 0.000000,  0.000000 
 243058176.000000, -9.549755 , 0.382852, 2.407180, 1574304256.000000, 0.210000,  0.700000,  -1.330000, 1571599488.000000,  1010.257263 
 243078144.000000, -9.616754 , 0.378066, 2.416751, 1574324224.000000, 1.120000,  0.910000,  -1.960000, 0.000000,  0.000000 
 243098496.000000, -9.607183 , 0.380459, 2.390430, 1574344192.000000, 1.400000,  0.840000,  -1.680000, 0.000000,  0.000000 
 243118720.000000, -9.568897 , 0.337388, 2.371287, 1574364672.000000, 1.750000,  0.630000,  -0.980000, 0.000000,  0.000000 
 243138048.000000, -9.537791 , 0.361316, 2.330609, 1574384768.000000, 2.310000,  0.280000,  -0.630000, 0.000000,  0.000000 
 243158144.000000, -9.607183 , 0.409173, 2.297110, 1574404224.000000, 3.080000,  0.350000,  -0.770000, 0.000000,  0.000000 
 243178112.000000, -9.609575 , 0.354138, 2.337788, 1574424192.000000, 3.360000,  0.490000,  -0.700000, 0.000000,  0.000000 
 243198336.000000, -9.554541 , 0.397209, 2.321038, 1574444160.000000, 2.450000,  0.700000,  -0.490000, 0.000000,  0.000000 
 243218688.000000, -9.600004 , 0.344566, 2.366502, 1574464512.000000, 0.910000,  0.700000,  -0.140000, 0.000000,  0.000000 
 243238016.000000, -9.554541 , 0.452243, 2.378466, 1574484736.000000, -0.350000,  0.840000,  -0.140000, 0.000000,  0.000000 
 243257984.000000, -9.537791 , 0.421137, 2.395216, 1574504064.000000, -0.770000,  0.840000,  0.350000, 0.000000,  0.000000 
 243278080.000000, -9.566505 , 0.445065, 2.366502, 1574524160.000000, -0.700000,  0.490000,  1.120000, 0.000000,  0.000000 
 243298304.000000, -9.559326 , 0.433101, 2.407180, 1574544128.000000, -1.470000,  0.210000,  2.240000, 0.000000,  0.000000 
 243318528.000000, -9.504292 , 0.409173, 2.419144, 1574564352.000000, -3.710000,  -0.140000,  2.870000, 0.000000,  0.000000 
 243337984.000000, -9.518648 , 0.334995, 2.505285, 1574584704.000000, -5.460000,  -0.840000,  3.150000, 0.000000,  0.000000 
 243358080.000000, -9.549755 , 0.370888, 2.569891, 1574604032.000000, -5.110000,  -1.050000,  2.310000, 0.000000,  0.000000 
 243377920.000000, -9.544970 , 0.339781, 2.529213, 1574624256.000000, -4.900000,  -0.770000,  0.980000, 0.000000,  0.000000 
 243398272.000000, -9.489935 , 0.289532, 2.529213, 1574644096.000000, -3.640000,  -1.260000,  -0.420000, 0.000000,  0.000000 
 243418496.000000, -9.473185 , 0.308674, 2.522035, 1574664320.000000, 0.910000,  -1.610000,  -0.420000, 0.000000,  0.000000 
 243437952.000000, -9.482756 , 0.495314, 2.366502, 1574684672.000000, 8.050000,  -1.050000,  -0.980000, 0.000000,  0.000000 
 243457920.000000, -9.549755 , 0.425922, 2.301895, 1574704000.000000, 12.180000,  -0.490000,  -1.400000, 0.000000,  0.000000 
 243477888.000000, -9.564112 , 0.287139, 2.373680, 1574723968.000000, 11.130000,  0.210000,  -2.310000, 0.000000,  0.000000 
 243498240.000000, -9.533006 , 0.346959, 2.378466, 1574743936.000000, 8.750000,  0.420000,  -2.800000, 0.000000,  0.000000 
 243518464.000000, -9.513863 , 0.411566, 2.287539, 1574764288.000000, 9.170000,  0.420000,  -3.220000, 0.000000,  0.000000 
 243537920.000000, -9.547362 , 0.471386, 2.299503, 1574803968.000000, 10.010000,  1.050000,  -3.850000, 0.000000,  0.000000 
 243557888.000000, -9.566505 , 0.473779, 2.304288, 0.000000, 0.000000,  0.000000,  0.000000, 0.000000,  0.000000 
 243577856.000000, -9.611969 , 0.413958, 2.321038, 1574823936.000000, 8.400000,  1.190000,  -3.500000, 0.000000,  0.000000 
 243598208.000000, -9.621540 , 0.425922, 2.318645, 1574843904.000000, 6.720000,  1.190000,  -3.010000, 0.000000,  0.000000 
 243618432.000000, -9.597611 , 0.425922, 2.266003, 1574864256.000000, 4.900000,  0.910000,  -2.520000, 0.000000,  0.000000 
 243637888.000000, -9.556933 , 0.404387, 2.330609, 1574884480.000000, 3.220000,  0.350000,  -1.330000, 0.000000,  0.000000 
 243657856.000000, -9.590433 , 0.373280, 2.337788, 1574903936.000000, 1.470000,  0.210000,  -0.490000, 0.000000,  0.000000 
 243677824.000000, -9.592826 , 0.435494, 2.356930, 1574923904.000000, 0.770000,  0.210000,  -0.560000, 0.000000,  0.000000 
 243698048.000000, -9.561719 , 0.375673, 2.407180, 1574943872.000000, 0.840000,  0.420000,  -0.910000, 0.000000,  0.000000 
 243718400.000000, -9.516255 , 0.294317, 2.342573, 1574964224.000000, 1.610000,  0.630000,  -0.980000, 0.000000,  0.000000 
 243737728.000000, -9.590433 , 0.397209, 2.333002, 1575003904.000000, 4.340000,  0.630000,  -1.400000, 0.000000,  0.000000 
 243757696.000000, -9.626326 , 0.380459, 2.323431, 0.000000, 0.000000,  0.000000,  0.000000, 0.000000,  0.000000 
 243777792.000000, -9.580862 , 0.423530, 2.287539, 1575023872.000000, 4.130000,  0.490000,  -1.260000, 0.000000,  0.000000 
 243798016.000000, -9.588040 , 0.418744, 2.251646, 1575043840.000000, 3.850000,  0.420000,  -0.630000, 0.000000,  0.000000 
 243818368.000000, -9.568897 , 0.423530, 2.294717, 1575064064.000000, 3.850000,  0.490000,  -0.070000, 0.000000,  0.000000 
 243837696.000000, -9.542577 , 0.447458, 2.266003, 1575084416.000000, 3.220000,  0.490000,  0.280000, 0.000000,  0.000000 
 243857664.000000, -9.578469 , 0.401994, 2.277967, 1575103744.000000, 2.240000,  0.490000,  0.770000, 0.000000,  0.000000 
 243877632.000000, -9.566505 , 0.378066, 2.301895, 1575123712.000000, 0.770000,  0.630000,  1.190000, 0.000000,  0.000000 
 243897984.000000, -9.535398 , 0.404387, 2.306681, 1575143808.000000, -0.420000,  0.630000,  1.330000, 0.000000,  0.000000 
 243918208.000000, -9.576077 , 0.406780, 2.321038, 1575164032.000000, -1.190000,  0.630000,  1.400000, 0.000000,  0.000000 
 243937664.000000, -9.583255 , 0.385244, 2.361716, 1575184384.000000, -2.100000,  0.770000,  1.540000, 0.000000,  0.000000 
 243957632.000000, -9.561719 , 0.437887, 2.352145, 1575203712.000000, -2.590000,  0.630000,  1.820000, 0.000000,  0.000000 
 243977600.000000, -9.537791 , 0.428315, 2.361716, 1575223680.000000, -2.170000,  0.350000,  1.890000, 0.000000,  0.000000 
 243997952.000000, -9.530612 , 0.454636, 2.378466, 1575243648.000000, -1.680000,  0.490000,  1.750000, 0.000000,  0.000000 
 244020224.000000, -9.513863 , 0.445065, 2.352145, 1575264000.000000, -1.470000,  0.350000,  1.960000, 0.000000,  0.000000 
 244037632.000000, -9.600004 , 0.361316, 2.371287, 1575286272.000000, -1.680000,  0.490000,  1.890000, 0.000000,  0.000000 
 244057600.000000, -9.566505 , 0.373280, 2.352145, 1575303680.000000, -1.750000,  0.560000,  1.330000, 1572598912.000000,  1010.256897 
 244077568.000000, -9.540184 , 0.425922, 2.361716, 1575323648.000000, -0.560000,  0.630000,  0.910000, 0.000000,  0.000000 
 244097920.000000, -9.533006 , 0.421137, 2.349752, 1575343616.000000, -0.560000,  0.560000,  0.770000, 0.000000,  0.000000 
 244118144.000000, -9.506684 , 0.394816, 2.294717, 1575363968.000000, 0.420000,  0.490000,  1.120000, 0.000000,  0.000000 
 244137600.000000, -9.540184 , 0.409173, 2.301895, 1575384192.000000, 0.280000,  0.630000,  0.700000, 0.000000,  0.000000 
 244157568.000000, -9.504292 , 0.409173, 2.304288, 1575403648.000000, -0.280000,  1.120000,  0.280000, 0.000000,  0.000000 
 244177536.000000, -9.521042 , 0.512064, 2.325824, 1575423616.000000, -0.630000,  0.910000,  0.700000, 0.000000,  0.000000 
 244197888.000000, -9.547362 , 0.471386, 2.335395, 1575443584.000000, -1.820000,  0.980000,  0.980000, 0.000000,  0.000000 
 244218112.000000, -9.585647 , 0.433101, 2.366502, 1575463936.000000, -3.010000,  0.910000,  1.120000, 0.000000,  0.000000 
 244237440.000000, -9.528220 , 0.416351, 2.368894, 1575484160.000000, -4.270000,  0.910000,  1.120000, 0.000000,  0.000000 
 244257536.000000, -9.561719 , 0.392423, 2.395216, 1575503616.000000, -4.620000,  0.910000,  1.120000, 0.000000,  0.000000 
 244277504.000000, -9.571291 , 0.421137, 2.378466, 1575523584.000000, -4.550000,  0.840000,  1.330000, 0.000000,  0.000000 
 244297728.000000, -9.525827 , 0.457029, 2.411965, 1575543552.000000, -4.270000,  0.630000,  1.260000, 0.000000,  0.000000 
 244318080.000000, -9.506684 , 0.354138, 2.431108, 1575563904.000000, -4.340000,  0.700000,  1.120000, 0.000000,  0.000000 
 244337408.000000, -9.480364 , 0.334995, 2.414358, 1575584128.000000, -4.200000,  0.420000,  0.840000, 0.000000,  0.000000 
 244357376.000000, -9.521042 , 0.421137, 2.397608, 1575603456.000000, -2.170000,  0.490000,  0.560000, 0.000000,  0.000000 
 244377472.000000, -9.549755 , 0.483350, 2.390430, 1575623552.000000, -0.490000,  0.630000,  0.070000, 0.000000,  0.000000 
 244397696.000000, -9.497113 , 0.397209, 2.440679, 1575643520.000000, -0.770000,  0.770000,  -0.140000, 0.000000,  0.000000 
 244418048.000000, -9.583255 , 0.370888, 2.428715, 1575663744.000000, -1.330000,  0.490000,  -0.350000, 0.000000,  0.000000 
 244437376.000000, -9.561719 , 0.416351, 2.392823, 1575684096.000000, -0.770000,  0.490000,  -0.630000, 0.000000,  0.000000 
 244457344.000000, -9.547362 , 0.440279, 2.366502, 1575703424.000000, 0.140000,  0.560000,  -1.190000, 0.000000,  0.000000 
 244477312.000000, -9.521042 , 0.416351, 2.349752, 1575723392.000000, 0.490000,  0.420000,  -0.910000, 0.000000,  0.000000 
 244497664.000000, -9.549755 , 0.473779, 2.328217, 1575743488.000000, 0.280000,  0.350000,  -0.350000, 0.000000,  0.000000 
 244517888.000000, -9.566505 , 0.392423, 2.371287, 1575763712.000000, -0.560000,  0.280000,  -0.490000, 0.000000,  0.000000 
 244537344.000000, -9.571291 , 0.346959, 2.373680, 1575784064.000000, -0.980000,  0.350000,  -0.770000, 0.000000,  0.000000 
 244557312.000000, -9.556933 , 0.382852, 2.371287, 1575803392.000000, -0.280000,  0.420000,  -1.050000, 0.000000,  0.000000 
 244577280.000000, -9.602397 , 0.404387, 2.297110, 1575823488.000000, 1.190000,  0.420000,  -1.190000, 0.000000,  0.000000 
 244597632.000000, -9.597611 , 0.425922, 2.340181, 1575843328.000000, 1.960000,  0.350000,  -0.980000, 0.000000,  0.000000 
 244617856.000000, -9.640682 , 0.390030, 2.364109, 1575863680.000000, 1.540000,  0.350000,  -0.910000, 0.000000,  0.000000 
 244637312.000000, -9.544970 , 0.406780, 2.361716, 1575883904.000000, 1.190000,  0.420000,  -0.840000, 0.000000,  0.000000 
 244657280.000000, -9.568897 , 0.368495, 2.270789, 1575903360.000000, 1.820000,  0.210000,  -0.770000, 0.000000,  0.000000 
 244677248.000000, -9.559326 , 0.411566, 2.297110, 1575923328.000000, 2.590000,  0.210000,  -0.420000, 0.000000,  0.000000 
 244697600.000000, -9.552148 , 0.421137, 2.270789, 1575943296.000000, 2.660000,  0.210000,  -0.280000, 0.000000,  0.000000 
 244717824.000000, -9.616754 , 0.404387, 2.316252, 1575963648.000000, 2.520000,  0.210000,  -0.350000, 0.000000,  0.000000 
 244737280.000000, -9.561719 , 0.394816, 2.333002, 1575983872.000000, 2.100000,  0.420000,  -0.700000, 0.000000,  0.000000 
 244757248.000000, -9.607183 , 0.435494, 2.289931, 1576003328.000000, 1.750000,  0.560000,  -0.560000, 0.000000,  0.000000 
 244777216.000000, -9.604790 , 0.435494, 2.270789, 1576023296.000000, 1.750000,  0.770000,  -0.210000, 0.000000,  0.000000 
 244797568.000000, -9.578469 , 0.459422, 2.285146, 1576043264.000000, 1.330000,  0.840000,  -0.350000, 0.000000,  0.000000 
 244817792.000000, -9.602397 , 0.390030, 2.277967, 1576063616.000000, 0.490000,  0.910000,  -0.560000, 0.000000,  0.000000 
 244837120.000000, -9.652647 , 0.401994, 2.275574, 1576083840.000000, -0.280000,  0.840000,  -0.560000, 0.000000,  0.000000 
 244857216.000000, -9.556933 , 0.425922, 2.242075, 1576103296.000000, -0.490000,  0.630000,  -0.560000, 0.000000,  0.000000 
 244877184.000000, -9.549755 , 0.380459, 2.299503, 1576123264.000000, -1.400000,  0.770000,  0.350000, 0.000000,  0.000000 
 244897408.000000, -9.564112 , 0.413958, 2.294717, 1576143232.000000, -2.240000,  0.770000,  0.070000, 0.000000,  0.000000 
 244917760.000000, -9.542577 , 0.418744, 2.309074, 1576163584.000000, -2.520000,  0.980000,  -0.070000, 0.000000,  0.000000 
 244937088.000000, -9.597611 , 0.425922, 2.340181, 1576183808.000000, -2.170000,  0.980000,  -0.140000, 0.000000,  0.000000 
 244957056.000000, -9.614362 , 0.404387, 2.359323, 1576203136.000000, -2.590000,  1.120000,  -0.280000, 0.000000,  0.000000 
 244977024.000000, -9.597611 , 0.370888, 2.347359, 1576223232.000000, -3.150000,  1.260000,  -0.420000, 0.000000,  0.000000 
 244997376.000000, -9.580862 , 0.406780, 2.309074, 1576243200.000000, -2.800000,  0.910000,  -0.210000, 0.000000,  0.000000 
 245019648.000000, -9.623933 , 0.409173, 2.347359, 1576263424.000000, -2.520000,  0.630000,  0.280000, 0.000000,  0.000000 
 245037056.000000, -9.559326 , 0.363709, 2.297110, 1576285696.000000, -2.800000,  0.350000,  0.280000, 0.000000,  0.000000 
 245057024.000000, -9.559326 , 0.401994, 2.316252, 1576303104.000000, -2.310000,  0.140000,  0.140000, 1573598336.000000,  1010.254822 
 245076992.000000, -9.549755 , 0.461815, 2.246860, 1576323072.000000, -2.310000,  0.350000,  -0.070000, 0.000000,  0.000000 
 245097344.000000, -9.497113 , 0.375673, 2.263610, 1576343040.000000, -3.780000,  0.560000,  0.070000, 0.000000,  0.000000 
 245117568.000000, -9.518648 , 0.361316, 2.337788, 1576363392.000000, -5.460000,  0.630000,  0.070000, 0.000000,  0.000000 
 245137024.000000, -9.580862 , 0.358923, 2.378466, 1576383744.000000, -6.650000,  0.770000,  -0.630000, 0.000000,  0.000000 
 245156992.000000, -9.559326 , 0.354138, 2.409572, 1576403072.000000, -6.580000,  0.980000,  -0.840000, 0.000000,  0.000000 
 245176960.000000, -9.559326 , 0.356531, 2.445465, 1576423040.000000, -5.600000,  0.910000,  -0.420000, 0.000000,  0.000000 
 245197312.000000, -9.580862 , 0.361316, 2.467000, 1576443008.000000, -4.480000,  0.490000,  -0.420000, 0.000000,  0.000000 
 245217536.000000, -9.540184 , 0.306281, 2.407180, 1576463360.000000, -2.870000,  0.490000,  0.210000, 0.000000,  0.000000 
 245236992.000000, -9.561719 , 0.344566, 2.385644, 1576483584.000000, -0.910000,  -0.350000,  -0.140000, 0.000000,  0.000000 
 245256960.000000, -9.602397 , 0.311067, 2.337788, 1576503040.000000, 0.980000,  -0.490000,  -0.630000, 0.000000,  0.000000 
 245276928.000000, -9.561719 , 0.318245, 2.306681, 1576523008.000000, 2.450000,  -0.420000,  -0.630000, 0.000000,  0.000000 
 245297280.000000, -9.597611 , 0.380459, 2.299503, 1576542976.000000, 2.730000,  -0.630000,  -0.350000, 0.000000,  0.000000 
 245317504.000000, -9.619147 , 0.387637, 2.273181, 1576563328.000000, 1.750000,  -0.630000,  -0.350000, 0.000000,  0.000000 
 245336832.000000, -9.571291 , 0.349352, 2.258825, 1576583552.000000, 0.630000,  -0.490000,  -0.350000, 0.000000,  0.000000 
 245356928.000000, -9.559326 , 0.411566, 2.249253, 1576603008.000000, 0.350000,  -0.280000,  -0.210000, 0.000000,  0.000000 
 245376896.000000, -9.578469 , 0.423530, 2.273181, 1576622976.000000, 0.350000,  -0.280000,  0.140000, 0.000000,  0.000000 
 245397120.000000, -9.559326 , 0.366102, 2.289931, 1576642944.000000, -0.560000,  0.210000,  0.350000, 0.000000,  0.000000 
 245417472.000000, -9.566505 , 0.334995, 2.328217, 1576663296.000000, -1.680000,  0.420000,  0.770000, 0.000000,  0.000000 
 245436800.000000, -9.537791 , 0.344566, 2.330609, 1576683520.000000, -2.100000,  0.490000,  0.630000, 0.000000,  0.000000 
 245456768.000000, -9.592826 , 0.334995, 2.318645, 1576702848.000000, -1.400000,  0.560000,  0.630000, 0.000000,  0.000000 
 245476864.000000, -9.568897 , 0.366102, 2.335395, 1576722944.000000, -0.700000,  0.700000,  0.490000, 0.000000,  0.000000 
 245497088.000000, -9.604790 , 0.342174, 2.361716, 1576742912.000000, -0.350000,  0.630000,  0.210000, 0.000000,  0.000000 
 245517440.000000, -9.573684 , 0.327817, 2.356930, 1576763136.000000, -0.350000,  0.490000,  0.350000, 0.000000,  0.000000 
 245536768.000000, -9.566505 , 0.416351, 2.340181, 1576783488.000000, 0.420000,  0.490000,  0.420000, 0.000000,  0.000000 
 245556864.000000, -9.533006 , 0.366102, 2.287539, 1576802816.000000, 0.420000,  0.490000,  0.420000, 0.000000,  0.000000 
 245576704.000000, -9.559326 , 0.394816, 2.299503, 1576822912.000000, 0.420000,  0.490000,  0.350000, 0.000000,  0.000000 
 245597056.000000, -9.602397 , 0.401994, 2.270789, 1576842880.000000, 0.560000,  0.490000,  0.700000, 0.000000,  0.000000 
 245617280.000000, -9.549755 , 0.409173, 2.297110, 1576863104.000000, 0.210000,  0.490000,  1.190000, 0.000000,  0.000000 
 245636736.000000, -9.528220 , 0.375673, 2.328217, 1576883456.000000, -1.120000,  0.560000,  1.330000, 0.000000,  0.000000 
 245656704.000000, -9.576077 , 0.366102, 2.316252, 1576902784.000000, -1.890000,  0.490000,  0.910000, 0.000000,  0.000000 
 245676672.000000, -9.554541 , 0.358923, 2.395216, 1576922752.000000, -1.960000,  0.490000,  0.700000, 0.000000,  0.000000 
 245697024.000000, -9.554541 , 0.397209, 2.335395, 1576942720.000000, -1.610000,  0.630000,  0.630000, 0.000000,  0.000000 
 245717248.000000, -9.573684 , 0.411566, 2.364109, 1576963072.000000, -0.910000,  0.560000,  0.490000, 0.000000,  0.000000 
 245736704.000000, -9.528220 , 0.358923, 2.359323, 1576983296.000000, -1.330000,  0.280000,  0.840000, 0.000000,  0.000000 
 245756672.000000, -9.513863 , 0.370888, 2.352145, 1577002752.000000, -1.330000,  0.070000,  0.630000, 0.000000,  0.000000 
 245776640.000000, -9.576077 , 0.416351, 2.376073, 1577022720.000000, -0.770000,  0.070000,  0.630000, 0.000000,  0.000000 
 245796992.000000, -9.552148 , 0.380459, 2.390430, 1577042688.000000, -1.470000,  0.420000,  0.700000, 0.000000,  0.000000 
 245817216.000000, -9.528220 , 0.332602, 2.373680, 1577063040.000000, -2.310000,  0.350000,  0.630000, 0.000000,  0.000000 
 245836672.000000, -9.580862 , 0.311067, 2.416751, 1577083264.000000, -2.380000,  0.280000,  0.350000, 0.000000,  0.000000 
 245856640.000000, -9.607183 , 0.380459, 2.397608, 1577102720.000000, -1.960000,  0.210000,  0.070000, 0.000000,  0.000000 
 245876608.000000, -9.626326 , 0.401994, 2.354537, 1577122688.000000, -1.190000,  -0.070000,  -0.070000, 0.000000,  0.000000 
 245896832.000000, -9.523434 , 0.449851, 2.361716, 1577142656.000000, -0.210000,  -0.280000,  0.210000, 0.000000,  0.000000 
 245917184.000000, -9.540184 , 0.452243, 2.340181, 1577163008.000000, 0.560000,  -0.700000,  1.330000, 0.000000,  0.000000 
 245936512.000000, -9.537791 , 0.433101, 2.316252, 1577183232.000000, -0.070000,  -0.630000,  1.050000, 0.000000,  0.000000 
 245956608.000000, -9.568897 , 0.390030, 2.368894, 1577202688.000000, -1.610000,  -0.770000,  0.980000, 0.000000,  0.000000 
 245976576.000000, -9.559326 , 0.327817, 2.469393, 1577222656.000000, -3.640000,  -0.560000,  0.210000, 0.000000,  0.000000 
 245996800.000000, -9.499505 , 0.339781, 2.371287, 1577242624.000000, -2.380000,  -0.490000,  -0.140000, 0.000000,  0.000000 
 246019072.000000, -9.597611 , 0.485743, 2.304288, 1577262848.000000, 1.120000,  -0.350000,  0.140000, 0.000000,  0.000000 
 246036480.000000, -9.585647 , 0.468993, 2.316252, 1577285120.000000, 2.310000,  0.140000,  -0.140000, 0.000000,  0.000000 
 246056448.000000, -9.568897 , 0.413958, 2.342573, 1577302528.000000, 0.630000,  0.140000,  0.070000, 1574597888.000000,  1010.254333 
 246076544.000000, -9.583255 , 0.366102, 2.376073, 1577322624.000000, -1.260000,  0.140000,  -0.070000, 0.000000,  0.000000 
 246096768.000000, -9.552148 , 0.363709, 2.368894, 1577342592.000000, -1.400000,  0.350000,  -0.280000, 0.000000,  0.000000 
 246117120.000000, -9.566505 , 0.320638, 2.359323, 1577362816.000000, -0.560000,  0.420000,  -0.350000, 0.000000,  0.000000 
 246136448.000000, -9.554541 , 0.385244, 2.325824, 1577383168.000000, 1.120000,  0.420000,  -0.560000, 0.000000,  0.000000 
 246156416.000000, -9.578469 , 0.478565, 2.311467, 1577402496.000000, 3.080000,  0.490000,  -0.700000, 0.000000,  0.000000 
 246176384.000000, -9.566505 , 0.433101, 2.285146, 1577422464.000000, 3.570000,  0.700000,  -0.840000, 0.000000,  0.000000 
 246196736.000000, -9.580862 , 0.409173, 2.313859, 1577442560.000000, 2.310000,  0.910000,  -0.770000, 0.000000,  0.000000 
 246216960.000000, -9.597611 , 0.418744, 2.321038, 1577462784.000000, 0.560000,  0.910000,  -0.490000, 0.000000,  0.000000 
 246236416.000000, -9.590433 , 0.380459, 2.333002, 1577483136.000000, -0.350000,  0.910000,  -0.210000, 0.000000,  0.000000 
 246256384.000000, -9.547362 , 0.428315, 2.349752, 1577502464.000000, -0.630000,  0.840000,  -0.210000, 0.000000,  0.000000 
 246276352.000000, -9.595219 , 0.366102, 2.392823, 1577522432.000000, -0.770000,  0.840000,  0.140000, 0.000000,  0.000000 
 246296704.000000, -9.549755 , 0.385244, 2.333002, 1577542400.000000, -0.420000,  1.050000,  0.140000, 0.000000,  0.000000 
 246316928.000000, -9.576077 , 0.394816, 2.344966, 1577562752.000000, 0.700000,  0.910000,  0.280000, 0.000000,  0.000000 
 246336384.000000, -9.595219 , 0.440279, 2.289931, 1577582976.000000, 1.540000,  0.840000,  0.560000, 0.000000,  0.000000 
 246356352.000000, -9.578469 , 0.421137, 2.337788, 1577602432.000000, 1.190000,  0.840000,  0.910000, 0.000000,  0.000000 
 246376320.000000, -9.528220 , 0.349352, 2.349752, 1577622400.000000, 1.190000,  0.700000,  0.700000, 0.000000,  0.000000 
 246396672.000000, -9.614362 , 0.373280, 2.364109, 1577642368.000000, -0.280000,  0.420000,  0.770000, 0.000000,  0.000000 
 246416896.000000, -9.533006 , 0.425922, 2.263610, 1577662720.000000, 1.050000,  0.490000,  0.420000, 0.000000,  0.000000 
 246436352.000000, -9.540184 , 0.452243, 2.301895, 1577682944.000000, 2.380000,  0.420000,  0.490000, 0.000000,  0.000000 
 246456320.000000, -9.530612 , 0.425922, 2.254039, 1577702400.000000, 1.890000,  0.490000,  0.840000, 0.000000,  0.000000 
 246476288.000000, -9.588040 , 0.459422, 2.297110, 1577722368.000000, 1.540000,  0.630000,  0.630000, 0.000000,  0.000000 
 246496512.000000, -9.578469 , 0.480957, 2.301895, 1577742336.000000, 0.210000,  0.840000,  0.070000, 0.000000,  0.000000 
 246516864.000000, -9.561719 , 0.382852, 2.337788, 1577762688.000000, -1.960000,  0.910000,  0.140000, 0.000000,  0.000000 
 246536192.000000, -9.595219 , 0.433101, 2.344966, 1577782912.000000, -3.430000,  0.700000,  0.280000, 0.000000,  0.000000 
 246556288.000000, -9.609575 , 0.442672, 2.368894, 1577802240.000000, -4.200000,  0.910000,  0.210000, 0.000000,  0.000000 
 246576256.000000, -9.576077 , 0.409173, 2.395216, 1577822336.000000, -4.550000,  0.770000,  0.140000, 0.000000,  0.000000 
 246596480.000000, -9.564112 , 0.437887, 2.354537, 1577842304.000000, -3.710000,  0.630000,  0.070000, 0.000000,  0.000000 
 246616832.000000, -9.576077 , 0.411566, 2.309074, 1577862528.000000, -1.890000,  0.560000,  0.210000, 0.000000,  0.000000 
 246636160.000000, -9.521042 , 0.418744, 2.316252, 1577882880.000000, -0.210000,  0.560000,  0.280000, 0.000000,  0.000000 
 246656128.000000, -9.564112 , 0.339781, 2.313859, 1577902208.000000, 0.280000,  0.630000,  0.420000, 0.000000,  0.000000 
 246676096.000000, -9.568897 , 0.339781, 2.301895, 1577922176.000000, 0.210000,  0.840000,  -0.210000, 0.000000,  0.000000 
 246696448.000000, -9.588040 , 0.440279, 2.316252, 1577942272.000000, 0.280000,  0.980000,  -0.420000, 0.000000,  0.000000 
 246716672.000000, -9.518648 , 0.485743, 2.297110, 1577962496.000000, 0.770000,  1.120000,  -0.350000, 0.000000,  0.000000 
 246736128.000000, -9.590433 , 0.488136, 2.328217, 1577982848.000000, 0.210000,  1.400000,  -0.420000, 0.000000,  0.000000 
 246756096.000000, -9.621540 , 0.459422, 2.380858, 1578002176.000000, -1.610000,  1.540000,  -0.140000, 0.000000,  0.000000 
 246776064.000000, -9.561719 , 0.397209, 2.414358, 1578022144.000000, -3.220000,  1.470000,  0.070000, 0.000000,  0.000000 
 246796416.000000, -9.559326 , 0.401994, 2.347359, 1578042112.000000, -3.500000,  1.400000,  0.280000, 0.000000,  0.000000 
 246816640.000000, -9.552148 , 0.445065, 2.359323, 1578062464.000000, -2.730000,  1.120000,  0.630000, 0.000000,  0.000000 
 246836096.000000, -9.561719 , 0.387637, 2.356930, 1578082688.000000, -2.030000,  0.910000,  0.770000, 0.000000,  0.000000 
 246856064.000000, -9.556933 , 0.332602, 2.402394, 1578102144.000000, -2.030000,  0.910000,  0.420000, 0.000000,  0.000000 
 246876032.000000, -9.542577 , 0.366102, 2.397608, 1578122112.000000, -1.680000,  0.770000,  0.140000, 0.000000,  0.000000 
 246896384.000000, -9.544970 , 0.401994, 2.333002, 1578142080.000000, -0.630000,  0.630000,  -0.210000, 0.000000,  0.000000 
 246916608.000000, -9.592826 , 0.423530, 2.402394, 1578162432.000000, 0.910000,  0.560000,  -0.280000, 0.000000,  0.000000 
 246936064.000000, -9.566505 , 0.435494, 2.349752, 1578182656.000000, 1.330000,  0.350000,  -0.280000, 0.000000,  0.000000 
 246956032.000000, -9.578469 , 0.440279, 2.373680, 1578202112.000000, 1.190000,  0.140000,  -0.140000, 0.000000,  0.000000 
 246976000.000000, -9.585647 , 0.399601, 2.337788, 1578222080.000000, 0.350000,  0.140000,  -0.070000, 0.000000,  0.000000 
 246996352.000000, -9.619147 , 0.320638, 2.361716, 1578242048.000000, -0.350000,  0.070000,  0.070000, 0.000000,  0.000000 
 247018496.000000, -9.540184 , 0.349352, 2.316252, 1578262400.000000, -0.210000,  0.070000,  0.350000, 0.000000,  0.000000 
 247035904.000000, -9.499505 , 0.380459, 2.287539, 1578302080.000000, 1.750000,  -0.070000,  0.210000, 1575597312.000000,  1010.255676 
 247056000.000000, -9.568897 , 0.473779, 2.289931, 0.000000, 0.000000,  0.000000,  0.000000, 0.000000,  0.000000 
 247075968.000000, -9.525827 , 0.471386, 2.309074, 1578322048.000000, 2.030000,  -0.070000,  0.210000, 0.000000,  0.000000 
 247096192.000000, -9.583255 , 0.437887, 2.297110, 1578342016.000000, 1.330000,  -0.070000,  0.280000, 0.000000,  0.000000 
 247116544.000000, -9.571291 , 0.387637, 2.364109, 1578362368.000000, 0.490000,  0.070000,  0.210000, 0.000000,  0.000000 
 247135872.000000, -9.559326 , 0.392423, 2.323431, 1578382592.000000, 0.630000,  0.070000,  0.280000, 0.000000,  0.000000 
 247155840.000000, -9.590433 , 0.375673, 2.268396, 1578401920.000000, 1.680000,  0.070000,  0.350000, 0.000000,  0.000000 
 247175936.000000, -9.554541 , 0.435494, 2.323431, 1578422016.000000, 2.310000,  -0.070000,  0.560000, 0.000000,  0.000000 
 247196160.000000, -9.509077 , 0.413958, 2.254039, 1578441984.000000, 1.890000,  -0.280000,  0.980000, 0.000000,  0.000000 
 247216512.000000, -9.564112 , 0.442672, 2.239682, 1578462208.000000, 2.730000,  -0.350000,  0.630000, 0.000000,  0.000000 
 247235840.000000, -9.559326 , 0.490529, 2.328217, 1578482560.000000, 3.080000,  0.210000,  0.350000, 0.000000,  0.000000 
 247255808.000000, -9.547362 , 0.425922, 2.328217, 1578501888.000000, 1.820000,  0.560000,  0.490000, 0.000000,  0.000000 
 247275776.000000, -9.578469 , 0.344566, 2.311467, 1578521856.000000, 1.050000,  0.490000,  0.280000, 0.000000,  0.000000 
 247296128.000000, -9.657433 , 0.483350, 2.313859, 1578541952.000000, 1.400000,  0.560000,  -0.280000, 0.000000,  0.000000 
 247316352.000000, -9.588040 , 0.471386, 2.311467, 1578562176.000000, 1.960000,  0.560000,  -0.420000, 0.000000,  0.000000 
 247335808.000000, -9.592826 , 0.435494, 2.289931, 1578582528.000000, 2.240000,  0.420000,  -0.420000, 0.000000,  0.000000 
 247355904.000000, -9.573684 , 0.473779, 2.301895, 1578601856.000000, 2.590000,  0.350000,  0.420000, 0.000000,  0.000000 
 247375744.000000, -9.518648 , 0.466600, 2.263610, 1578621952.000000, 3.010000,  0.490000,  0.700000, 0.000000,  0.000000 
 247396096.000000, -9.576077 , 0.454636, 2.225325, 1578641792.000000, 3.080000,  0.350000,  0.840000, 0.000000,  0.000000 
 247416320.000000, -9.561719 , 0.459422, 2.277967, 1578662144.000000, 2.450000,  0.350000,  0.770000, 0.000000,  0.000000 
 247435776.000000, -9.513863 , 0.461815, 2.254039, 1578682368.000000, 1.890000,  0.490000,  0.280000, 0.000000,  0.000000 
 247455744.000000, -9.523434 , 0.533599, 2.321038, 1578701824.000000, 2.100000,  0.560000,  -0.140000, 0.000000,  0.000000 
 247475712.000000, -9.592826 , 0.528814, 2.340181, 1578721792.000000, 2.310000,  0.770000,  -0.070000, 0.000000,  0.000000 
 247496064.000000, -9.607183 , 0.514457, 2.261217, 1578741760.000000, 1.960000,  0.840000,  -0.070000, 0.000000,  0.000000 
 247516288.000000, -9.580862 , 0.492921, 2.297110, 1578762112.000000, 1.540000,  0.560000,  -0.070000, 0.000000,  0.000000 
 247535744.000000, -9.561719 , 0.538385, 2.323431, 1578782336.000000, 1.330000,  0.420000,  -0.070000, 0.000000,  0.000000 
 247555712.000000, -9.604790 , 0.500100, 2.335395, 1578801792.000000, 1.470000,  0.350000,  0.350000, 0.000000,  0.000000 
 247575680.000000, -9.535398 , 0.457029, 2.292324, 1578821760.000000, 0.980000,  0.350000,  0.630000, 0.000000,  0.000000 
 247595904.000000, -9.537791 , 0.480957, 2.359323, 1578841728.000000, -0.070000,  0.280000,  0.490000, 0.000000,  0.000000 
 247616256.000000, -9.564112 , 0.409173, 2.311467, 1578862080.000000, -0.770000,  0.070000,  0.280000, 0.000000,  0.000000 
 247635584.000000, -9.573684 , 0.461815, 2.280360, 1578882304.000000, -0.350000,  -0.140000,  0.070000, 0.000000,  0.000000 
 247655552.000000, -9.540184 , 0.526421, 2.294717, 1578901760.000000, 0.420000,  -0.140000,  0.140000, 0.000000,  0.000000 
 247675648.000000, -9.544970 , 0.516850, 2.275574, 1578921728.000000, 0.560000,  -0.070000,  0.140000, 0.000000,  0.000000 
 247695872.000000, -9.578469 , 0.471386, 2.328217, 1578941696.000000, 0.070000,  0.210000,  -0.420000, 0.000000,  0.000000 
 247716224.000000, -9.547362 , 0.495314, 2.330609, 1578961920.000000, 0.070000,  0.070000,  -0.140000, 0.000000,  0.000000 
 247735552.000000, -9.552148 , 0.425922, 2.313859, 1578982272.000000, -0.140000,  -0.070000,  -0.210000, 0.000000,  0.000000 
 247755520.000000, -9.523434 , 0.447458, 2.309074, 1579001600.000000, -0.140000,  -0.070000,  -0.560000, 0.000000,  0.000000 
 247775616.000000, -9.511470 , 0.461815, 2.285146, 1579021696.000000, 0.700000,  0.070000,  -0.490000, 0.000000,  0.000000 
 247795840.000000, -9.571291 , 0.504886, 2.301895, 1579041664.000000, 1.330000,  0.210000,  -0.630000, 0.000000,  0.000000 
 247816064.000000, -9.552148 , 0.473779, 2.273181, 1579061888.000000, 0.980000,  0.420000,  -0.700000, 0.000000,  0.000000 
 247835520.000000, -9.552148 , 0.430708, 2.340181, 1579082240.000000, 0.350000,  0.280000,  -0.560000, 0.000000,  0.000000 
 247855488.000000, -9.595219 , 0.457029, 2.347359, 1579101568.000000, 0.070000,  0.280000,  -0.630000, 0.000000,  0.000000 
 247875456.000000, -9.566505 , 0.492921, 2.275574, 1579121536.000000, 0.560000,  0.280000,  -0.910000, 0.000000,  0.000000 
 247895808.000000, -9.523434 , 0.468993, 2.275574, 1579141632.000000, 0.980000,  0.280000,  -0.560000, 0.000000,  0.000000 
 247916032.000000, -9.559326 , 0.480957, 2.246860, 1579161856.000000, 0.700000,  0.210000,  -0.420000, 0.000000,  0.000000 
 247935488.000000, -9.552148 , 0.483350, 2.280360, 1579182208.000000, 0.630000,  0.350000,  -0.910000, 0.000000,  0.000000 
 247955456.000000, -9.540184 , 0.454636, 2.275574, 1579201536.000000, 0.070000,  0.560000,  -1.050000, 0.000000,  0.000000 
 247975424.000000, -9.533006 , 0.433101, 2.280360, 1579221504.000000, -0.910000,  0.700000,  -1.050000, 0.000000,  0.000000 
 247995776.000000, -9.602397 , 0.404387, 2.337788, 1579241472.000000, -0.980000,  0.770000,  -1.120000, 0.000000,  0.000000 
 248017920.000000, -9.633504 , 0.445065, 2.321038, 1579284096.000000, -1.050000,  0.910000,  -1.050000, 0.000000,  0.000000 
 248035456.000000, -9.590433 , 0.406780, 2.328217, 1579301504.000000, -0.980000,  0.770000,  -0.630000, 1576596736.000000,  1010.258789 
 248055424.000000, -9.590433 , 0.411566, 2.261217, 0.000000, 0.000000,  0.000000,  0.000000, 0.000000,  0.000000 
 248075392.000000, -9.552148 , 0.430708, 2.287539, 1579321472.000000, -0.210000,  0.560000,  -0.350000, 0.000000,  0.000000 
 248095744.000000, -9.568897 , 0.442672, 2.270789, 1579341440.000000, 0.420000,  0.560000,  -0.350000, 0.000000,  0.000000 
 248115968.000000, -9.554541 , 0.447458, 2.256432, 1579361920.000000, 0.210000,  0.700000,  -0.210000, 0.000000,  0.000000 
 248135424.000000, -9.547362 , 0.392423, 2.333002, 1579382016.000000, -0.630000,  0.840000,  -0.350000, 0.000000,  0.000000 
 248155392.000000, -9.552148 , 0.454636, 2.304288, 1579401472.000000, -0.910000,  0.910000,  -0.420000, 0.000000,  0.000000 
 248175360.000000, -9.580862 , 0.447458, 2.328217, 1579421440.000000, -0.770000,  0.700000,  -0.420000, 0.000000,  0.000000 
 248195584.000000, -9.592826 , 0.440279, 2.297110, 1579441408.000000, -1.120000,  0.840000,  -0.280000, 0.000000,  0.000000 
 248215936.000000, -9.609575 , 0.500100, 2.330609, 1579461760.000000, -1.260000,  0.630000,  0.070000, 0.000000,  0.000000 
 248235264.000000, -9.561719 , 0.394816, 2.289931, 1579481984.000000, -0.980000,  0.350000,  0.490000, 0.000000,  0.000000 
 248255232.000000, -9.521042 , 0.457029, 2.304288, 1579501440.000000, -0.560000,  0.420000,  0.560000, 0.000000,  0.000000 
 248275328.000000, -9.561719 , 0.449851, 2.282753, 1579521408.000000, -0.420000,  0.280000,  0.770000, 0.000000,  0.000000 
 248295552.000000, -9.611969 , 0.409173, 2.297110, 1579541376.000000, -0.420000,  0.280000,  0.630000, 0.000000,  0.000000 
 248315904.000000, -9.537791 , 0.385244, 2.316252, 1579561600.000000, -0.210000,  0.280000,  0.350000, 0.000000,  0.000000 
 248335232.000000, -9.595219 , 0.421137, 2.297110, 1579581952.000000, 0.280000,  0.350000,  0.140000, 0.000000,  0.000000 
 248355200.000000, -9.556933 , 0.488136, 2.261217, 1579601280.000000, 1.190000,  0.420000,  0.140000, 0.000000,  0.000000 
 248375168.000000, -9.556933 , 0.485743, 2.230111, 1579621248.000000, 1.540000,  0.490000,  0.210000, 0.000000,  0.000000 
 248395520.000000, -9.571291 , 0.416351, 2.237289, 1579641344.000000, 0.770000,  0.560000,  0.210000, 0.000000,  0.000000 
 248415744.000000, -9.540184 , 0.404387, 2.249253, 1579661568.000000, -0.140000,  0.630000,  0.210000, 0.000000,  0.000000 
 248435200.000000, -9.571291 , 0.375673, 2.268396, 1579681920.000000, -0.630000,  0.630000,  0.070000, 0.000000,  0.000000 
 248455168.000000, -9.525827 , 0.445065, 2.263610, 1579701248.000000, -0.490000,  0.700000,  -0.140000, 0.000000,  0.000000 
 248475136.000000, -9.540184 , 0.437887, 2.285146, 1579721216.000000, -0.140000,  0.700000,  -0.350000, 0.000000,  0.000000 
 248495488.000000, -9.635897 , 0.459422, 2.273181, 1579741184.000000, -0.140000,  0.630000,  -0.420000, 0.000000,  0.000000 
 248515712.000000, -9.571291 , 0.409173, 2.277967, 1579761536.000000, -0.350000,  0.700000,  -0.700000, 0.000000,  0.000000 
 248535168.000000, -9.568897 , 0.418744, 2.254039, 1579781760.000000, -0.700000,  0.840000,  -0.910000, 0.000000,  0.000000 
 248555136.000000, -9.604790 , 0.385244, 2.263610, 1579801216.000000, -0.630000,  0.980000,  -1.050000, 0.000000,  0.000000 
 248575104.000000, -9.619147 , 0.401994, 2.256432, 1579821184.000000, -0.420000,  1.050000,  -1.400000, 0.000000,  0.000000 
 248595456.000000, -9.554541 , 0.399601, 2.249253, 1579841152.000000, 0.560000,  1.120000,  -1.330000, 0.000000,  0.000000 
 248615680.000000, -9.552148 , 0.437887, 2.222932, 1579861504.000000, 0.770000,  0.840000,  -0.770000, 0.000000,  0.000000 
 248635136.000000, -9.554541 , 0.512064, 2.177469, 1579881728.000000, 0.630000,  0.770000,  -0.700000, 0.000000,  0.000000 
 248655104.000000, -9.547362 , 0.461815, 2.270789, 1579901184.000000, -0.490000,  1.260000,  -0.840000, 0.000000,  0.000000 
 248675072.000000, -9.535398 , 0.394816, 2.287539, 1579921152.000000, -2.660000,  1.400000,  -0.700000, 0.000000,  0.000000 
 248695424.000000, -9.609575 , 0.397209, 2.313859, 1579941120.000000, -3.780000,  1.330000,  -0.700000, 0.000000,  0.000000 
 248715648.000000, -9.645468 , 0.411566, 2.311467, 1579961472.000000, -3.640000,  1.190000,  -0.700000, 0.000000,  0.000000 
