time,seconds_elapsed,z,y,x
1633782646809662200,0.021662109375,20.92803955078125,-23.564504623413086,-33.18436050415039
1633782646829540600,0.04154052734375,21.302886962890625,-23.708139419555664,-33.0090217590332
1633782646849418500,0.06141845703125,21.01531982421875,-23.364431381225586,-32.84177017211914
1633782646869297400,0.08129736328125,21.50762939453125,-23.483091354370117,-32.903324127197266
1633782646889176300,0.10117626953125,21.898193359375,-23.621694564819336,-32.54654312133789
1633782646909055500,0.121055419921875,21.966949462890625,-23.675886154174805,-32.19687271118164
1633782646928934400,0.140934326171875,22.2879638671875,-23.61269187927246,-31.940837860107422
1633782646948812500,0.1608125,22.431640625,-23.629892349243164,-31.79275894165039
1633782646968691500,0.18069140625,22.4608154296875,-23.649877548217773,-31.527965545654297
1633782646988570400,0.2005703125,23.033538818359375,-23.637052536010742,-31.369129180908203
1633782647008449300,0.22044921875,23.474212646484375,-23.80509376525879,-31.22323989868164
1633782647028328400,0.240328369140625,23.651031494140625,-23.755189895629883,-31.050487518310547
1633782647048206300,0.260206298828125,23.473388671875,-23.773099899291992,-31.259098052978516
1633782647068085500,0.28008544921875,23.189422607421875,-23.731130599975586,-31.122173309326172
1633782647087964400,0.29996435546875,23.09698486328125,-24.161725997924805,-30.715709686279297
1633782647107843300,0.31984326171875,23.24615478515625,-24.530569076538086,-30.840267181396484
1633782647127722500,0.339722412109375,22.551788330078125,-24.92630958557129,-30.837291717529297
1633782647147600400,0.359600341796875,21.9815673828125,-25.529096603393555,-30.732418060302734
1633782647167479600,0.3794794921875,21.2657470703125,-26.323450088500977,-30.119083404541016
1633782647187358500,0.3993583984375,20.86444091796875,-26.564119338989258,-30.192867279052734
1633782647207237400,0.4192373046875,20.847412109375,-26.869386672973633,-29.999942779541016
1633782647227116300,0.4391162109375,20.674102783203125,-26.8144588470459,-30.055194854736328
1633782647246994400,0.458994384765625,20.23858642578125,-26.8323917388916,-30.176586151123047
1633782647266873300,0.478873291015625,20.728546142578125,-26.729707717895508,-29.974857330322266
1633782647286752500,0.49875244140625,20.930511474609375,-27.101045608520508,-30.027172088623047
1633782647306631400,0.51863134765625,21.154541015625,-27.037290573120117,-29.88028335571289
1633782647326510300,0.53851025390625,21.5606689453125,-26.778684616088867,-29.742740631103516
1633782647346388200,0.55838818359375,21.377685546875,-26.868154525756836,-29.657947540283203
1633782647366267400,0.578267333984375,20.83404541015625,-27.1004581451416,-29.558605194091797
1633782647386146300,0.598146240234375,20.86407470703125,-27.220590591430664,-29.661746978759766
1633782647406025500,0.618025390625,21.431365966796875,-27.036027908325195,-29.386356353759766
1633782647425904600,0.637904541015625,21.24725341796875,-27.136213302612305,-29.34237289428711
1633782647445782500,0.657782470703125,22.25982666015625,-27.002473831176758,-29.066028594970703
1633782647465661200,0.6776611328125,22.57489013671875,-27.12013053894043,-28.661937713623047
1633782647485540400,0.697540283203125,22.90625,-27.366758346557617,-28.244388580322266
1633782647505419500,0.71741943359375,22.189727783203125,-27.219762802124023,-28.308887481689453
1633782647525298400,0.73729833984375,21.865692138671875,-27.32700538635254,-28.499996185302734
1633782647545176600,0.757176513671875,21.230712890625,-27.521883010864258,-28.913715362548828
1633782647565055500,0.777055419921875,21.030731201171875,-27.480695724487305,-29.00210189819336
1633782647584934400,0.796934326171875,21.55120849609375,-27.248289108276367,-29.18826675415039
1633782647604813300,0.816813232421875,21.869293212890625,-26.784460067749023,-29.37039566040039
1633782647624692500,0.8366923828125,22.211212158203125,-26.44700050354004,-29.47623062133789
1633782647644570400,0.8565703125,23.234161376953125,-25.744386672973633,-29.361980438232422
1633782647664449500,0.876449462890625,23.69024658203125,-24.70021629333496,-29.615528106689453
1633782647684328200,0.896328125,24.67608642578125,-24.079328536987305,-29.97116470336914
1633782647704207400,0.916207275390625,25.15203857421875,-23.18808937072754,-29.932697296142578
1633782647724086300,0.936086181640625,25.30072021484375,-22.384328842163086,-29.75387954711914
1633782647743964400,0.95596435546875,26.04296875,-22.417314529418945,-29.403789520263672
1633782647763843300,0.97584326171875,25.907501220703125,-22.742029190063477,-29.44217300415039
1633782647783722500,0.995722412109375,25.52545166015625,-23.160734176635742,-29.171993255615234
1633782647803601400,1.015601318359375,24.8262939453125,-23.102903366088867,-29.560840606689453
1633782647823480300,1.035480224609375,24.235748291015625,-23.426679611206055,-29.853885650634766
1633782647843358700,1.055358642578125,23.991912841796875,-23.29576301574707,-30.024524688720703
1633782647863238000,1.07523779296875,23.5634765625,-23.60536003112793,-30.328227996826172
1633782647883116800,1.09511669921875,22.932220458984375,-23.60355567932129,-30.416072845458984
1633782647902995700,1.11499560546875,23.1390380859375,-23.836000442504883,-30.56930923461914
1633782647922875000,1.134875,22.9254150390625,-23.819063186645508,-30.836322784423828
1633782647942752800,1.154752685546875,22.644683837890625,-23.75001335144043,-31.186656951904297
1633782647962631700,1.174631591796875,23.2574462890625,-23.58098030090332,-31.280223846435547
1633782647982510800,1.1945107421875,22.893310546875,-23.53571891784668,-31.459110260009766
1633782648002390000,1.21439013671875,23.169525146484375,-23.069799423217773,-31.54067611694336
1633782648022268700,1.2342685546875,23.165313720703125,-22.854703903198242,-31.513660430908203
1633782648042147800,1.25414794921875,23.132293701171875,-23.05973243713379,-31.320362091064453
1633782648062025700,1.274025634765625,23.210113525390625,-23.321718215942383,-31.311359405517578
1633782648081905000,1.29390478515625,23.30560302734375,-23.1630802154541,-31.625720977783203
1633782648101783800,1.31378369140625,23.02081298828125,-22.874723434448242,-31.621349334716797
1633782648121663000,1.3336630859375,23.569610595703125,-22.100698471069336,-31.98232650756836
1633782648141541600,1.353541748046875,23.752655029296875,-21.05742835998535,-32.6898307800293
1633782648161419800,1.373419677734375,24.30157470703125,-19.8398380279541,-33.32685470581055
1633782648181298700,1.393298583984375,24.0523681640625,-19.35609245300293,-33.685237884521484
1633782648201177900,1.413177734375,23.91796875,-19.416704177856445,-33.70974349975586
1633782648221056800,1.433056884765625,24.0496826171875,-19.6291446685791,-33.199222564697266
1633782648240935700,1.452935791015625,24.369415283203125,-20.31819725036621,-32.50082015991211
1633782648260813800,1.472813720703125,25.162109375,-20.546648025512695,-32.11582565307617
1633782648280692700,1.492692626953125,25.384521484375,-20.5927677154541,-31.577022552490234
1633782648300572000,1.512572021484375,25.88818359375,-20.7710018157959,-31.359981536865234
1633782648320450800,1.532450927734375,26.462310791015625,-20.55718421936035,-31.144672393798828
1633782648340330000,1.552330078125,26.770416259765625,-20.6749324798584,-30.326236724853516
1633782648360208000,1.572207763671875,26.811553955078125,-21.22770118713379,-30.044376373291016
1633782648380086800,1.592086669921875,26.53955078125,-21.707555770874023,-29.910297393798828
1633782648399965700,1.611965576171875,25.708526611328125,-22.402498245239258,-30.053653717041016
1633782648419844900,1.631844970703125,24.926544189453125,-22.96321678161621,-30.151187896728516
1633782648439723800,1.651723876953125,24.528106689453125,-23.21562385559082,-30.409290313720703
1633782648459602000,1.671601806640625,23.951812744140625,-23.45639991760254,-30.58401107788086
1633782648479480800,1.691480712890625,23.96258544921875,-23.602792739868164,-30.101970672607422
1633782648499359700,1.71135986328125,24.011627197265625,-23.787973403930664,-30.14828109741211
1633782648519238700,1.73123876953125,23.9544677734375,-23.98407554626465,-29.846050262451172
1633782648539117800,1.751117919921875,24.1318359375,-24.322484970092773,-29.550731658935547
1633782648558997000,1.7709970703125,24.55548095703125,-24.636507034301758,-29.33395004272461
1633782648578875000,1.790875,24.028289794921875,-25.251935958862305,-29.04897689819336
1633782648598754000,1.810754150390625,23.99267578125,-25.297269821166992,-29.034839630126953
1633782648618632700,1.8306328125,24.066864013671875,-25.30769157409668,-29.27706527709961
1633782648638511900,1.850511962890625,23.60272216796875,-25.07719612121582,-29.677913665771484
1633782648658390800,1.870390869140625,23.149871826171875,-24.670255661010742,-29.97298812866211
1633782648678269000,1.89026904296875,22.82037353515625,-23.936677932739258,-30.475086212158203
1633782648698147800,1.91014794921875,23.011810302734375,-23.434083938598633,-31.196834564208984
1633782648718026800,1.93002685546875,23.25140380859375,-23.060476303100586,-31.426265716552734
1633782648737905700,1.94990576171875,23.217315673828125,-23.024927139282227,-31.912349700927734
1633782648757784800,1.969784912109375,23.1434326171875,-22.698171615600586,-32.10548782348633
1633782648777662700,1.989662841796875,23.320526123046875,-22.344514846801758,-32.089115142822266
1633782648797542000,2.0095419921875,23.83905029296875,-22.131803512573242,-32.09184646606445
1633782648817420800,2.0294208984375,24.42816162109375,-21.735681533813477,-32.42726516723633
1633782648837303000,2.049302978515625,24.60260009765625,-21.161684036254883,-32.180049896240234
1633782648857182200,2.06918212890625,24.80230712890625,-20.959585189819336,-32.11429214477539
1633782648877060000,2.08906005859375,25.4102783203125,-20.81526756286621,-32.042179107666016
1633782648896939300,2.108939208984375,25.03936767578125,-20.46891975402832,-32.2351188659668
1633782648916818400,2.128818359375,24.679473876953125,-20.217870712280273,-32.405025482177734
1633782648936697300,2.148697265625,24.830047607421875,-20.027509689331055,-32.72127151489258
1633782648956576300,2.168576171875,24.52716064453125,-19.973054885864258,-32.672916412353516
1633782648976454100,2.1884541015625,24.398468017578125,-19.63621711730957,-32.99898147583008
1633782648996333300,2.208333251953125,24.783935546875,-19.560590744018555,-32.945255279541016
1633782649016212200,2.228212158203125,24.915283203125,-19.469453811645508,-32.87595748901367
1633782649036091400,2.24809130859375,24.982452392578125,-19.685548782348633,-32.681095123291016
1633782649055970300,2.26797021484375,25.264801025390625,-19.82309913635254,-32.59176254272461
1633782649075849200,2.28784912109375,24.72125244140625,-19.8593807220459,-32.579410552978516
1633782649095727000,2.30772705078125,24.97528076171875,-19.99485969543457,-32.6083869934082
1633782649115606300,2.327606201171875,24.73992919921875,-20.183557510375977,-32.54825210571289
1633782649135485200,2.347485107421875,24.729736328125,-20.275808334350586,-32.41093063354492
1633782649155364400,2.3673642578125,24.35479736328125,-20.96222496032715,-32.29557418823242
1633782649175243300,2.3872431640625,24.1029052734375,-21.33734703063965,-32.1217155456543
1633782649195121400,2.407121337890625,23.783172607421875,-21.621118545532227,-32.0475959777832
1633782649215000300,2.427000244140625,23.7593994140625,-21.986108779907227,-32.10837936401367
1633782649234879200,2.446879150390625,23.16265869140625,-22.677560806274414,-32.023128509521484
1633782649254758400,2.46675830078125,23.22430419921875,-23.310773849487305,-31.898380279541016
1633782649274637300,2.48663720703125,22.873687744140625,-24.000375747680664,-31.499629974365234
1633782649294515500,2.506515380859375,22.731842041015625,-24.330785751342773,-31.33108139038086
1633782649314394000,2.52639404296875,22.543212890625,-25.001150131225586,-31.28493881225586
1633782649334273300,2.546273193359375,22.622344970703125,-25.267831802368164,-30.62302017211914
1633782649354152200,2.566152099609375,22.562896728515625,-24.939149856567383,-30.497859954833984
1633782649374031400,2.58603125,23.208099365234375,-25.039777755737305,-30.087810516357422
1633782649393910300,2.60591015625,23.588623046875,-25.493894577026367,-29.413745880126953
1633782649413788400,2.625788330078125,23.984954833984375,-25.595510482788086,-28.60715103149414
1633782649433667000,2.6456669921875,24.80047607421875,-26.026723861694336,-28.031726837158203
1633782649453546200,2.665546142578125,25.291961669921875,-26.34623908996582,-27.43099594116211
1633782649473425400,2.68542529296875,25.91375732421875,-26.426942825317383,-26.71249771118164
1633782649493304300,2.70530419921875,26.433746337890625,-26.33405113220215,-25.958499908447266
1633782649513182200,2.72518212890625,27.213348388671875,-25.9848575592041,-25.514339447021484
1633782649533061400,2.745061279296875,27.878753662109375,-25.51108741760254,-25.216068267822266
1633782649552940300,2.764940185546875,29.57568359375,-25.118284225463867,-24.373416900634766
1633782649572819200,2.784819091796875,29.61688232421875,-24.63820457458496,-24.27511978149414
1633782649592698400,2.804698486328125,30.22686767578125,-24.22833824157715,-24.146137237548828
1633782649612576300,2.824576171875,30.613037109375,-24.68065071105957,-24.014934539794922
1633782649632455400,2.844455322265625,29.783538818359375,-25.270700454711914,-24.237773895263672
1633782649652334300,2.864334228515625,29.162506103515625,-25.794137954711914,-24.542652130126953
1633782649672213200,2.884213134765625,28.08880615234375,-26.185914993286133,-24.69803237915039
1633782649692092200,2.904092041015625,27.5321044921875,-26.81389045715332,-25.001941680908203
1633782649711970300,2.92397021484375,26.94866943359375,-26.725988388061523,-25.60556411743164
1633782649731849200,2.94384912109375,27.5440673828125,-26.565858840942383,-26.127796173095703
1633782649751728400,2.963728271484375,27.402679443359375,-25.751798629760742,-26.46249008178711
1633782649771607000,2.98360693359375,28.22332763671875,-25.07550621032715,-26.75833511352539
1633782649791486200,3.003486328125,28.288330078125,-24.63138771057129,-26.685054779052734
1633782649811365400,3.023365478515625,28.12030029296875,-24.699644088745117,-26.866710662841797
1633782649831243000,3.043242919921875,27.899810791015625,-24.507028579711914,-27.069507598876953
1633782649851122200,3.0631220703125,27.662750244140625,-24.214075088500977,-27.763874053955078
1633782649871001300,3.08300146484375,27.30377197265625,-23.402498245239258,-28.551563262939453
1633782649890880000,3.1028798828125,27.32366943359375,-22.491132736206055,-29.355693817138672
1633782649910759200,3.12275927734375,28.117034912109375,-21.862226486206055,-30.091693878173828
1633782649930637000,3.142636962890625,27.59320068359375,-21.064714431762695,-30.51925277709961
1633782649950516200,3.16251611328125,27.54180908203125,-20.89274024963379,-30.81216812133789
1633782649970395100,3.18239501953125,27.6185302734375,-20.95758628845215,-30.970096588134766
1633782649990274300,3.2022744140625,27.13653564453125,-20.65708351135254,-30.955677032470703
1633782650010153000,3.222153076171875,27.1566162109375,-20.747262954711914,-31.011051177978516
1633782650030032100,3.2420322265625,26.86627197265625,-20.664827346801758,-31.239788055419922
1633782650049910000,3.261909912109375,27.0411376953125,-20.2530574798584,-31.116939544677734
1633782650069789200,3.2817890625,27.086761474609375,-19.944910049438477,-31.531986236572266
1633782650089668000,3.301668212890625,27.117156982421875,-19.523862838745117,-31.90793228149414
1633782650109547300,3.32154736328125,27.3248291015625,-19.329137802124023,-31.928661346435547
1633782650129426200,3.34142626953125,27.5675048828125,-18.937681198120117,-31.52621841430664
1633782650149304000,3.361303955078125,27.472930908203125,-18.746416091918945,-31.219402313232422
1633782650169183200,3.381183349609375,28.09600830078125,-18.58656883239746,-30.804698944091797
1633782650189062100,3.401062255859375,28.03515625,-18.468957901000977,-30.864131927490234
1633782650208941300,3.42094140625,28.56884765625,-18.52528953552246,-30.31332015991211
1633782650228820000,3.440820068359375,28.801513671875,-18.720659255981445,-30.044246673583984
1633782650248698000,3.460697998046875,28.819244384765625,-18.762060165405273,-29.66696548461914
1633782650268577000,3.480576904296875,28.50653076171875,-19.47663688659668,-29.488216400146484
1633782650288456200,3.500456298828125,28.607940673828125,-19.769624710083008,-29.239566802978516
1633782650308335000,3.520335205078125,28.712615966796875,-20.12025260925293,-29.088306427001953
1633782650328214300,3.54021435546875,28.260101318359375,-20.54471778869629,-29.081104278564453
1633782650348093000,3.560093017578125,28.40106201171875,-20.49396324157715,-28.497852325439453
1633782650367971000,3.57997119140625,28.473907470703125,-20.81534767150879,-27.904499053955078
1633782650387850000,3.59985009765625,29.091156005859375,-21.19329261779785,-26.885005950927734
1633782650407729200,3.619729248046875,29.5511474609375,-21.64295768737793,-25.870891571044922
1633782650427608300,3.6396083984375,30.101409912109375,-21.761850357055664,-24.997264862060547
1633782650447487200,3.6594873046875,30.04315185546875,-21.56255531311035,-24.837688446044922
1633782650467365400,3.679365478515625,30.0069580078125,-21.78049659729004,-24.551982879638672
1633782650487244000,3.699244140625,30.1973876953125,-21.65252113342285,-24.478992462158203
1633782650507123200,3.719123291015625,29.914947509765625,-21.58100700378418,-24.377376556396484
1633782650527002000,3.739002197265625,29.751922607421875,-21.39632225036621,-24.136249542236328
1633782650546881300,3.75888134765625,30.167816162109375,-21.75819969177246,-23.802082061767578
1633782650566759200,3.77875927734375,29.845184326171875,-21.65272331237793,-23.873638153076172
1633782650586638300,3.798638427734375,29.8543701171875,-21.729475021362305,-23.512020111083984
1633782650606517000,3.81851708984375,30.380157470703125,-21.697050094604492,-23.77175521850586
1633782650626396200,3.838396240234375,30.381683349609375,-21.536584854125977,-23.44870376586914
1633782650646275000,3.858275146484375,30.215545654296875,-21.468069076538086,-23.513927459716797
1633782650666154200,3.878154296875,30.376708984375,-21.017324447631836,-23.397167205810547
1633782650686032100,3.8980322265625,30.429443359375,-21.16291618347168,-23.157512664794922
1633782650705911000,3.9179111328125,30.384033203125,-21.18129539489746,-22.810810089111328
1633782650725790200,3.937790283203125,29.987640380859375,-20.89577293395996,-22.910419464111328
1633782650745669000,3.957669189453125,30.378021240234375,-20.702592849731445,-23.242267608642578
1633782650765548300,3.97754833984375,30.029571533203125,-20.482648849487305,-23.525646209716797
1633782650785426200,3.99742626953125,29.770233154296875,-20.671533584594727,-23.390384674072266
1633782650805305300,4.017305419921875,29.222198486328125,-20.586469650268555,-23.44253921508789
1633782650825184000,4.03718408203125,29.32818603515625,-20.628759384155273,-23.372051239013672
1633782650845060000,4.05706005859375,29.21319580078125,-20.983224868774414,-23.579181671142578
1633782650864939300,4.076939208984375,27.889801025390625,-21.665334701538086,-23.918941497802734
1633782650884817200,4.096817138671875,27.6080322265625,-22.120389938354492,-24.104755401611328
1633782650904696300,4.1166962890625,27.08349609375,-22.639307022094727,-24.194812774658203
1633782650924575000,4.136574951171875,26.14373779296875,-22.777158737182617,-24.721172332763672
1633782650944454100,4.1564541015625,26.005096435546875,-22.576143264770508,-24.98270034790039
1633782650964333000,4.1763330078125,25.682403564453125,-22.477807998657227,-25.555606842041016
1633782650984211200,4.196211181640625,25.574859619140625,-22.031232833862305,-25.577861785888672
1633782651004090000,4.216090087890625,25.56005859375,-21.64543342590332,-25.806575775146484
1633782651023969300,4.23596923828125,25.174896240234375,-21.299821853637695,-25.79781723022461
1633782651043848000,4.255847900390625,25.105743408203125,-21.042028427124023,-26.231342315673828
1633782651063727000,4.27572705078125,25.011260986328125,-20.77107810974121,-26.615169525146484
1633782651083606300,4.295606201171875,24.53839111328125,-20.439828872680664,-26.989177703857422
1633782651103484200,4.315484130859375,24.843658447265625,-19.762086868286133,-27.402050018310547
1633782651123363300,4.33536328125,24.4666748046875,-19.51783561706543,-27.977741241455078
1633782651143242200,4.3552421875,24.440765380859375,-18.688493728637695,-28.251201629638672
1633782651163121200,4.37512109375,24.34320068359375,-18.07721519470215,-28.54782485961914
1633782651183000000,4.395,24.220672607421875,-17.507204055786133,-28.859447479248047
1633782651202878200,4.414878173828125,24.344573974609375,-17.34391975402832,-29.17795181274414
1633782651222757000,4.434757080078125,24.08837890625,-16.48045539855957,-29.652179718017578
1633782651242636300,4.45463623046875,24.122711181640625,-16.040868759155273,-30.033077239990234
1633782651262515000,4.474514892578125,23.92205810546875,-15.560918807983398,-30.328540802001953
1633782651282394000,4.49439404296875,24.2930908203125,-14.824010848999023,-30.044635772705078
1633782651302272000,4.51427197265625,24.638214111328125,-14.43916130065918,-29.88674545288086
1633782651322151200,4.534151123046875,24.8541259765625,-14.38892936706543,-29.81033706665039
1633782651342030000,4.554030029296875,24.96246337890625,-14.556905746459961,-29.543506622314453
1633782651361909200,4.5739091796875,24.730621337890625,-14.802328109741211,-29.18130111694336
1633782651381788200,4.5937880859375,25.134033203125,-15.261785507202148,-28.88791275024414
1633782651401667000,4.6136669921875,24.9437255859375,-15.339567184448242,-28.380359649658203
1633782651421545200,4.633545166015625,25.382904052734375,-15.610586166381836,-27.98245620727539
1633782651441424100,4.653424072265625,25.86895751953125,-16.05229377746582,-27.168926239013672
1633782651461303300,4.67330322265625,26.121368408203125,-16.897092819213867,-26.099491119384766
1633782651481182200,4.69318212890625,26.225372314453125,-17.34397315979004,-25.471881866455078
1633782651501061000,4.71306103515625,25.852203369140625,-18.23293113708496,-24.721614837646484
1633782651520939000,4.73293896484375,25.489837646484375,-18.852018356323242,-24.42812728881836
1633782651540818200,4.752818115234375,24.977508544921875,-19.342592239379883,-24.447681427001953
1633782651560697000,4.772697021484375,24.3115234375,-19.839799880981445,-24.344097137451172
1633782651580576300,4.792576171875,24.237457275390625,-20.344865798950195,-24.518749237060547
1633782651600455200,4.812455078125,23.85748291015625,-20.34089469909668,-24.199649810791016
1633782651620333300,4.832333251953125,23.776123046875,-20.755319595336914,-23.960063934326172
1633782651640212000,4.8522119140625,24.225860595703125,-20.599225997924805,-23.82187271118164
1633782651660091100,4.872091064453125,24.255889892578125,-20.167890548706055,-23.680736541748047
1633782651679970300,4.89197021484375,25.03900146484375,-19.991159439086914,-23.527942657470703
1633782651699849200,4.91184912109375,24.8974609375,-19.556665420532227,-23.332691192626953
1633782651719727000,4.93172705078125,25.370574951171875,-19.138612747192383,-22.94442367553711
1633782651739606000,4.95160595703125,26.109161376953125,-18.88532829284668,-22.472766876220703
1633782651759485200,4.971485107421875,26.1392822265625,-18.85634422302246,-22.130619049072266
1633782651779364000,4.991364013671875,26.260345458984375,-19.009695053100586,-21.91646957397461
1633782651799243300,5.0112431640625,26.1693115234375,-18.76853370666504,-21.83370590209961
1633782651819121200,5.03112109375,25.74139404296875,-19.08922004699707,-21.994396209716797
1633782651839003000,5.0510029296875,25.193572998046875,-19.331857681274414,-22.192668914794922
1633782651858882000,5.070882080078125,24.968658447265625,-19.386228561401367,-21.98367691040039
1633782651878761000,5.090760986328125,24.728485107421875,-19.68065071105957,-22.198055267333984
1633782651898640000,5.110639892578125,24.45111083984375,-19.60369300842285,-22.254398345947266
1633782651918517800,5.130517822265625,24.352935791015625,-19.485441207885742,-22.787540435791016
1633782651938397000,5.15039697265625,23.51959228515625,-19.74986457824707,-23.246112823486328
1633782651958276000,5.170276123046875,22.9600830078125,-19.960004806518555,-23.229450225830078
1633782651978155000,5.190155029296875,22.5408935546875,-20.311723709106445,-23.554439544677734
1633782651998034000,5.210033935546875,22.316070556640625,-20.05409049987793,-23.739063262939453
1633782652017912800,5.229912841796875,22.21221923828125,-20.30460548400879,-23.741535186767578
1633782652037791000,5.249791015625,22.22479248046875,-19.756383895874023,-24.069889068603516
1633782652057670000,5.269669921875,22.28515625,-19.327783584594727,-24.652729034423828
1633782652077549000,5.289549072265625,22.498046875,-18.57518196105957,-24.634044647216797
1633782652097428000,5.309427978515625,22.589691162109375,-18.4416446685791,-24.82046127319336
1633782652117307000,5.329306884765625,22.4052734375,-18.31940269470215,-24.582622528076172
1633782652137184800,5.349184814453125,22.062652587890625,-18.092824935913086,-24.680484771728516
1633782652157064000,5.36906396484375,22.189971923828125,-18.225011825561523,-25.041454315185547
1633782652176942800,5.38894287109375,21.21905517578125,-18.4057674407959,-25.382503509521484
1633782652196822000,5.408822021484375,21.2791748046875,-18.50172233581543,-25.65311050415039
1633782652216701000,5.428700927734375,20.859039306640625,-18.51191520690918,-25.64346694946289
1633782652236578800,5.448578857421875,20.65264892578125,-18.65106773376465,-25.784366607666016
1633782652256458000,5.4684580078125,20.77496337890625,-18.652971267700195,-25.773197174072266
1633782652276337000,5.4883369140625,20.443634033203125,-19.017255783081055,-25.649486541748047
1633782652296216000,5.508216064453125,20.727630615234375,-19.13743019104004,-25.49874496459961
1633782652316095000,5.528094970703125,20.518768310546875,-19.021493911743164,-25.398052215576172
1633782652335973000,5.54797314453125,20.400970458984375,-19.175024032592773,-25.520496368408203
1633782652355851800,5.567851806640625,20.497955322265625,-18.837900161743164,-25.545642852783203
1633782652375731000,5.58773095703125,20.593475341796875,-18.73844337463379,-25.426464080810547
1633782652395609900,5.60760986328125,20.76348876953125,-18.58170509338379,-25.225391387939453
1633782652415489000,5.627489013671875,21.168487548828125,-18.787492752075195,-25.006267547607422
1633782652435367000,5.647366943359375,20.879669189453125,-18.99329948425293,-24.478435516357422
1633782652455246000,5.66724609375,21.15985107421875,-19.236936569213867,-24.259510040283203
1633782652475124700,5.687124755859375,20.853118896484375,-19.808565139770508,-24.054912567138672
1633782652495004000,5.70700390625,20.820098876953125,-20.10309410095215,-23.591670989990234
1633782652514883000,5.726883056640625,20.252777099609375,-20.20658302307129,-23.343639373779297
1633782652534761000,5.746760986328125,20.31072998046875,-20.828229904174805,-23.103519439697266
1633782652554640100,5.76664013671875,19.632354736328125,-21.50140953063965,-23.177661895751953
1633782652574519000,5.78651904296875,19.281097412109375,-22.034353256225586,-22.990222930908203
1633782652594398000,5.80639794921875,19.10577392578125,-21.980905532836914,-22.96786880493164
1633782652614276900,5.82627685546875,18.82049560546875,-21.809778213500977,-23.05124282836914
1633782652634155000,5.846155029296875,19.346771240234375,-21.08641242980957,-23.251270294189453
1633782652654034000,5.866033935546875,19.912445068359375,-20.947690963745117,-23.295886993408203
1633782652673913000,5.8859130859375,20.33148193359375,-20.230268478393555,-23.391429901123047
1633782652693791700,5.905791748046875,20.58935546875,-19.633962631225586,-23.37154769897461
1633782652713671000,5.9256708984375,20.895294189453125,-19.457124710083008,-23.18704605102539
1633782652733549800,5.9455498046875,21.456024169921875,-19.72751808166504,-22.70180892944336
1633782652753428000,5.965427978515625,21.640899658203125,-19.936059951782227,-22.619098663330078
1633782652773307000,5.985306884765625,21.258941650390625,-20.378931045532227,-22.259586334228516
1633782652793186000,6.00518603515625,21.316375732421875,-20.58345603942871,-21.564769744873047
1633782652813065000,6.02506494140625,21.01129150390625,-20.881044387817383,-21.384517669677734
1633782652832940800,6.04494091796875,21.2215576171875,-20.753984451293945,-20.969432830810547
1633782652852818700,6.064818603515625,21.552337646484375,-20.830533981323242,-21.145610809326172
1633782652872697900,6.08469775390625,21.4010009765625,-20.25920295715332,-20.888729095458984
1633782652892576800,6.10457666015625,23.018707275390625,-19.7416934967041,-20.736454010009766
1633782652912455700,6.12445556640625,23.63092041015625,-18.960195541381836,-20.82906723022461
1633782652932334600,6.14433447265625,23.725067138671875,-18.335691452026367,-20.972225189208984
1633782652952212700,6.164212646484375,23.90069580078125,-18.00870704650879,-21.14101791381836
1633782652972091600,6.184091552734375,23.46990966796875,-17.819814682006836,-21.27310562133789
1633782652991970800,6.203970703125,23.2158203125,-17.934709548950195,-21.541400909423828
1633782653011850000,6.22385009765625,22.90283203125,-18.13800621032715,-21.513629913330078
1633782653031728600,6.243728759765625,22.767486572265625,-18.261598587036133,-21.531230926513672
1633782653051606800,6.263606689453125,22.5626220703125,-18.535085678100586,-21.267520904541016
1633782653071485700,6.283485595703125,22.1824951171875,-18.90888786315918,-21.425479888916016
1633782653091364900,6.30336474609375,22.230224609375,-19.45060157775879,-21.001461029052734
1633782653111243800,6.323243896484375,21.950592041015625,-19.62932014465332,-20.700206756591797
1633782653131123000,6.343123046875,21.7147216796875,-19.895593643188477,-20.590702056884766
1633782653151000800,6.363000732421875,20.782989501953125,-20.0011043548584,-20.77651596069336
1633782653170879700,6.382879638671875,20.94879150390625,-19.944971084594727,-21.27933120727539
1633782653190758700,6.402758544921875,20.7568359375,-19.356775283813477,-21.836894989013672
1633782653210637800,6.422637939453125,21.0955810546875,-18.920686721801758,-22.120113372802734
1633782653230516700,6.442516845703125,21.26904296875,-18.542898178100586,-22.29086685180664
1633782653250395000,6.462394775390625,21.186614990234375,-18.170324325561523,-22.26120376586914
1633782653270273800,6.482273681640625,21.363525390625,-17.887205123901367,-22.380252838134766
1633782653290152700,6.502152587890625,21.436492919921875,-18.083757400512695,-22.13150405883789
1633782653310032000,6.522031982421875,21.246917724609375,-18.203603744506836,-22.425830841064453
1633782653329910800,6.541910888671875,20.72296142578125,-18.287076950073242,-22.49453353881836
1633782653349788700,6.56178857421875,20.661956787109375,-18.28721046447754,-22.488651275634766
1633782653369667800,6.581667724609375,20.264892578125,-18.144052505493164,-22.420429229736328
1633782653389546800,6.601546630859375,20.832305908203125,-18.49186134338379,-22.11178207397461
1633782653409425700,6.62142578125,21.03302001953125,-18.272855758666992,-22.181079864501953
1633782653429304800,6.641304931640625,21.491180419921875,-18.38340187072754,-21.50448226928711
1633782653449182700,6.6611826171875,21.35693359375,-18.27669334411621,-21.39358901977539
1633782653469062000,6.681061767578125,21.756439208984375,-18.283803939819336,-21.175731658935547
1633782653488940800,6.70094091796875,21.891571044921875,-18.365877151489258,-20.994266510009766
1633782653508819700,6.72081982421875,22.279449462890625,-18.486703872680664,-20.923038482666016
1633782653528698600,6.74069873046875,22.542938232421875,-18.19806480407715,-20.571773529052734
1633782653548576800,6.76057666015625,22.833526611328125,-18.046472549438477,-20.237491607666016
1633782653568455700,6.78045556640625,23.314453125,-18.116762161254883,-19.884708404541016
1633782653588334800,6.8003349609375,22.6968994140625,-18.071916580200195,-19.912052154541016
1633782653608213800,6.8202138671875,22.767333984375,-18.007368087768555,-19.53353500366211
1633782653628092700,6.8400927734375,23.5230712890625,-17.918981552124023,-19.00149154663086
1633782653647970600,6.859970458984375,23.70208740234375,-18.272733688354492,-18.377880096435547
1633782653667849700,6.879849609375,23.502471923828125,-18.770185470581055,-18.031787872314453
1633782653687729000,6.89972900390625,22.9876708984375,-19.51209831237793,-18.286617279052734
1633782653707607800,6.91960791015625,22.6988525390625,-19.611120223999023,-18.176250457763672
1633782653727487000,6.939487060546875,22.2734375,-19.41465950012207,-18.657978057861328
1633782653747365600,6.95936572265625,22.37994384765625,-19.209081649780273,-19.335979461669922
1633782653767243800,6.979243896484375,21.660675048828125,-18.913034439086914,-19.530620574951172
1633782653787122700,6.999122802734375,21.661865234375,-18.625158309936523,-19.989398956298828
1633782653807001900,7.019001953125,22.01202392578125,-18.397321701049805,-19.705738067626953
1633782653826880800,7.038880859375,22.46270751953125,-18.395395278930664,-19.204532623291016
1633782653846759700,7.058759765625,22.694915771484375,-18.656362533569336,-18.450237274169922
1633782653866637800,7.078637939453125,22.83251953125,-19.39888572692871,-17.787609100341797
1633782653886516700,7.098516845703125,22.45849609375,-20.0798397064209,-17.534412384033203
1633782653906395600,7.118395751953125,22.397613525390625,-20.5513973236084,-17.09206771850586
1633782653926274800,7.13827490234375,21.561065673828125,-20.900972366333008,-16.97671890258789
1633782653946154000,7.158154052734375,21.311798095703125,-21.011526107788086,-17.046276092529297
1633782653966032000,7.178031982421875,21.09783935546875,-21.029356002807617,-16.78396224975586
1633782653985910800,7.197910888671875,21.016876220703125,-21.34316062927246,-16.57644271850586
1633782654005789700,7.217789794921875,20.70245361328125,-21.7359676361084,-16.37009048461914
1633782654025668900,7.2376689453125,20.8427734375,-21.709753036499023,-15.907901763916016
1633782654045547800,7.2575478515625,21.097900390625,-21.78452491760254,-15.72884750366211
1633782654065426000,7.277426025390625,20.65509033203125,-21.843339920043945,-15.57516860961914
1633782654085304800,7.297304931640625,20.9171142578125,-21.933320999145508,-15.508968353271484
1633782654105183700,7.317183837890625,20.41851806640625,-22.07191276550293,-15.532306671142578
1633782654125062700,7.337062744140625,20.327789306640625,-22.213361740112305,-15.362041473388672
1633782654144941800,7.35694189453125,19.83477783203125,-22.240079879760742,-15.632801055908203
1633782654164819700,7.37681982421875,19.70733642578125,-22.276334762573242,-15.94570541381836
1633782654184699000,7.396698974609375,19.612457275390625,-22.18404197692871,-16.036663055419922
1633782654204577800,7.416577880859375,18.914306640625,-22.530122756958008,-16.48989486694336
1633782654224456700,7.436456787109375,17.81585693359375,-22.867734909057617,-16.729915618896484
1633782654244335900,7.4563359375,17.595062255859375,-23.100187301635742,-17.04336929321289
1633782654264213800,7.4762138671875,18.016998291015625,-22.872224807739258,-17.438953399658203
1633782654284092700,7.4960927734375,17.954864501953125,-22.59623908996582,-17.359119415283203
1633782654303971800,7.515971923828125,17.75018310546875,-22.07670783996582,-17.436702728271484
1633782654323850800,7.535850830078125,18.39990234375,-21.986780166625977,-17.641246795654297
1633782654343729700,7.555729736328125,19.091339111328125,-21.445104598999023,-17.592769622802734
1633782654363607800,7.57560791015625,18.8056640625,-21.75760841369629,-17.502315521240234
1633782654383486700,7.59548681640625,19.224945068359375,-21.628755569458008,-17.192386627197266
1633782654403366000,7.615365966796875,18.752777099609375,-21.702898025512695,-17.00784683227539
1633782654423244800,7.635244873046875,18.9412841796875,-21.7551212310791,-17.281673431396484
1633782654443123000,7.655123046875,19.20306396484375,-21.483545303344727,-17.522754669189453
1633782654463001900,7.675001953125,18.9404296875,-21.4481258392334,-17.761737823486328
1633782654482880800,7.694880859375,19.10693359375,-20.80165672302246,-18.079326629638672
1633782654502759700,7.714759765625,19.25823974609375,-20.696413040161133,-17.981639862060547
1633782654522638800,7.734638916015625,19.377532958984375,-20.775175094604492,-18.055286407470703
1633782654542517800,7.754517822265625,19.810760498046875,-20.570764541625977,-17.988018035888672
1633782654562396000,7.77439599609375,19.869781494140625,-20.532812118530273,-17.636425018310547
1633782654582274600,7.794274658203125,20.23822021484375,-20.573999404907227,-17.41000747680664
1633782654602153700,7.81415380859375,20.198760986328125,-20.33904457092285,-17.377483367919922
1633782654622033000,7.834032958984375,20.164276123046875,-20.503488540649414,-17.293926239013672
1633782654641911800,7.853911865234375,20.418426513671875,-20.588319778442383,-16.853336334228516
1633782654661790000,7.8737900390625,20.51971435546875,-20.48741340637207,-16.739559173583984
1633782654681668900,7.8936689453125,20.742279052734375,-20.362028121948242,-16.685474395751953
1633782654701547800,7.9135478515625,20.651031494140625,-20.79950523376465,-16.699893951416016
1633782654721426700,7.9334267578125,20.326995849609375,-20.871423721313477,-16.521724700927734
1633782654741305900,7.953305908203125,20.224334716796875,-21.1032657623291,-16.262592315673828
1633782654761183700,7.973183837890625,20.193450927734375,-21.668333053588867,-15.799633026123047
1633782654781063000,7.99306298828125,18.907318115234375,-22.595125198364258,-15.61312484741211
1633782654800941800,8.01294189453125,18.1728515625,-23.320528030395508,-15.527034759521484
1633782654820820700,8.03282080078125,17.21905517578125,-23.652341842651367,-15.089595794677734
1633782654840699400,8.052699462890626,16.6776123046875,-23.98174476623535,-15.429561614990234
1633782654860578600,8.07257861328125,16.8099365234375,-23.883085250854492,-15.71915054321289
1633782654880457500,8.09245751953125,17.3096923828125,-24.07359504699707,-15.78555679321289
1633782654900336400,8.11233642578125,17.700103759765625,-23.21961784362793,-15.606250762939453
1633782654920215300,8.13221533203125,18.323699951171875,-23.1463680267334,-14.993175506591797
1633782654940094500,8.152094482421875,18.898406982421875,-22.996198654174805,-14.429248809814453
1633782654959972400,8.171972412109374,19.173065185546875,-22.9035587310791,-13.341266632080078
1633782654979851500,8.1918515625,20.00689697265625,-23.28754234313965,-12.605815887451172
1633782654999730400,8.21173046875,19.86639404296875,-23.355924606323242,-12.707271575927734
1633782655019609300,8.231609375,19.8460693359375,-23.756006240844727,-12.15994644165039
1633782655039487500,8.251487548828125,19.383392333984375,-23.936296463012695,-12.14272689819336
1633782655059366400,8.271366455078125,19.42462158203125,-23.875776290893555,-11.87563705444336
1633782655079245300,8.291245361328125,19.36749267578125,-23.870859146118164,-12.21523666381836
1633782655099124500,8.31112451171875,19.335540771484375,-24.191713333129883,-11.93954086303711
1633782655119003600,8.331003662109374,18.91046142578125,-24.294572830200195,-11.555606842041016
1633782655138882300,8.35088232421875,18.672515869140625,-24.884756088256836,-11.741413116455078
1633782655158760400,8.370760498046875,18.32525634765625,-25.31058692932129,-11.74264144897461
1633782655178639400,8.390639404296875,17.851104736328125,-25.568368911743164,-11.335430145263672
1633782655198518500,8.4105185546875,17.339324951171875,-25.79185676574707,-11.585216522216797
1633782655218397400,8.4303974609375,16.777374267578125,-25.660459518432617,-11.53171157836914
1633782655238276600,8.450276611328125,16.88470458984375,-25.67807960510254,-11.789066314697266
1633782655258154500,8.470154541015624,16.885772705078125,-25.656614303588867,-12.160541534423828
1633782655278033400,8.490033447265626,16.583831787109375,-25.955907821655273,-12.103450775146484
1633782655297912300,8.509912353515626,16.268157958984375,-26.368349075317383,-11.685138702392578
1633782655317791500,8.52979150390625,15.667327880859375,-26.86030387878418,-11.50876235961914
1633782655337670400,8.54967041015625,14.694549560546875,-27.1635684967041,-11.473857879638672
1633782655357548500,8.569548583984375,14.19891357421875,-27.391084671020508,-11.38247299194336
1633782655377427500,8.589427490234375,13.84149169921875,-27.424222946166992,-12.04342269897461
1633782655397306400,8.609306396484374,14.037506103515625,-27.64971351623535,-12.58365249633789
1633782655417185500,8.629185546875,13.857635498046875,-27.014760971069336,-12.812732696533203
1633782655437064400,8.649064453125,14.577606201171875,-27.131669998168945,-12.95895004272461
1633782655456942600,8.668942626953125,14.829345703125,-26.680471420288086,-13.537158966064453
1633782655476821500,8.688821533203125,15.936981201171875,-26.180818557739258,-13.649288177490234
1633782655496700400,8.708700439453125,16.76556396484375,-25.72223472595215,-13.715412139892578
1633782655516579300,8.728579345703125,16.699737548828125,-25.332674026489258,-14.270099639892578
1633782655536457500,8.74845751953125,17.1240234375,-25.162084579467773,-14.943042755126953
1633782655556336400,8.76833642578125,17.517120361328125,-24.370702743530273,-15.293575286865234
1633782655576215600,8.788215576171876,17.9642333984375,-24.113977432250977,-15.42081069946289
1633782655596094500,8.808094482421875,18.01092529296875,-24.044878005981445,-15.506855010986328
1633782655615973400,8.827973388671875,18.455474853515625,-24.11460304260254,-15.515735626220703
1633782655635851300,8.847851318359375,18.41033935546875,-23.933061599731445,-15.457759857177734
1633782655655730400,8.86773046875,18.67059326171875,-23.870080947875977,-15.43356704711914
1633782655675609300,8.887609375,19.001007080078125,-23.6362247467041,-15.412853240966797
1633782655695488500,8.907488525390624,18.614227294921875,-23.606897354125977,-15.72049331665039
1633782655715367700,8.92736767578125,18.91424560546875,-23.323347091674805,-16.33340072631836
1633782655735246300,8.947246337890626,18.260711669921875,-23.145479202270508,-16.496334075927734
1633782655755124200,8.967124267578125,18.310821533203125,-23.227628707885742,-17.235851287841797
1633782655775003400,8.98700341796875,18.355224609375,-22.88100242614746,-17.691852569580078
1633782655794882600,9.006882568359375,18.146728515625,-22.890905380249023,-18.134273529052734
1633782655814761500,9.026761474609375,17.692779541015625,-22.78499412536621,-18.423084259033203
1633782655834639600,9.0466396484375,17.713287353515625,-23.14841651916504,-18.267276763916016
1633782655854517500,9.066517578125,17.167999267578125,-24.135488510131836,-18.100582122802734
1633782655874396700,9.086396728515625,16.24151611328125,-24.643667221069336,-17.628673553466797
1633782655894275600,9.106275634765625,15.766876220703125,-24.81904411315918,-17.73995590209961
1633782655914154500,9.126154541015625,15.959716796875,-24.84303092956543,-17.804180145263672
1633782655934032600,9.14603271484375,16.406982421875,-24.722997665405273,-17.90737533569336
1633782655953911600,9.16591162109375,16.7462158203125,-24.200132369995117,-18.18362808227539
1633782655973790700,9.185790771484376,17.039642333984375,-23.456743240356445,-18.421634674072266
1633782655993669600,9.205669677734376,18.1177978515625,-23.04456901550293,-18.284236907958984
1633782656013548500,9.225548583984375,19.044097900390625,-23.055849075317383,-17.580554962158203
1633782656033426400,9.245426513671875,19.607513427734375,-23.252466201782227,-16.985118865966797
1633782656053305600,9.2653056640625,19.727020263671875,-23.526704788208008,-15.856731414794922
1633782656073184500,9.2851845703125,19.541412353515625,-23.807329177856445,-14.820941925048828
1633782656093063700,9.305063720703124,20.181488037109375,-23.9241886138916,-13.534923553466797
1633782656112942300,9.3249423828125,20.336669921875,-24.264726638793945,-13.29874038696289
1633782656132821500,9.344821533203126,20.313812255859375,-24.365022659301758,-12.808635711669922
1633782656152699400,9.364699462890625,20.37371826171875,-24.373720169067383,-12.497615814208984
1633782656172578600,9.38457861328125,19.98687744140625,-24.885679244995117,-12.852405548095703
1633782656192457700,9.404457763671875,19.24554443359375,-25.281591415405273,-13.191631317138672
1633782656212336600,9.424336669921875,18.745025634765625,-25.635568618774414,-13.564395904541016
1633782656232214500,9.444214599609374,18.370849609375,-25.7055606842041,-14.00082778930664
1633782656252093400,9.464093505859376,18.143707275390625,-25.749853134155273,-14.126644134521484
1633782656271972600,9.48397265625,18.63409423828125,-25.56483268737793,-14.035518646240234
1633782656291851500,9.5038515625,19.269561767578125,-25.343286514282227,-13.584819793701172
1633782656311730700,9.523730712890625,19.858123779296875,-24.92399787902832,-13.255748748779297
1633782656331608600,9.543608642578125,20.4342041015625,-24.768831253051758,-13.205867767333984
1633782656351487700,9.56348779296875,20.53118896484375,-24.591630935668945,-13.085453033447266
1633782656371366400,9.583366455078124,19.88238525390625,-24.783292770385742,-12.932994842529297
1633782656391245600,9.60324560546875,19.107421875,-25.195871353149414,-12.726245880126953
1633782656411124500,9.62312451171875,18.539154052734375,-25.81435203552246,-12.650074005126953
1633782656431002600,9.643002685546875,18.298736572265625,-26.186479568481445,-12.950969696044922
1633782656450881500,9.662881591796875,18.49072265625,-26.0908260345459,-13.074398040771484
1633782656470760700,9.6827607421875,18.36334228515625,-25.703432083129883,-13.551692962646484
1633782656490639600,9.7026396484375,18.790985107421875,-25.255002975463867,-14.201862335205078
1633782656510518500,9.7225185546875,19.541412353515625,-24.432287216186523,-14.354496002197266
1633782656530396400,9.742396484375,19.978302001953125,-24.143587112426758,-14.492542266845703
1633782656550275600,9.762275634765626,20.420989990234375,-23.760583877563477,-14.714862823486328
1633782656570154800,9.78215478515625,20.602935791015625,-23.27509880065918,-14.784770965576172
1633782656590033400,9.802033447265625,20.7996826171875,-23.33128547668457,-14.891300201416016
1633782656609912600,9.82191259765625,20.66497802734375,-23.164278030395508,-14.982418060302734
1633782656629790500,9.84179052734375,20.75543212890625,-23.374662399291992,-14.863636016845703
1633782656649669600,9.861669677734374,20.972198486328125,-23.125635147094727,-15.136882781982422
1633782656669548500,9.881548583984374,20.0684814453125,-22.983198165893555,-15.213237762451172
1633782656689427700,9.901427734375,20.457916259765625,-23.195070266723633,-15.107524871826172
1633782656709306400,9.921306396484376,20.33599853515625,-23.09873390197754,-14.704509735107422
1633782656729184500,9.9411845703125,20.3853759765625,-23.145967483520508,-14.788509368896484
1633782656749063400,9.9610634765625,20.437347412109375,-23.035654067993164,-14.420421600341797
1633782656768942600,9.980942626953125,21.336456298828125,-23.327478408813477,-14.31277084350586
1633782656788821500,10.000821533203125,20.867767333984375,-23.05635643005371,-14.506664276123047
1633782656808700700,10.02070068359375,21.39849853515625,-23.11981773376465,-14.95730972290039
1633782656828578600,10.04057861328125,21.064849853515625,-22.754751205444336,-15.144512176513672
1633782656848457500,10.06045751953125,21.03997802734375,-22.179391860961914,-15.452449798583984
1633782656868336400,10.08033642578125,21.51531982421875,-22.187891006469727,-16.117557525634766
1633782656888215600,10.100215576171875,21.613311767578125,-21.678136825561523,-16.532169342041016
1633782656908094700,10.1200947265625,21.54718017578125,-21.303709030151367,-16.305423736572266
1633782656927972600,10.13997265625,21.632568359375,-21.717382431030273,-15.877567291259766
1633782656947851500,10.1598515625,20.832611083984375,-22.410985946655273,-15.502925872802734
1633782656967730400,10.17973046875,20.494384765625,-23.216135025024414,-15.302608489990234
1633782656987609600,10.199609619140626,20.173553466796875,-23.6196231842041,-14.809101104736328
1633782657007488500,10.219488525390625,19.9178466796875,-23.77543830871582,-14.803340911865234
1633782657027366700,10.23936669921875,20.4554443359375,-23.614892959594727,-15.048107147216797
1633782657047245600,10.25924560546875,20.869293212890625,-22.699682235717773,-15.31881332397461
1633782657067124500,10.27912451171875,21.45654296875,-22.006399154663086,-15.728748321533203
1633782657087003400,10.29900341796875,22.367584228515625,-21.470434188842773,-15.794803619384766
1633782657106882600,10.318882568359374,22.789459228515625,-21.188051223754883,-15.71718978881836
1633782657126760400,10.338760498046875,23.123687744140625,-21.02988624572754,-15.085193634033203
1633782657146639600,10.3586396484375,23.02593994140625,-21.41721534729004,-14.26089096069336
1633782657166518500,10.3785185546875,23.11468505859375,-21.698915481567383,-14.024341583251953
1633782657186397400,10.3983974609375,23.066680908203125,-21.89396858215332,-13.821186065673828
1633782657206276400,10.4182763671875,23.0758056640625,-22.225496292114258,-13.506389617919922
1633782657226154500,10.438154541015624,22.805206298828125,-22.27168083190918,-13.430522918701172
1633782657246033400,10.458033447265626,22.005279541015625,-22.39863395690918,-13.275859832763672
1633782657265912600,10.47791259765625,21.97430419921875,-22.55193519592285,-13.148204803466797
1633782657285791700,10.497791748046875,21.923492431640625,-22.99360466003418,-13.03622055053711
1633782657305670400,10.51767041015625,21.565521240234375,-23.129732131958008,-12.852977752685547
1633782657325548300,10.53754833984375,21.326324462890625,-23.504194259643555,-12.84817123413086
1633782657345427500,10.557427490234375,20.9036865234375,-23.787492752075195,-12.844493865966797
1633782657365306600,10.577306640625,20.63128662109375,-23.995771408081055,-12.605632781982422
1633782657385185500,10.597185546875,20.67852783203125,-23.92149543762207,-12.615398406982422
1633782657405064700,10.617064697265626,20.346435546875,-23.99025535583496,-12.429569244384766
1633782657424942600,10.636942626953125,21.006103515625,-24.13011360168457,-12.48746109008789
1633782657444821500,10.656821533203125,20.80487060546875,-24.129518508911133,-12.696285247802734
1633782657464700400,10.676700439453125,20.83355712890625,-24.27422523498535,-12.984142303466797
1633782657484579600,10.69657958984375,20.7353515625,-23.813173294067383,-13.074909210205078
1633782657504458500,10.71645849609375,20.561370849609375,-24.22478675842285,-13.13235855102539
1633782657524336600,10.736336669921876,20.6636962890625,-24.230112075805664,-13.11446762084961
1633782657544215600,10.756215576171876,21.143829345703125,-23.911195755004883,-13.767253875732422
1633782657564094500,10.776094482421875,20.8560791015625,-23.573923110961914,-13.970752716064453
1633782657583973400,10.795973388671875,21.148193359375,-23.442441940307617,-14.12313461303711
1633782657603851500,10.8158515625,21.727294921875,-22.94505500793457,-14.167407989501953
1633782657623730400,10.83573046875,22.33038330078125,-22.824079513549805,-14.33651351928711
1633782657643609600,10.855609619140624,22.12017822265625,-22.6478214263916,-14.510356903076172
1633782657663488500,10.875488525390624,22.1143798828125,-22.733152389526367,-14.406803131103516
1633782657683367400,10.895367431640626,22.31549072265625,-22.32710838317871,-14.79177474975586
1633782657703245600,10.91524560546875,22.353851318359375,-22.512086868286133,-15.119869232177734
1633782657723124500,10.93512451171875,22.271148681640625,-22.370298385620117,-15.112567901611328
1633782657743003600,10.955003662109375,21.871734619140625,-22.319887161254883,-15.395748138427734
1633782657762882600,10.974882568359375,21.748077392578125,-22.0491886138916,-15.594104766845703
1633782657782761500,10.994761474609374,21.945068359375,-22.025075912475586,-15.77712631225586
1633782657802639400,11.014639404296876,22.3004150390625,-21.962759017944336,-15.707660675048828
1633782657822518500,11.0345185546875,22.74224853515625,-22.109952926635742,-15.483097076416016
1633782657842398200,11.054398193359376,22.510955810546875,-21.905298233032227,-15.305133819580078
1633782657862277000,11.074277099609375,22.730255126953125,-21.725130081176758,-15.586788177490234
1633782657882156000,11.094156005859375,23.27215576171875,-21.802907943725586,-15.39724349975586
1633782657902034000,11.114033935546875,23.36175537109375,-21.53940773010254,-15.572376251220703
1633782657921913000,11.1339130859375,23.484466552734375,-21.743207931518555,-15.335926055908203
1633782657941792000,11.1537919921875,23.64654541015625,-21.858854293823242,-15.532657623291016
1633782657961671200,11.173671142578126,23.12103271484375,-21.977487564086914,-15.504680633544922
1633782657981550000,11.193550048828126,23.014678955078125,-22.079702377319336,-15.656574249267578
1633782658001428200,11.21342822265625,22.1551513671875,-22.208173751831055,-15.85477066040039
1633782658021307000,11.233306884765625,22.248565673828125,-22.334352493286133,-15.907024383544922
1633782658041186000,11.25318603515625,22.084869384765625,-22.431421279907227,-16.396907806396484
1633782658061065000,11.27306494140625,21.823455810546875,-23.059358596801758,-16.004711151123047
1633782658080944000,11.292944091796874,21.720245361328125,-23.45454978942871,-15.77835464477539
1633782658100822000,11.312822021484376,21.450469970703125,-24.190324783325195,-15.435344696044922
1633782658120701200,11.332701171875,20.76141357421875,-24.578874588012695,-15.18735122680664
1633782658140580000,11.352580078125,20.91265869140625,-24.802331924438477,-14.81136703491211
1633782658160459000,11.372458984375,21.129730224609375,-24.77996253967285,-15.005107879638672
1633782658180338200,11.392338134765625,21.066802978515625,-24.39460563659668,-15.09865951538086
1633782658200216000,11.412216064453125,21.1566162109375,-24.02205467224121,-15.17678451538086
1633782658220095200,11.43209521484375,22.503936767578125,-23.530420303344727,-15.07815933227539
1633782658239974100,11.45197412109375,22.610992431640625,-23.280214309692383,-14.783618927001953
1633782658259853000,11.47185302734375,22.754669189453125,-23.578039169311523,-14.13369369506836
1633782658279732000,11.49173193359375,23.168304443359375,-23.882631301879883,-13.775493621826172
1633782658299610000,11.511610107421875,22.5450439453125,-23.849985122680664,-13.850360870361328
1633782658319489000,11.531489013671875,22.258636474609375,-24.237977981567383,-13.649517059326172
1633782658339368200,11.5513681640625,22.10870361328125,-24.63850975036621,-13.608661651611328
1633782658359246800,11.571246826171874,22.277069091796875,-24.745073318481445,-13.78390884399414
1633782658379126000,11.5911259765625,22.130035400390625,-24.81153678894043,-13.374492645263672
1633782658399004000,11.61100390625,21.724761962890625,-25.054780960083008,-13.155109405517578
1633782658418883000,11.630883056640625,21.914154052734375,-25.380685806274414,-12.829410552978516
1633782658438762000,11.650761962890625,21.361419677734375,-25.492849349975586,-12.343799591064453
1633782658458641200,11.67064111328125,21.15325927734375,-26.198198318481445,-12.21292495727539
1633782658478519000,11.69051904296875,20.8795166015625,-26.496366500854492,-11.840251922607422
1633782658498398000,11.71039794921875,20.263671875,-27.108007431030273,-11.769023895263672
1633782658518277000,11.730277099609374,20.479644775390625,-27.1837215423584,-11.409076690673828
1633782658538156000,11.750156005859376,20.373046875,-27.417970657348633,-11.602519989013672
1633782658558035200,11.77003515625,20.306610107421875,-27.161264419555664,-11.577716827392578
1633782658577913000,11.7899130859375,20.337615966796875,-27.24605369567871,-12.170665740966797
1633782658597792300,11.809792236328125,20.11138916015625,-26.94858741760254,-12.71413803100586
1633782658617671000,11.8296708984375,20.1888427734375,-26.948957443237305,-12.881343841552734
1633782658637550000,11.849550048828124,20.382598876953125,-27.021352767944336,-13.284229278564453
1633782658657429000,11.869428955078124,19.93438720703125,-26.942686080932617,-13.354572296142578
1633782658677307100,11.88930712890625,21.0113525390625,-26.766626358032227,-13.173038482666016
1633782658697186000,11.90918603515625,20.9532470703125,-26.793703079223633,-13.331897735595703
1633782658717065200,11.929065185546875,21.611907958984375,-26.18983268737793,-13.20827865600586
1633782658736943900,11.94894384765625,22.545501708984375,-26.29677391052246,-13.146320343017578
1633782658756823000,11.968822998046875,22.8907470703125,-25.984373092651367,-12.908443450927734
1633782658776701000,11.988700927734374,23.16583251953125,-25.636293411254883,-12.39468765258789
1633782658796580000,12.008580078125,23.103515625,-25.82682991027832,-12.653728485107422
1633782658816459300,12.028459228515626,23.242034912109375,-25.870210647583008,-12.89761734008789
1633782658836338000,12.048337890625,23.454864501953125,-26.07195472717285,-13.160099029541016
1633782658856216800,12.068216796875,22.628875732421875,-26.245603561401367,-13.475322723388672
1633782658876095000,12.088094970703125,22.555389404296875,-26.294118881225586,-14.17258071899414
1633782658895974000,12.107973876953125,22.57684326171875,-26.238054275512695,-14.903018951416016
1633782658915853000,12.12785302734375,22.634796142578125,-26.368436813354492,-15.320453643798828
1633782658935732000,12.14773193359375,22.078704833984375,-26.3241024017334,-15.790904998779297
1633782658955611000,12.16761083984375,22.336029052734375,-26.15104103088379,-15.846866607666016
1633782658975489000,12.187489013671875,22.470428466796875,-26.021024703979492,-15.748645782470703
1633782658995368000,12.207367919921875,22.460357666015625,-26.03694725036621,-15.613780975341797
1633782659015246800,12.227246826171875,23.343048095703125,-26.01753044128418,-15.207073211669922
1633782659035126000,12.2471259765625,24.071044921875,-25.72306251525879,-14.99038314819336
1633782659055005000,12.2670048828125,24.424713134765625,-25.684003829956055,-14.086620330810547
1633782659074883000,12.286883056640624,24.328125,-25.989957809448242,-13.816471099853516
1633782659094761700,12.30676171875,24.684783935546875,-26.08135414123535,-13.491741180419922
1633782659114641000,12.326640869140626,24.726318359375,-26.309293746948242,-13.34555435180664
1633782659134520000,12.34652001953125,24.60064697265625,-26.253568649291992,-13.390377044677734
1633782659154399000,12.36639892578125,25.043670654296875,-26.09027671813965,-13.587871551513672
1633782659174276900,12.38627685546875,24.302764892578125,-26.399526596069336,-13.809955596923828
1633782659194156000,12.406156005859375,24.363677978515625,-26.76056480407715,-13.835575103759766
1633782659214035000,12.426034912109374,23.49468994140625,-27.182920455932617,-14.044384002685547
1633782659233913900,12.445913818359376,23.176055908203125,-27.671594619750977,-13.57889175415039
1633782659253792000,12.4657919921875,22.70367431640625,-28.328126907348633,-13.537281036376953
1633782659273671000,12.4856708984375,22.85601806640625,-28.45003318786621,-13.527645111083984
1633782659293550000,12.505550048828125,22.633941650390625,-28.565507888793945,-13.66994857788086
1633782659313429000,12.525428955078125,22.998138427734375,-28.55135154724121,-14.097774505615234
1633782659333308000,12.545307861328125,23.328521728515625,-28.43476676940918,-14.553386688232422
1633782659353185800,12.565185791015624,23.814849853515625,-27.694299697875977,-14.775569915771484
1633782659373065000,12.58506494140625,24.23016357421875,-27.382749557495117,-14.655261993408203
1633782659392943900,12.60494384765625,24.3592529296875,-27.27021598815918,-14.090045928955078
1633782659412823000,12.624822998046875,24.511444091796875,-27.209810256958008,-13.375926971435547
1633782659432702000,12.644701904296875,24.3741455078125,-27.551759719848633,-12.89981460571289
1633782659452580000,12.664580078125,24.696319580078125,-27.908037185668945,-12.966876983642578
1633782659472458800,12.684458740234374,24.506591796875,-28.46226692199707,-12.96798324584961
1633782659492338000,12.704337890625,24.544952392578125,-28.52036476135254,-12.830318450927734
1633782659512217000,12.724217041015624,24.33697509765625,-28.574705123901367,-12.699687957763672
1633782659532096000,12.744095947265626,24.1988525390625,-28.88338279724121,-12.916385650634766
1633782659551974100,12.76397412109375,24.234283447265625,-29.01412010192871,-12.857776641845703
1633782659571852800,12.783852783203125,24.43011474609375,-29.178022384643555,-12.863544464111328
1633782659591732000,12.80373193359375,24.8057861328125,-29.19932746887207,-12.590839385986328
1633782659611611000,12.82361083984375,24.7855224609375,-29.076826095581055,-12.52560806274414
1633782659631490000,12.843489990234374,24.944854736328125,-28.94114875793457,-12.490299224853516
1633782659651368000,12.863367919921876,24.7679443359375,-28.878705978393555,-12.42513656616211
1633782659671247000,12.8832470703125,25.35113525390625,-28.960874557495117,-12.668071746826172
1633782659691125800,12.903125732421875,25.644012451171875,-29.0584774017334,-13.31539535522461
1633782659711005000,12.9230048828125,24.7781982421875,-29.15022850036621,-14.222675323486328
1633782659730883800,12.9428837890625,24.098052978515625,-29.377988815307617,-15.020160675048828
1633782659750762000,12.962761962890625,22.685638427734375,-30.32496452331543,-15.912105560302734
1633782659770641000,12.982640869140624,21.168853759765625,-31.217580795288086,-16.429798126220703
1633782659790520000,13.00252001953125,19.8309326171875,-32.30279541015625,-16.64700698852539
1633782659810399000,13.02239892578125,18.817840576171875,-32.57769012451172,-17.37411880493164
1633782659830276900,13.04227685546875,18.0595703125,-33.004119873046875,-17.80374526977539
1633782659850156000,13.062156005859375,18.14483642578125,-32.62608337402344,-18.461734771728516
1633782659870035200,13.08203515625,18.821929931640625,-32.01734161376953,-18.682880401611328
1633782659889914000,13.1019140625,19.4661865234375,-31.819211959838867,-18.87979507446289
1633782659909793000,13.12179296875,20.199859619140625,-31.465925216674805,-19.015331268310547
1633782659929671200,13.141671142578126,20.684356689453125,-31.013273239135742,-18.880451202392578
1633782659949550000,13.161550048828126,21.611846923828125,-30.670156478881836,-18.88845443725586
1633782659969429000,13.181428955078125,22.208770751953125,-29.969850540161133,-19.152584075927734
1633782659989308200,13.20130810546875,23.024658203125,-29.465566635131836,-19.70743179321289
1633782660009187000,13.22118701171875,23.695281982421875,-28.956655502319336,-20.067333221435547
1633782660029065200,13.241065185546875,23.632415771484375,-28.62568473815918,-20.970294952392578
1633782660048943900,13.26094384765625,23.13214111328125,-28.386072158813477,-21.66788101196289
1633782660068823000,13.280822998046874,23.145721435546875,-28.405691146850586,-22.143840789794922
1633782660088702000,13.300701904296876,23.251007080078125,-28.179536819458008,-22.324771881103516
1633782660108581000,13.3205810546875,23.227935791015625,-28.260339736938477,-22.356678009033203
1633782660128459000,13.340458984375,23.803192138671875,-28.26715660095215,-22.37270736694336
1633782660148338200,13.360338134765625,24.267669677734375,-28.408201217651367,-21.766826629638672
1633782660168217000,13.380217041015625,24.763916015625,-28.273866653442383,-21.61899185180664
1633782660188096000,13.400095947265624,25.3980712890625,-28.2224178314209,-21.523693084716797
1633782660207975200,13.41997509765625,25.714080810546875,-27.63204002380371,-21.28701400756836
1633782660227853000,13.43985302734375,26.23284912109375,-27.238115310668945,-21.302677154541016
1633782660247732200,13.459732177734375,25.86639404296875,-27.12592124938965,-21.522563934326172
1633782660267611100,13.479611083984375,26.01507568359375,-27.854204177856445,-21.32034683227539
1633782660287490000,13.499489990234375,25.3980712890625,-28.354795455932617,-20.938526153564453
1633782660307369000,13.519368896484375,24.700103759765625,-29.53797721862793,-19.854312896728516
1633782660327247000,13.5392470703125,24.143524169921875,-30.375288009643555,-19.29232406616211
1633782660347126000,13.5591259765625,23.303924560546875,-31.08428382873535,-19.182674407958984
1633782660367005200,13.579005126953126,23.290435791015625,-31.58989906311035,-18.924442291259766
1633782660386884000,13.598884033203126,23.117156982421875,-31.37801170349121,-19.229419708251953
1633782660406763000,13.618762939453125,23.01336669921875,-30.82585334777832,-19.429790496826172
1633782660426641000,13.638640869140625,23.92266845703125,-30.55669593811035,-19.70157241821289
1633782660446520000,13.65852001953125,24.1568603515625,-30.4054012298584,-19.546085357666016
1633782660466399000,13.67839892578125,24.77484130859375,-29.73592185974121,-19.592754364013672
1633782660486278100,13.698278076171874,25.15093994140625,-28.677988052368164,-19.86764144897461
1633782660506157000,13.718156982421876,25.45623779296875,-28.147382736206055,-20.32290267944336
1633782660526035000,13.738034912109375,25.773712158203125,-27.738431930541992,-21.180225372314453
1633782660545914000,13.7579140625,25.3778076171875,-27.60004234313965,-21.36800765991211
1633782660565793000,13.77779296875,25.18402099609375,-27.773874282836914,-21.483081817626953
1633782660585672200,13.797672119140625,25.077362060546875,-28.309587478637695,-21.245479583740234
1633782660605551000,13.817551025390625,24.898651123046875,-28.746286392211914,-20.27627182006836
1633782660625429200,13.83742919921875,25.3240966796875,-28.949010848999023,-19.77053451538086
1633782660645308000,13.857307861328126,25.532135009765625,-29.18666648864746,-19.26406478881836
1633782660665187000,13.87718701171875,25.787261962890625,-29.27662467956543,-19.164791107177734
1633782660685066000,13.89706591796875,25.63909912109375,-29.275754928588867,-18.796749114990234
1633782660704945200,13.916945068359375,26.0831298828125,-29.17450523376465,-18.431232452392578
1633782660724823000,13.936822998046875,25.827972412109375,-28.81534767150879,-18.327754974365234
1633782660744702200,13.9567021484375,26.482666015625,-28.68145179748535,-18.419612884521484
1633782660764580900,13.976580810546874,26.31640625,-28.55714225769043,-18.322040557861328
1633782660784460000,13.9964599609375,26.769256591796875,-28.167455673217773,-18.37918472290039
1633782660804338000,14.016337890625,26.81097412109375,-27.743009567260742,-18.551509857177734
1633782660824217000,14.036217041015625,26.46240234375,-27.90599250793457,-18.802417755126953
1633782660844096500,14.056096435546875,26.4849853515625,-27.948495864868164,-18.402965545654297
1633782660863975200,14.07597509765625,26.875091552734375,-27.8227596282959,-18.109249114990234
1633782660883854300,14.095854248046875,26.895843505859375,-27.524377822875977,-18.07290267944336
1633782660903733500,14.1157333984375,27.951080322265625,-26.5968074798584,-18.216968536376953
1633782660923611400,14.135611328125,28.753692626953125,-25.659589767456055,-18.46877670288086
1633782660943490600,14.155490478515626,29.628509521484375,-24.588151931762695,-18.414440155029297
1633782660963369500,14.175369384765625,30.1402587890625,-23.852182388305664,-18.58493423461914
1633782660983248400,14.195248291015625,30.666229248046875,-23.127164840698242,-18.305896759033203
1633782661003127300,14.215127197265625,31.16107177734375,-23.057722091674805,-18.33871841430664
1633782661023005400,14.23500537109375,30.898529052734375,-23.010961532592773,-18.312252044677734
1633782661042884400,14.25488427734375,30.962982177734375,-23.031103134155273,-18.472232818603516
1633782661062763500,14.274763427734374,30.5694580078125,-22.869863510131836,-19.084819793701172
1633782661082642400,14.294642333984376,30.487701416015625,-22.968626022338867,-19.405841827392578
1633782661102521300,14.314521240234376,30.281646728515625,-22.586061477661133,-19.060504913330078
1633782661122399200,14.334399169921875,29.826629638671875,-22.65265464782715,-19.155506134033203
1633782661142278400,14.3542783203125,30.041351318359375,-23.02947425842285,-19.187114715576172
1633782661162157300,14.3741572265625,29.9097900390625,-23.09437370300293,-18.637523651123047
1633782661182036500,14.394036376953125,29.915985107421875,-23.184938430786133,-18.338329315185547
1633782661201915400,14.413915283203124,29.97955322265625,-23.11139488220215,-17.98519515991211
1633782661221793500,14.43379345703125,29.895843505859375,-22.984594345092773,-18.059864044189453
1633782661241672400,14.45367236328125,30.12896728515625,-22.90900230407715,-18.119312286376953
1633782661261551400,14.47355126953125,30.371002197265625,-22.753503799438477,-17.70968246459961
1633782661281430500,14.493430419921875,30.61761474609375,-22.764734268188477,-17.13071060180664
1633782661301309400,14.513309326171875,30.8350830078125,-22.327322006225586,-17.175228118896484
1633782661321187600,14.5331875,30.751373291015625,-22.172700881958008,-17.232074737548828
1633782661341066200,14.553066162109374,30.68389892578125,-22.025903701782227,-17.018207550048828
1633782661360945400,14.5729453125,30.46038818359375,-21.805498123168945,-16.775348663330078
1633782661380824300,14.59282421875,31.063446044921875,-22.325353622436523,-16.437335968017578
1633782661400703500,14.612703369140625,30.448150634765625,-23.04990577697754,-15.90036392211914
1633782661420581400,14.632581298828125,29.256561279296875,-24.4248104095459,-15.214595794677734
1633782661440460500,14.65246044921875,29.04913330078125,-25.36562156677246,-14.669307708740234
1633782661460339200,14.672339111328125,28.2611083984375,-26.377756118774414,-14.564556121826172
1633782661480218400,14.69221826171875,27.896392822265625,-26.815359115600586,-14.410449981689453
1633782661500097500,14.71209765625,27.52825927734375,-26.5719051361084,-14.650714874267578
1633782661519975400,14.731975341796876,27.719207763671875,-26.208154678344727,-15.193233489990234
1633782661539854300,14.751854248046875,28.12994384765625,-25.762170791625977,-14.697986602783203
1633782661559733500,14.7717333984375,28.435546875,-25.57468605041504,-14.342266082763672
1633782661579612400,14.7916123046875,29.196929931640625,-25.208730697631836,-13.835926055908203
1633782661599491300,14.8114912109375,29.186737060546875,-25.210649490356445,-13.423152923583984
1633782661619369500,14.831369384765624,29.682769775390625,-24.81479835510254,-13.291271209716797
1633782661639248400,14.851248291015626,29.621185302734375,-24.410043716430664,-13.35622787475586
1633782661659127600,14.87112744140625,30.026702880859375,-24.043607711791992,-13.375659942626953
1633782661679006500,14.89100634765625,30.18365478515625,-23.776227951049805,-13.013408660888672
1633782661698885400,14.910885498046875,30.397857666015625,-23.3538875579834,-12.673892974853516
1633782661718763300,14.93076318359375,30.781402587890625,-23.25223731994629,-12.525470733642578
1633782661738642400,14.950642333984375,30.59674072265625,-23.12363624572754,-12.120647430419922
1633782661758521300,14.970521240234374,30.981719970703125,-22.997255325317383,-12.073474884033203
1633782661778400500,14.990400390625,30.550537109375,-23.25249671936035,-11.748676300048828
1633782661798279200,15.010279052734376,30.834625244140625,-23.107946395874023,-11.729373931884766
1633782661818157300,15.0301572265625,30.3922119140625,-23.3057918548584,-11.845630645751953
1633782661838036200,15.0500361328125,30.230194091796875,-23.77354621887207,-11.830684661865234
1633782661857914600,15.06991455078125,29.6728515625,-23.98378562927246,-11.387409210205078
1633782661877793800,15.089793701171875,29.124481201171875,-24.4658145904541,-11.314044952392578
1633782661897673000,15.1096728515625,29.0108642578125,-24.60260581970215,-11.495258331298828
1633782661917550800,15.12955078125,28.825347900390625,-24.806982040405273,-11.831592559814453
1633782661937429800,15.1494296875,28.80364990234375,-24.452184677124023,-11.69887924194336
1633782661957308700,15.16930859375,28.656585693359375,-24.6534481048584,-12.13045883178711
1633782661977187800,15.189187744140625,28.648773193359375,-24.555147171020508,-12.273921966552734
1633782661997066800,15.209066650390625,28.349945068359375,-24.12227439880371,-12.22354507446289
1633782662016945000,15.22894482421875,28.9415283203125,-23.690778732299805,-12.72677993774414
1633782662036823800,15.24882373046875,29.04541015625,-23.235883712768555,-12.760074615478516
1633782662056703000,15.268702880859376,29.3282470703125,-23.047842025756836,-12.91543960571289
1633782662076581600,15.28858154296875,29.2813720703125,-22.824384689331055,-12.974727630615234
1633782662096460800,15.308460693359375,29.2430419921875,-22.73655891418457,-13.146236419677734
1633782662116338700,15.328338623046875,28.675506591796875,-22.391996383666992,-13.242855072021484
1633782662136217900,15.3482177734375,29.359771728515625,-22.482393264770508,-13.698871612548828
1633782662156096800,15.3680966796875,29.2109375,-22.446016311645508,-14.06472396850586
1633782662175975700,15.3879755859375,29.121185302734375,-22.21014976501465,-14.599132537841797
1633782662195854600,15.4078544921875,29.621063232421875,-22.271818161010742,-14.94350814819336
1633782662215732700,15.427732666015626,29.246795654296875,-22.16501808166504,-14.866352081298828
1633782662235611600,15.447611572265625,29.278961181640625,-22.450998306274414,-15.02041244506836
1633782662255490800,15.46749072265625,29.61883544921875,-22.18585777282715,-15.15622329711914
1633782662275370000,15.487369873046875,29.6038818359375,-21.73710823059082,-15.111202239990234
1633782662295248600,15.50724853515625,29.423309326171875,-21.5247745513916,-15.020854949951172
1633782662315126800,15.527126708984374,29.925079345703125,-21.671682357788086,-15.140705108642578
1633782662335005700,15.547005615234376,30.07080078125,-21.339387893676758,-15.23715591430664
1633782662354884900,15.566884765625,30.270782470703125,-21.118715286254883,-15.418102264404297
1633782662374763800,15.586763671875,30.341033935546875,-20.95113182067871,-15.180370330810547
1633782662394643000,15.606642822265625,30.326019287109375,-20.871538162231445,-15.546001434326172
1633782662414520800,15.626520751953125,29.95123291015625,-20.793725967407227,-15.29604721069336
1633782662434399700,15.646399658203125,30.183685302734375,-21.143083572387695,-15.639385223388672
1633782662454278700,15.666278564453124,29.571380615234375,-21.320554733276367,-15.506084442138672
1633782662474157800,15.68615771484375,29.396575927734375,-21.876447677612305,-15.46554946899414
1633782662494036700,15.70603662109375,29.624481201171875,-22.59185218811035,-14.968921661376953
1633782662513915000,15.725914794921875,28.93243408203125,-23.063501358032227,-14.01864242553711
1633782662533793800,15.745793701171875,28.609588623046875,-24.145597457885742,-13.433124542236328
1633782662553672700,15.765672607421875,28.506134033203125,-24.407094955444336,-12.769962310791016
1633782662573551900,15.7855517578125,28.048492431640625,-24.54020881652832,-12.66073226928711
1633782662593430800,15.8054306640625,28.81036376953125,-24.440156936645508,-12.62746810913086
1633782662613308700,15.82530859375,28.762420654296875,-24.017183303833008,-12.63376235961914
1633782662633187800,15.845187744140626,29.27618408203125,-23.657442092895508,-12.427433013916016
1633782662653066800,15.865066650390625,30.107147216796875,-23.74116325378418,-12.113842010498047
1633782662672945700,15.884945556640625,30.3404541015625,-23.69636344909668,-11.834056854248047
1633782662692824800,15.904824951171875,29.962371826171875,-23.383325576782227,-11.775943756103516
1633782662712702700,15.92470263671875,30.16558837890625,-23.397314071655273,-11.79482650756836
1633782662732582000,15.944581787109374,29.88348388671875,-23.263391494750977,-12.052310943603516
1633782662752460800,15.964460693359374,30.1851806640625,-23.24580192565918,-12.088947296142578
1633782662772339700,15.984339599609376,30.250213623046875,-22.700571060180664,-12.057659149169922
1633782662792218600,16.004218505859374,30.4156494140625,-22.79597282409668,-11.609020233154297
1633782662812096800,16.0240966796875,30.53765869140625,-22.83344841003418,-11.176433563232422
1633782662831975700,16.0439755859375,30.9290771484375,-23.109670639038086,-11.250438690185547
1633782662851854800,16.063854736328125,30.41839599609375,-22.911367416381836,-11.072376251220703
1633782662871733800,16.083733642578125,31.17462158203125,-23.012975692749023,-10.879436492919922
1633782662891612700,16.10361279296875,30.889923095703125,-22.955106735229492,-11.164173126220703
1633782662911490600,16.123490478515624,30.381072998046875,-23.466604232788086,-11.275470733642578
1633782662931369700,16.14336962890625,30.844390869140625,-23.363500595092773,-11.247013092041016
1633782662951249000,16.163248779296875,30.3779296875,-23.601808547973633,-11.276241302490234
1633782662971127800,16.1831279296875,30.71356201171875,-23.641115188598633,-11.100887298583984
1633782662991007000,16.203007080078127,30.709869384765625,-23.679426193237305,-10.87784194946289
1633782663010884900,16.222884765625,31.287261962890625,-23.371213912963867,-10.700748443603516
1633782663030763800,16.242763671875,31.259765625,-23.512788772583008,-10.54983139038086
1633782663050642700,16.262642578125,31.17657470703125,-23.52521324157715,-10.081722259521484
1633782663070521900,16.28252197265625,31.265594482421875,-23.547639846801758,-10.045082092285156
1633782663090400800,16.30240087890625,30.921661376953125,-23.741487503051758,-10.371509552001953
1633782663110279000,16.32227880859375,30.80267333984375,-23.986181259155273,-10.69046401977539
1633782663130157800,16.34215771484375,31.1207275390625,-23.492502212524414,-11.854114532470703
1633782663150036700,16.36203662109375,31.273040771484375,-23.274988174438477,-12.157665252685547
1633782663169915600,16.38191552734375,31.63128662109375,-22.94671058654785,-12.39040756225586
1633782663189794800,16.401794921875,32.08966064453125,-22.484769821166992,-12.474185943603516
1633782663209672700,16.421672607421876,32.032318115234375,-22.54555320739746,-12.589305877685547
1633782663229551900,16.4415517578125,31.960235595703125,-22.153104782104492,-12.803180694580078
1633782663249430800,16.4614306640625,32.274810791015625,-22.404386520385742,-13.281681060791016
1633782663269309700,16.481309814453127,32.25750732421875,-21.850088119506836,-13.739933013916016
1633782663289188900,16.50118896484375,32.266937255859375,-21.46430778503418,-13.959247589111328
1633782663309066800,16.521066650390626,32.4542236328125,-21.364267349243164,-14.438716888427734
1633782663328946000,16.54094580078125,32.4732666015625,-21.28761863708496,-14.592655181884766
1633782663348824800,16.560824951171874,32.983978271484375,-21.422712326049805,-14.431819915771484
1633782663368703700,16.580703857421874,33.110565185546875,-21.4676456451416,-14.54928207397461
1633782663388582700,16.600582763671873,32.764739990234375,-21.318395614624023,-14.564640045166016
1633782663408460800,16.620460693359377,33.174713134765625,-21.113065719604492,-14.587894439697266
1633782663428339700,16.640339599609376,33.270416259765625,-20.835599899291992,-15.091304779052734
1633782663448219000,16.660218994140624,33.46051025390625,-20.605932235717773,-15.36087417602539
1633782663468097800,16.680097900390624,33.5281982421875,-20.28139305114746,-15.67471694946289
1633782663487976700,16.699976806640624,33.456329345703125,-20.344846725463867,-16.10947036743164
1633782663507854600,16.7198544921875,33.805511474609375,-20.1042537689209,-16.70029067993164
1633782663527733800,16.739733642578123,33.971038818359375,-20.066118240356445,-16.972667694091797
1633782663547612700,16.75961279296875,33.677703857421875,-20.10170555114746,-17.300304412841797
1633782663567491800,16.779491943359375,33.737274169921875,-19.96640968322754,-17.443073272705078
1633782663587370800,16.799370849609375,33.66400146484375,-20.111848831176758,-17.510417938232422
1633782663607249000,16.819248779296874,33.537139892578125,-19.87514305114746,-17.840961456298828
1633782663627127800,16.8391279296875,33.75762939453125,-19.640005111694336,-18.024669647216797
1633782663647006700,16.8590068359375,34.27154541015625,-19.347482681274414,-18.086742401123047
1633782663666886000,16.878885986328125,34.525115966796875,-19.962770462036133,-17.868473052978516
1633782663686764800,16.898764892578125,33.93072509765625,-20.425607681274414,-17.464336395263672
1633782663706643000,16.918642822265625,33.7635498046875,-21.104700088500977,-16.418636322021484
1633782663726521900,16.93852197265625,33.592559814453125,-21.915651321411133,-16.241458892822266
1633782663746400800,16.95840087890625,33.317901611328125,-22.2354679107666,-16.210750579833984
1633782663766279700,16.97827978515625,33.549591064453125,-21.837247848510742,-16.128673553466797
1633782663786158800,16.998158935546876,33.823883056640625,-21.718137741088867,-15.887920379638672
1633782663806036700,17.01803662109375,34.306304931640625,-21.58500099182129,-15.621326446533203
1633782663825916000,17.037916015625,34.32183837890625,-21.36594581604004,-15.20211410522461
1633782663845794600,17.057794677734375,34.241119384765625,-21.392518997192383,-14.80105209350586
1633782663865673500,17.077673583984375,34.3736572265625,-21.89056968688965,-14.84365463256836
1633782663885552600,17.097552734375,34.380950927734375,-22.05219841003418,-14.719928741455078
1633782663905430500,17.117430419921874,34.53076171875,-22.31437873840332,-14.730396270751953
1633782663925309400,17.137309326171874,34.17718505859375,-22.201242446899414,-14.651615142822266
1633782663945188600,17.157188720703125,34.751617431640625,-22.237279891967773,-14.54812240600586
1633782663965067500,17.177067626953125,35.156402587890625,-22.281129837036133,-14.361621856689453
1633782663984946400,17.196946533203125,35.36346435546875,-21.925939559936523,-14.167835235595703
1633782664004824600,17.216824462890624,35.7054443359375,-21.75291633605957,-14.26468276977539
1633782664024703500,17.236703369140624,35.817169189453125,-21.397916793823242,-14.198444366455078
1633782664044582700,17.256582763671876,36.20086669921875,-21.1118106842041,-14.458621978759766
1633782664064461600,17.276461669921876,36.2872314453125,-20.8983211517334,-14.086986541748047
1633782664084340500,17.296340576171875,36.409210205078125,-20.624425888061523,-14.146778106689453
1633782664104218400,17.31621826171875,36.831878662109375,-20.810075759887695,-13.98086929321289
1633782664124097500,17.33609765625,36.476531982421875,-20.811616897583008,-14.233043670654297
1633782664143976400,17.3559765625,36.550750732421875,-20.715993881225586,-14.061931610107422
1633782664163855600,17.375855712890626,36.549560546875,-20.911436080932617,-13.64486312866211
1633782664183734500,17.395734619140626,36.64398193359375,-21.308549880981445,-13.221065521240234
1633782664203612700,17.41561279296875,36.34991455078125,-21.839078903198242,-12.890079498291016
1633782664223491300,17.4354912109375,36.15545654296875,-21.964651107788086,-12.821460723876953
1633782664243370500,17.45537060546875,35.945281982421875,-21.78742790222168,-13.252063751220703
1633782664263249700,17.475249755859377,36.2421875,-21.5961856842041,-13.463001251220703
1633782664283128600,17.495128662109376,36.61363220214844,-21.119802474975586,-13.75326919555664
1633782664303006500,17.51500634765625,36.758758544921875,-20.766691207885742,-13.895038604736328
1633782664322885600,17.5348857421875,37.31440734863281,-20.03704261779785,-13.918170928955078
1633782664342764500,17.5547646484375,37.52568054199219,-19.928606033325195,-13.924320220947266
1633782664362643500,17.5746435546875,37.91331481933594,-19.798006057739258,-14.023799896240234
1633782664382522600,17.594522705078123,37.8209228515625,-19.72208595275879,-14.402416229248047
1633782664402400500,17.614400390625,37.64874267578125,-19.652463912963867,-15.006359100341797
1633782664422279700,17.63427978515625,37.908782958984375,-19.44112205505371,-15.46133041381836
1633782664442158300,17.654158447265626,38.25886535644531,-19.25235939025879,-15.498394012451172
1633782664462037500,17.67403759765625,38.586029052734375,-18.89329719543457,-15.682247161865234
1633782664481916400,17.69391650390625,38.79228210449219,-18.47342872619629,-15.66617202758789
1633782664501794600,17.713794677734374,38.90592956542969,-18.3187198638916,-15.242244720458984
1633782664521673500,17.733673583984373,39.56871032714844,-18.21351432800293,-15.202938079833984
1633782664541552600,17.753552734375,39.234649658203125,-18.079374313354492,-15.15353012084961
1633782664561431300,17.773431396484376,39.47041320800781,-17.35396385192871,-15.453861236572266
1633782664581310500,17.793310546875,39.39762878417969,-17.027677536010742,-15.191173553466797
1633782664601188400,17.813188232421876,39.69517517089844,-17.035554885864258,-15.00394058227539
1633782664621067500,17.833067626953124,39.89129638671875,-16.871248245239258,-14.88137435913086
1633782664640946700,17.85294677734375,40.07719421386719,-16.5828914642334,-14.529666900634766
1633782664660825600,17.87282568359375,39.9166259765625,-16.770444869995117,-14.193851470947266
1633782664680704500,17.89270458984375,40.204498291015625,-16.696447372436523,-14.025959014892578
1633782664700582400,17.91258251953125,40.50260925292969,-16.489221572875977,-13.653667449951172
1633782664720461600,17.932461669921874,40.44502258300781,-16.328489303588867,-13.345844268798828
1633782664740340500,17.952340576171874,40.93843078613281,-15.932344436645508,-12.803951263427734
1633782664760219600,17.9722197265625,41.21356201171875,-15.899393081665039,-12.02816390991211
1633782664780098600,17.9920986328125,41.093292236328125,-16.49810218811035,-11.345760345458984
1633782664799976700,18.011976806640625,40.98719787597656,-17.219778060913086,-11.313579559326172
1633782664819855400,18.03185546875,40.74971008300781,-17.73431968688965,-10.968753814697266
1633782664839734500,18.051734619140625,40.638641357421875,-17.578275680541992,-11.18802261352539
1633782664859614500,18.071614501953125,40.67320251464844,-16.89661979675293,-11.516162872314453
1633782664879493400,18.091493408203124,41.191741943359375,-16.04863166809082,-12.134525299072266
1633782664899371300,18.111371337890624,41.62078857421875,-15.027978897094727,-12.197612762451172
1633782664919250400,18.13125048828125,42.04393005371094,-13.889604568481445,-11.528995513916016
1633782664939129300,18.15112939453125,42.24626159667969,-13.270780563354492,-11.007190704345703
1633782664959008500,18.171008544921875,42.63970947265625,-12.937501907348633,-10.280403137207031
1633782664978887700,18.1908876953125,42.17176818847656,-13.212976455688477,-9.8157958984375
1633782664998765600,18.210765625,42.59130859375,-13.683992385864258,-9.428619384765625
1633782665018644200,18.230644287109374,42.192626953125,-14.220705032348633,-9.690799713134766
1633782665038523400,18.2505234375,42.20808410644531,-14.834112167358398,-9.62692642211914
1633782665058402600,18.270402587890626,41.73699951171875,-15.05409049987793,-9.682456970214844
1633782665078281500,18.290281494140626,41.69956970214844,-15.490385055541992,-9.55324935913086
1633782665098159600,18.31015966796875,41.302825927734375,-15.50346565246582,-9.339805603027344
1633782665118038500,18.33003857421875,41.78826904296875,-15.400030136108398,-9.026908874511719
1633782665137917400,18.34991748046875,41.84954833984375,-15.108865737915039,-9.145519256591797
1633782665157796400,18.36979638671875,41.94731140136719,-14.97612190246582,-9.203346252441406
1633782665177675500,18.389675537109376,41.776275634765625,-14.38624382019043,-9.575870513916016
1633782665197553400,18.409553466796876,41.736846923828125,-13.944051742553711,-9.553119659423828
1633782665217432600,18.4294326171875,41.966461181640625,-13.480081558227539,-9.669914245605469
1633782665237311500,18.4493115234375,41.69151306152344,-12.924497604370117,-9.68319320678711
1633782665257190400,18.4691904296875,41.686553955078125,-12.826913833618164,-9.405658721923828
1633782665277069300,18.4890693359375,41.53352355957031,-12.883050918579102,-9.57418441772461
1633782665296948500,18.508948486328126,41.698089599609375,-12.86918830871582,-9.63332748413086
1633782665316826400,18.528826416015626,41.11506652832031,-13.13349723815918,-9.665637969970703
1633782665336705500,18.54870556640625,40.75596618652344,-13.34251594543457,-9.887489318847656
1633782665356584400,18.56858447265625,40.8994140625,-13.29194450378418,-10.447750091552734
1633782665376463400,18.58846337890625,40.526885986328125,-13.00242805480957,-10.88766860961914
1633782665396341200,18.60834130859375,40.607330322265625,-12.471673965454102,-11.340465545654297
1633782665416220400,18.628220458984377,40.817962646484375,-11.99549674987793,-11.259502410888672
1633782665436099600,18.648099609375,41.03773498535156,-11.703962326049805,-10.89791488647461
1633782665455978500,18.667978515625,41.250701904296875,-11.30744743347168,-10.61013412475586
1633782665475857400,18.687857421875,40.777740478515625,-11.135736465454102,-10.546016693115234
1633782665495736300,18.707736328125,41.23326110839844,-11.350740432739258,-10.788707733154297
1633782665515614500,18.727614501953123,40.77752685546875,-11.563909530639648,-11.219112396240234
1633782665535493400,18.747493408203123,40.1925048828125,-11.762529373168945,-11.655231475830078
1633782665555372500,18.76737255859375,39.54786682128906,-11.715436935424805,-11.996952056884766
1633782665575251500,18.78725146484375,39.57832336425781,-11.512975692749023,-11.861148834228516
1633782665595130400,18.80713037109375,39.738861083984375,-11.185850143432617,-11.892932891845703
1633782665615008300,18.82700830078125,39.88581848144531,-11.177274703979492,-12.025325775146484
1633782665634887400,18.846887451171874,39.66050720214844,-10.966547012329102,-11.865718841552734
1633782665654766600,18.8667666015625,39.65068054199219,-10.631250381469727,-12.043163299560547
1633782665674645500,18.8866455078125,39.50267028808594,-9.943304061889648,-11.88180923461914
1633782665694524400,18.9065244140625,39.31343078613281,-9.824892044067383,-12.12936019897461
1633782665714402600,18.926402587890625,39.802398681640625,-9.624517440795898,-11.903003692626953
1633782665734281500,18.946281494140624,39.77482604980469,-9.240438461303711,-12.048839569091797
1633782665754160400,18.966160400390624,39.41316223144531,-9.16602897644043,-11.639705657958984
1633782665774039600,18.98603955078125,39.79786682128906,-8.723039627075195,-11.496845245361328
1633782665793918500,19.00591845703125,39.92958068847656,-8.749738693237305,-11.51535415649414
1633782665813796600,19.025796630859375,39.664825439453125,-8.68757438659668,-11.30142593383789
1633782665833675300,19.04567529296875,39.56230163574219,-8.824666976928711,-11.433780670166016
1633782665853554200,19.06555419921875,39.60215759277344,-8.544225692749023,-11.127384185791016
1633782665873433000,19.08543310546875,39.42991638183594,-8.682157516479492,-11.318546295166016
1633782665893312300,19.105312255859374,39.21778869628906,-8.645681381225586,-10.75686264038086
1633782665913190100,19.125190185546874,39.03016662597656,-8.897275924682617,-10.226280212402344
1633782665933069300,19.1450693359375,39.093017578125,-9.045427322387695,-10.102226257324219
1633782665952948000,19.164947998046873,38.737396240234375,-9.003805160522461,-9.84372329711914
1633782665972827100,19.1848271484375,38.550750732421875,-9.017766952514648,-9.771385192871094
1633782665992706000,19.2047060546875,38.267242431640625,-8.76466178894043,-10.168033599853516
1633782666012584200,19.224584228515624,38.244903564453125,-8.166719436645508,-10.502605438232422
1633782666032463000,19.244463134765624,38.18754577636719,-7.492158889770508,-10.66146469116211
1633782666052342300,19.26434228515625,38.32847595214844,-7.39307975769043,-10.483173370361328
1633782666072221000,19.284220947265624,38.40509033203125,-7.11454963684082,-10.351078033447266
1633782666092100000,19.30410009765625,38.510955810546875,-7.15211296081543,-10.196304321289062
1633782666111978000,19.32397802734375,37.95658874511719,-7.198766708374023,-10.00875473022461
1633782666131857200,19.343857177734375,37.79243469238281,-7.61430549621582,-9.941368103027344
1633782666151736300,19.363736328125,37.401519775390625,-7.617555618286133,-10.2098388671875
1633782666171615200,19.383615234375,37.5137939453125,-7.808965682983398,-10.479671478271484
1633782666191494100,19.403494140625,36.757904052734375,-8.144277572631836,-10.27481460571289
1633782666211372000,19.4233720703125,36.70497131347656,-8.331399917602539,-10.32949447631836
1633782666231251200,19.443251220703125,36.64732360839844,-8.287069320678711,-10.367259979248047
1633782666251130000,19.463130126953125,36.703643798828125,-8.344369888305664,-10.299121856689453
1633782666271009300,19.48300927734375,36.60302734375,-8.473207473754883,-10.343387603759766
1633782666290888200,19.50288818359375,36.12762451171875,-8.326654434204102,-10.312244415283203
1633782666310767000,19.52276708984375,36.31689453125,-8.209146499633789,-10.668384552001953
1633782666330645000,19.54264501953125,35.8726806640625,-8.191194534301758,-10.640262603759766
1633782666350524200,19.562524169921875,35.784332275390625,-7.911767959594727,-10.589908599853516
1633782666370403000,19.582403076171875,35.6728515625,-8.001745223999023,-10.48477554321289
1633782666390282200,19.6022822265625,35.69061279296875,-7.700666427612305,-10.337993621826172
1633782666410161200,19.6221611328125,35.421600341796875,-7.639055252075195,-10.36575698852539
1633782666430039000,19.6420390625,34.822265625,-7.546403884887695,-10.554645538330078
1633782666449918000,19.66191796875,34.63739013671875,-7.710886001586914,-11.49184799194336
1633782666469797000,19.681797119140626,34.258758544921875,-7.643186569213867,-11.497669219970703
1633782666489676300,19.70167626953125,34.2730712890625,-7.867429733276367,-11.651424407958984
1633782666509555200,19.72155517578125,33.975128173828125,-8.30809211730957,-11.78548812866211
1633782666529433300,19.741433349609373,33.537322998046875,-8.650056838989258,-12.050899505615234
1633782666549312000,19.76131201171875,33.696258544921875,-8.692914962768555,-12.606250762939453
1633782666569191200,19.781191162109376,33.03094482421875,-8.420034408569336,-12.912639617919922
1633782666589070000,19.801070068359376,33.058074951171875,-8.01051139831543,-13.157176971435547
1633782666608949200,19.82094921875,32.585723876953125,-7.831796646118164,-13.330249786376953
1633782666628827100,19.8408271484375,32.543426513671875,-7.487184524536133,-13.320064544677734
1633782666648706300,19.860706298828124,32.499359130859375,-7.472745895385742,-13.468151092529297
1633782666668585000,19.8805849609375,32.513214111328125,-7.718229293823242,-13.86099624633789
1633782666688464100,19.900464111328127,32.08355712890625,-7.713659286499023,-14.54513931274414
1633782666708343300,19.92034326171875,31.898895263671875,-7.71150016784668,-15.26126480102539
1633782666728221200,19.94022119140625,32.024444580078125,-7.533578872680664,-15.632328033447266
1633782666748100000,19.96010009765625,31.599334716796875,-7.565912246704102,-15.599918365478516
1633782666767979300,19.979979248046874,31.189361572265625,-7.292261123657227,-15.717571258544922
1633782666787858200,19.999858154296874,31.190948486328125,-7.031007766723633,-15.92959213256836
1633782666807737000,20.019737060546873,31.082916259765625,-6.912189483642578,-15.785320281982422
1633782666827615200,20.039615234375,30.816558837890625,-6.620136260986328,-16.28359603881836
1633782666847494100,20.059494140625,30.921173095703125,-6.342746734619141,-16.563304901123047
1633782666867373000,20.079373046875,30.461181640625,-6.509553909301758,-16.800884246826172
1633782666887252000,20.099251953125,29.909942626953125,-6.139980316162109,-16.930667877197266
1633782666907131000,20.119130859375,30.064178466796875,-5.983186721801758,-16.860179901123047
1633782666927009000,20.139009033203124,29.864044189453125,-5.754726409912109,-16.921222686767578
1633782666946888000,20.158887939453123,29.512115478515625,-5.876438140869141,-16.739269256591797
1633782666966767000,20.17876708984375,29.597320556640625,-5.83881950378418,-16.744266510009766
1633782666986646000,20.19864599609375,29.51690673828125,-5.837099075317383,-16.67990493774414
1633782667006525000,20.21852490234375,29.296478271484375,-5.92408561706543,-16.70352554321289
1633782667026404000,20.238404052734374,29.296173095703125,-6.164043426513672,-16.739055633544922
1633782667046282000,20.258281982421874,29.22650146484375,-6.532756805419922,-16.99203872680664
1633782667066161000,20.278160888671874,28.959197998046875,-7.041879653930664,-17.28506088256836
1633782667086040000,20.2980400390625,28.930633544921875,-7.677526473999023,-16.893802642822266
1633782667105919200,20.317919189453125,28.4749755859375,-7.989572525024414,-16.645465850830078
1633782667125798000,20.3377978515625,28.432281494140625,-8.350728988647461,-16.961421966552734
1633782667145676000,20.357676025390624,28.3780517578125,-8.28349494934082,-16.953960418701172
1633782667165555000,20.377554931640624,28.025299072265625,-7.670621871948242,-17.04409408569336
1633782667185434000,20.39743408203125,27.646881103515625,-7.371709823608398,-17.367565155029297
1633782667205313000,20.41731298828125,27.681732177734375,-6.876317977905273,-17.530902862548828
1633782667225192200,20.437192138671875,27.9283447265625,-6.430030822753906,-17.573070526123047
1633782667245070000,20.457070068359375,28.231353759765625,-6.489864349365234,-17.348712921142578
1633782667264949000,20.476948974609375,28.15521240234375,-6.621555328369141,-17.048114776611328
1633782667284828000,20.496827880859374,27.71588134765625,-6.9495391845703125,-17.47988510131836
1633782667304707000,20.51670703125,27.225616455078125,-7.046976089477539,-17.29311752319336
1633782667324586000,20.5365859375,26.56939697265625,-7.786966323852539,-17.776073455810547
1633782667344465000,20.55646484375,26.590545654296875,-7.920015335083008,-18.074352264404297
1633782667364343000,20.576343017578125,26.500396728515625,-7.964670181274414,-18.271015167236328
1633782667384222000,20.596221923828125,26.481231689453125,-7.91193962097168,-18.21987533569336
1633782667404101000,20.61610107421875,26.680206298828125,-7.60804557800293,-18.17593002319336
1633782667423980000,20.63597998046875,26.319854736328125,-7.77110481262207,-17.881587982177734
