 Acc_timestamp,Accx,Accy,Accz,Gyro_timestamp,Gyrox,Gyroy,Gyroz,Baro_timestamp,Pressure_Reading
62565120.000000, -16.802401 , 6.541977, 1.191626, 0.000000, 0.000000,  0.000000,  0.000000, 0.000000,  0.000000 
 62584576.000000, -17.450855 , 5.376673, 0.224925, 1075830272.000000, -14.910000,  -306.179993,  41.369999, 0.000000,  0.000000 
 62604544.000000, -18.144773 , 3.364309, 0.801596, 1075849728.000000, -49.279999,  -307.720001,  28.770000, 0.000000,  0.000000 
 62624512.000000, -18.345772 , 2.423929, 1.464408, 1075869696.000000, -79.379997,  -298.269989,  22.049999, 0.000000,  0.000000 
 62644992.000000, -17.113466 , 1.663012, 1.466800, 1075889664.000000, -80.709999,  -296.309998,  31.290001, 0.000000,  0.000000 
 62665216.000000, -14.950355 , 0.729811, 0.844666, 1075910144.000000, -60.340000,  -297.640015,  49.070000, 3337492992.000000,  1005.586121 
 62684416.000000, -13.385449 , 0.433101, 0.825524, 1075930368.000000, -40.459999,  -294.769989,  65.519997, 0.000000,  0.000000 
 62704384.000000, -12.366108 , 1.411765, 1.014557, 1075949568.000000, -25.830000,  -277.760010,  70.840004, 0.000000,  0.000000 
 62724352.000000, -11.002198 , 2.031506, -0.033500, 1075969792.000000, -9.240000,  -255.430008,  78.470001, 0.000000,  0.000000 
 62744832.000000, -9.176475 , 2.132005, -1.674976, 1075989760.000000, -0.840000,  -243.110001,  77.629997, 0.000000,  0.000000 
 62767104.000000, -7.149754 , 2.143969, -1.548156, 1076009984.000000, -17.360001,  -226.169998,  65.449997, 0.000000,  0.000000 
 62784512.000000, -5.924629 , 1.617548, -0.835095, 1076032256.000000, -54.529999,  -199.919998,  49.139999, 0.000000,  0.000000 
 62804480.000000, -6.245267 , 1.495514, -0.045464, 1076049664.000000, -97.930000,  -167.580002,  27.090000, 0.000000,  0.000000 
 62824448.000000, -8.039884 , 1.395016, -0.497707, 1076069632.000000, -132.440002,  -124.739998,  3.780000, 0.000000,  0.000000 
 62844672.000000, -9.296116 , 0.715454, -1.737189, 1076089600.000000, -139.789993,  -80.639999,  -10.010000, 0.000000,  0.000000 
 62864896.000000, -9.164511 , -0.167498, -2.670390, 1076109824.000000, -142.660004,  -51.310001,  -18.059999, 0.000000,  0.000000 
 62884352.000000, -7.898707 , -0.224925, -1.895115, 1076130304.000000, -154.699997,  -26.389999,  -22.260000, 0.000000,  0.000000 
 62904320.000000, -7.968100 , 0.071785, -0.672383, 1076149504.000000, -152.250000,  1.050000,  -20.650000, 0.000000,  0.000000 
 62924288.000000, -9.025726 , 0.655633, -0.050249, 1076169472.000000, -119.279999,  47.040001,  -21.490000, 0.000000,  0.000000 
 62944768.000000, -8.961121 , 1.189233, 0.055035, 1076209920.000000, -12.040000,  118.860001,  -14.630000, 0.000000,  0.000000 
 62964992.000000, -8.791230 , 1.361516, 0.076570, 0.000000, 0.000000,  0.000000,  0.000000, 0.000000,  0.000000 
 62984192.000000, -9.396614 , 1.320838, 0.354138, 1076230144.000000, 40.880001,  148.820007,  -8.400000, 0.000000,  0.000000 
 63004416.000000, -9.774680 , 0.811167, 0.342174, 1076249600.000000, 75.949997,  182.419998,  -6.580000, 0.000000,  0.000000 
 63024384.000000, -9.667004 , 0.540778, -0.337388, 1076269568.000000, 102.760002,  204.610001,  -4.130000, 0.000000,  0.000000 
 63044608.000000, -9.688539 , 0.713061, -0.961915, 1076289536.000000, 120.050003,  217.000000,  -2.870000, 0.000000,  0.000000 
 63064832.000000, -9.954143 , 0.713061, -1.019342, 1076309760.000000, 113.680000,  231.490005,  -7.980000, 0.000000,  0.000000 
 63084288.000000, -10.731809 , 0.696311, -0.375673, 1076329984.000000, 93.940002,  246.470001,  -13.930000, 0.000000,  0.000000 
 63104256.000000, -12.708281 , 1.244268, 0.739382, 1076349440.000000, 75.739998,  260.679993,  -18.620001, 0.000000,  0.000000 
 63124224.000000, -14.902499 , 2.002793, 1.730011, 1076369408.000000, 66.709999,  281.190002,  -25.270000, 0.000000,  0.000000 
 63144448.000000, -15.728023 , 2.084148, 1.505085, 1076389376.000000, 69.790001,  290.570007,  -15.050000, 0.000000,  0.000000 
 63164928.000000, -15.754344 , 1.718047, 1.186840, 1076409856.000000, 71.610001,  282.170013,  0.490000, 0.000000,  0.000000 
 63184128.000000, -16.185053 , 2.845066, 0.976272, 1076430080.000000, 49.490002,  271.250000,  4.480000, 0.000000,  0.000000 
 63204096.000000, -17.068005 , 4.749753, 1.476372, 1076449536.000000, 26.530001,  280.420013,  16.520000, 0.000000,  0.000000 
 63224064.000000, -18.343378 , 5.900701, 3.862016, 1076469504.000000, 18.410000,  289.589996,  24.850000, 0.000000,  0.000000 
 63244544.000000, -19.771893 , 6.364908, 6.235696, 1076489472.000000, -0.770000,  286.860016,  9.870000, 0.000000,  0.000000 
 63264768.000000, -18.948761 , 6.668797, 6.577869, 1076509696.000000, -10.920000,  269.779999,  -1.610000, 0.000000,  0.000000 
 63284224.000000, -16.036697 , 6.659225, 5.180461, 1076529920.000000, -20.230000,  222.460007,  -2.030000, 0.000000,  0.000000 
 63304192.000000, -13.775480 , 6.049056, 3.359523, 1076549376.000000, -53.480000,  163.449997,  7.210000, 0.000000,  0.000000 
 63324160.000000, -12.165110 , 5.032106, 2.294717, 1076569344.000000, -96.320000,  123.970001,  7.770000, 0.000000,  0.000000 
 63344384.000000, -10.916058 , 3.986443, 1.923829, 1076589312.000000, -141.889999,  91.980003,  4.480000, 0.000000,  0.000000 
 63364608.000000, -10.884951 , 2.758924, 2.263610, 1076609536.000000, -189.770004,  66.570000,  -2.310000, 0.000000,  0.000000 
 63384064.000000, -12.100503 , 1.009771, 3.247060, 1076630016.000000, -240.100006,  56.770000,  -10.010000, 0.000000,  0.000000 
 63404032.000000, -13.813765 , -1.148555, 5.824130, 1076649216.000000, -280.769989,  55.090000,  -16.450001, 0.000000,  0.000000 
 63424000.000000, -14.471791 , -2.971886, 8.042276, 1076669184.000000, -287.140015,  50.330002,  -20.230000, 0.000000,  0.000000 
 63444480.000000, -12.978670 , -3.498307, 8.171489, 1076689152.000000, -234.430008,  24.290001,  -8.400000, 0.000000,  0.000000 
 63464704.000000, -10.267602 , -2.529213, 6.774081, 1076709632.000000, -131.460007,  -17.920000,  7.770000, 0.000000,  0.000000 
 63484160.000000, -8.903693 , -1.536192, 5.996413, 1076729856.000000, -18.270000,  -59.150002,  16.590000, 0.000000,  0.000000 
 63504128.000000, -10.715059 , -0.634098, 5.611169, 1076749312.000000, 69.440002,  -80.430000,  8.260000, 0.000000,  0.000000 
 63524096.000000, -13.986048 , -0.277567, 4.618148, 1076769280.000000, 130.479996,  -83.230003,  -9.170000, 0.000000,  0.000000 
 63544320.000000, -15.273388 , 0.473779, 2.751746, 1076789248.000000, 161.979996,  -90.090004,  -22.469999, 0.000000,  0.000000 
 63564544.000000, -13.275380 , 1.313660, 1.368695, 1076809472.000000, 185.779999,  -128.940002,  -23.940001, 0.000000,  0.000000 
 63584000.000000, -11.480762 , 1.739582, 0.878166, 1076829696.000000, 201.250000,  -191.589996,  -21.980000, 0.000000,  0.000000 
 63603968.000000, -11.325230 , 2.354537, 0.772882, 1076849152.000000, 198.940002,  -216.089996,  -23.940001, 0.000000,  0.000000 
 63623936.000000, -11.598011 , 2.522035, 0.646062, 1076869120.000000, 175.000000,  -239.399994,  -34.230000, 0.000000,  0.000000 
 63644416.000000, -11.552547 , 2.931208, 0.504886, 1076889088.000000, 135.380005,  -250.529999,  -47.320000, 0.000000,  0.000000 
 63664640.000000, -11.638690 , 3.105884, 0.954736, 1076909568.000000, 95.129997,  -267.470001,  -54.110001, 3338492672.000000,  1005.587402 
 63683840.000000, -12.253645 , 3.273381, 2.364109, 1076929792.000000, 40.389999,  -275.799988,  -62.790001, 0.000000,  0.000000 
 63703808.000000, -12.957134 , 1.746760, 4.027121, 1076949248.000000, -42.139999,  -270.410004,  -78.400002, 0.000000,  0.000000 
 63724032.000000, -12.232110 , -0.150748, 5.460421, 1076969216.000000, -131.110001,  -254.800003,  -95.340004, 0.000000,  0.000000 
 63744256.000000, -10.729417 , -1.459622, 5.606383, 1076989184.000000, -179.199997,  -250.880005,  -100.519997, 0.000000,  0.000000 
 63766528.000000, -10.999805 , -2.543570, 5.070391, 1077009408.000000, -159.529999,  -245.979996,  -92.400002, 0.000000,  0.000000 
 63783936.000000, -12.174682 , -3.345166, 5.235496, 1077031680.000000, -109.340004,  -222.320007,  -85.470001, 0.000000,  0.000000 
 63803904.000000, -12.454641 , -2.476572, 4.790431, 1077049088.000000, -56.209999,  -206.570007,  -73.500000, 0.000000,  0.000000 
 63823872.000000, -11.700903 , 0.131605, 2.545963, 1077069056.000000, 7.490000,  -211.470001,  -47.110001, 0.000000,  0.000000 
 63844096.000000, -10.040283 , 1.395016, 1.579263, 1077089024.000000, 74.129997,  -211.960007,  -7.980000, 0.000000,  0.000000 
 63864320.000000, -8.673983 , 2.467000, 1.942972, 1077109248.000000, 92.820000,  -202.720001,  25.549999, 0.000000,  0.000000 
 63883776.000000, -9.013763 , 2.179861, 2.407180, 1077129728.000000, 63.279999,  -179.899994,  36.820000, 0.000000,  0.000000 
 63903744.000000, -11.308479 , 0.813560, 1.935793, 1077148928.000000, 1.750000,  -134.050003,  32.549999, 0.000000,  0.000000 
 63923712.000000, -12.406786 , -0.311067, 1.622334, 1077168896.000000, -61.670002,  -78.750000,  19.950001, 0.000000,  0.000000 
 63944192.000000, -11.059627 , -0.210568, 3.022135, 1077189120.000000, -78.120003,  -39.130001,  16.590000, 0.000000,  0.000000 
 63964416.000000, -9.956534 , 0.669990, 3.629912, 1077209344.000000, -39.410000,  -26.530001,  14.000000, 0.000000,  0.000000 
 63983872.000000, -9.473185 , 1.289732, 2.191825, 1077229568.000000, 21.770000,  -9.170000,  8.330000, 0.000000,  0.000000 
 64003840.000000, -8.523234 , 2.249253, 0.985843, 1077249024.000000, 76.580002,  10.850000,  3.290000, 0.000000,  0.000000 
 64023808.000000, -7.771888 , 3.072384, -0.519243, 1077268992.000000, 108.919998,  16.520000,  -8.540000, 0.000000,  0.000000 
 64044032.000000, -7.630712 , 2.902494, -1.395016, 1077288960.000000, 117.389999,  19.250000,  -18.200001, 0.000000,  0.000000 
 64064256.000000, -7.587641 , 2.780460, -1.849652, 1077309184.000000, 93.519997,  31.500000,  -28.770000, 0.000000,  0.000000 
 64083712.000000, -6.872187 , 3.017349, -2.084148, 1077329408.000000, 58.939999,  42.279999,  -39.759998, 0.000000,  0.000000 
 64103680.000000, -6.285945 , 2.739782, -1.919044, 1077348864.000000, 37.520000,  47.529999,  -37.730000, 0.000000,  0.000000 
 64123648.000000, -5.910272 , 2.098505, -1.624727, 1077368832.000000, 20.440001,  61.740002,  -33.180000, 0.000000,  0.000000 
 64144128.000000, -5.264209 , 1.885544, -1.062413, 1077388800.000000, 10.430000,  80.430000,  -27.299999, 0.000000,  0.000000 
 64164352.000000, -5.682954 , 1.737189, -0.653241, 1077409280.000000, 17.990000,  99.260002,  -14.560000, 0.000000,  0.000000 
 64183552.000000, -7.793423 , 1.538585, -0.703490, 1077429504.000000, 24.430000,  127.470001,  -3.010000, 0.000000,  0.000000 
 64203520.000000, -9.528220 , 1.205983, -0.610170, 1077448960.000000, 19.110001,  163.100006,  1.120000, 0.000000,  0.000000 
 64223744.000000, -10.564312 , 0.600598, -0.339781, 1077468928.000000, 6.020000,  188.089996,  5.040000, 0.000000,  0.000000 
 64243968.000000, -11.849257 , 0.272782, -0.232104, 1077488896.000000, -11.690000,  207.270004,  8.540000, 0.000000,  0.000000 
 64264192.000000, -13.349558 , 0.344566, -0.516850, 1077509120.000000, -24.710001,  230.509995,  12.040000, 0.000000,  0.000000 
 64283648.000000, -14.423935 , 0.416351, -0.459422, 1077529344.000000, -29.469999,  252.559998,  18.620001, 0.000000,  0.000000 
 64303616.000000, -15.440885 , 0.562313, 0.181855, 1077548800.000000, -34.790001,  270.549988,  20.650000, 0.000000,  0.000000 
 64323584.000000, -17.486748 , 0.665205, 0.466600, 1077568768.000000, -35.279999,  282.519989,  18.480000, 0.000000,  0.000000 
 64343808.000000, -19.592432 , 0.263210, 1.313660, 1077588736.000000, -25.340000,  301.700012,  16.520000, 0.000000,  0.000000 
 64364032.000000, -20.288744 , -0.052642, 2.976671, 1077608960.000000, -8.260000,  309.049988,  14.000000, 0.000000,  0.000000 
 64383488.000000, -20.025534 , 0.222532, 4.156333, 1077629440.000000, 25.830000,  298.200012,  16.799999, 0.000000,  0.000000 
 64403456.000000, -19.288544 , 1.172483, 3.840480, 1077648640.000000, 79.099998,  277.480011,  23.660000, 0.000000,  0.000000 
 64423424.000000, -19.245474 , 2.902494, 2.993421, 1077668608.000000, 121.730003,  246.330002,  20.580000, 0.000000,  0.000000 
 64443904.000000, -19.274185 , 4.522435, 2.861816, 1077688832.000000, 124.949997,  220.570007,  7.980000, 0.000000,  0.000000 
 64464128.000000, -19.893927 , 5.182854, 3.538985, 1077709056.000000, 84.629997,  189.630005,  -2.940000, 0.000000,  0.000000 
 64483584.000000, -18.106489 , 4.888536, 3.924229, 1077729280.000000, 23.030001,  164.639999,  -13.300000, 0.000000,  0.000000 
 64503552.000000, -13.433307 , 4.340580, 3.902694, 1077748736.000000, -36.330002,  121.449997,  -8.890000, 0.000000,  0.000000 
 64523520.000000, -9.377472 , 3.790231, 4.414758, 1077768704.000000, -90.160004,  58.310001,  -2.520000, 0.000000,  0.000000 
 64543744.000000, -7.247860 , 3.187240, 5.285746, 1077788672.000000, -138.039993,  16.590000,  -9.730000, 0.000000,  0.000000 
 64563968.000000, -7.336394 , 1.758725, 6.190232, 1077808896.000000, -173.180008,  1.400000,  -27.299999, 0.000000,  0.000000 
 64583424.000000, -9.621540 , 0.122034, 6.888937, 1077829120.000000, -183.889999,  0.140000,  -39.130001, 0.000000,  0.000000 
 64603392.000000, -11.507084 , -0.983450, 6.089733, 1077848576.000000, -158.199997,  -2.100000,  -41.650002, 0.000000,  0.000000 
 64623360.000000, -10.935200 , -0.961915, 4.225725, 1077868544.000000, -91.559998,  -26.809999,  -33.599998, 0.000000,  0.000000 
 64643840.000000, -8.982656 , -0.069392, 2.983850, 1077888512.000000, -4.060000,  -80.639999,  -20.299999, 0.000000,  0.000000 
 64664064.000000, -8.147561 , 0.823131, 2.481357, 1077908992.000000, 64.190002,  -132.160004,  -10.920000, 3339492096.000000,  1005.595947 
 64683264.000000, -8.317451 , 2.081756, 1.931008, 1077929216.000000, 103.389999,  -154.699997,  -12.180000, 0.000000,  0.000000 
 64703488.000000, -8.468199 , 2.878566, 1.562513, 1077948672.000000, 113.610001,  -166.809998,  -11.550000, 0.000000,  0.000000 
 64723456.000000, -8.508877 , 2.837888, 1.287339, 1077968640.000000, 95.480003,  -181.930008,  -10.290000, 0.000000,  0.000000 
 64743680.000000, -9.028119 , 2.749353, 1.323231, 1077988608.000000, 62.369999,  -194.949997,  -12.390000, 0.000000,  0.000000 
 64765952.000000, -10.037891 , 2.421536, 1.342373, 1078008832.000000, 22.540001,  -196.910004,  -12.880000, 0.000000,  0.000000 
 64783360.000000, -11.437693 , 1.962115, 1.296910, 1078031104.000000, -17.219999,  -190.750000,  -10.150000, 0.000000,  0.000000 
 64803328.000000, -12.387643 , 1.182054, 0.914058, 1078048512.000000, -55.860001,  -183.610001,  -7.630000, 0.000000,  0.000000 
 64823296.000000, -12.437892 , 0.665205, 0.512064, 1078068480.000000, -87.430000,  -184.800003,  -6.230000, 0.000000,  0.000000 
 64843520.000000, -12.732209 , 0.827917, -0.485743, 1078088448.000000, -107.800003,  -195.300003,  -3.920000, 0.000000,  0.000000 
 64864000.000000, -13.141381 , 1.935793, -2.557927, 1078108928.000000, -122.639999,  -195.089996,  -6.230000, 0.000000,  0.000000 
 64883200.000000, -12.686745 , 2.928815, -3.646662, 1078129152.000000, -140.000000,  -183.050003,  -13.860000, 0.000000,  0.000000 
 64903168.000000, -11.344372 , 2.909672, -4.412365, 1078148352.000000, -169.259995,  -171.990005,  -23.170000, 0.000000,  0.000000 
 64923136.000000, -9.815358 , 2.416751, -3.912265, 1078168576.000000, -208.250000,  -158.970001,  -35.700001, 0.000000,  0.000000 
 64943616.000000, -9.796216 , 1.380659, -2.993421, 1078188544.000000, -242.130005,  -133.000000,  -42.700001, 0.000000,  0.000000 
 64963840.000000, -12.014362 , 0.981057, -2.646462, 1078208768.000000, -256.059998,  -88.970001,  -39.970001, 0.000000,  0.000000 
 64983296.000000, -14.153545 , 0.756132, -1.957329, 1078228992.000000, -245.910004,  -31.710001,  -22.120001, 0.000000,  0.000000 
 65003264.000000, -13.904692 , -0.093320, -1.584049, 1078248448.000000, -204.119995,  8.050000,  10.990000, 0.000000,  0.000000 
 65023232.000000, -13.184454 , 0.435494, -1.847259, 1078268416.000000, -130.759995,  44.939999,  61.180000, 0.000000,  0.000000 
 65043456.000000, -11.892329 , 0.772882, -0.971486, 1078288384.000000, -54.670002,  86.519997,  97.090004, 0.000000,  0.000000 
 65063680.000000, -11.375479 , 0.894916, 0.480957, 1078308608.000000, 10.220000,  128.240005,  119.840004, 0.000000,  0.000000 
 65083136.000000, -12.155540 , 1.026521, 0.734596, 1078329088.000000, 61.810001,  158.970001,  116.059998, 0.000000,  0.000000 
 65103104.000000, -13.378270 , 0.990629, -0.141177, 1078348288.000000, 119.000000,  178.990005,  89.669998, 0.000000,  0.000000 
 65123072.000000, -13.624733 , 0.689133, -1.138984, 1078368256.000000, 169.399994,  189.979996,  71.610001, 0.000000,  0.000000 
 65143552.000000, -11.581261 , 0.674776, -1.588834, 1078388224.000000, 190.399994,  183.750000,  60.130001, 0.000000,  0.000000 
 65163776.000000, -8.374879 , 0.993021, -1.335195, 1078408704.000000, 176.750000,  150.289993,  48.299999, 0.000000,  0.000000 
 65183232.000000, -6.343372 , 1.402194, -0.256032, 1078428928.000000, 140.979996,  122.430000,  48.930000, 0.000000,  0.000000 
 65203200.000000, -6.391229 , 1.835295, 0.660419, 1078448384.000000, 94.430000,  124.599998,  42.209999, 0.000000,  0.000000 
 65223168.000000, -7.374680 , 2.323431, 1.627119, 1078468352.000000, 46.060001,  140.839996,  24.360001, 0.000000,  0.000000 
 65243392.000000, -8.149954 , 1.560120, 1.942972, 1078488320.000000, 5.600000,  147.910004,  15.470000, 0.000000,  0.000000 
 65263616.000000, -8.779266 , 0.205783, 2.536392, 1078508544.000000, -18.620001,  142.520004,  17.780001, 0.000000,  0.000000 
 65283072.000000, -9.856036 , -0.382852, 3.481557, 1078528768.000000, -27.650000,  135.589996,  22.540001, 0.000000,  0.000000 
 65303040.000000, -11.018949 , -0.177069, 4.733003, 1078548224.000000, -18.900000,  133.350006,  27.930000, 0.000000,  0.000000 
 65323008.000000, -11.748759 , 0.145962, 6.496514, 1078568192.000000, -3.010000,  129.639999,  34.650002, 0.000000,  0.000000 
 65343232.000000, -11.978470 , 0.531207, 7.659425, 1078588160.000000, 13.020000,  122.500000,  39.830002, 0.000000,  0.000000 
 65363712.000000, -11.224730 , 0.380459, 8.312666, 1078608640.000000, 35.490002,  105.910004,  37.799999, 0.000000,  0.000000 
 65382912.000000, -10.549955 , 0.478565, 9.224331, 1078628864.000000, 68.529999,  77.349998,  31.150000, 0.000000,  0.000000 
 65402880.000000, -11.093125 , 1.361516, 9.743573, 1078648320.000000, 106.400002,  46.200001,  16.309999, 0.000000,  0.000000 
 65423104.000000, -12.366108 , 2.189433, 9.212367, 1078668288.000000, 131.320007,  14.630000,  -1.400000, 0.000000,  0.000000 
 65443328.000000, -13.246667 , 2.088934, 7.848458, 1078688256.000000, 128.660004,  -21.070000,  -15.120000, 0.000000,  0.000000 
 65463552.000000, -13.627125 , 1.069592, 6.259624, 1078708480.000000, 97.580002,  -60.410000,  -24.570000, 0.000000,  0.000000 
 65483008.000000, -14.691931 , 0.074178, 5.376673, 1078728704.000000, 61.880001,  -98.489998,  -27.510000, 0.000000,  0.000000 
 65502976.000000, -16.436298 , -0.705883, 5.197211, 1078748160.000000, 47.529999,  -112.770004,  -29.049999, 0.000000,  0.000000 
 65522944.000000, -19.054047 , -1.746760, 5.015356, 1078768128.000000, 26.740000,  -133.979996,  -28.350000, 0.000000,  0.000000 
 65543168.000000, -20.879770 , -3.036492, 3.859623, 1078788096.000000, 16.170000,  -154.559998,  -21.840000, 0.000000,  0.000000 
 65563392.000000, -20.508883 , -3.371487, 2.959922, 1078808320.000000, 21.629999,  -175.770004,  -12.390000, 0.000000,  0.000000 
 65582848.000000, -18.305092 , -3.153740, 1.387837, 1078828800.000000, 43.889999,  -213.779999,  9.660000, 0.000000,  0.000000 
 65602816.000000, -17.534603 , -2.361716, 1.220340, 1078848000.000000, 67.970001,  -254.240005,  35.349998, 0.000000,  0.000000 
 65622784.000000, -18.515661 , -1.483550, 1.457229, 1078867968.000000, 69.230003,  -264.880005,  39.689999, 0.000000,  0.000000 
 65643264.000000, -21.145374 , -1.308874, 1.272982, 1078888192.000000, 51.869999,  -265.860016,  31.639999, 0.000000,  0.000000 
 65663488.000000, -22.597815 , -2.041078, 1.289732, 1078908416.000000, 22.820000,  -260.049988,  17.150000, 3340491520.000000,  1005.598999 
 65682944.000000, -20.216957 , -2.294717, 1.110270, 1078928640.000000, -14.840000,  -260.190002,  4.200000, 0.000000,  0.000000 
 65702912.000000, -16.383656 , -1.832902, 0.449851, 1078948096.000000, -46.410000,  -276.989990,  -2.240000, 0.000000,  0.000000 
 65722880.000000, -13.701303 , -1.375873, -0.112463, 1078968064.000000, -66.010002,  -284.619995,  -13.510000, 0.000000,  0.000000 
 65743104.000000, -12.172288 , -1.143769, 0.011964, 1078988032.000000, -74.970001,  -279.019989,  -40.599998, 0.000000,  0.000000 
 65765376.000000, -11.717653 , -0.648455, 0.098106, 1079008256.000000, -70.699997,  -265.440002,  -68.599998, 0.000000,  0.000000 
 65782784.000000, -11.129018 , -0.004786, 0.169890, 1079030528.000000, -52.080002,  -250.949997,  -90.720001, 0.000000,  0.000000 
 65802752.000000, -9.700503 , 0.198604, 0.117248, 1079047936.000000, -27.160000,  -240.309998,  -96.879997, 0.000000,  0.000000 
 65822720.000000, -8.456236 , 0.540778, 0.057428, 1079067904.000000, -0.140000,  -233.100006,  -86.169998, 0.000000,  0.000000 
 65842944.000000, -7.561320 , 1.313660, 0.244068, 1079087872.000000, 22.260000,  -217.770004,  -72.449997, 0.000000,  0.000000 
 65863424.000000, -6.893722 , 2.754139, -0.593420, 1079108352.000000, 34.299999,  -197.119995,  -53.410000, 0.000000,  0.000000 
 65882624.000000, -5.503492 , 3.046063, -1.495514, 1079128576.000000, 37.380001,  -178.220001,  -34.160000, 0.000000,  0.000000 
 65902592.000000, -3.783052 , 3.005385, -1.854438, 1079148032.000000, 23.030001,  -164.990005,  -16.170000, 0.000000,  0.000000 
 65922816.000000, -2.620141 , 3.225525, -1.636691, 1079168000.000000, -9.590000,  -145.740005,  -13.160000, 0.000000,  0.000000 
 65943040.000000, -2.222932 , 3.531806, -1.392623, 1079187968.000000, -33.950001,  -116.690002,  -17.500000, 0.000000,  0.000000 
 65963264.000000, -2.342573 , 3.426522, -0.878166, 1079208192.000000, -40.670002,  -78.680000,  -17.010000, 0.000000,  0.000000 
 65982720.000000, -3.175276 , 3.065206, -0.150748, 1079228416.000000, -30.309999,  -38.290001,  -9.870000, 0.000000,  0.000000 
 66002688.000000, -4.945964 , 3.065206, -0.279960, 1079247872.000000, 5.250000,  1.890000,  3.920000, 0.000000,  0.000000 
 66022656.000000, -6.455836 , 2.627320, -1.292124, 1079267840.000000, 61.320000,  42.910000,  23.870001, 0.000000,  0.000000 
 66042880.000000, -7.795816 , 1.706082, -2.148755, 1079287808.000000, 100.239998,  85.050003,  41.720001, 0.000000,  0.000000 
 66063104.000000, -9.913465 , 1.225125, -1.471586, 1079308032.000000, 99.120003,  127.820000,  46.270000, 0.000000,  0.000000 
 66082560.000000, -12.495319 , 1.143769, -0.624527, 1079328512.000000, 63.349998,  181.649994,  33.950001, 0.000000,  0.000000 
 66102528.000000, -14.689538 , 1.691726, 0.346959, 1079347712.000000, 36.540001,  232.330002,  23.309999, 0.000000,  0.000000 
 66122496.000000, -16.275980 , 1.232304, 1.002593, 1079367680.000000, 28.280001,  273.630005,  20.020000, 0.000000,  0.000000 
 66142976.000000, -16.898113 , 0.143569, 1.002593, 1079387904.000000, 38.639999,  312.410004,  22.750000, 0.000000,  0.000000 
 66163200.000000, -17.821743 , -0.435494, 0.741775, 1079408128.000000, 67.059998,  341.320007,  23.799999, 0.000000,  0.000000 
 66182656.000000, -20.075783 , -0.708275, 1.519442, 1079428352.000000, 98.840004,  365.750000,  24.080000, 0.000000,  0.000000 
 66202624.000000, -20.501705 , -1.205983, 2.964707, 1079447808.000000, 102.129997,  387.589996,  12.950000, 0.000000,  0.000000 
 66222592.000000, -18.908085 , -1.325624, 2.507678, 1079467776.000000, 86.730003,  376.600006,  5.670000, 0.000000,  0.000000 
 66242816.000000, -17.996418 , -0.428315, 0.827917, 1079487744.000000, 90.860001,  335.720001,  -6.020000, 0.000000,  0.000000 
 66263040.000000, -17.431713 , 1.112662, -0.019143, 1079507968.000000, 107.029999,  298.899994,  -33.670002, 0.000000,  0.000000 
 66282496.000000, -17.003399 , 1.986043, 0.131605, 1079528192.000000, 99.330002,  266.140015,  -65.029999, 0.000000,  0.000000 
 66302464.000000, -16.630117 , 1.792224, 0.935594, 1079547648.000000, 58.099998,  240.380005,  -92.540001, 0.000000,  0.000000 
 66322432.000000, -15.862022 , 0.878166, 2.065006, 1079567616.000000, -6.090000,  218.820007,  -105.419998, 0.000000,  0.000000 
 66342912.000000, -15.797415 , 0.004786, 2.751746, 1079587584.000000, -72.449997,  201.250000,  -96.599998, 0.000000,  0.000000 
 66363136.000000, -15.756737 , -0.787239, 3.385844, 1079608064.000000, -129.919998,  196.559998,  -75.739998, 0.000000,  0.000000 
 66382336.000000, -15.299707 , -1.430908, 3.902694, 1079628288.000000, -176.399994,  190.889999,  -51.380001, 0.000000,  0.000000 
 66402560.000000, -14.871392 , -1.811367, 4.634897, 1079647744.000000, -204.820007,  181.160004,  -23.100000, 0.000000,  0.000000 
 66422528.000000, -14.639289 , -1.634298, 5.508278, 1079667712.000000, -216.580002,  176.680008,  7.210000, 0.000000,  0.000000 
 66442752.000000, -13.986048 , -1.323231, 6.513263, 1079687680.000000, -215.669998,  172.199997,  30.100000, 0.000000,  0.000000 
 66462976.000000, -12.366108 , -1.335195, 8.343772, 1079707904.000000, -206.710007,  160.300003,  42.630001, 0.000000,  0.000000 
 66482432.000000, -11.310873 , -0.727418, 10.109675, 1079728128.000000, -181.509995,  137.339996,  43.400002, 0.000000,  0.000000 
 66502400.000000, -11.389835 , 0.267996, 10.092925, 1079747584.000000, -127.820000,  118.020004,  36.259998, 0.000000,  0.000000 
 66523136.000000, -11.203196 , 0.693919, 8.051848, 1079767552.000000, -65.379997,  92.680000,  22.750000, 0.000000,  0.000000 
 66542592.000000, -11.320443 , 0.782453, 7.451250, 1079788288.000000, -30.870001,  52.500000,  3.430000, 0.000000,  0.000000 
 66563584.000000, -12.186646 , 1.483550, 7.417750, 1079808000.000000, -28.840000,  19.950001,  -20.299999, 0.000000,  0.000000 
 66582784.000000, -13.124631 , 1.335195, 7.013363, 1079828736.000000, -33.880001,  -10.360000,  -37.170002, 0.000000,  0.000000 
 66602752.000000, -14.335401 , -0.110070, 7.066005, 1079847936.000000, -44.520000,  -43.049999,  -44.590000, 0.000000,  0.000000 
 66622720.000000, -14.986248 , -1.232304, 6.340980, 1079867904.000000, -54.599998,  -68.180000,  -52.220001, 0.000000,  0.000000 
 66643200.000000, -14.321043 , -1.244268, 5.824130, 1079908352.000000, 13.650000,  -147.770004,  -51.029999, 3341491456.000000,  1005.599487 
 66663936.000000, -14.124832 , -0.399601, 5.297709, 0.000000, 0.000000,  0.000000,  0.000000, 0.000000,  0.000000 
 66683136.000000, -15.038890 , 0.040678, 4.106083, 1079929088.000000, 68.599998,  -182.490005,  -53.619999, 0.000000,  0.000000 
 66703104.000000, -17.807386 , 0.114855, 3.632305, 1079948288.000000, 111.790001,  -203.630005,  -56.000000, 0.000000,  0.000000 
 66723072.000000, -21.578474 , 0.260818, 3.247060, 1079968256.000000, 143.639999,  -210.839996,  -55.510002, 0.000000,  0.000000 
 66743296.000000, -22.729424 , 0.923629, 1.995614, 1079988480.000000, 172.759995,  -221.479996,  -45.080002, 0.000000,  0.000000 
 66765824.000000, -21.296122 , 0.720240, 0.811167, 1080008704.000000, 188.509995,  -261.100006,  -27.580000, 0.000000,  0.000000 
 66783232.000000, -19.932213 , -0.385244, -0.019143, 1080031232.000000, 154.910004,  -297.220001,  -24.920000, 0.000000,  0.000000 
 66803200.000000, -19.128223 , 0.033500, -0.186640, 1080048384.000000, 90.370003,  -303.170013,  -35.349998, 0.000000,  0.000000 
 66823424.000000, -18.061026 , 0.509671, -0.442672, 1080068352.000000, 41.790001,  -305.130005,  -53.900002, 0.000000,  0.000000 
 66843648.000000, -16.625332 , -0.023928, -0.835095, 1080088576.000000, 5.040000,  -310.869995,  -73.220001, 0.000000,  0.000000 
 66863616.000000, -14.706287 , -1.287339, -0.708275, 1080108800.000000, -40.110001,  -311.010010,  -88.900002, 0.000000,  0.000000 
 66884352.000000, -12.930815 , -2.321038, 0.275175, 1080128768.000000, -66.989998,  -306.040009,  -90.720001, 0.000000,  0.000000 
 66904320.000000, -11.681760 , -2.761317, 0.739382, 1080149504.000000, -70.139999,  -294.000000,  -79.870003, 0.000000,  0.000000 
 66924288.000000, -10.832308 , -2.718246, 0.241675, 1080169472.000000, -52.990002,  -277.269989,  -63.420002, 0.000000,  0.000000 
 66944768.000000, -10.133603 , -1.552942, -0.248854, 1080189440.000000, -29.049999,  -262.360016,  -48.299999, 0.000000,  0.000000 
 66964992.000000, -9.399008 , 0.172283, -1.562513, 1080209920.000000, -8.260000,  -249.270004,  -32.270000, 0.000000,  0.000000 
 66984192.000000, -7.683353 , 1.062413, -2.203789, 1080230144.000000, 6.510000,  -235.339996,  -10.220000, 0.000000,  0.000000 
 67004160.000000, -5.599205 , 1.040878, -2.569891, 1080249344.000000, -7.910000,  -222.389999,  5.180000, 0.000000,  0.000000 
 67024384.000000, -3.787838 , 0.241675, -1.648655, 1080269568.000000, -40.320000,  -198.940002,  9.520000, 0.000000,  0.000000 
 67044608.000000, -3.218346 , -0.669990, -0.421137, 1080289536.000000, -73.080002,  -157.430008,  6.230000, 0.000000,  0.000000 
 67064832.000000, -5.391029 , -1.402194, 1.284946, 1080309760.000000, -78.889999,  -98.980003,  7.840000, 0.000000,  0.000000 
 67084288.000000, -8.640482 , -0.954736, 1.117448, 1080329984.000000, -54.810001,  -31.500000,  9.730000, 0.000000,  0.000000 
 67104256.000000, -9.214760 , 0.634098, -0.923629, 1080349440.000000, 7.140000,  17.219999,  20.299999, 0.000000,  0.000000 
 67124224.000000, -7.877172 , 0.971486, -2.187040, 1080369408.000000, 78.470001,  30.309999,  36.959999, 0.000000,  0.000000 
 67144448.000000, -8.398808 , 0.598206, -1.526621, 1080389376.000000, 108.989998,  54.180000,  43.259998, 0.000000,  0.000000 
 67164928.000000, -10.870593 , 0.210568, 0.004786, 1080409600.000000, 95.760002,  97.860001,  26.600000, 0.000000,  0.000000 
 67184128.000000, -11.877973 , -0.026321, 1.277767, 1080430080.000000, 74.340004,  146.020004,  8.540000, 0.000000,  0.000000 
 67204096.000000, -10.734202 , -0.177069, 0.349352, 1080449280.000000, 84.489998,  167.509995,  3.570000, 0.000000,  0.000000 
 67224320.000000, -10.478169 , -0.519243, -0.890130, 1080469248.000000, 122.430000,  170.729996,  9.730000, 0.000000,  0.000000 
 67244288.000000, -11.674582 , -0.382852, -1.028914, 1080489472.000000, 142.800003,  185.289993,  -2.170000, 0.000000,  0.000000 
 67264768.000000, -12.160326 , 0.617348, -1.485943, 1080509696.000000, 132.229996,  205.869995,  -20.230000, 0.000000,  0.000000 
 67284224.000000, -11.480762 , 1.686940, -1.380659, 1080529920.000000, 111.650002,  208.880005,  -36.680000, 0.000000,  0.000000 
 67304192.000000, -11.365908 , 1.605584, -0.612563, 1080549376.000000, 85.050003,  203.979996,  -49.000000, 0.000000,  0.000000 
 67324160.000000, -12.088539 , 0.507278, -0.222532, 1080569344.000000, 51.520000,  214.270004,  -54.040001, 0.000000,  0.000000 
 67344384.000000, -12.744174 , -0.409173, 0.507278, 1080589312.000000, 20.510000,  234.430008,  -57.680000, 0.000000,  0.000000 
 67364608.000000, -13.560125 , -0.624527, 0.818345, 1080609536.000000, 9.520000,  251.089996,  -51.660000, 0.000000,  0.000000 
 67384064.000000, -15.316458 , -0.959522, 1.868794, 1080630016.000000, 38.639999,  270.549988,  -34.369999, 0.000000,  0.000000 
 67404032.000000, -17.194822 , -1.177269, 2.926422, 1080649216.000000, 68.250000,  291.200012,  -27.299999, 0.000000,  0.000000 
 67424000.000000, -17.630316 , -0.083749, 3.062813, 1080669184.000000, 91.139999,  301.000000,  -27.790001, 0.000000,  0.000000 
 67444224.000000, -17.362320 , 1.679761, 2.538785, 1080689408.000000, 125.720001,  290.220001,  -16.730000, 0.000000,  0.000000 
 67464704.000000, -17.484356 , 2.249253, 2.691926, 1080709376.000000, 131.389999,  269.920013,  -19.530001, 0.000000,  0.000000 
 67483904.000000, -18.259628 , 2.268396, 3.594020, 1080729856.000000, 81.620003,  254.240005,  -36.820000, 0.000000,  0.000000 
 67503872.000000, -18.118454 , 2.620141, 4.450650, 1080749056.000000, 25.480000,  242.410004,  -52.150002, 0.000000,  0.000000 
 67523840.000000, -16.886148 , 2.943172, 5.034499, 1080769280.000000, 0.210000,  213.149994,  -59.010002, 0.000000,  0.000000 
 67544320.000000, -15.517454 , 3.342773, 5.438886, 1080788992.000000, -5.810000,  170.449997,  -63.560001, 0.000000,  0.000000 
 67564544.000000, -14.203795 , 3.548556, 4.917251, 1080809472.000000, -10.990000,  131.809998,  -65.730003, 0.000000,  0.000000 
 67584000.000000, -13.342380 , 3.333202, 4.216154, 1080829696.000000, -20.510000,  96.529999,  -64.540001, 0.000000,  0.000000 
 67603968.000000, -13.371094 , 3.048456, 4.572684, 1080849152.000000, -42.139999,  68.389999,  -63.070000, 0.000000,  0.000000 
 67623936.000000, -13.500306 , 2.352145, 5.625526, 1080869120.000000, -66.849998,  52.639999,  -58.590000, 0.000000,  0.000000 
 67644160.000000, -14.153545 , 1.639083, 6.872187, 1080889088.000000, -76.720001,  34.160000,  -48.090000, 0.000000,  0.000000 
 67664384.000000, -14.773287 , 2.057827, 7.247860, 1080909312.000000, -61.180000,  21.000000,  -30.240000, 3342492416.000000,  1005.601257 
 67683840.000000, -13.325629 , 2.711068, 5.599205, 1080929536.000000, -31.570000,  -5.810000,  -7.420000, 0.000000,  0.000000 
 67703808.000000, -10.789237 , 3.268596, 4.764110, 1080948992.000000, -12.250000,  -50.330002,  19.250000, 0.000000,  0.000000 
 67723776.000000, -9.102298 , 3.816552, 5.233103, 1080968960.000000, -11.900000,  -95.199997,  37.450001, 0.000000,  0.000000 
 67744000.000000, -9.832108 , 4.876573, 4.811966, 1080988928.000000, -20.090000,  -127.120003,  41.509998, 0.000000,  0.000000 
 67766272.000000, -12.356536 , 4.831109, 3.835695, 1081009408.000000, -31.430000,  -137.899994,  43.400002, 0.000000,  0.000000 
 67783680.000000, -15.292529 , 3.627519, 3.275774, 1081031424.000000, -40.740002,  -130.410004,  43.889999, 0.000000,  0.000000 
 67803648.000000, -17.139788 , 2.251646, 3.538985, 1081048832.000000, -71.400002,  -129.430008,  44.099998, 0.000000,  0.000000 
 67823616.000000, -16.048662 , 0.119641, 4.010371, 1081069056.000000, -96.110001,  -142.869995,  43.889999, 0.000000,  0.000000 
 67844096.000000, -14.373686 , -1.488336, 4.297509, 1081089024.000000, -118.370003,  -182.279999,  49.980000, 0.000000,  0.000000 
 67864320.000000, -14.474185 , -1.088734, 4.314260, 1081109248.000000, -105.139999,  -226.589996,  50.400002, 0.000000,  0.000000 
 67883776.000000, -15.732809 , 0.227318, 3.462414, 1081129472.000000, -52.430000,  -243.740005,  38.779999, 0.000000,  0.000000 
 67903744.000000, -15.806986 , -0.447458, 2.785245, 1081148928.000000, -9.310000,  -254.869995,  28.350000, 0.000000,  0.000000 
 67923712.000000, -14.845071 , -1.170090, 2.002793, 1081168896.000000, -10.990000,  -272.230011,  9.940000, 0.000000,  0.000000 
 67943936.000000, -14.177474 , -1.653440, 2.486143, 1081188864.000000, -24.010000,  -287.000000,  4.550000, 0.000000,  0.000000 
 67964160.000000, -14.790037 , -1.610370, 2.732604, 1081209088.000000, -40.110001,  -278.459991,  10.430000, 0.000000,  0.000000 
 67983616.000000, -14.242079 , -1.490728, 2.344966, 1081229568.000000, -43.330002,  -264.670013,  8.890000, 0.000000,  0.000000 
 68003584.000000, -13.339987 , -1.361516, 1.801795, 1081248768.000000, -36.400002,  -265.649994,  5.740000, 0.000000,  0.000000 
 68023552.000000, -14.629718 , -1.074377, 1.052842, 1081268736.000000, -27.580000,  -262.220001,  7.700000, 0.000000,  0.000000 
 68044032.000000, -14.517255 , 0.454636, -0.602991, 1081288704.000000, -28.070000,  -238.350006,  -3.920000, 0.000000,  0.000000 
 68064256.000000, -11.540584 , 1.864009, -3.393023, 1081309184.000000, -32.970001,  -235.199997,  -7.700000, 0.000000,  0.000000 
 68083712.000000, -8.032705 , 1.122234, -3.546163, 1081329408.000000, -40.529999,  -245.630005,  0.770000, 0.000000,  0.000000 
 68103680.000000, -6.113662 , -0.160319, -2.026721, 1081348864.000000, -95.620003,  -234.710007,  -3.640000, 0.000000,  0.000000 
 68123648.000000, -6.489335 , -0.550349, -0.650848, 1081368832.000000, -144.830002,  -189.279999,  -20.580000, 0.000000,  0.000000 
 68143872.000000, -8.173882 , -0.370888, -0.047856, 1081388800.000000, -150.710007,  -133.979996,  -35.349998, 0.000000,  0.000000 
 68164096.000000, -9.109475 , 0.409173, -0.263210, 1081409024.000000, -108.570000,  -80.709999,  -34.020000, 0.000000,  0.000000 
 68183552.000000, -8.571091 , 0.624527, -1.564906, 1081429248.000000, -32.480000,  -50.330002,  -25.830000, 0.000000,  0.000000 
 68203520.000000, -8.563912 , 0.734596, -1.555335, 1081448704.000000, 48.020000,  -19.389999,  -13.440001, 0.000000,  0.000000 
 68223488.000000, -9.073583 , 1.785046, -2.189433, 1081468672.000000, 94.080002,  25.690001,  -12.040000, 0.000000,  0.000000 
 68243712.000000, -8.568698 , 1.665405, -1.581656, 1081488640.000000, 124.529999,  74.760002,  -12.880000, 0.000000,  0.000000 
 68264192.000000, -8.956335 , 1.457229, -0.064606, 1081509120.000000, 145.110001,  114.169998,  -7.490000, 0.000000,  0.000000 
 68283392.000000, -10.492528 , 1.445265, -0.090927, 1081529344.000000, 144.059998,  152.529999,  -14.350000, 0.000000,  0.000000 
 68303360.000000, -11.291731 , 1.825724, -1.232304, 1081548800.000000, 139.789993,  186.339996,  -12.180000, 0.000000,  0.000000 
 68323584.000000, -11.492726 , 1.351945, -1.691726, 1081568768.000000, 116.760002,  205.660004,  -7.070000, 0.000000,  0.000000 
 68343808.000000, -11.550155 , 0.653241, -1.830509, 1081588736.000000, 73.919998,  216.509995,  -8.960000, 0.000000,  0.000000 
 68364032.000000, -11.339586 , 0.464208, -1.835295, 1081608960.000000, 45.500000,  219.660004,  -19.040001, 0.000000,  0.000000 
 68383488.000000, -11.121840 , 0.792024, -1.055235, 1081629184.000000, 40.040001,  219.100006,  -26.040001, 0.000000,  0.000000 
 68403456.000000, -11.933006 , 0.830309, -0.311067, 1081648640.000000, 43.330002,  218.750000,  -35.420002, 0.000000,  0.000000 
 68423424.000000, -14.163116 , 0.882952, -0.344566, 1081668608.000000, 43.330002,  228.619995,  -45.430000, 0.000000,  0.000000 
 68443648.000000, -16.455442 , 1.428515, -0.691526, 1081688576.000000, 36.049999,  247.380005,  -52.290001, 0.000000,  0.000000 
 68463872.000000, -17.493927 , 1.844866, -1.282553, 1081708800.000000, 14.070000,  255.500000,  -45.430000, 0.000000,  0.000000 
 68483328.000000, -18.142382 , 1.684547, -2.060220, 1081729280.000000, -31.710001,  255.500000,  -29.400000, 0.000000,  0.000000 
 68503296.000000, -19.063618 , 0.880559, -2.522035, 1081748480.000000, -104.860001,  259.700012,  -13.720000, 0.000000,  0.000000 
 68523264.000000, -18.750158 , 0.028714, -1.323231, 1081768448.000000, -193.619995,  280.700012,  -0.070000, 0.000000,  0.000000 
 68544512.000000, -19.056440 , -0.045464, 1.773082, 1081788672.000000, -264.880005,  291.269989,  16.730000, 0.000000,  0.000000 
 68563968.000000, -21.343979 , -0.349352, 6.742974, 1081809664.000000, -290.429993,  309.470001,  34.860001, 0.000000,  0.000000 
 68583936.000000, -21.693331 , -0.701097, 10.025927, 1081829120.000000, -266.769989,  330.399994,  55.650002, 0.000000,  0.000000 
 68603648.000000, -19.503897 , -1.318445, 8.729016, 1081849088.000000, -150.500000,  321.860016,  96.739998, 0.000000,  0.000000 
 68623872.000000, -17.139788 , -1.849652, 7.161718, 1081869056.000000, 23.799999,  277.269989,  126.770004, 0.000000,  0.000000 
 68644096.000000, -15.565310 , 1.196411, 6.001199, 1081909248.000000, 200.199997,  151.339996,  98.980003, 3343492352.000000,  1005.603760 
 68664320.000000, -13.983655 , 5.072784, 5.627919, 0.000000, 0.000000,  0.000000,  0.000000, 0.000000,  0.000000 
 68684288.000000, -12.514462 , 6.912865, 6.541977, 1081929472.000000, 138.180008,  91.629997,  69.510002, 0.000000,  0.000000 
 68704000.000000, -11.578869 , 4.371687, 7.453642, 1081949440.000000, 11.830000,  44.380001,  33.950001, 0.000000,  0.000000 
 68723968.000000, -11.550155 , 0.524028, 7.661818, 1081969408.000000, -122.500000,  15.820000,  -0.700000, 0.000000,  0.000000 
 68744448.000000, -10.602598 , -1.421337, 7.252645, 1081989376.000000, -193.830002,  -5.600000,  -18.480000, 0.000000,  0.000000 
 68766720.000000, -9.293723 , -1.366302, 6.702296, 1082009600.000000, -179.970001,  -42.630001,  -14.700000, 0.000000,  0.000000 
 68784384.000000, -9.116654 , -0.926022, 6.156733, 1082031872.000000, -114.029999,  -85.470001,  -10.290000, 0.000000,  0.000000 
 68804352.000000, -10.624132 , -0.732204, 5.704489, 1082049792.000000, -45.150002,  -112.559998,  -16.940001, 0.000000,  0.000000 
 68824320.000000, -13.237095 , -0.799203, 5.051248, 1082069504.000000, 3.290000,  -125.790001,  -23.590000, 0.000000,  0.000000 
 68844800.000000, -16.180265 , -0.899701, 3.873980, 1082089472.000000, 39.830002,  -136.289993,  -30.309999, 0.000000,  0.000000 
 68865024.000000, -17.003399 , -0.531207, 2.797210, 1082109952.000000, 76.650002,  -155.399994,  -36.959999, 0.000000,  0.000000 
 68884224.000000, -15.316458 , 1.007378, 2.392823, 1082130176.000000, 110.879997,  -196.770004,  -33.250000, 0.000000,  0.000000 
 68905472.000000, -14.732609 , 3.381058, 1.490728, 1082149376.000000, 135.520004,  -248.919998,  -24.219999, 0.000000,  0.000000 
 68925440.000000, -14.289936 , 4.407579, 0.416351, 1082170624.000000, 136.220001,  -279.089996,  -20.930000, 0.000000,  0.000000 
 68945664.000000, -13.799409 , 4.328616, 1.024128, 1082190592.000000, 93.239998,  -297.709991,  -17.710001, 0.000000,  0.000000 
 68965888.000000, -14.689538 , 4.309474, 1.756332, 1082211072.000000, 22.750000,  -309.119995,  -20.299999, 0.000000,  0.000000 
 68985344.000000, -16.177874 , 3.330809, 1.600798, 1082231040.000000, -37.170002,  -301.769989,  -21.070000, 0.000000,  0.000000 
 69005312.000000, -16.996220 , 1.253839, 0.799203, 1082250752.000000, -77.209999,  -289.589996,  -22.960001, 0.000000,  0.000000 
 69025280.000000, -16.768900 , -0.066999, 1.304088, 1082270464.000000, -98.279999,  -284.619995,  -23.590000, 0.000000,  0.000000 
 69045760.000000, -16.070196 , 0.141177, 1.607977, 1082290432.000000, -100.870003,  -282.450012,  -18.760000, 0.000000,  0.000000 
 69065984.000000, -15.220744 , 0.655633, 0.535992, 1082310912.000000, -66.779999,  -277.410004,  -0.350000, 0.000000,  0.000000 
 69085440.000000, -14.105689 , 0.205783, -0.071785, 1082331136.000000, -29.330000,  -265.579987,  9.870000, 0.000000,  0.000000 
 69105408.000000, -13.146168 , 0.251246, -0.559920, 1082350592.000000, -27.650000,  -250.460007,  6.720000, 0.000000,  0.000000 
 69125376.000000, -11.600404 , 1.811367, -1.753939, 1082370560.000000, -35.349998,  -233.029999,  -5.810000, 0.000000,  0.000000 
 69145600.000000, -8.566305 , 2.993421, -2.651247, 1082390528.000000, -33.529999,  -216.649994,  -14.420000, 0.000000,  0.000000 
 69165824.000000, -6.137590 , 2.744568, -2.115255, 1082410752.000000, -37.450001,  -207.759995,  -20.090000, 0.000000,  0.000000 
 69185280.000000, -5.761917 , 1.201197, -0.002393, 1082430976.000000, -63.209999,  -178.639999,  -40.459999, 0.000000,  0.000000 
 69205248.000000, -8.719445 , 0.528814, 1.311267, 1082450432.000000, -83.930000,  -117.459999,  -49.980000, 0.000000,  0.000000 
 69225216.000000, -11.148161 , 0.725025, -0.275175, 1082470400.000000, -73.080002,  -49.070000,  -45.080002, 0.000000,  0.000000 
 69245696.000000, -9.583255 , 0.638884, -2.938386, 1082490368.000000, -33.880001,  -17.360001,  -32.410000, 0.000000,  0.000000 
 69265920.000000, -7.673782 , 0.758525, -3.534199, 1082510848.000000, -18.340000,  -13.510000,  -8.120000, 0.000000,  0.000000 
 69285376.000000, -8.752945 , 1.473979, -1.981257, 1082531072.000000, -43.610001,  13.720000,  1.120000, 0.000000,  0.000000 
 69305344.000000, -10.978271 , 2.426322, -0.758525, 1082550528.000000, -69.860001,  68.739998,  -7.140000, 0.000000,  0.000000 
 69325312.000000, -10.669596 , 1.981257, -0.033500, 1082570496.000000, -60.970001,  113.610001,  -9.800000, 0.000000,  0.000000 
 69345536.000000, -9.559326 , 1.016950, 0.169890, 1082590464.000000, -21.210001,  126.699997,  3.010000, 0.000000,  0.000000 
 69365760.000000, -10.466206 , 0.251246, 0.078963, 1082610688.000000, 22.820000,  138.809998,  12.040000, 0.000000,  0.000000 
 69385216.000000, -12.363714 , 0.059821, -0.167498, 1082630912.000000, 59.990002,  172.550003,  13.160000, 0.000000,  0.000000 
 69405184.000000, -12.873385 , 0.385244, -0.026321, 1082650368.000000, 86.449997,  204.610001,  12.180000, 0.000000,  0.000000 
 69425152.000000, -11.935399 , 0.614955, 0.354138, 1082670336.000000, 102.480003,  214.899994,  12.180000, 0.000000,  0.000000 
 69445376.000000, -11.399406 , 0.717847, 0.416351, 1082690304.000000, 114.169998,  211.610001,  8.260000, 0.000000,  0.000000 
 69465600.000000, -11.423335 , 0.866202, 0.607777, 1082710784.000000, 120.610001,  217.139999,  -4.760000, 0.000000,  0.000000 
 69485312.000000, -11.921042 , 1.215554, 0.452243, 1082731008.000000, 121.870003,  226.940002,  -18.059999, 0.000000,  0.000000 
 69505024.000000, -13.033704 , 1.476372, 0.521635, 1082750464.000000, 120.120003,  237.930008,  -28.139999, 0.000000,  0.000000 
 69524992.000000, -14.636896 , 1.722832, 0.634098, 1082770432.000000, 111.860001,  251.369995,  -35.279999, 0.000000,  0.000000 
 69545472.000000, -15.725630 , 1.462015, 0.294317, 1082790400.000000, 97.370003,  264.110016,  -33.670002, 0.000000,  0.000000 
 69565696.000000, -16.120445 , 1.194018, 0.727418, 1082810624.000000, 74.830002,  270.480011,  -25.900000, 0.000000,  0.000000 
 69584896.000000, -16.567905 , 1.627119, 2.009971, 1082830848.000000, 38.360001,  276.010010,  -16.590000, 0.000000,  0.000000 
 69604864.000000, -17.297714 , 2.122434, 3.696911, 1082850304.000000, 7.630000,  287.070007,  -3.850000, 0.000000,  0.000000 
 69625088.000000, -18.381664 , 2.378466, 5.199604, 1082870272.000000, -5.320000,  293.510010,  3.850000, 0.000000,  0.000000 
 69645312.000000, -18.226130 , 2.469393, 7.283752, 1082910464.000000, 59.639999,  266.980011,  3.850000, 3344493568.000000,  1005.606201 
 69665536.000000, -16.572689 , 2.952743, 8.822337, 0.000000, 0.000000,  0.000000,  0.000000, 0.000000,  0.000000 
 69684992.000000, -15.517454 , 4.450650, 7.700103, 1082930688.000000, 146.860001,  217.630005,  2.800000, 0.000000,  0.000000 
 69704960.000000, -14.053047 , 6.183054, 4.814359, 1082950144.000000, 236.460007,  158.199997,  -6.580000, 0.000000,  0.000000 
 69724928.000000, -12.186646 , 7.793423, 3.263810, 1082970112.000000, 251.930008,  86.449997,  -15.120000, 0.000000,  0.000000 
 69745152.000000, -11.387443 , 8.542377, 3.290131, 1082990080.000000, 171.570007,  28.910000,  -23.170000, 0.000000,  0.000000 
 69767424.000000, -10.985448 , 7.290931, 4.302295, 1083010304.000000, 52.080002,  5.180000,  -28.070000, 0.000000,  0.000000 
 69784832.000000, -12.600604 , 5.381458, 6.455836, 1083032576.000000, -49.070000,  -8.120000,  -24.150000, 0.000000,  0.000000 
 69804800.000000, -14.758930 , 3.617948, 6.738188, 1083049984.000000, -96.459999,  -11.690000,  -19.670000, 0.000000,  0.000000 
 69824768.000000, -14.560326 , 2.450250, 5.044070, 1083070208.000000, -76.370003,  -25.760000,  0.070000, 0.000000,  0.000000 
 69845248.000000, -12.251251 , 1.694118, 3.809374, 1083090176.000000, -33.740002,  -71.820000,  30.450001, 0.000000,  0.000000 
 69865472.000000, -10.889735 , 1.519442, 3.151347, 1083110400.000000, 1.960000,  -121.449997,  59.639999, 0.000000,  0.000000 
 69884928.000000, -11.306087 , 1.737189, 2.940779, 1083130624.000000, 22.190001,  -145.949997,  71.750000, 0.000000,  0.000000 
 69904896.000000, -13.134203 , 1.919044, 2.462214, 1083150080.000000, 30.520000,  -152.949997,  75.040001, 0.000000,  0.000000 
 69924864.000000, -15.144175 , 1.902294, 2.120041, 1083170048.000000, 46.340000,  -153.789993,  77.980003, 0.000000,  0.000000 
 69945088.000000, -16.015162 , 1.521835, 1.718047, 1083190016.000000, 62.650002,  -159.039993,  85.820000, 0.000000,  0.000000 
 69965312.000000, -15.316458 , 1.603191, 1.596013, 1083210240.000000, 66.290001,  -177.520004,  97.230003, 0.000000,  0.000000 
 69984768.000000, -14.321043 , 1.914258, 0.811167, 1083230464.000000, 57.260002,  -201.740005,  112.419998, 0.000000,  0.000000 
 70004736.000000, -13.758730 , 1.804188, 0.148355, 1083249920.000000, 36.820000,  -216.649994,  121.660004, 0.000000,  0.000000 
 70024704.000000, -13.586447 , 1.485943, 0.107677, 1083269888.000000, -2.450000,  -221.130005,  118.580002, 0.000000,  0.000000 
 70045184.000000, -13.964513 , 1.775474, 0.533599, 1083289856.000000, -46.480000,  -221.690002,  108.989998, 0.000000,  0.000000 
 70065408.000000, -14.969498 , 1.514657, 0.083749, 1083310336.000000, -79.660004,  -222.740005,  100.239998, 0.000000,  0.000000 
 70084608.000000, -15.960127 , 0.282353, -0.148355, 1083330560.000000, -102.059998,  -217.699997,  91.699997, 0.000000,  0.000000 
 70104832.000000, -15.268601 , -0.784846, 0.232104, 1083350016.000000, -128.589996,  -209.789993,  80.989998, 0.000000,  0.000000 
 70124800.000000, -13.686946 , -0.485743, 0.339781, 1083369984.000000, -139.580002,  -211.820007,  78.190002, 0.000000,  0.000000 
 70145024.000000, -12.665211 , -0.239282, -0.997807, 1083389952.000000, -148.119995,  -225.610001,  75.809998, 0.000000,  0.000000 
 70165248.000000, -12.294323 , -0.102891, -2.347359, 1083410176.000000, -144.690002,  -231.139999,  71.120003, 0.000000,  0.000000 
 70184704.000000, -10.980663 , 0.382852, -2.964707, 1083430400.000000, -158.339996,  -222.320007,  50.820000, 0.000000,  0.000000 
 70204672.000000, -8.977871 , 0.945165, -2.718246, 1083449856.000000, -180.039993,  -212.940002,  26.880001, 0.000000,  0.000000 
 70224640.000000, -6.970293 , 1.246661, -1.952543, 1083469824.000000, -207.270004,  -207.130005,  -0.630000, 0.000000,  0.000000 
 70244864.000000, -5.965307 , 0.923629, -0.677169, 1083489792.000000, -225.889999,  -185.080002,  -29.960001, 0.000000,  0.000000 
 70265344.000000, -6.960721 , 0.323031, -0.215354, 1083510272.000000, -226.869995,  -148.330002,  -56.000000, 0.000000,  0.000000 
 70284544.000000, -10.140782 , 0.418744, -1.775474, 1083530496.000000, -204.259995,  -92.680000,  -65.169998, 0.000000,  0.000000 
 70304512.000000, -12.720245 , 0.696311, -3.055635, 1083549696.000000, -160.300003,  -31.710001,  -59.849998, 0.000000,  0.000000 
 70324480.000000, -11.684153 , 1.021735, -2.117648, 1083569920.000000, -111.160004,  10.010000,  -50.540001, 0.000000,  0.000000 
 70344960.000000, -10.712667 , 2.098505, -1.414158, 1083589888.000000, -56.980000,  33.389999,  -17.010000, 0.000000,  0.000000 
 70365184.000000, -11.167303 , 2.624927, -1.624727, 1083610112.000000, -3.570000,  74.550003,  12.880000, 0.000000,  0.000000 
 70384640.000000, -10.695917 , 2.194218, -0.516850, 1083630336.000000, 34.439999,  119.770004,  23.170000, 0.000000,  0.000000 
 70404608.000000, -10.411172 , 1.804188, -0.500100, 1083649792.000000, 57.119999,  148.259995,  32.270000, 0.000000,  0.000000 
 70424576.000000, -11.057234 , 1.521835, -1.670190, 1083669760.000000, 91.419998,  161.910004,  38.080002, 0.000000,  0.000000 
 70444800.000000, -12.344571 , 2.069792, -2.500499, 1083689728.000000, 116.620003,  179.690002,  37.029999, 0.000000,  0.000000 
 70465024.000000, -13.043276 , 2.167897, -2.038685, 1083709952.000000, 113.260002,  199.850006,  32.970001, 0.000000,  0.000000 
 70484480.000000, -12.026326 , 1.787439, -0.535992, 1083730176.000000, 86.660004,  207.550003,  28.700001, 0.000000,  0.000000 
 70504448.000000, -10.880164 , 1.495514, 0.880559, 1083749632.000000, 45.360001,  205.240005,  23.870001, 0.000000,  0.000000 
 70524416.000000, -11.212767 , 1.371087, 1.296910, 1083769600.000000, 17.010000,  210.770004,  19.600000, 0.000000,  0.000000 
 70544896.000000, -12.827922 , 0.959522, 0.887737, 1083810048.000000, 18.549999,  249.830002,  12.110000, 0.000000,  0.000000 
 70565120.000000, -14.158331 , 0.406780, 0.588634, 0.000000, 0.000000,  0.000000,  0.000000, 0.000000,  0.000000 
 70584576.000000, -15.141781 , 0.294317, 0.713061, 1083830272.000000, 26.320000,  258.299988,  15.470000, 0.000000,  0.000000 
 70606080.000000, -16.338192 , 0.937986, 1.275374, 1083849728.000000, 28.700001,  261.450012,  24.219999, 0.000000,  0.000000 
 70625280.000000, -16.680367 , 1.335195, 1.878366, 1083871232.000000, 16.379999,  267.190002,  37.240002, 0.000000,  0.000000 
 70645760.000000, -16.417156 , 1.265803, 2.574677, 1083910912.000000, -25.760000,  264.880005,  56.279999, 3345494016.000000,  1005.603638 
 70665984.000000, -16.697117 , 1.150948, 3.443272, 0.000000, 0.000000,  0.000000,  0.000000, 0.000000,  0.000000 
 70685440.000000, -16.910078 , 1.014557, 5.233103, 1083931136.000000, -47.529999,  267.049988,  62.860001, 0.000000,  0.000000 
 70705920.000000, -16.364515 , 0.868595, 7.082755, 1083950592.000000, -59.500000,  262.010010,  66.220001, 0.000000,  0.000000 
 70725632.000000, -15.041284 , 0.641276, 8.231310, 1083971072.000000, -47.250000,  236.809998,  64.750000, 0.000000,  0.000000 
 70746112.000000, -13.335200 , 0.708275, 7.817351, 1083991040.000000, -11.270000,  197.119995,  58.310001, 0.000000,  0.000000 
 70768384.000000, -11.715261 , 1.933401, 6.273981, 1084011264.000000, 17.080000,  147.210007,  40.459999, 0.000000,  0.000000 
 70785792.000000, -11.825329 , 3.010171, 6.405586, 1084033536.000000, 13.860000,  96.669998,  18.270000, 0.000000,  0.000000 
 70806016.000000, -12.909278 , 2.672783, 6.575477, 1084050944.000000, -22.889999,  67.129997,  -7.000000, 0.000000,  0.000000 
 70825984.000000, -12.863814 , 1.708475, 7.494320, 1084071168.000000, -59.010002,  46.270000,  -23.590000, 0.000000,  0.000000 
 70846208.000000, -13.624733 , 0.461815, 8.011170, 1084091136.000000, -70.419998,  7.420000,  -24.780001, 0.000000,  0.000000 
 70866688.000000, -14.292330 , 0.081356, 6.307480, 1084111360.000000, -54.670002,  -19.389999,  -18.830000, 0.000000,  0.000000 
 70885888.000000, -12.978670 , 0.720240, 4.744967, 1084131840.000000, -27.299999,  -49.910000,  -9.240000, 0.000000,  0.000000 
 70905856.000000, -11.423335 , 1.411765, 4.465007, 1084151296.000000, -6.720000,  -96.599998,  -1.610000, 0.000000,  0.000000 
 70927104.000000, -11.547763 , 1.277767, 4.254438, 1084171008.000000, -8.750000,  -133.979996,  -7.770000, 0.000000,  0.000000 
 70947584.000000, -12.837494 , 0.342174, 3.964907, 1084192256.000000, -22.540001,  -152.389999,  -25.900000, 0.000000,  0.000000 
 70967808.000000, -14.646468 , -0.540778, 3.510271, 1084212736.000000, -23.590000,  -166.529999,  -48.299999, 0.000000,  0.000000 
 70987008.000000, -16.156338 , -0.803988, 2.663212, 1084232960.000000, 10.710000,  -181.300003,  -62.020000, 0.000000,  0.000000 
 71006976.000000, -16.551155 , -0.421137, 1.552942, 1084252160.000000, 69.790001,  -202.720001,  -63.910000, 0.000000,  0.000000 
 71026944.000000, -15.991233 , 0.287139, 0.521635, 1084272128.000000, 127.190002,  -230.860001,  -57.820000, 0.000000,  0.000000 
 71047168.000000, -15.620347 , 1.495514, 0.244068, 1084292096.000000, 164.990005,  -254.869995,  -47.459999, 0.000000,  0.000000 
 71067648.000000, -15.113067 , 2.275574, -0.038285, 1084312576.000000, 169.330002,  -268.170013,  -39.619999, 0.000000,  0.000000 
 71086848.000000, -14.294723 , 2.141576, -0.334995, 1084332800.000000, 142.100006,  -278.809998,  -31.990000, 0.000000,  0.000000 
 71107072.000000, -13.859229 , 1.540978, 0.043071, 1084352256.000000, 88.410004,  -281.610016,  -28.630001, 0.000000,  0.000000 
 71127040.000000, -13.797016 , 1.060020, 0.545564, 1084372224.000000, 26.250000,  -272.510010,  -27.090000, 0.000000,  0.000000 
 71147264.000000, -13.167704 , 0.303888, 0.859023, 1084392192.000000, -15.330000,  -257.250000,  -17.780001, 0.000000,  0.000000 
 71167488.000000, -11.715261 , -0.303888, 1.562513, 1084412416.000000, -32.480000,  -245.699997,  -2.590000, 0.000000,  0.000000 
 71186944.000000, -10.552348 , 0.296710, 2.069792, 1084432640.000000, -30.799999,  -240.240005,  12.110000, 0.000000,  0.000000 
 71206912.000000, -10.480563 , 1.131805, 1.818545, 1084452096.000000, -8.330000,  -228.410004,  29.960001, 0.000000,  0.000000 
 71226880.000000, -10.652846 , 1.100698, 0.937986, 1084472064.000000, 5.880000,  -208.320007,  43.189999, 0.000000,  0.000000 
 71247104.000000, -10.415956 , 0.952343, -0.086142, 1084492032.000000, -5.670000,  -189.630005,  47.880001, 0.000000,  0.000000 
 71267584.000000, -9.521042 , 0.693919, -0.772882, 1084512256.000000, -35.700001,  -178.500000,  46.970001, 0.000000,  0.000000 
 71286784.000000, -8.111670 , -0.203390, -0.681954, 1084532736.000000, -73.080002,  -165.619995,  45.500000, 0.000000,  0.000000 
 71307008.000000, -7.441679 , -0.775275, 0.244068, 1084551936.000000, -107.590004,  -148.820007,  39.340000, 0.000000,  0.000000 
 71326720.000000, -8.449057 , -0.780060, 0.595813, 1084572160.000000, -128.520004,  -119.629997,  22.049999, 0.000000,  0.000000 
 71347200.000000, -10.028319 , 0.220140, -1.694118, 1084591872.000000, -117.949997,  -83.860001,  4.480000, 0.000000,  0.000000 
 71367424.000000, -9.836893 , 1.584049, -5.924629, 1084612352.000000, -91.139999,  -56.070000,  -7.700000, 0.000000,  0.000000 
 71386880.000000, -7.587641 , 2.359323, -7.401000, 1084632576.000000, -74.620003,  -38.570000,  -15.330000, 0.000000,  0.000000 
 71406848.000000, -7.302894 , 0.521635, -3.960121, 1084652032.000000, -99.400002,  -15.470000,  -20.510000, 0.000000,  0.000000 
 71426816.000000, -11.054840 , -1.198804, -0.296710, 1084672000.000000, -146.860001,  55.860001,  -27.230000, 0.000000,  0.000000 
 71447040.000000, -12.126825 , -1.672583, 1.208375, 1084691968.000000, -139.789993,  138.389999,  -17.290001, 0.000000,  0.000000 
 71467520.000000, -9.934999 , -0.758525, 0.952343, 1084712192.000000, -76.019997,  170.100006,  12.390000, 0.000000,  0.000000 
 71486720.000000, -10.849058 , -0.031107, -0.636491, 1084732672.000000, -1.680000,  192.919998,  56.139999, 0.000000,  0.000000 
 71506688.000000, -13.971692 , -0.236889, -1.634298, 1084751872.000000, 48.720001,  226.380005,  72.309998, 0.000000,  0.000000 
 71526656.000000, -16.804794 , -0.516850, -1.694118, 1084772096.000000, 62.439999,  277.130005,  64.120003, 0.000000,  0.000000 
 71546880.000000, -16.627726 , -0.815953, -0.803988, 1084791808.000000, 77.349998,  296.170013,  62.930000, 0.000000,  0.000000 
 71567360.000000, -15.091532 , 0.069392, -0.279960, 1084812288.000000, 103.320000,  274.329987,  63.490002, 0.000000,  0.000000 
 71586816.000000, -14.835501 , 2.438286, -0.119641, 1084832512.000000, 109.480003,  252.139999,  59.709999, 0.000000,  0.000000 
 71606528.000000, -14.610575 , 2.904887, 0.559920, 1084851968.000000, 61.320000,  248.149994,  41.230000, 0.000000,  0.000000 
 71626496.000000, -15.383456 , 1.277767, 1.878366, 1084871680.000000, -39.619999,  249.339996,  15.890000, 0.000000,  0.000000 
 71646976.000000, -16.998611 , -0.598206, 2.723032, 1084891904.000000, -135.380005,  258.579987,  3.010000, 0.000000,  0.000000 
 71667200.000000, -17.161324 , -2.251646, 3.780660, 1084912128.000000, -173.740005,  263.269989,  9.660000, 3346495232.000000,  1005.600891 
 71686656.000000, -15.986448 , -2.837888, 4.644469, 1084932352.000000, -151.410004,  244.020004,  31.150000, 0.000000,  0.000000 
 71706624.000000, -14.912071 , -1.981257, 4.953143, 1084951808.000000, -82.599998,  219.800003,  58.939999, 0.000000,  0.000000 
 71726592.000000, -14.163116 , -0.890130, 4.668397, 1084971776.000000, -10.010000,  204.539993,  76.160004, 0.000000,  0.000000 
 71746816.000000, -13.454842 , -0.131605, 4.723432, 1084991744.000000, 30.660000,  193.759995,  78.190002, 0.000000,  0.000000 
 71769088.000000, -12.796815 , -0.162712, 5.541777, 1085011968.000000, 42.070000,  181.580002,  71.190002, 0.000000,  0.000000 
 71786496.000000, -12.358929 , -0.667598, 6.800402, 1085034240.000000, 38.360001,  167.789993,  60.970001, 0.000000,  0.000000 
 71806464.000000, -12.399607 , -0.696311, 7.865208, 1085051648.000000, 38.430000,  153.789993,  52.570000, 0.000000,  0.000000 
 71826432.000000, -12.287145 , 0.014357, 7.688138, 1085071616.000000, 57.119999,  138.809998,  49.770000, 0.000000,  0.000000 
 71846912.000000, -11.813366 , 0.746561, 6.958328, 1085091584.000000, 83.720001,  111.020004,  46.759998, 0.000000,  0.000000 
 71867136.000000, -11.882757 , 0.985843, 7.245467, 1085112064.000000, 85.959999,  74.199997,  39.689999, 0.000000,  0.000000 
 71886336.000000, -12.662818 , 0.799203, 7.841280, 1085132288.000000, 61.040001,  45.009998,  30.730000, 0.000000,  0.000000 
 71906560.000000, -14.172688 , 0.736989, 7.860423, 1085151744.000000, 37.869999,  18.969999,  25.549999, 0.000000,  0.000000 
 71926528.000000, -14.900107 , 0.624527, 6.479764, 1085171712.000000, 26.320000,  -10.710000,  23.379999, 0.000000,  0.000000 
 71946752.000000, -14.048263 , 0.734596, 4.328616, 1085191680.000000, 21.139999,  -52.080002,  23.940001, 0.000000,  0.000000 
 71966976.000000, -12.799208 , 0.782453, 3.311667, 1085211904.000000, 13.440001,  -102.900002,  23.660000, 0.000000,  0.000000 
 71986432.000000, -12.729815 , 0.624527, 3.072384, 1085232128.000000, -5.110000,  -143.430008,  16.030001, 0.000000,  0.000000 
 72006400.000000, -13.691730 , 0.119641, 2.866602, 1085251584.000000, -23.590000,  -165.759995,  0.630000, 0.000000,  0.000000 
 72026368.000000, -15.546168 , -0.435494, 2.897708, 1085271552.000000, -32.410000,  -181.229996,  -17.850000, 0.000000,  0.000000 
 72046592.000000, -17.388643 , -0.875773, 2.416751, 1085291520.000000, -20.650000,  -191.309998,  -33.459999, 0.000000,  0.000000 
 72067072.000000, -17.213966 , -0.722632, 1.560120, 1085311744.000000, 15.890000,  -207.339996,  -38.150002, 0.000000,  0.000000 
 72086272.000000, -15.811772 , -0.454636, 0.899701, 1085332224.000000, 59.570000,  -235.199997,  -33.180000, 0.000000,  0.000000 
 72106240.000000, -15.527027 , 0.844666, 1.177269, 1085351424.000000, 91.769997,  -259.839996,  -28.630001, 0.000000,  0.000000 
 72126208.000000, -15.421742 , 1.761117, 0.478565, 1085371648.000000, 102.760002,  -266.769989,  -28.910000, 0.000000,  0.000000 
 72146688.000000, -14.861821 , 1.835295, 0.375673, 1085391616.000000, 91.209999,  -273.769989,  -30.660000, 0.000000,  0.000000 
 72166912.000000, -14.919249 , 2.368894, 1.076770, 1085411840.000000, 53.060001,  -281.329987,  -38.360001, 0.000000,  0.000000 
 72186368.000000, -14.988641 , 2.112862, 1.014557, 1085432064.000000, 11.970000,  -283.429993,  -40.599998, 0.000000,  0.000000 
 72206336.000000, -13.847265 , 1.902294, 0.995414, 1085451520.000000, -10.570000,  -280.769989,  -31.780001, 0.000000,  0.000000 
 72226304.000000, -12.143576 , 1.612763, 0.650848, 1085471488.000000, -18.620001,  -284.829987,  -16.240000, 0.000000,  0.000000 
 72246528.000000, -10.674382 , 1.064806, 0.342174, 1085491456.000000, -27.020000,  -289.380005,  1.120000, 0.000000,  0.000000 
 72266752.000000, -9.647861 , 0.227318, 0.002393, 1085511680.000000, -47.880001,  -278.390015,  15.820000, 0.000000,  0.000000 
 72286208.000000, -9.245867 , -0.267996, -0.004786, 1085532160.000000, -72.730003,  -251.930008,  28.700001, 0.000000,  0.000000 
 72306176.000000, -9.145369 , -0.071785, -0.308674, 1085551360.000000, -89.250000,  -223.229996,  34.790001, 0.000000,  0.000000 
 72326144.000000, -8.855836 , 0.425922, -0.172283, 1085571328.000000, -90.300003,  -194.460007,  39.480000, 0.000000,  0.000000 
 72346624.000000, -8.027920 , 0.457029, 0.193819, 1085591296.000000, -90.650002,  -165.830002,  45.290001, 0.000000,  0.000000 
 72366848.000000, -7.089933 , 0.186640, 0.760918, 1085611776.000000, -91.910004,  -142.449997,  47.389999, 0.000000,  0.000000 
 72386304.000000, -6.486942 , -0.258425, 0.854238, 1085632000.000000, -88.199997,  -115.220001,  41.160000, 0.000000,  0.000000 
 72406272.000000, -7.592427 , -0.672383, 0.796810, 1085651456.000000, -70.699997,  -80.639999,  39.970001, 0.000000,  0.000000 
 72426240.000000, -9.564112 , -0.471386, 0.002393, 1085671424.000000, -52.150002,  -32.060001,  35.910000, 0.000000,  0.000000 
 72446464.000000, -10.052249 , -0.086142, -0.734596, 1085691392.000000, -27.790001,  11.760000,  25.200001, 0.000000,  0.000000 
 72466688.000000, -9.200402 , 0.040678, -1.031307, 1085711616.000000, -1.750000,  40.389999,  22.120001, 0.000000,  0.000000 
 72486144.000000, -9.241080 , -0.229711, -0.705883, 1085731840.000000, 21.139999,  67.690002,  21.700001, 0.000000,  0.000000 
 72506112.000000, -10.138390 , -0.756132, -0.052642, 1085751296.000000, 38.639999,  107.940002,  14.070000, 0.000000,  0.000000 
 72526080.000000, -10.607382 , -0.760918, 0.397209, 1085771264.000000, 46.410000,  148.610001,  3.360000, 0.000000,  0.000000 
 72546304.000000, -10.858629 , -0.270389, 0.342174, 1085791232.000000, 69.160004,  164.570007,  -0.350000, 0.000000,  0.000000 
 72566784.000000, -11.621940 , 0.021535, 0.019143, 1085811712.000000, 100.590004,  186.619995,  -4.970000, 0.000000,  0.000000 
 72585984.000000, -12.143576 , -0.052642, -0.059821, 1085831936.000000, 120.470001,  207.830002,  -10.220000, 0.000000,  0.000000 
 72605952.000000, -12.985848 , -0.483350, -0.088534, 1085851136.000000, 117.389999,  230.020004,  -19.460001, 0.000000,  0.000000 
 72627456.000000, -12.308680 , -0.169890, 0.057428, 1085871360.000000, 103.250000,  242.410004,  -24.710001, 0.000000,  0.000000 
 72646912.000000, -11.411370 , 0.306281, 0.246461, 1085892608.000000, 89.529999,  242.270004,  -26.950001, 0.000000,  0.000000 
 72667392.000000, -11.614761 , 1.153341, 0.923629, 1085912320.000000, 75.669998,  235.199997,  -27.510000, 3347495168.000000,  1005.600952 
 72686592.000000, -12.631711 , 1.435694, 0.768096, 1085932544.000000, 58.029999,  235.339996,  -31.500000, 0.000000,  0.000000 
 72706560.000000, -12.811172 , 1.368695, 0.732204, 1085952000.000000, 36.470001,  242.479996,  -36.330002, 0.000000,  0.000000 
 72727040.000000, -13.344771 , 1.095913, 0.892523, 1085971712.000000, 10.710000,  245.979996,  -35.770000, 0.000000,  0.000000 
 72747264.000000, -15.357137 , 0.897308, 1.203590, 1085992192.000000, -21.980000,  245.419998,  -27.020000, 0.000000,  0.000000 
 72769536.000000, -17.225931 , 0.799203, 1.864009, 1086012416.000000, -56.490002,  263.549988,  -16.450001, 0.000000,  0.000000 
 72786944.000000, -17.639889 , 1.002593, 2.505285, 1086034688.000000, -87.500000,  280.910004,  -0.910000, 0.000000,  0.000000 
 72806912.000000, -17.776279 , 1.469193, 4.151547, 1086052352.000000, -104.860001,  276.709991,  14.630000, 0.000000,  0.000000 
 72827392.000000, -17.953348 , 1.021735, 7.176075, 1086072064.000000, -116.480003,  261.170013,  25.549999, 0.000000,  0.000000 
 72847616.000000, -16.943577 , 0.430708, 8.796017, 1086092544.000000, -132.509995,  250.600006,  27.230000, 0.000000,  0.000000 
 72867840.000000, -16.220945 , 0.251246, 9.140583, 1086112768.000000, -118.440002,  231.630005,  24.780001, 0.000000,  0.000000 
 72887296.000000, -15.196816 , 0.454636, 8.958728, 1086132992.000000, -49.420002,  189.910004,  20.160000, 0.000000,  0.000000 
 72907264.000000, -14.148761 , 1.677369, 7.826923, 1086152448.000000, 30.030001,  139.930008,  6.020000, 0.000000,  0.000000 
 72926976.000000, -13.275380 , 2.842674, 7.049256, 1086172416.000000, 67.410004,  86.660004,  -7.560000, 0.000000,  0.000000 
 72948736.000000, -12.904492 , 2.878566, 6.836295, 1086192384.000000, 51.590000,  42.349998,  -17.219999, 0.000000,  0.000000 
 72968960.000000, -13.579268 , 1.395016, 7.200003, 1086213888.000000, -22.540001,  -0.280000,  -16.450001, 0.000000,  0.000000 
 72988416.000000, -14.158331 , -0.165105, 6.771688, 1086234112.000000, -44.240002,  -17.639999,  -8.190000, 0.000000,  0.000000 
 73008384.000000, -13.182060 , -0.397209, 5.283352, 1086253568.000000, -63.840000,  -28.350000,  -1.400000, 0.000000,  0.000000 
 73028352.000000, -11.516656 , -0.287139, 4.175476, 1086273536.000000, -48.860001,  -64.750000,  11.550000, 0.000000,  0.000000 
 73048576.000000, -11.526227 , -0.215354, 3.826123, 1086293504.000000, -21.980000,  -115.639999,  20.299999, 0.000000,  0.000000 
 73068800.000000, -12.227324 , -0.246461, 3.785445, 1086313728.000000, -7.490000,  -145.110001,  14.490000, 0.000000,  0.000000 
 73088256.000000, -14.495720 , -0.600598, 3.692125, 1086333952.000000, -1.890000,  -155.750000,  3.010000, 0.000000,  0.000000 
 73108224.000000, -16.831116 , -0.870987, 3.357130, 1086353664.000000, 10.150000,  -162.330002,  -8.890000, 0.000000,  0.000000 
 73128192.000000, -16.907684 , -0.313460, 2.845066, 1086373376.000000, 36.189999,  -175.000000,  -15.610000, 0.000000,  0.000000 
 73148416.000000, -15.029318 , 0.868595, 2.287539, 1086393600.000000, 68.669998,  -208.389999,  -14.000000, 0.000000,  0.000000 
 73168896.000000, -13.703696 , 1.289732, 1.440479, 1086413824.000000, 80.779999,  -246.820007,  -14.770000, 0.000000,  0.000000 
 73188352.000000, -13.191631 , 0.801596, 1.071985, 1086434048.000000, 65.169998,  -262.709991,  -25.340000, 0.000000,  0.000000 
 73208064.000000, -13.229917 , 0.667598, 1.464408, 1086453504.000000, 41.650002,  -263.829987,  -38.779999, 0.000000,  0.000000 
 73228288.000000, -13.739587 , 0.813560, 1.596013, 1086473472.000000, 28.630001,  -262.010010,  -45.080002, 0.000000,  0.000000 
 73248512.000000, -13.658232 , 0.196211, 0.885344, 1086493440.000000, 20.860001,  -260.049988,  -42.840000, 0.000000,  0.000000 
 73268736.000000, -13.026526 , -0.502493, 0.514457, 1086513664.000000, 9.310000,  -259.420013,  -33.110001, 0.000000,  0.000000 
 73288192.000000, -12.416357 , -1.000200, 0.232104, 1086533888.000000, 0.280000,  -255.990005,  -18.410000, 0.000000,  0.000000 
 73308160.000000, -11.942577 , -0.983450, 0.380459, 1086553344.000000, -2.730000,  -242.759995,  2.450000, 0.000000,  0.000000 
 73328128.000000, -11.590833 , -0.433101, 0.062213, 1086573312.000000, -10.010000,  -226.380005,  20.719999, 0.000000,  0.000000 
 73348352.000000, -11.408978 , -0.100499, -1.148555, 1086593280.000000, -19.740000,  -215.110001,  30.380001, 0.000000,  0.000000 
 73368576.000000, -10.691131 , 0.452243, -2.349752, 1086613504.000000, -41.790001,  -201.180008,  31.290001, 0.000000,  0.000000 
 73388288.000000, -9.035298 , 0.634098, -2.770889, 1086633984.000000, -72.590004,  -187.600006,  29.610001, 0.000000,  0.000000 
 73408000.000000, -7.281359 , 0.126820, -1.986043, 1086653440.000000, -101.639999,  -177.100006,  25.059999, 0.000000,  0.000000 
 73428224.000000, -6.180661 , -0.253639, -0.928415, 1086673408.000000, -133.419998,  -155.680008,  7.560000, 0.000000,  0.000000 
 73448448.000000, -6.008378 , -0.452243, 0.208176, 1086693376.000000, -145.880005,  -120.750000,  -9.870000, 0.000000,  0.000000 
 73468672.000000, -7.539784 , -0.378066, 0.772882, 1086713600.000000, -129.919998,  -75.180000,  -20.160000, 0.000000,  0.000000 
 73488128.000000, -9.336794 , 0.184247, 0.126820, 1086733824.000000, -82.599998,  -27.230000,  -21.350000, 0.000000,  0.000000 
 73508096.000000, -9.894321 , 1.064806, -1.390230, 1086753280.000000, -7.280000,  10.990000,  -14.070000, 0.000000,  0.000000 
 73528064.000000, -9.674182 , 0.854238, -1.435694, 1086773248.000000, 60.060001,  41.650002,  2.450000, 0.000000,  0.000000 
 73548288.000000, -10.923235 , 0.246461, -0.294317, 1086793216.000000, 89.250000,  80.989998,  15.680000, 0.000000,  0.000000 
 73568512.000000, -12.445071 , 0.208176, 0.179462, 1086813440.000000, 100.870003,  131.669998,  20.650000, 0.000000,  0.000000 
 73587968.000000, -12.059827 , 0.669990, 0.423530, 1086833920.000000, 112.910004,  173.600006,  23.590000, 0.000000,  0.000000 
 73607936.000000, -11.542977 , 0.990629, 0.222532, 1086853120.000000, 114.520004,  192.430008,  28.840000, 0.000000,  0.000000 
 73628160.000000, -12.622139 , 0.751346, -0.385244, 1086873088.000000, 101.709999,  203.839996,  23.520000, 0.000000,  0.000000 
 73648128.000000, -14.050655 , 0.246461, -0.253639, 1086893312.000000, 77.070000,  224.070007,  10.220000, 0.000000,  0.000000 
 73668608.000000, -13.964513 , 0.083749, 0.217747, 1086913536.000000, 55.930000,  237.860001,  3.710000, 3348496384.000000,  1005.602539 
 73687808.000000, -12.729815 , 0.653241, 0.485743, 1086933760.000000, 56.910000,  224.350006,  -0.350000, 0.000000,  0.000000 
 73707776.000000, -11.875579 , 1.320838, 0.725025, 1086952960.000000, 71.750000,  204.259995,  -5.880000, 0.000000,  0.000000 
 73727744.000000, -11.466407 , 1.555335, 1.378266, 1086973184.000000, 80.639999,  196.979996,  -15.330000, 0.000000,  0.000000 
 73748224.000000, -11.408978 , 1.311267, 1.428515, 1086993152.000000, 74.690002,  195.160004,  -26.530001, 0.000000,  0.000000 
 73770496.000000, -12.078968 , 1.349552, 1.131805, 1087013376.000000, 59.639999,  195.229996,  -33.880001, 0.000000,  0.000000 
 73787904.000000, -13.119846 , 1.294517, 0.930808, 1087035648.000000, 37.310001,  203.350006,  -34.160000, 0.000000,  0.000000 
 73807872.000000, -13.797016 , 1.012164, 1.182054, 1087053056.000000, 6.930000,  213.500000,  -27.930000, 0.000000,  0.000000 
 73827840.000000, -14.225330 , 0.894916, 2.062613, 1087073024.000000, -22.820000,  220.430008,  -19.040001, 0.000000,  0.000000 
 73848064.000000, -14.524432 , 0.942772, 2.890530, 1087092992.000000, -39.830002,  227.009995,  -7.630000, 0.000000,  0.000000 
 73868288.000000, -15.292529 , 1.170090, 3.921836, 1087113216.000000, -42.770000,  234.919998,  3.850000, 0.000000,  0.000000 
 73887744.000000, -15.730415 , 1.275374, 5.211568, 1087133440.000000, -39.970001,  242.970001,  11.340000, 0.000000,  0.000000 
 73907712.000000, -15.412170 , 1.505085, 7.080362, 1087152896.000000, -26.740000,  242.550003,  16.170000, 0.000000,  0.000000 
 73927680.000000, -14.763715 , 2.024328, 8.298308, 1087172864.000000, 2.590000,  224.630005,  17.780001, 0.000000,  0.000000 
 73948160.000000, -14.091332 , 2.720639, 7.958528, 1087192832.000000, 48.369999,  194.110001,  14.000000, 0.000000,  0.000000 
 73968384.000000, -13.261024 , 3.771089, 5.996413, 1087213312.000000, 96.320000,  152.320007,  6.020000, 0.000000,  0.000000 
 73987584.000000, -12.775280 , 4.845466, 4.658825, 1087233536.000000, 120.540001,  99.050003,  -4.900000, 0.000000,  0.000000 
 74007808.000000, -12.275180 , 5.702096, 3.720839, 1087252992.000000, 105.070000,  53.060001,  -13.930000, 0.000000,  0.000000 
 74027776.000000, -12.404392 , 5.513064, 3.694518, 1087272960.000000, 64.470001,  14.700000,  -8.470000, 0.000000,  0.000000 
 74048000.000000, -13.493127 , 4.177868, 4.094120, 1087292928.000000, 9.030000,  -10.010000,  0.350000, 0.000000,  0.000000 
 74068224.000000, -13.974084 , 2.383251, 4.208975, 1087313152.000000, -50.540001,  -23.309999,  13.230000, 0.000000,  0.000000 
 74087680.000000, -12.502499 , 0.887737, 3.718446, 1087333376.000000, -86.099998,  -52.849998,  25.900000, 0.000000,  0.000000 
 74107648.000000, -11.397014 , 0.153141, 3.493521, 1087352832.000000, -93.169998,  -103.809998,  38.779999, 0.000000,  0.000000 
 74127616.000000, -11.899508 , -0.026321, 3.589234, 1087372800.000000, -80.290001,  -139.369995,  38.080002, 0.000000,  0.000000 
 74147840.000000, -13.768302 , 0.028714, 4.007978, 1087392768.000000, -54.950001,  -155.820007,  33.040001, 0.000000,  0.000000 
 74168320.000000, -16.457834 , 0.002393, 4.089334, 1087413248.000000, -18.549999,  -165.830002,  30.450001, 0.000000,  0.000000 
 74187520.000000, -17.166111 , 0.234497, 3.445665, 1087433472.000000, 26.670000,  -176.820007,  31.639999, 0.000000,  0.000000 
 74207488.000000, -15.335601 , 0.703490, 2.184647, 1087452672.000000, 73.010002,  -206.009995,  40.389999, 0.000000,  0.000000 
 74227456.000000, -13.945370 , 1.330409, 1.538585, 1087472896.000000, 103.040001,  -240.520004,  49.560001, 0.000000,  0.000000 
 74247936.000000, -13.552947 , 2.033899, 0.617348, 1087492864.000000, 103.809998,  -249.339996,  49.840000, 0.000000,  0.000000 
 74268160.000000, -12.868600 , 1.627119, -0.459422, 1087513088.000000, 80.779999,  -251.720001,  43.049999, 0.000000,  0.000000 
 74287616.000000, -12.162716 , 0.425922, -0.394816, 1087533312.000000, 36.400002,  -256.339996,  33.810001, 0.000000,  0.000000 
 74307584.000000, -12.327823 , -0.011964, 0.256032, 1087552768.000000, -13.860000,  -253.820007,  22.750000, 0.000000,  0.000000 
 74327552.000000, -12.598210 , -0.150748, 0.492921, 1087572736.000000, -46.200001,  -242.550003,  16.799999, 0.000000,  0.000000 
 74347776.000000, -12.576675 , -0.818345, 0.390030, 1087592704.000000, -65.239998,  -232.750000,  21.420000, 0.000000,  0.000000 
 74368000.000000, -12.392428 , -1.366302, 0.105284, 1087612928.000000, -78.820000,  -224.070007,  26.320000, 0.000000,  0.000000 
 74387456.000000, -11.930614 , -1.603191, 0.045464, 1087633408.000000, -82.250000,  -212.940002,  35.070000, 0.000000,  0.000000 
 74407424.000000, -11.325230 , -1.301696, 0.011964, 1087652608.000000, -76.650002,  -200.339996,  44.029999, 0.000000,  0.000000 
 74427392.000000, -11.449656 , -0.366102, -0.705883, 1087672576.000000, -71.610001,  -190.539993,  49.490002, 0.000000,  0.000000 
 74447872.000000, -11.487941 , 0.624527, -2.158326, 1087692544.000000, -79.239998,  -176.889999,  43.820000, 0.000000,  0.000000 
 74468096.000000, -9.678967 , 0.373280, -2.991028, 1087713024.000000, -102.760002,  -158.970001,  32.270000, 0.000000,  0.000000 
 74487552.000000, -7.826923 , -0.136391, -2.268396, 1087733248.000000, -136.639999,  -150.570007,  21.280001, 0.000000,  0.000000 
 74507520.000000, -7.441679 , 0.019143, -1.280160, 1087752704.000000, -175.210007,  -129.919998,  -2.940000, 0.000000,  0.000000 
 74527488.000000, -7.649854 , 0.315853, -0.650848, 1087772672.000000, -189.630005,  -90.930000,  -29.330000, 0.000000,  0.000000 
 74547712.000000, -8.817552 , 0.244068, -0.598206, 1087812864.000000, -130.410004,  -11.900000,  -45.709999, 0.000000,  0.000000 
 74567936.000000, -10.676775 , 0.344566, -1.074377, 0.000000, 0.000000,  0.000000,  0.000000, 0.000000,  0.000000 
 74587392.000000, -11.109876 , 0.055035, -0.315853, 1087833088.000000, -69.090004,  34.509998,  -45.009998, 0.000000,  0.000000 
 74607360.000000, -11.114661 , 0.141177, 0.485743, 1087852544.000000, 3.920000,  68.739998,  -27.299999, 0.000000,  0.000000 
 74627328.000000, -11.564510 , 1.100698, 0.346959, 1087872512.000000, 74.830002,  104.790001,  -1.890000, 0.000000,  0.000000 
 74647808.000000, -11.263017 , 2.057827, 0.303888, 1087892480.000000, 123.760002,  143.360001,  5.320000, 0.000000,  0.000000 
 74668032.000000, -11.241481 , 2.177469, 0.011964, 1087912960.000000, 145.250000,  166.669998,  13.580000, 3349496064.000000,  1005.606873 
 74687232.000000, -12.669996 , 1.576870, -0.734596, 1087933184.000000, 139.369995,  182.000000,  10.150000, 0.000000,  0.000000 
 74707200.000000, -13.983655 , 1.342373, -1.261017, 1087952640.000000, 107.169998,  206.220001,  10.150000, 0.000000,  0.000000 
 74727424.000000, -13.902299 , 1.208375, -1.356731, 1087972608.000000, 65.449997,  221.619995,  -4.480000, 0.000000,  0.000000 
 74747648.000000, -13.134203 , 1.356731, -0.753739, 1087992576.000000, 39.830002,  217.419998,  -2.590000, 0.000000,  0.000000 
 74769920.000000, -12.162716 , 1.993221, 0.547956, 1088012800.000000, 39.270000,  213.500000,  -2.170000, 0.000000,  0.000000 
 74787328.000000, -11.648260 , 1.945365, 0.997807, 1088035072.000000, 52.709999,  210.490005,  -2.870000, 0.000000,  0.000000 
 74807296.000000, -12.033505 , 1.454836, 0.839881, 1088052480.000000, 61.880001,  210.699997,  -9.520000, 0.000000,  0.000000 
 74827264.000000, -12.610175 , 1.158126, 0.342174, 1088072448.000000, 56.630001,  221.410004,  -16.170000, 0.000000,  0.000000 
 74847488.000000, -12.899707 , 0.713061, 0.483350, 1088092416.000000, 40.250000,  226.589996,  -14.700000, 0.000000,  0.000000 
 74867712.000000, -13.002598 , 0.622134, 1.122234, 1088112640.000000, 18.690001,  228.199997,  -11.410000, 0.000000,  0.000000 
 74887168.000000, -13.725230 , 0.937986, 1.971686, 1088133120.000000, 10.570000,  228.270004,  -2.100000, 0.000000,  0.000000 
 74907136.000000, -14.510076 , 1.325624, 2.608176, 1088152320.000000, 3.150000,  230.229996,  0.700000, 0.000000,  0.000000 
 74927104.000000, -14.715858 , 1.337588, 3.330809, 1088172288.000000, 0.210000,  237.860001,  7.840000, 0.000000,  0.000000 
 74947584.000000, -14.802001 , 1.093520, 4.575077, 1088192512.000000, -5.390000,  238.910004,  14.210000, 0.000000,  0.000000 
 74967808.000000, -14.859427 , 1.021735, 5.242674, 1088212736.000000, -9.310000,  234.500000,  18.900000, 0.000000,  0.000000 
 74987264.000000, -15.259030 , 1.170090, 6.494121, 1088232960.000000, -0.980000,  225.889999,  23.799999, 0.000000,  0.000000 
 75007232.000000, -15.270994 , 1.591227, 7.671390, 1088252416.000000, 23.379999,  208.529999,  24.010000, 0.000000,  0.000000 
 75027200.000000, -14.426328 , 2.388037, 7.396214, 1088272384.000000, 55.930000,  176.050003,  21.210001, 0.000000,  0.000000 
 75047424.000000, -12.725031 , 3.567699, 5.814559, 1088292352.000000, 85.959999,  127.470001,  14.490000, 0.000000,  0.000000 
 75067648.000000, -10.973484 , 4.371687, 4.656433, 1088312576.000000, 89.180000,  67.970001,  2.030000, 0.000000,  0.000000 
 75087104.000000, -10.523634 , 5.132604, 4.811966, 1088332800.000000, 62.020000,  15.190001,  -10.570000, 0.000000,  0.000000 
 75107072.000000, -10.387242 , 5.328816, 3.972085, 1088352256.000000, 23.170000,  -16.100000,  -23.379999, 0.000000,  0.000000 
 75127040.000000, -10.817951 , 4.295116, 4.259224, 1088372224.000000, -11.550000,  -46.759998,  -25.480000, 0.000000,  0.000000 
 75147264.000000, -12.083755 , 2.988636, 4.713861, 1088392192.000000, -46.549999,  -61.810001,  -25.480000, 0.000000,  0.000000 
 75167744.000000, -12.983455 , 1.488336, 4.316652, 1088412672.000000, -61.180000,  -71.750000,  -14.420000, 0.000000,  0.000000 
 75186944.000000, -12.921242 , 0.258425, 4.053442, 1088432896.000000, -51.660000,  -93.099998,  2.800000, 0.000000,  0.000000 
 75207168.000000, -12.397215 , -0.177069, 4.017549, 1088452352.000000, -31.780001,  -124.599998,  24.500000, 0.000000,  0.000000 
 75227136.000000, -12.557532 , 0.150748, 3.687340, 1088472320.000000, 2.940000,  -150.500000,  45.220001, 0.000000,  0.000000 
 75247360.000000, -14.208582 , 0.701097, 3.517449, 1088492288.000000, 41.790001,  -167.089996,  61.180000, 0.000000,  0.000000 
 75267584.000000, -17.051254 , 1.579263, 3.302095, 1088512512.000000, 72.519997,  -168.210007,  73.989998, 0.000000,  0.000000 
 75287040.000000, -18.697515 , 2.024328, 2.467000, 1088532736.000000, 97.370003,  -168.419998,  84.419998, 0.000000,  0.000000 
 75307008.000000, -18.015562 , 2.222932, 0.868595, 1088552192.000000, 107.239998,  -188.089996,  95.970001, 0.000000,  0.000000 
 75326976.000000, -16.077375 , 1.866402, 0.122034, 1088572160.000000, 84.419998,  -217.630005,  100.379997, 0.000000,  0.000000 
 75347200.000000, -14.794822 , 2.086541, -0.224925, 1088592128.000000, 23.240000,  -237.369995,  87.639999, 0.000000,  0.000000 
 75367424.000000, -14.483756 , 1.521835, -0.473779, 1088612352.000000, -38.500000,  -249.410004,  63.560001, 0.000000,  0.000000 
 75386880.000000, -14.557933 , 0.758525, -0.016750, 1088632832.000000, -81.410004,  -254.100006,  32.270000, 0.000000,  0.000000 
 75406848.000000, -14.543575 , 0.052642, 0.200997, 1088652032.000000, -104.440002,  -257.390015,  5.950000, 0.000000,  0.000000 
 75426816.000000, -14.416756 , -0.246461, 0.763310, 1088672256.000000, -96.459999,  -262.709991,  -7.980000, 0.000000,  0.000000 
 75447296.000000, -13.909478 , -0.533599, 0.296710, 1088692224.000000, -67.970001,  -261.170013,  -7.840000, 0.000000,  0.000000 
 75467520.000000, -12.957134 , -0.811167, 0.050249, 1088712448.000000, -36.959999,  -259.910004,  4.200000, 0.000000,  0.000000 
 75486976.000000, -11.710474 , -0.672383, -0.253639, 1088732672.000000, -25.410000,  -256.130005,  13.930000, 0.000000,  0.000000 
 75506944.000000, -10.947165 , 0.751346, -1.239482, 1088752128.000000, -23.100000,  -246.470001,  22.889999, 0.000000,  0.000000 
 75526912.000000, -9.937392 , 2.548356, -2.143969, 1088772096.000000, -30.170000,  -228.130005,  26.530001, 0.000000,  0.000000 
 75547136.000000, -8.377272 , 2.299503, -2.285146, 1088792064.000000, -51.730000,  -206.919998,  29.469999, 0.000000,  0.000000 
 75567360.000000, -6.881758 , 1.170090, -1.765903, 1088812288.000000, -95.830002,  -186.899994,  18.059999, 0.000000,  0.000000 
 75586816.000000, -6.285945 , 0.796810, -0.390030, 1088832512.000000, -142.449997,  -158.690002,  -3.220000, 0.000000,  0.000000 
 75606784.000000, -7.049256 , 0.739382, 0.313460, 1088851968.000000, -160.649994,  -119.629997,  -17.010000, 0.000000,  0.000000 
 75626752.000000, -8.513663 , 1.232304, -0.612563, 1088871936.000000, -138.740005,  -76.370003,  -21.840000, 0.000000,  0.000000 
 75647232.000000, -8.721838 , 2.091327, -3.084348, 1088912384.000000, -44.730000,  -17.360001,  -10.500000, 3350495488.000000,  1005.605957 
 75667456.000000, -8.291130 , 2.146362, -3.507878, 0.000000, 0.000000,  0.000000,  0.000000, 0.000000,  0.000000 
 75686656.000000, -9.633504 , 1.708475, -1.076770, 1088932608.000000, -24.500000,  20.860001,  0.840000, 0.000000,  0.000000 
 75706880.000000, -10.571491 , 1.663012, 1.095913, 1088952064.000000, -22.680000,  85.330002,  4.620000, 0.000000,  0.000000 
 75726848.000000, -10.040283 , 1.435694, 0.780060, 1088972032.000000, -4.690000,  135.169998,  16.940001, 0.000000,  0.000000 
 75747072.000000, -9.793823 , 1.124627, -0.043071, 1088992000.000000, 32.619999,  167.229996,  36.119999, 0.000000,  0.000000 
 75769856.000000, -10.851451 , 0.873380, -0.485743, 1089012224.000000, 59.990002,  203.070007,  40.810001, 0.000000,  0.000000 
 75786752.000000, -12.662818 , 0.655633, -0.595813, 1089035264.000000, 80.150002,  242.130005,  36.820000, 0.000000,  0.000000 
 75806720.000000, -13.753943 , 0.452243, -0.602991, 1089051904.000000, 105.209999,  268.380005,  29.330000, 0.000000,  0.000000 
 75826688.000000, -13.557733 , 0.669990, -0.729811, 1089071872.000000, 134.119995,  267.399994,  22.469999, 0.000000,  0.000000 
 75846912.000000, -13.098311 , 0.971486, -1.124627, 1089091840.000000, 159.600006,  246.399994,  12.670000, 0.000000,  0.000000 
 75867392.000000, -13.162917 , 1.672583, -1.009771, 1089112320.000000, 169.050003,  233.660004,  1.190000, 0.000000,  0.000000 
 75886592.000000, -13.071990 , 2.163112, -0.562313, 1089132544.000000, 155.399994,  230.089996,  -14.420000, 0.000000,  0.000000 
 75906560.000000, -13.284950 , 2.280360, -0.011964, 1089151744.000000, 126.209999,  224.979996,  -27.510000, 0.000000,  0.000000 
 75926528.000000, -14.000405 , 2.057827, 0.504886, 1089171968.000000, 83.019997,  227.360001,  -39.830002, 0.000000,  0.000000 
 75947008.000000, -15.060425 , 1.526621, 1.186840, 1089191936.000000, 32.270000,  237.860001,  -49.349998, 0.000000,  0.000000 
 75967232.000000, -16.232908 , 1.392623, 2.117648, 1089212160.000000, -11.970000,  247.800003,  -52.430000, 0.000000,  0.000000 
 75986688.000000, -16.486549 , 1.718047, 2.976671, 1089232384.000000, -37.029999,  255.430008,  -49.279999, 0.000000,  0.000000 
 76006656.000000, -15.828522 , 2.048256, 3.201597, 1089251840.000000, -42.770000,  252.770004,  -38.290001, 0.000000,  0.000000 
 76026624.000000, -15.672989 , 2.036292, 3.483950, 1089271808.000000, -41.930000,  242.899994,  -29.750000, 0.000000,  0.000000 
 76046848.000000, -15.811772 , 2.371287, 4.673182, 1089291776.000000, -46.060001,  237.580002,  -27.719999, 0.000000,  0.000000 
 76067072.000000, -15.239887 , 2.833102, 5.881558, 1089312000.000000, -42.209999,  224.279999,  -25.059999, 0.000000,  0.000000 
 76086528.000000, -14.227723 , 3.194418, 6.869793, 1089332480.000000, -24.360001,  194.600006,  -23.030001, 0.000000,  0.000000 
 76106496.000000, -13.318451 , 3.644269, 6.860222, 1089351680.000000, 0.490000,  157.919998,  -25.270000, 0.000000,  0.000000 
 76126464.000000, -12.423534 , 4.424329, 6.156733, 1089371648.000000, 22.260000,  118.860001,  -27.860001, 0.000000,  0.000000 
 76146944.000000, -11.191232 , 4.936393, 5.912664, 1089391616.000000, 24.010000,  76.090004,  -30.309999, 0.000000,  0.000000 
 76167168.000000, -10.616954 , 5.474778, 6.352944, 1089412096.000000, 1.610000,  30.660000,  -34.580002, 0.000000,  0.000000 
 76186624.000000, -11.337193 , 5.314459, 6.908078, 1089432320.000000, -25.549999,  -2.450000,  -38.639999, 0.000000,  0.000000 
 76206592.000000, -14.687144 , 4.338188, 7.628319, 1089451776.000000, -40.740002,  -19.320000,  -28.980000, 0.000000,  0.000000 
 76226560.000000, -17.558533 , 2.703890, 6.374479, 1089471744.000000, -36.750000,  -23.520000,  -25.549999, 0.000000,  0.000000 
 76246784.000000, -16.261621 , 1.617548, 4.321437, 1089491712.000000, -16.240000,  -53.480000,  -4.970000, 0.000000,  0.000000 
 76267008.000000, -12.619746 , 1.505085, 3.424129, 1089511936.000000, 3.500000,  -115.639999,  29.540001, 0.000000,  0.000000 
 76286464.000000, -11.270195 , 1.538585, 2.900101, 1089532160.000000, 17.990000,  -172.059998,  53.830002, 0.000000,  0.000000 
 76306432.000000, -12.622139 , 1.272982, 2.354537, 1089551616.000000, 24.570000,  -191.309998,  52.290001, 0.000000,  0.000000 
 76326400.000000, -15.976876 , 1.280160, 2.244468, 1089571584.000000, 37.799999,  -191.520004,  38.360001, 0.000000,  0.000000 
 76346624.000000, -20.075783 , 2.380858, 1.392623, 1089591552.000000, 74.410004,  -187.740005,  31.710001, 0.000000,  0.000000 
 76367104.000000, -20.504097 , 2.268396, 0.138784, 1089612032.000000, 116.199997,  -197.680008,  42.700001, 0.000000,  0.000000 
 76386304.000000, -18.257236 , 2.335395, 0.413958, 1089632256.000000, 118.650002,  -239.190002,  63.910000, 0.000000,  0.000000 
 76406272.000000, -16.773687 , 3.254239, 0.057428, 1089651456.000000, 75.110001,  -277.339996,  80.290001, 0.000000,  0.000000 
 76426240.000000, -14.610575 , 1.540978, -0.933201, 1089671680.000000, 19.740000,  -291.200012,  84.419998, 0.000000,  0.000000 
 76446720.000000, -12.612568 , 0.449851, 1.794617, 1089691648.000000, -44.099998,  -295.750000,  70.980003, 0.000000,  0.000000 
 76466944.000000, -13.351951 , 1.751546, 4.156333, 1089711872.000000, -76.510002,  -290.570007,  40.529999, 0.000000,  0.000000 
 76486400.000000, -15.730415 , 1.533799, 2.816352, 1089732096.000000, -28.139999,  -263.269989,  31.219999, 0.000000,  0.000000 
 76506368.000000, -15.294923 , -0.301496, 1.057628, 1089751552.000000, 46.970001,  -232.119995,  40.110001, 0.000000,  0.000000 
 76526336.000000, -13.371094 , -1.490728, 0.552742, 1089771520.000000, 79.730003,  -228.690002,  60.130001, 0.000000,  0.000000 
 76546560.000000, -11.952149 , -0.449851, 0.026321, 1089791488.000000, 87.290001,  -224.350006,  91.559998, 0.000000,  0.000000 
 76566784.000000, -11.428121 , 1.521835, -1.107877, 1089811712.000000, 88.410004,  -205.029999,  123.129997, 0.000000,  0.000000 
 76586240.000000, -10.724631 , 2.344966, -2.632105, 1089832192.000000, 66.570000,  -186.339996,  140.770004, 0.000000,  0.000000 
 76606208.000000, -9.970891 , 1.557728, -3.287738, 1089851392.000000, 8.400000,  -175.559998,  141.750000, 0.000000,  0.000000 
 76626176.000000, -8.508877 , 1.162912, -2.825923, 1089871360.000000, -80.220001,  -157.009995,  122.989998, 0.000000,  0.000000 
 76646656.000000, -6.664011 , 1.349552, -2.833102, 1089891328.000000, -169.330002,  -154.210007,  94.010002, 0.000000,  0.000000 
 76666880.000000, -5.434100 , 1.115055, -2.014757, 1089911808.000000, -225.680008,  -152.250000,  62.230000, 3351494912.000000,  1005.609192 
 76686336.000000, -5.795416 , 0.449851, -1.579263, 1089932032.000000, -261.660004,  -132.789993,  24.360001, 0.000000,  0.000000 
 76706304.000000, -6.764510 , 0.081356, -2.675175, 1089951488.000000, -276.079987,  -95.690002,  -14.630000, 0.000000,  0.000000 
 76726272.000000, -6.891330 , 0.854238, -4.383651, 1089971456.000000, -259.209991,  -64.889999,  -38.150002, 0.000000,  0.000000 
 76746496.000000, -6.321837 , 0.378066, -2.818745, 1089991424.000000, -229.320007,  -35.000000,  -47.950001, 0.000000,  0.000000 
 76768768.000000, -8.236095 , -1.038485, -0.282353, 1090011648.000000, -202.089996,  8.890000,  -43.259998, 0.000000,  0.000000 
 76786176.000000, -11.133803 , -1.718047, 1.112662, 1090033920.000000, -189.139999,  81.129997,  -38.500000, 0.000000,  0.000000 
 76806144.000000, -11.298907 , 0.215354, 1.811367, 1090051328.000000, -138.669998,  115.709999,  -33.599998, 0.000000,  0.000000 
 76826112.000000, -10.205389 , 1.555335, 0.715454, 1090071296.000000, -46.759998,  156.100006,  -9.730000, 0.000000,  0.000000 
 76846592.000000, -11.377872 , 0.844666, -0.416351, 1090091264.000000, 57.330002,  169.330002,  28.770000, 0.000000,  0.000000 
 76866816.000000, -12.461821 , 0.083749, -0.725025, 1090111744.000000, 118.860001,  199.149994,  38.430000, 0.000000,  0.000000 
 76886016.000000, -14.002798 , -0.882952, -0.466600, 1090131968.000000, 124.040001,  242.970001,  31.430000, 0.000000,  0.000000 
 76905984.000000, -13.438091 , -0.552742, 0.035892, 1090151424.000000, 111.370003,  260.190002,  27.090000, 0.000000,  0.000000 
 76926208.000000, -12.576675 , 0.232104, 0.622134, 1090191360.000000, 91.489998,  257.529999,  22.330000, 0.000000,  0.000000 
 76946432.000000, -13.265808 , 0.605384, 1.074377, 0.000000, 0.000000,  0.000000,  0.000000, 0.000000,  0.000000 
 76966656.000000, -13.768302 , 0.485743, 1.435694, 1090211584.000000, 87.010002,  269.010010,  5.880000, 0.000000,  0.000000 
 76986112.000000, -14.210974 , 0.078963, 1.895115, 1090231808.000000, 106.750000,  274.260010,  -3.780000, 0.000000,  0.000000 
 77006080.000000, -15.086747 , -0.002393, 1.813759, 1090251264.000000, 136.080002,  275.170013,  -14.910000, 0.000000,  0.000000 
 77026048.000000, -15.972091 , 0.296710, 1.471586, 1090271232.000000, 154.070007,  278.529999,  -24.080000, 0.000000,  0.000000 
 77046272.000000, -16.503298 , 1.323231, 1.253839, 1090291200.000000, 166.039993,  276.079987,  -26.740000, 0.000000,  0.000000 
 77066496.000000, -17.096718 , 2.584249, 1.194018, 1090311424.000000, 168.490005,  265.160004,  -30.520000, 0.000000,  0.000000 
 77085952.000000, -18.056238 , 3.546163, 1.591227, 1090331904.000000, 129.220001,  256.339996,  -41.160000, 0.000000,  0.000000 
 77105920.000000, -18.506090 , 3.416951, 2.720639, 1090351104.000000, 41.439999,  257.390015,  -52.220001, 0.000000,  0.000000 
 77125888.000000, -18.539589 , 2.632105, 4.941179, 1090371072.000000, -52.990002,  256.269989,  -58.939999, 0.000000,  0.000000 
 77146368.000000, -18.439091 , 2.344966, 7.178468, 1090391296.000000, -103.110001,  246.610001,  -60.760002, 0.000000,  0.000000 
 77166592.000000, -16.788044 , 2.892922, 8.291130, 1090411520.000000, -84.629997,  228.410004,  -55.299999, 0.000000,  0.000000 
 77186048.000000, -14.498112 , 3.613162, 7.566105, 1090431744.000000, -11.550000,  186.899994,  -41.790001, 0.000000,  0.000000 
 77206016.000000, -12.875778 , 4.728218, 6.317052, 1090451200.000000, 70.000000,  129.009995,  -33.950001, 0.000000,  0.000000 
 77225984.000000, -12.038290 , 6.329016, 6.154340, 1090471168.000000, 95.900002,  75.459999,  -35.840000, 0.000000,  0.000000 
 77246208.000000, -11.136196 , 6.936793, 6.192625, 1090491136.000000, 59.990002,  37.240002,  -36.330002, 0.000000,  0.000000 
 77266432.000000, -12.136396 , 4.084548, 7.113862, 1090511360.000000, 10.780000,  1.820000,  -28.700001, 0.000000,  0.000000 
 77285888.000000, -13.818550 , 2.380858, 6.391229, 1090531584.000000, 3.710000,  0.350000,  -20.510000, 0.000000,  0.000000 
 77305856.000000, -12.150753 , 3.397808, 4.926822, 1090551040.000000, 91.980003,  -6.160000,  23.379999, 0.000000,  0.000000 
 77325824.000000, -9.590433 , 5.142176, 3.486342, 1090571008.000000, 176.750000,  -62.090000,  65.169998, 0.000000,  0.000000 
 77346304.000000, -9.442079 , 5.568098, 2.895315, 1090590976.000000, 189.070007,  -94.570000,  102.760002, 0.000000,  0.000000 
 77366528.000000, -12.440285 , 5.209175, 2.830709, 1090611456.000000, 152.389999,  -97.160004,  111.230003, 0.000000,  0.000000 
 77385728.000000, -16.259230 , 5.312066, 2.979064, 1090631680.000000, 109.620003,  -89.879997,  113.540001, 0.000000,  0.000000 
 77405952.000000, -18.281166 , 4.754539, 2.100898, 1090651136.000000, 79.660004,  -95.620003,  123.270004, 0.000000,  0.000000 
 77425920.000000, -17.170895 , 3.314059, 1.201197, 1090671104.000000, 46.130001,  -124.459999,  140.210007, 0.000000,  0.000000 
 77446144.000000, -16.051056 , 3.235096, 0.866202, 1090691072.000000, -4.270000,  -162.470001,  155.330002, 0.000000,  0.000000 
 77466368.000000, -14.897714 , 3.582055, 0.720240, 1090711296.000000, -48.299999,  -186.899994,  155.119995, 0.000000,  0.000000 
 77485824.000000, -14.065011 , 2.974278, 0.725025, 1090731520.000000, -78.540001,  -210.910004,  148.750000, 0.000000,  0.000000 
 77505792.000000, -14.617754 , 2.266003, 0.952343, 1090750976.000000, -100.870003,  -229.809998,  134.330002, 0.000000,  0.000000 
 77525760.000000, -15.543776 , 1.205983, 0.954736, 1090770944.000000, -119.559998,  -232.330002,  119.419998, 0.000000,  0.000000 
 77545984.000000, -16.304693 , -0.122034, 0.626920, 1090790912.000000, -130.830002,  -231.350006,  109.270004, 0.000000,  0.000000 
 77566208.000000, -16.680367 , -1.268196, 1.052842, 1090811392.000000, -130.619995,  -229.880005,  103.599998, 0.000000,  0.000000 
 77585664.000000, -15.814165 , -1.466800, 0.780060, 1090831616.000000, -103.459999,  -227.290009,  110.389999, 0.000000,  0.000000 
 77605632.000000, -14.775680 , -0.868595, 0.468993, 1090850816.000000, -39.200001,  -232.119995,  127.260002, 0.000000,  0.000000 
 77625600.000000, -14.189439 , -0.363709, 0.119641, 1090870784.000000, 13.860000,  -228.130005,  135.729996, 0.000000,  0.000000 
 77646080.000000, -13.548162 , 0.954736, -1.057628, 1090891008.000000, 42.840000,  -215.740005,  139.930008, 0.000000,  0.000000 
 77666304.000000, -12.294323 , 1.998007, -3.223132, 1090911232.000000, 40.459999,  -207.690002,  135.449997, 3352494336.000000,  1005.613098 
 77685760.000000, -9.705289 , 1.414158, -4.465007, 1090931456.000000, -7.700000,  -200.199997,  119.629997, 0.000000,  0.000000 
 77705728.000000, -7.525427 , 0.291924, -3.706482, 1090950912.000000, -87.360001,  -189.210007,  93.169998, 0.000000,  0.000000 
 77725696.000000, -6.874579 , 0.105284, -1.576870, 1090970880.000000, -147.419998,  -164.919998,  54.599998, 0.000000,  0.000000 
 77745920.000000, -7.424929 , 0.641276, -0.428315, 1090990848.000000, -151.339996,  -130.690002,  16.940001, 0.000000,  0.000000 
 77768192.000000, -7.231110 , 1.404587, -2.383251, 1091011072.000000, -97.370003,  -104.370003,  -7.700000, 0.000000,  0.000000 
 77785600.000000, -5.855237 , 1.371087, -3.201597, 1091033344.000000, -21.629999,  -82.949997,  -9.380000, 0.000000,  0.000000 
 77805568.000000, -6.183054 , 1.251446, -1.986043, 1091050752.000000, -2.170000,  -61.810001,  -19.530001, 0.000000,  0.000000 
 77825536.000000, -8.736196 , 1.794617, -0.112463, 1091070720.000000, -26.320000,  -6.020000,  -40.180000, 0.000000,  0.000000 
 77846016.000000, -9.925428 , 2.076970, 0.375673, 1091090688.000000, -28.070000,  56.209999,  -53.970001, 0.000000,  0.000000 
 77866240.000000, -9.312866 , 1.904687, 0.038285, 1091111168.000000, -3.220000,  91.489998,  -56.209999, 0.000000,  0.000000 
 77885440.000000, -9.001799 , 1.627119, -0.480957, 1091131392.000000, 17.500000,  115.010002,  -56.700001, 0.000000,  0.000000 
 77905664.000000, -9.822537 , 1.945365, -0.614955, 1091150848.000000, 24.780001,  138.740005,  -64.260002, 0.000000,  0.000000 
 77925632.000000, -11.066804 , 2.510071, -0.820738, 1091170816.000000, 20.860001,  166.529999,  -73.500000, 0.000000,  0.000000 
 77945856.000000, -11.557333 , 2.155933, -0.662812, 1091190784.000000, 15.050000,  185.710007,  -76.160004, 0.000000,  0.000000 
 77966080.000000, -11.246266 , 1.447658, -0.330210, 1091211008.000000, 5.460000,  188.930008,  -78.260002, 0.000000,  0.000000 
 77985536.000000, -11.011770 , 1.406980, 0.090927, 1091231232.000000, -4.340000,  186.059998,  -79.730003, 0.000000,  0.000000 
 78005504.000000, -11.052447 , 1.629512, 0.540778, 1091250688.000000, -16.940001,  189.979996,  -75.949997, 0.000000,  0.000000 
 78025472.000000, -11.126624 , 1.835295, 0.830309, 1091270656.000000, -27.160000,  198.309998,  -72.940002, 0.000000,  0.000000 
 78045696.000000, -11.964113 , 1.727618, 0.866202, 1091290624.000000, -29.049999,  206.710007,  -69.510002, 0.000000,  0.000000 
 78066176.000000, -13.301701 , 1.495514, 0.868595, 1091311104.000000, -27.860001,  221.830002,  -67.269997, 0.000000,  0.000000 
 78085376.000000, -14.579469 , 1.344766, 0.634098, 1091331328.000000, -30.450001,  240.660004,  -63.560001, 0.000000,  0.000000 
 78105344.000000, -15.792630 , 1.667797, 0.966700, 1091350528.000000, -33.670002,  258.369995,  -54.110001, 0.000000,  0.000000 
 78125312.000000, -16.711473 , 2.069792, 1.569692, 1091370752.000000, -40.670002,  273.209991,  -41.439999, 0.000000,  0.000000 
 78145792.000000, -17.053648 , 2.170290, 2.151148, 1091390720.000000, -55.790001,  283.920013,  -28.770000, 0.000000,  0.000000 
 78166016.000000, -17.455641 , 2.122434, 3.651447, 1091410944.000000, -80.779999,  287.980011,  -18.549999, 0.000000,  0.000000 
 78185472.000000, -17.960526 , 2.191825, 6.403193, 1091431168.000000, -98.840004,  289.660004,  -11.130000, 0.000000,  0.000000 
 78205440.000000, -17.864815 , 2.474179, 8.616554, 1091450624.000000, -81.129997,  281.260010,  -2.940000, 0.000000,  0.000000 
 78225408.000000, -16.240088 , 2.871387, 8.403593, 1091490560.000000, 79.940002,  192.570007,  2.800000, 0.000000,  0.000000 
 78245632.000000, -14.057834 , 3.900301, 6.809973, 0.000000, 0.000000,  0.000000,  0.000000, 0.000000,  0.000000 
 78265856.000000, -12.114861 , 4.890929, 5.113462, 1091510784.000000, 124.250000,  121.660004,  -6.720000, 0.000000,  0.000000 
 78285312.000000, -12.117253 , 5.802595, 4.981857, 1091531264.000000, 91.419998,  63.910000,  -22.120001, 0.000000,  0.000000 
 78305280.000000, -12.480963 , 5.938986, 5.388636, 1091550464.000000, 21.210001,  37.240002,  -38.290001, 0.000000,  0.000000 
 78325248.000000, -12.808779 , 4.565506, 6.422336, 1091570432.000000, -41.369999,  10.430000,  -38.920002, 0.000000,  0.000000 
 78345728.000000, -13.129417 , 3.158526, 6.518049, 1091590400.000000, -75.529999,  -14.420000,  -30.450001, 0.000000,  0.000000 
 78365952.000000, -11.889936 , 2.306681, 5.426922, 1091610880.000000, -73.570000,  -37.240002,  -14.210000, 0.000000,  0.000000 
 78385408.000000, -10.274779 , 1.624727, 4.532006, 1091631104.000000, -54.670002,  -75.110001,  6.930000, 0.000000,  0.000000 
 78405376.000000, -9.954143 , 1.115055, 4.103691, 1091650560.000000, -37.170002,  -109.690002,  18.969999, 0.000000,  0.000000 
 78425344.000000, -11.258230 , 0.839881, 3.751946, 1091690496.000000, -1.330000,  -138.180008,  18.760000, 0.000000,  0.000000 
 78445568.000000, -13.883157 , 0.835095, 3.510271, 0.000000, 0.000000,  0.000000,  0.000000, 0.000000,  0.000000 
 78465792.000000, -16.709082 , 1.526621, 2.371287, 1091710720.000000, 31.780001,  -145.740005,  15.470000, 0.000000,  0.000000 
 78485248.000000, -17.156538 , 1.634298, 1.088734, 1091730944.000000, 67.480003,  -162.820007,  19.879999, 0.000000,  0.000000 
 78505216.000000, -15.637095 , 2.153540, 0.839881, 1091750400.000000, 82.809998,  -199.430008,  27.860001, 0.000000,  0.000000 
 78525184.000000, -14.467006 , 3.005385, 0.167498, 1091770368.000000, 72.099998,  -236.250000,  32.340000, 0.000000,  0.000000 
 78545408.000000, -13.682159 , 2.691926, -0.265603, 1091790336.000000, 45.150002,  -255.639999,  29.469999, 0.000000,  0.000000 
 78565888.000000, -13.313664 , 1.854438, 0.014357, 1091810816.000000, -3.920000,  -263.619995,  13.860000, 0.000000,  0.000000 
 78585088.000000, -13.227524 , 1.895115, 0.672383, 1091831040.000000, -48.790001,  -266.350006,  -4.830000, 0.000000,  0.000000 
 78605056.000000, -13.038490 , 1.438086, 0.318245, 1091850496.000000, -70.699997,  -267.679993,  -15.820000, 0.000000,  0.000000 
 78625280.000000, -12.411572 , 0.122034, -0.002393, 1091870464.000000, -73.639999,  -266.559998,  -17.150000, 0.000000,  0.000000 
 78645504.000000, -11.547763 , -0.619741, 0.464208, 1091910656.000000, -63.700001,  -246.889999,  -8.330000, 3353493760.000000,  1005.613281 
 78665728.000000, -10.863414 , -0.538385, 0.784846, 0.000000, 0.000000,  0.000000,  0.000000, 0.000000,  0.000000 
 78685184.000000, -10.281959 , -0.145962, -0.540778, 1091930880.000000, -52.709999,  -231.070007,  4.690000, 0.000000,  0.000000 
 78705152.000000, -9.219545 , 1.409373, -2.871387, 1091950336.000000, -24.219999,  -224.279999,  10.290000, 0.000000,  0.000000 
 78725120.000000, -7.180861 , 1.660619, -3.369094, 1091970304.000000, -3.500000,  -206.009995,  18.200001, 0.000000,  0.000000 
 78745344.000000, -5.833702 , 0.844666, -2.402394, 1091990272.000000, -1.820000,  -186.690002,  31.570000, 0.000000,  0.000000 
 78767616.000000, -5.876772 , 0.378066, -1.751546, 1092010496.000000, -44.310001,  -164.710007,  28.490000, 0.000000,  0.000000 
 78785024.000000, -6.819544 , -0.031107, -0.861416, 1092032768.000000, -103.180000,  -115.639999,  11.060000, 0.000000,  0.000000 
 78804992.000000, -8.216952 , -0.033500, 0.189033, 1092050176.000000, -136.220001,  -61.880001,  0.700000, 0.000000,  0.000000 
 78824960.000000, -9.633504 , -0.179462, 1.339981, 1092070144.000000, -131.250000,  -20.580000,  -1.050000, 0.000000,  0.000000 
 78845440.000000, -10.791630 , -0.028714, 0.363709, 1092090368.000000, -94.150002,  13.580000,  5.040000, 0.000000,  0.000000 
 78865664.000000, -11.030912 , -0.078963, -2.045863, 1092110592.000000, -30.520000,  38.150002,  15.400000, 0.000000,  0.000000 
 78885120.000000, -11.373087 , 0.236889, -3.151347, 1092130816.000000, 31.780001,  57.400002,  27.580000, 0.000000,  0.000000 
 78905088.000000, -11.971292 , 0.143569, -2.014757, 1092150272.000000, 49.980000,  88.900002,  24.150000, 0.000000,  0.000000 
 78925056.000000, -13.607983 , 0.102891, -0.232104, 1092170240.000000, 44.380001,  122.570000,  19.320000, 0.000000,  0.000000 
 78945536.000000, -14.328221 , 1.091127, -0.258425, 1092190208.000000, 42.000000,  157.080002,  15.120000, 0.000000,  0.000000 
 78965504.000000, -12.351749 , 1.517050, -0.614955, 1092210688.000000, 53.480000,  176.399994,  15.540000, 0.000000,  0.000000 
 78984960.000000, -11.846866 , 0.997807, -0.693919, 1092230656.000000, 63.490002,  172.899994,  23.870001, 0.000000,  0.000000 
 79004928.000000, -13.873586 , 0.323031, -0.842274, 1092250112.000000, 53.410000,  185.500000,  12.880000, 0.000000,  0.000000 
 79024896.000000, -15.802199 , 0.478565, -0.966700, 1092270080.000000, 37.939999,  213.360001,  -0.210000, 0.000000,  0.000000 
 79045120.000000, -14.787644 , 1.495514, -0.600598, 1092290048.000000, 33.950001,  223.229996,  -5.530000, 0.000000,  0.000000 
 79065600.000000, -12.294323 , 1.878366, -0.181855, 1092310528.000000, 40.040001,  200.410004,  -0.420000, 0.000000,  0.000000 
 79084800.000000, -10.930414 , 1.607977, -0.014357, 1092330752.000000, 36.610001,  176.539993,  2.170000, 0.000000,  0.000000 
 79105024.000000, -11.030912 , 1.261017, 0.172283, 1092350208.000000, 12.600000,  175.490005,  -3.150000, 0.000000,  0.000000 
 79124992.000000, -11.868401 , 1.069592, 0.495314, 1092370176.000000, -32.900002,  192.710007,  -7.910000, 0.000000,  0.000000 
 79145216.000000, -12.387643 , 0.488136, 0.880559, 1092390144.000000, -83.019997,  208.880005,  -4.830000, 0.000000,  0.000000 
 79165440.000000, -12.935599 , -0.076570, 1.526621, 1092410368.000000, -114.800003,  213.990005,  2.520000, 0.000000,  0.000000 
 79184896.000000, -13.741980 , -0.122034, 2.376073, 1092430592.000000, -122.989998,  217.630005,  12.320000, 0.000000,  0.000000 
 79204864.000000, -13.983655 , 0.325424, 3.156133, 1092450048.000000, -110.040001,  223.649994,  26.740000, 0.000000,  0.000000 
 79224832.000000, -13.899906 , 0.789631, 3.732803, 1092470016.000000, -88.480003,  225.119995,  42.000000, 0.000000,  0.000000 
 79245056.000000, -14.289936 , 0.863809, 4.706682, 1092489984.000000, -70.559998,  223.300003,  53.130001, 0.000000,  0.000000 
 79265280.000000, -14.340185 , 0.677169, 5.742774, 1092510208.000000, -62.299999,  223.790009,  58.869999, 0.000000,  0.000000 
 79284736.000000, -13.512270 , 0.473779, 7.305287, 1092530688.000000, -55.230000,  211.889999,  60.900002, 0.000000,  0.000000 
 79304704.000000, -13.320844 , 0.160319, 9.415757, 1092549888.000000, -34.509998,  185.710007,  59.570000, 0.000000,  0.000000 
 79324672.000000, -12.777672 , 0.672383, 9.147761, 1092570112.000000, 7.140000,  154.490005,  51.520000, 0.000000,  0.000000 
 79345152.000000, -11.286944 , 2.359323, 7.252645, 1092590080.000000, 49.980000,  106.050003,  34.090000, 0.000000,  0.000000 
 79365376.000000, -10.626525 , 3.756732, 6.652047, 1092610304.000000, 66.709999,  45.779999,  13.720000, 0.000000,  0.000000 
 79384832.000000, -10.686346 , 3.637090, 5.955735, 1092630528.000000, 47.459999,  3.780000,  -5.530000, 0.000000,  0.000000 
 79404800.000000, -11.822936 , 2.254039, 6.058627, 1092649984.000000, 6.720000,  -27.440001,  -22.960001, 0.000000,  0.000000 
 79424768.000000, -13.107882 , 0.870987, 5.761917, 1092669952.000000, -30.660000,  -48.509998,  -32.340000, 0.000000,  0.000000 
 79444992.000000, -13.660624 , 0.260818, 4.692325, 1092689920.000000, -36.889999,  -73.570000,  -29.469999, 0.000000,  0.000000 
 79465216.000000, -13.462020 , 0.284746, 3.795017, 1092710144.000000, -17.780001,  -109.480003,  -20.580000, 0.000000,  0.000000 
 79484672.000000, -13.777873 , 0.512064, 3.692125, 1092730368.000000, 9.310000,  -145.740005,  -11.410000, 0.000000,  0.000000 
 79504640.000000, -14.885750 , 0.665205, 3.424129, 1092749824.000000, 32.410000,  -169.119995,  -8.540000, 0.000000,  0.000000 
 79524608.000000, -17.257038 , 0.459422, 2.785245, 1092769792.000000, 55.230000,  -183.119995,  -6.370000, 0.000000,  0.000000 
 79545088.000000, -19.884357 , 0.107677, 1.806581, 1092789760.000000, 83.090004,  -191.449997,  -7.350000, 0.000000,  0.000000 
 79565312.000000, -20.410778 , 0.026321, 0.720240, 1092810240.000000, 114.520004,  -202.860001,  -1.680000, 0.000000,  0.000000 
 79584512.000000, -18.953548 , 0.598206, -0.083749, 1092830464.000000, 139.089996,  -231.139999,  10.080000, 0.000000,  0.000000 
 79604736.000000, -17.249859 , 1.323231, -0.703490, 1092849920.000000, 144.339996,  -262.779999,  17.150000, 0.000000,  0.000000 
 79624704.000000, -15.768701 , 1.768296, -1.318445, 1092869888.000000, 124.669998,  -280.000000,  17.500000, 0.000000,  0.000000 
 79644928.000000, -14.543575 , 1.469193, -1.598405, 1092889856.000000, 83.510002,  -293.649994,  8.400000, 0.000000,  0.000000 
 79665152.000000, -13.895120 , 0.770489, -1.579263, 1092910080.000000, 31.080000,  -300.649994,  -8.330000, 3354493184.000000,  1005.614624 
 79684608.000000, -13.356737 , 0.112463, -0.985843, 1092930304.000000, -15.050000,  -297.220001,  -23.940001, 0.000000,  0.000000 
 79704576.000000, -12.832708 , -0.296710, -0.428315, 1092949760.000000, -43.820000,  -288.750000,  -32.130001, 0.000000,  0.000000 
 79724544.000000, -12.220145 , -0.875773, -0.301496, 1092969728.000000, -49.070000,  -278.670013,  -30.940001, 0.000000,  0.000000 
 79744768.000000, -11.150554 , -1.036092, -0.808774, 1092989696.000000, -42.980000,  -265.160004,  -21.350000, 0.000000,  0.000000 
 79767040.000000, -9.722038 , 0.382852, -2.227718, 1093010176.000000, -34.090000,  -251.509995,  -7.490000, 0.000000,  0.000000 
 79784448.000000, -7.764710 , 1.722832, -3.797409, 1093032192.000000, -21.139999,  -235.270004,  12.810000, 0.000000,  0.000000 
 79804416.000000, -6.168696 , 1.718047, -3.455236, 1093049600.000000, -24.780001,  -218.119995,  36.610001, 0.000000,  0.000000 
 79824384.000000, -6.357729 , 0.693919, -2.928815, 1093069824.000000, -79.449997,  -188.369995,  39.410000, 0.000000,  0.000000 
 79844864.000000, -7.123433 , 0.038285, -2.646462, 1093089792.000000, -151.690002,  -133.559998,  29.750000, 0.000000,  0.000000 
 79865088.000000, -6.764510 , -0.356531, -1.550549, 1093110016.000000, -205.449997,  -88.410004,  19.250000, 0.000000,  0.000000 
 79884544.000000, -6.951149 , -0.452243, -0.291924, 1093130240.000000, -220.009995,  -58.799999,  13.720000, 0.000000,  0.000000 
 79904512.000000, -8.030313 , -0.143569, -0.021535, 1093149696.000000, -193.339996,  -17.290001,  11.270000, 0.000000,  0.000000 
 79924480.000000, -8.575876 , -0.088534, -1.007378, 1093169664.000000, -123.059998,  24.990000,  14.280000, 0.000000,  0.000000 
 79944704.000000, -9.315259 , -0.200997, -1.284946, 1093189632.000000, -30.940001,  57.119999,  28.980000, 0.000000,  0.000000 
 79964928.000000, -10.906486 , -0.856631, -0.229711, 1093209856.000000, 38.290001,  104.720001,  39.130001, 0.000000,  0.000000 
 79984384.000000, -13.574483 , -0.813560, 1.091127, 1093249536.000000, 91.209999,  220.290009,  46.549999, 0.000000,  0.000000 
 80004352.000000, -14.670395 , -0.277567, 1.911865, 1093269504.000000, 108.500000,  248.290009,  54.880001, 0.000000,  0.000000 
 80024320.000000, -13.526627 , -0.267996, 1.749153, 0.000000, 0.000000,  0.000000,  0.000000, 0.000000,  0.000000 
 80044800.000000, -13.517055 , -0.610170, 1.328017, 1093289472.000000, 138.669998,  251.020004,  57.610001, 0.000000,  0.000000 
 80065024.000000, -14.342579 , -0.954736, 0.059821, 1093309952.000000, 171.639999,  248.779999,  47.250000, 0.000000,  0.000000 
 80084480.000000, -14.246865 , -0.055035, -0.760918, 1093330176.000000, 173.250000,  235.619995,  27.650000, 0.000000,  0.000000 
 80104448.000000, -13.239488 , 1.667797, -0.842274, 1093349632.000000, 139.649994,  207.759995,  7.630000, 0.000000,  0.000000 
 80124416.000000, -12.411572 , 2.478964, -0.196211, 1093369600.000000, 98.769997,  177.029999,  -8.610000, 0.000000,  0.000000 
 80144640.000000, -12.138789 , 1.990828, 0.519243, 1093389568.000000, 52.150002,  158.339996,  -31.710001, 0.000000,  0.000000 
 80164864.000000, -11.863614 , 1.615155, 1.050449, 1093409792.000000, 9.660000,  151.690002,  -52.430000, 0.000000,  0.000000 
 80184320.000000, -11.322837 , 1.184447, 1.564906, 1093430016.000000, -28.350000,  148.889999,  -60.549999, 0.000000,  0.000000 
 80204288.000000, -11.052447 , 0.373280, 1.895115, 1093449472.000000, -66.779999,  150.149994,  -54.880001, 0.000000,  0.000000 
 80224256.000000, -11.516656 , -0.258425, 2.084148, 1093469440.000000, -100.660004,  160.160004,  -42.209999, 0.000000,  0.000000 
 80244480.000000, -12.457035 , -0.177069, 2.069792, 1093489408.000000, -112.840004,  177.449997,  -23.590000, 0.000000,  0.000000 
 80264960.000000, -13.057633 , 0.200997, 2.175076, 1093509888.000000, -100.590004,  192.360001,  -0.840000, 0.000000,  0.000000 
 80284160.000000, -12.985848 , 0.217747, 2.902494, 1093530112.000000, -78.120003,  200.059998,  20.370001, 0.000000,  0.000000 
 80304128.000000, -13.490734 , 0.284746, 4.235296, 1093549568.000000, -62.160000,  204.399994,  36.189999, 0.000000,  0.000000 
 80324096.000000, -13.969299 , 0.440279, 5.601598, 1093569536.000000, -51.799999,  213.289993,  47.320000, 0.000000,  0.000000 
 80344576.000000, -14.021940 , 0.351745, 6.929615, 1093589504.000000, -37.730000,  213.080002,  54.670002, 0.000000,  0.000000 
 80364800.000000, -14.455042 , 0.392423, 8.054241, 1093609728.000000, -6.720000,  197.470001,  56.070000, 0.000000,  0.000000 
 80384256.000000, -14.737395 , 1.079163, 8.216952, 1093629952.000000, 44.310001,  173.880005,  51.240002, 0.000000,  0.000000 
 80404224.000000, -13.225130 , 2.411965, 6.467800, 1093669376.000000, 116.270004,  62.790001,  25.830000, 0.000000,  0.000000 
 80424192.000000, -11.777473 , 3.833302, 5.199604, 0.000000, 0.000000,  0.000000,  0.000000, 0.000000,  0.000000 
 80444416.000000, -11.382657 , 4.512863, 4.835894, 1093689344.000000, 77.209999,  9.100000,  4.270000, 0.000000,  0.000000 
 80464640.000000, -11.586047 , 3.273381, 4.972286, 1093709568.000000, 13.650000,  -19.320000,  -14.490000, 0.000000,  0.000000 
 80484096.000000, -13.201202 , 1.545763, 5.979663, 1093730048.000000, -43.470001,  -44.170002,  -31.920000, 0.000000,  0.000000 
 80504064.000000, -14.093725 , 0.507278, 5.747560, 1093749248.000000, -60.410000,  -56.840000,  -39.200001, 0.000000,  0.000000 
 80524032.000000, -13.375877 , 0.196211, 4.622933, 1093769216.000000, -28.350000,  -85.750000,  -27.580000, 0.000000,  0.000000 
 80544512.000000, -12.660425 , 0.327817, 3.694518, 1093789184.000000, 18.969999,  -126.419998,  -10.220000, 0.000000,  0.000000 
 80564736.000000, -12.957134 , 0.488136, 3.060420, 1093809664.000000, 55.510002,  -150.080002,  5.530000, 0.000000,  0.000000 
 80584192.000000, -14.548362 , 0.342174, 2.794817, 1093829888.000000, 69.510002,  -158.479996,  17.360001, 0.000000,  0.000000 
 80604160.000000, -17.242680 , 0.332602, 2.667997, 1093849344.000000, 89.110001,  -159.180008,  21.910000, 0.000000,  0.000000 
 80624128.000000, -18.752550 , 0.835095, 1.804188, 1093869312.000000, 105.629997,  -155.889999,  31.080000, 0.000000,  0.000000 
 80644352.000000, -17.453247 , 1.450050, 0.808774, 1093909504.000000, 125.790001,  -190.960007,  65.870003, 3355492608.000000,  1005.617676 
 80664576.000000, -16.314266 , 1.677369, 0.282353, 0.000000, 0.000000,  0.000000,  0.000000, 0.000000,  0.000000 
 80684032.000000, -14.598611 , 2.261217, -0.088534, 1093929728.000000, 101.080002,  -224.910004,  79.029999, 0.000000,  0.000000 
 80704000.000000, -13.837693 , 3.014957, -0.105284, 1093949184.000000, 44.310001,  -244.930008,  75.809998, 0.000000,  0.000000 
 80723968.000000, -13.610376 , 3.443272, -0.354138, 1093989120.000000, -104.790001,  -268.660004,  40.180000, 0.000000,  0.000000 
 80744192.000000, -13.514663 , 2.550749, -0.011964, 0.000000, 0.000000,  0.000000,  0.000000, 0.000000,  0.000000 
 80766464.000000, -13.167704 , 1.117448, 0.272782, 1094009600.000000, -172.619995,  -275.730011,  17.219999, 0.000000,  0.000000 
 80783872.000000, -12.698709 , -0.181855, 0.464208, 1094031616.000000, -211.960007,  -280.839996,  1.680000, 0.000000,  0.000000 
 80803840.000000, -12.354142 , -1.359123, 0.796810, 1094049280.000000, -220.080002,  -282.450012,  -6.860000, 0.000000,  0.000000 
 80824064.000000, -11.899508 , -2.086541, 0.751346, 1094069248.000000, -206.779999,  -273.559998,  -9.730000, 0.000000,  0.000000 
 80844288.000000, -10.841879 , -2.005185, 0.356531, 1094089216.000000, -170.380005,  -261.029999,  -5.530000, 0.000000,  0.000000 
 80864512.000000, -9.865608 , -1.131805, -0.610170, 1094109440.000000, -116.690002,  -252.490005,  -1.680000, 0.000000,  0.000000 
 80883968.000000, -9.262616 , 0.916451, -2.112862, 1094129664.000000, -68.389999,  -237.229996,  -1.190000, 0.000000,  0.000000 
 80903936.000000, -7.434500 , 1.531406, -2.500499, 1094149120.000000, -39.619999,  -208.110001,  0.490000, 0.000000,  0.000000 
 80923904.000000, -5.795416 , 0.961915, -1.514657, 1094169088.000000, -41.509998,  -186.130005,  1.050000, 0.000000,  0.000000 
 80944128.000000, -5.149354 , 0.062213, -0.126820, 1094189056.000000, -73.919998,  -148.960007,  -17.290001, 0.000000,  0.000000 
 80964352.000000, -6.331409 , -0.342174, 0.902094, 1094209280.000000, -92.610001,  -92.540001,  -24.290001, 0.000000,  0.000000 
 80983808.000000, -8.688338 , 0.114855, 0.368495, 1094229760.000000, -73.639999,  -30.660000,  -19.389999, 0.000000,  0.000000 
 81003776.000000, -9.343972 , 0.284746, -1.732404, 1094248960.000000, -22.330000,  17.920000,  -11.760000, 0.000000,  0.000000 
 81023744.000000, -9.023334 , 0.294317, -2.129612, 1094268928.000000, 30.520000,  46.549999,  5.320000, 0.000000,  0.000000 
 81044224.000000, -9.956534 , -0.045464, -1.060020, 1094289152.000000, 55.369999,  80.220001,  15.050000, 0.000000,  0.000000 
 81064448.000000, -11.504691 , -0.193819, -0.050249, 1094309376.000000, 58.799999,  129.080002,  16.170000, 0.000000,  0.000000 
 81083904.000000, -11.464014 , -0.040678, 0.179462, 1094329600.000000, 66.010002,  171.360001,  18.760000, 0.000000,  0.000000 
 81103872.000000, -10.470992 , -0.026321, 0.212961, 1094349056.000000, 91.349998,  189.419998,  27.299999, 0.000000,  0.000000 
 81123840.000000, -11.035697 , -0.069392, 0.064606, 1094369024.000000, 114.660004,  200.199997,  28.000000, 0.000000,  0.000000 
 81144064.000000, -12.894921 , 0.016750, 0.155533, 1094388992.000000, 121.520004,  223.860001,  18.200001, 0.000000,  0.000000 
 81164288.000000, -14.057834 , 0.165105, 0.442672, 1094409216.000000, 109.830002,  251.369995,  6.580000, 0.000000,  0.000000 
 81183744.000000, -13.631909 , 0.126820, 0.780060, 1094429440.000000, 92.330002,  262.149994,  -1.120000, 0.000000,  0.000000 
