time,seconds_elapsed,z,y,x
1633782542486692900,0.01769287109375,0.004987725284695625,0.14765549003183842,0.09263210646808147
1633782542506571800,0.03757177734375,0.1564174731582403,0.22485329600274562,0.042972880285978315
1633782542526451000,0.057450927734375,0.24426760604679584,0.2099795519977808,-0.03221358586251735
1633782542546328800,0.077328857421875,0.2818026791930198,0.21896949866116044,-0.0949991278603673
1633782542566208000,0.0972080078125,0.20309622222483156,0.1800111147135496,-0.04484510389864445
1633782542586086700,0.117086669921875,0.2698240721076727,0.21762802092432976,-0.025038287405669688
1633782542605965800,0.1369658203125,0.300030994322896,0.24799627118110656,0.029834581771492955
1633782542625843700,0.15684375,0.3607195640414953,0.20405659168958662,0.040192309656739235
1633782542645723000,0.176722900390625,0.19187690907418728,0.2627197930604219,0.07719634466618298
1633782542665602000,0.19660205078125,-0.051533203360438345,0.3559498654216528,0.20493483582884073
1633782542685481000,0.21648095703125,-0.2815741311341524,0.25909926447570325,0.46512394136786456
1633782542705359000,0.236359130859375,-0.46933016088604923,0.08845920469760894,0.21350772612392901
1633782542725239300,0.2562392578125,-0.6168365978360175,0.2750689870238304,0.03550064470916986
1633782542745118200,0.2761181640625,-0.7795528788775206,-0.1650526150345802,0.12276713249087333
1633782542764997000,0.2959970703125,-0.076457801258564,0.008265139520168304,0.12953019688501954
1633782542784875300,0.315875244140625,0.30363515629470345,0.63585518656075,-0.03274166485723108
1633782542804754200,0.335754150390625,0.7179132920444011,0.8093079656720161,-0.028548341353237628
1633782542824633000,0.355633056640625,0.7853267861038445,0.7859142306029796,-0.009004815438948571
1633782542844511200,0.37551123046875,0.6856541134744882,0.7831529491961002,0.041833062601089474
1633782542864390100,0.39539013671875,0.9487579374164342,0.7023831299573182,0.22295787417758256
1633782542884269300,0.415269287109375,0.7545663216590881,0.24529578005075453,0.08277078379765153
1633782542904148200,0.435148193359375,0.323136560100317,0.38258185175955295,0.18263415669351815
1633782542924026400,0.4550263671875,0.04266659081578254,0.8088140446752309,0.3734422674924135
1633782542943905000,0.474905029296875,0.16050620377659797,0.9242115251809359,0.5380733691792935
1633782542963784200,0.4947841796875,0.36144904735982414,0.7114677691668272,0.6279324307374656
1633782542983663000,0.5146630859375,0.2950771713078022,0.699819416949153,0.7143462472125888
1633782543003541200,0.534541259765625,0.35083997506201264,0.5269838929533958,0.6311893867067992
1633782543023420200,0.554420166015625,0.2977572041720152,0.4759118773639202,-0.06367649948820471
1633782543043299000,0.574299072265625,0.36085341955423356,0.7689712791085243,-0.614205226419121
1633782543063178200,0.59417822265625,-0.1091524486362934,1.218020283988118,-0.29294629675894973
1633782543083056000,0.61405615234375,-0.14610826058983803,0.9941384633660316,0.23868936752304434
1633782543102935300,0.633935302734375,0.07680559178292751,0.5996224281847476,0.1597173914864659
1633782543122814200,0.653814208984375,0.10951485220789908,0.04944938282370567,-0.30414748973101374
1633782543142692000,0.673692138671875,0.30737375830113883,-0.3134855191797018,-0.4805287235096097
1633782543162571300,0.6935712890625,0.6253758781224489,-0.5965303073883056,-0.35343963616639373
1633782543182450200,0.7134501953125,0.6292004048466682,-0.5920119531810283,-0.20236936925500632
1633782543202329000,0.7333291015625,-0.08922551289498805,-0.4035404686361551,-0.10078151065409183
1633782543222207200,0.753207275390625,-0.30352526617944237,-0.444074723598361,-0.1462654969781637
1633782543242086100,0.773086181640625,-0.5099976868391036,-0.6609586481571197,-0.18478066720291972
1633782543261965300,0.79296533203125,-0.507128853404522,-0.7876116821706295,-0.4108658430881798
1633782543281844200,0.81284423828125,-0.2978127337515354,-0.7981827605456113,-0.56128758296296
1633782543301722400,0.832722412109375,0.06838146230876445,-0.7827905456244945,-0.6051229252971708
1633782543321601300,0.852601318359375,0.2520990303248167,-0.9446732984513044,-0.7222443069860339
1633782543341480200,0.872480224609375,0.1273866089850664,-0.9912368967056274,-0.9262038680419326
1633782543361359000,0.892359130859375,-0.11328501839637756,-0.781407566833496,-0.9718870301999151
1633782543381237200,0.9122373046875,-0.3838128548592329,-0.513484652172029,-0.8054303935863077
1633782543401116200,0.9321162109375,-0.4781646247267723,-0.17526012079417705,-0.7242889645561575
1633782543420995300,0.951995361328125,-0.4588058442622423,0.15678776777535677,-0.6684646398730576
1633782543440874000,0.9718740234375,-0.35636546048521994,0.32066695511639115,-0.6856148043774069
1633782543460752100,0.991752197265625,-0.23248481379449365,0.30881226667165756,-0.7614683561325073
1633782543480631000,1.011631103515625,-0.19202479311227796,0.16797873161435126,-0.9242970115073025
1633782543500510200,1.03151025390625,-0.33784780701994893,0.14638766205310821,-0.8620812322214245
1633782543520389000,1.05138916015625,-0.3966863649576902,0.1880772245302796,-0.7675524983517825
1633782543540267300,1.071267333984375,-0.3828530699163675,0.18820026638805865,-0.7079230822972953
1633782543560146200,1.091146240234375,-0.33388241052031514,0.20210633440464734,-0.6254349148333073
1633782543580025000,1.111025146484375,-0.45846331443488597,-0.00948269861638546,-0.551261278989166
1633782543599903200,1.1309033203125,-0.5632534762084483,-0.19339783503115177,-0.5523723089709878
1633782543619782100,1.1507822265625,-0.3585147474735975,-0.3297986483380198,-0.606354366788268
1633782543639661300,1.170661376953125,-0.13325345519185067,-0.43602147326320406,-0.6116885674230754
1633782543659540200,1.190540283203125,-0.002520458388328552,-0.3810787537202239,-0.7065639227733016
1633782543679418000,1.210418212890625,0.06824117705523967,-0.29588293473273514,-0.7648059761226177
1633782543699297300,1.23029736328125,-0.07194003157317638,-0.08728314665555953,-0.6326029067665339
1633782543719176200,1.25017626953125,-0.4527420141786337,0.05083616100698709,-0.4903273562073707
1633782543739054000,1.27005419921875,-0.8264689438313245,0.020514672501385212,-0.3412297045432031
1633782543758932000,1.289931884765625,-0.9686585696727037,0.05666472102999687,-0.38112507707998156
1633782543778811000,1.309810791015625,-0.980633085104823,0.06970365082323551,-0.33946335245780646
1633782543798689800,1.329689697265625,-1.1185066013127565,0.09479834459125995,-0.054600335846096276
1633782543818568000,1.34956787109375,-0.7852297554701566,0.2860843020349741,0.0836833685979247
1633782543838446800,1.36944677734375,-0.27165479466617104,0.3515677048146725,0.16285788146927951
1633782543858326000,1.389325927734375,0.21671382868885994,0.4301239396572113,0.2827271005615592
1633782543878205200,1.409205078125,0.585194089859724,0.29662849240303035,0.1876307959370315
1633782543898083000,1.4290830078125,0.67115972417593,0.13462708163261414,0.20700418944880364
1633782543917961700,1.448961669921875,0.5890910972982645,-0.031032267123460768,0.253198808260262
1633782543937841000,1.4688408203125,0.581193622046709,0.01567921516895294,0.4161757860645652
1633782543957720000,1.488719970703125,0.549537085545063,0.13084113335311412,0.503461124677211
1633782543977598000,1.508597900390625,0.5673270092576742,0.1720984418928623,0.5420885231047868
1633782543997477000,1.52847705078125,0.486138087823987,0.18229717982411384,0.4479477656394243
1633782544017356000,1.54835595703125,0.3163175277352333,0.17793898461461066,0.3398161844834685
1633782544037235000,1.56823486328125,0.06720014356970787,0.14909516744613646,0.32912367168590423
1633782544057112800,1.58811279296875,-0.2011824975579977,0.15656301910877227,0.4390625945247709
1633782544076992000,1.607991943359375,-0.33261458254158494,0.210327927044034,0.5221585186235607
1633782544096871000,1.627870849609375,-0.26762743884623047,0.3615297113806009,0.5633157277897
1633782544116750000,1.64775,0.006987959191203117,0.44330841540098187,0.5740576326869428
1633782544136628000,1.6676279296875,0.2918506104767322,0.4983674548000097,0.496407699034363
1633782544156507100,1.687507080078125,0.6148176592290401,0.5178063147634268,0.366667658790946
1633782544176385800,1.7073857421875,0.6947019278049469,0.3703010468572378,0.2688303848952055
1633782544196264000,1.727263916015625,0.68990300309062,0.19831191055774688,0.26746245754286646
1633782544216142800,1.747142822265625,0.6097521925330162,-0.07614625109136104,0.19714652004018424
1633782544236022000,1.76702197265625,0.367978741389513,-0.27837504283189773,0.14558672093376515
1633782544255901000,1.78690087890625,0.11626666455566882,-0.4479729000806808,0.2153081996746361
1633782544275779000,1.806779052734375,-0.16456337021291256,-0.4645476027846336,0.2957121082104742
1633782544295658000,1.826657958984375,-0.41607495603859423,-0.35894846271574493,0.37012437511608004
1633782544315537000,1.846536865234375,-0.7594885804921389,-0.09893412922173737,0.6139928988426924
1633782544335415800,1.866415771484375,-0.8386246610492467,0.0560816604450345,0.7445582839943468
1633782544355294000,1.8862939453125,-0.6345090326488018,0.0959112742692232,0.7231183133415877
1633782544375172900,1.9061728515625,-0.18634148677885531,0.13631518085002897,0.6723753835760057
1633782544395052000,1.926052001953125,0.10093290182352066,0.15809855811297893,0.649351358602196
1633782544414931000,1.945930908203125,0.3020096009194851,0.16702186928093432,0.5754083166435361
1633782544434809000,1.96580908203125,0.46855450033843515,0.07779869447350501,0.499899048281461
1633782544454687700,1.985687744140625,0.5901444057434797,0.04821691841930151,0.40182957306504247
1633782544474567000,2.00556689453125,0.5892483336865901,0.09823124164938926,0.3359465034432709
1633782544494444800,2.02544482421875,0.3476554998070001,0.14330840073823928,0.2965793925642967
1633782544514324000,2.045323974609375,0.19941665692925453,0.14202362162470816,0.2919596238091588
1633782544534203100,2.065203125,0.28868367087841035,0.07997107007652521,0.13293795950189233
1633782544554081800,2.085081787109375,0.41628187678754325,-0.07885083387494086,-0.02812061746045947
1633782544573960200,2.104960205078125,0.2374456510722637,-0.1581286609902978,-0.10993073953241109
1633782544593838800,2.1248388671875,-0.1476899768233299,-0.07809037089645862,-0.03240457838997245
1633782544613718000,2.144718017578125,-0.4539180722206831,0.06551759731024503,0.10100289831981062
1633782544633597000,2.164596923828125,-0.631571225631237,0.13936989224553106,0.1229093174405396
1633782544653475000,2.18447509765625,-0.41087212669849393,0.13976415226012467,0.05325973489210009
1633782544673354000,2.20435400390625,-0.005993687456846237,0.013889116881787776,-0.08207900214120745
1633782544693233000,2.22423291015625,0.31568332148492334,-0.0928726372256875,-0.17802943937703966
1633782544713111800,2.24411181640625,0.429264692479372,-0.16158815379440783,-0.25445713775828477
1633782544732990200,2.263990234375,0.4897410807520151,-0.170773038507998,-0.29971199150159955
1633782544752869000,2.283869140625,0.46646834171414375,-0.11663900499939918,-0.3861030116230249
1633782544772748300,2.303748291015625,0.36710955733954903,0.0054375148788094515,-0.34577611580118534
1633782544792627500,2.32362744140625,0.22562837202847003,0.09932137497365474,-0.22487039326801894
1633782544812505300,2.34350537109375,0.06488309879899025,0.2656505858153105,0.005515110159665346
1633782544832384300,2.36338427734375,0.09423311192393302,0.37760114073753354,0.1195724281027913
1633782544852263200,2.38326318359375,0.20296704288721085,0.3639958092331886,0.12979001686498523
1633782544872141000,2.40314111328125,0.2961825022011995,0.2364139699369669,0.03478767413422465
1633782544892020200,2.423020263671875,0.2873182277441025,-0.021131050834059716,0.0746175802193582
1633782544911899400,2.4428994140625,0.2549567578434944,-0.38160979185700417,0.050045595151185986
1633782544931778300,2.4627783203125,0.016842413729429243,-0.8694225348949431,-0.06662526629120111
1633782544951656400,2.482656494140625,-0.4945628018200397,-1.2153536951273678,-0.11865925878062844
1633782544971535000,2.50253515625,-0.9390233098655939,-1.0846896719068289,0.10697349716201424
1633782544991414300,2.522414306640625,-1.1766945863872766,-0.6323012934714556,0.48253158776462074
1633782545011293200,2.542293212890625,-1.1433657327592373,-0.1537730961292982,0.8006316150024533
1633782545031171300,2.56217138671875,-0.7744090862482785,0.1428697170600295,0.9134439013205468
1633782545051050200,2.58205029296875,-0.17476736884117125,0.17875322360694407,0.8572196175344288
1633782545070929400,2.601929443359375,0.6520949582219123,-0.10660451771914958,0.48961321658864615
1633782545090807300,2.621807373046875,1.38883277772367,-0.4542410205647349,0.07213000118732452
1633782545110686200,2.641686279296875,1.7129530881643293,-0.7322323247760534,-0.19936463448107242
1633782545130565000,2.661565185546875,1.7710124784231185,-0.8296800148323178,-0.37120179508924483
1633782545150444300,2.6814443359375,1.607605292508006,-0.6474529776349663,-0.31538097753748295
1633782545170322200,2.701322265625,1.2753706491947174,-0.5118950448930263,-0.22581220416277645
1633782545190201300,2.721201416015625,0.5355231732398271,-0.45830695482939476,-0.3806090903818607
1633782545210080300,2.741080322265625,-0.39475978080928326,-0.3209431417092681,-0.41810587734431026
1633782545229959200,2.760959228515625,-1.2186065594434738,-0.16793372342884538,-0.21066928782761096
1633782545249837000,2.780837158203125,-1.6778513796448706,-0.10175181699097156,-0.06339592898115515
1633782545269716200,2.80071630859375,-1.5138444742709398,-0.030349253295361995,-0.009030643999949097
1633782545289595100,2.82059521484375,-0.9218483031809329,-0.07442980256229638,0.013239713062345981
1633782545309474300,2.840474365234375,-0.26663433615565296,-0.08715455183982848,0.03026990444883704
1633782545329352200,2.860352294921875,0.2634258955031633,-0.09459083932042121,0.019825813454389572
1633782545349231400,2.8802314453125,0.5145908598482608,-0.10885141986310481,0.05459829001948237
1633782545369110300,2.9001103515625,0.5779711528688669,-0.1457955413788557,0.1195022124107927
1633782545388988200,2.91998828125,0.5537152480125427,-0.12910919499397278,0.1653130195364356
1633782545408867300,2.939867431640625,0.4286673111081123,0.044109190839529036,0.2586702254086733
1633782545428746200,2.959746337890625,0.1964759273022413,0.2229460010766983,0.38153811486028133
1633782545448625400,2.97962548828125,0.16446400149166582,0.380920056027174,0.5061209184709936
1633782545468503300,2.99950341796875,0.36112113057970996,0.4021984063774347,0.49443479152619835
1633782545488382500,3.019382568359375,0.5546031367629766,0.2898427777856588,0.4348791713602841
1633782545508261000,3.03926123046875,0.6061421853423118,0.13469137904047965,0.4538001449294388
1633782545528140300,3.059140380859375,0.48393560934364793,-0.07796703677773476,0.412908600962162
1633782545548018200,3.07901806640625,0.27020459585785866,-0.20937106471061706,0.32528044026121494
1633782545567897300,3.0988974609375,0.0781476540416479,-0.2949702038019895,0.2783580186318606
1633782545587776300,3.1187763671875,-0.01308335345685482,-0.2686822085961699,0.21962036378532646
1633782545607654400,3.138654296875,-0.025342531049251556,-0.21944471495747564,0.1396542621448636
1633782545627533300,3.158533203125,-0.06892915931940079,-0.1335737731873989,0.08587021111771463
1633782545647412200,3.178412109375,-0.02888940987586975,-0.0719610743612051,0.01487666661441326
1633782545667291100,3.198291015625,0.07255553312301635,-0.11339461625069379,-0.09303966435566544
1633782545687169300,3.218169189453125,0.023747370812296865,-0.22897417532503603,-0.2952047432102263
1633782545707048200,3.238048095703125,-0.015880290699005126,-0.3122022013708949,-0.3860476281739771
1633782545726927400,3.25792724609375,-0.1306289519071579,-0.31278935360908505,-0.3971704952128231
1633782545746806800,3.277806884765625,-0.2172299615174532,-0.2525783382743597,-0.3963670698754489
1633782545766685000,3.297684814453125,-0.30707857474684713,-0.09693594114184378,-0.3929235052928328
1633782545786563800,3.317563720703125,-0.19278934774398804,0.10959902336001395,-0.3340852396160364
1633782545806443000,3.337443115234375,-0.0813245305120945,0.1894090576559305,-0.4119140369668603
1633782545826322000,3.357322021484375,0.07754150484204292,0.33655309103429315,-0.3462337964408099
1633782545846200000,3.377199951171875,0.24348668480217456,0.3143734079301357,-0.3833879074454307
1633782545866079000,3.397078857421875,0.3235848883897066,0.318460969504714,-0.31777021076157685
1633782545885958000,3.4169580078125,0.39776246975660323,0.2891425205618143,-0.2406470774620771
1633782545905835800,3.436835693359375,0.349392114341259,0.15956892292648553,-0.21221505596488713
1633782545925715000,3.45671484375,0.21478607549667358,0.04627718252837658,-0.15522124911099672
1633782545945593900,3.47659375,0.04307458709478378,-0.01637070456445217,-0.10509031376391649
1633782545965473000,3.49647314453125,-0.09956628964543342,0.0030880291432142256,0.01821165625602007
1633782545985351000,3.516350830078125,-0.1697504174619913,0.06293167247027158,0.09644757310301065
1633782546005229800,3.536229736328125,-0.18760288501679898,0.10499708252251147,0.13062792899385095
1633782546025109000,3.55610888671875,-0.05411328298151493,0.09935761533081532,0.13638576186820864
1633782546044988000,3.57598779296875,0.03226677735447883,0.018027824121713637,0.10442731981053947
1633782546064866000,3.595865966796875,0.010047346761822699,-0.07148761163055896,0.11111322731524705
1633782546084745000,3.615744873046875,-0.01833703620135784,-0.11663140621483326,0.10323138802424073
1633782546104624000,3.6356240234375,-0.05124854120016098,-0.11109832200706005,0.10333850166052579
1633782546124502800,3.655502685546875,-0.04954875154495239,-0.02083352919220924,0.15564590426385402
1633782546144381000,3.675380859375,0.00514087001979351,0.05026420633792877,0.21351693234369157
1633782546164259800,3.695259765625,0.07597498617768288,0.07481324892193078,0.24551103023663162
1633782546184139000,3.715138916015625,0.20156828200519084,0.03855097219049931,0.309501417979598
1633782546204017000,3.735016845703125,0.21581541854441164,-0.05955693534016609,0.2923734653070569
1633782546223896000,3.75489599609375,0.1193874269247055,-0.180873869022727,0.20458251525983212
1633782546243775000,3.77477490234375,0.013519991308450698,-0.2251090243294835,0.2183151264056563
1633782546263654000,3.79465380859375,-0.009074702337384223,-0.2688739317759871,0.2097561185054481
1633782546283532000,3.814531982421875,0.04954349084794521,-0.25730916618853805,0.06848039263859391
1633782546303411000,3.834410888671875,0.08621931681632995,-0.13398323077112437,-0.0223920106805861
1633782546323289900,3.854289794921875,0.018007365855574605,0.004434767577052116,-0.00965323287770152
1633782546343169000,3.8741689453125,0.00487725064754486,0.036141572961211205,-0.09694310153499246
1633782546363047000,3.894046875,0.03406476668715477,-0.0319762699753046,-0.23898637770824133
1633782546382926000,3.913926025390625,-0.007754851910471916,-0.09687164373397826,-0.3542831012532115
1633782546402804700,3.9338046875,-0.14963760375976562,-0.0855506237745285,-0.31928090758547184
1633782546422683000,3.953682861328125,-0.26774200513660906,-0.04835048167109489,-0.31556466354131696
1633782546442561800,3.973561767578125,-0.38830549010336396,-0.035113983479142186,-0.2708199512772262
1633782546462441000,3.99344091796875,-0.36702480166554446,-0.028172786039113995,-0.22504136592075227
1633782546482320000,4.01331982421875,-0.2894873884767294,-0.014282207852602005,-0.15609781274981796
1633782546502198000,4.033197998046875,-0.20929390782117843,-0.017704583516716957,-0.07312471131309867
1633782546522077000,4.053076904296875,-0.1828261721342802,0.007601999436318874,-0.012439575660601257
1633782546541955800,4.072955810546875,-0.07078384727537632,0.0490951625585556,0.038704701447486875
1633782546561835000,4.0928349609375,0.007469605228304863,0.041569443228840826,0.054701750393956895
1633782546581713000,4.112712890625,0.09404314230978489,0.07226911739706993,0.11677651377394795
1633782546601592000,4.132592041015625,0.12781915518343448,0.0654033232808113,0.15484167520888148
1633782546621471000,4.152470947265625,0.1015671080738306,0.06129910283237695,0.17287790183275936
1633782546641350100,4.17235009765625,0.06056991177499294,0.0379082903727889,0.22112813799977302
1633782546661228000,4.19222802734375,0.048342298364639276,0.01518997034728527,0.23425270024985073
1633782546681107000,4.21210693359375,0.12883271614015102,0.09134265117943287,0.27832112068757414
1633782546700985900,4.23198583984375,0.24528292056918144,0.15742635793983936,0.30003669341132044
1633782546720864000,4.251864013671875,0.31455110258460045,0.15085107120275495,0.2559608203195035
1633782546740742400,4.271742431640625,0.3677098613202572,0.14813245989382265,0.1552009369753301
1633782546760621600,4.29162158203125,0.30336510718166826,0.1145376488059759,0.12438282405920326
1633782546780500500,4.31150048828125,0.26976503539681435,0.14935703325271604,0.17195567242130635
1633782546800378600,4.331378662109375,0.18634499391019343,0.0473000958353281,0.09724836809188127
1633782546820257500,4.351257568359375,0.12163432906866073,-0.03705488841384649,-0.009939210212230681
1633782546840136400,4.371136474609375,0.05507365244626999,-0.07343611534982919,-0.059798123684898015
1633782546860014300,4.391014404296875,0.01726560757756233,-0.03645663025975227,-0.09771686238646507
1633782546879893500,4.4108935546875,0.03341886999905109,0.04742167638838291,-0.1126088727004826
1633782546899772400,4.4307724609375,-0.017315876460075378,0.08712824835479259,-0.15594459494948387
1633782546919651600,4.450651611328125,-0.1103121400654316,0.061439680346846576,-0.1398554838053882
1633782546939529500,4.470529541015625,-0.1745657087892294,-0.012115385207533835,-0.13813772010207176
1633782546959408600,4.49040869140625,-0.08373685235083103,-0.07627659947276115,-0.17966683132052422
1633782546979287300,4.510287353515625,-0.025133856734633444,-0.12579992431551218,-0.2001731743849814
1633782546999166500,4.53016650390625,0.06377893694937228,-0.08479103757888078,-0.18851897694841027
1633782547019044400,4.55004443359375,0.0537789364606142,0.002087327668070793,-0.17209551928341388
1633782547038923500,4.569923583984375,-0.028097967237234112,0.10873510000705719,-0.06195603237114846
1633782547058802700,4.589802734375,-0.1623486167728901,0.11622983967661857,-0.006531155334413051
1633782547078681300,4.609681396484375,-0.11699790143966673,0.05669219355881214,0.004846709378808736
1633782547098559500,4.6295595703125,-0.01156535010933876,-0.05252981318235397,-0.06632321460470557
1633782547118438400,4.6494384765625,0.14106149859428405,-0.0915846432417631,-0.08736454132869839
1633782547138317600,4.669317626953125,0.13326573015153406,-0.08292612048983573,-0.0774461547087878
1633782547158195500,4.689195556640625,0.16252046620845795,0.001994388687610626,-0.06092237847447395
1633782547178074600,4.70907470703125,0.06764204211831093,0.08041618349552154,-0.04508285817727446
1633782547197953500,4.72895361328125,0.025118074643611907,0.14416618661135433,-0.014078355843573807
1633782547217832400,4.74883251953125,-0.013590718457102774,0.1396940096333623,-0.004133884934335947
1633782547237710600,4.768710693359375,-0.06717500912845134,0.05478899028599262,-0.025316227564215657
1633782547257589500,4.788589599609375,-0.09134031309187411,0.058287061534821986,-0.040334494606405494
1633782547277468400,4.808468505859375,0.03772212015092373,0.15849457169324158,-0.00809964676015079
1633782547297346600,4.8283466796875,0.1499000540882349,0.19068857607245443,-0.04281593615859747
1633782547317225500,4.8482255859375,0.18070961837172508,0.1692185025423765,-0.04980798700302839
1633782547337104600,4.868104736328125,0.11387012480795383,0.10098141714036464,-0.09127776924967765
1633782547356983300,4.8879833984375,-0.04703706098496914,0.07245207274854183,-0.04281023707017302
1633782547376861700,4.90786181640625,-0.2315980940878391,0.043621115061640736,-0.01367372056543827
1633782547396740400,4.927740234375,-0.2219651733458042,0.10672843635976315,0.039636867731064555
1633782547416619500,4.94761962890625,-0.07996376355290412,0.14229425525963305,0.04332753894254565
1633782547436498400,4.96749853515625,0.0688105013757944,0.11082651932835579,0.028820436292886734
1633782547456376600,4.98737646484375,0.00943126069009304,0.028811083942651746,0.028015403520315885
1633782547476255500,5.00725537109375,-0.0488204372704029,-0.005697042597830295,0.031224720955640075
1633782547496134400,5.027134521484375,-0.06916121450960636,0.053419455498456954,0.08698328692615032
1633782547516013300,5.047013427734375,-0.020149638581275938,0.06827011088877916,0.1268918112054467
1633782547535891500,5.066891357421875,0.051956981730461115,0.04049100034236908,0.13738412525579333
1633782547555770400,5.086770263671875,0.10240122081041335,0.013503040173649786,0.13666735528856516
1633782547575649500,5.1066494140625,0.15125731391608715,0.04387976599782705,0.1673247977502644
1633782547595527400,5.12652734375,0.1471504631191492,0.014388883097469806,0.14220263145342468
1633782547615406600,5.146406494140625,-0.028884733700752258,-0.01500438464730978,0.11040032980553806
1633782547635285500,5.166285400390625,-0.0656733723938465,0.055367374695837496,0.17068053791895507
1633782547655164400,5.186164306640625,-0.062145198267698286,0.11142653104811906,0.21394268347509204
1633782547675042300,5.206042236328125,-0.013916297149658202,0.10019085128456354,0.2102420753914863
1633782547694921500,5.22592138671875,-0.010302782827615738,0.03410743678510189,0.1705139491803944
1633782547714800600,5.245800537109375,-0.0034340661019086837,-0.014837211386859415,0.19261990946121513
1633782547734679000,5.265678955078125,0.042075639185309405,-0.017230536264181136,0.2293196277618408
1633782547754557000,5.285556884765625,0.05273439584374427,0.03721095575839281,0.22168211862072348
1633782547774436000,5.30543603515625,0.07592705538272858,0.08216507298946381,0.23685528396368025
1633782547794314800,5.325314697265625,0.10954407830238341,0.09366086499392985,0.245759305909276
1633782547814193000,5.34519287109375,0.16782091070413588,0.012883739231526851,0.2051594383649528
1633782547834071800,5.36507177734375,0.2454284665197134,-0.021912556600570676,0.15776494224444032
1633782547853951000,5.384950927734375,0.2519464701116085,-0.04684416876137256,0.13828107409551738
1633782547873830000,5.404829833984375,0.18925006770193575,-0.04595744905471801,0.17527663353756068
1633782547893708000,5.4247080078125,0.037405893808603284,-0.10458996302634477,0.11965528408065437
1633782547913587000,5.4445869140625,-0.04646598309874534,-0.08632102362513541,0.14132760218456386
1633782547933465900,5.4644658203125,-0.012809212690591812,-0.08574351599812507,0.08646700796708465
1633782547953343700,5.48434375,0.055521980735659594,-0.11568564979732036,0.023187983363866804
1633782547973223000,5.504222900390625,0.061923079949617384,-0.19095277996659277,-0.03881079217046499
1633782547993101800,5.524101806640625,0.0743400784522295,-0.16017185725569724,-0.06415259256735444
1633782548012981000,5.54398095703125,0.18065876496732233,-0.11483400140404701,-0.10639072883799672
1633782548032859000,5.56385888671875,0.2925532057881355,-0.061896776464581485,-0.15976839102134108
1633782548052738000,5.583738037109375,0.2561924371182918,-0.07309037065207957,-0.18358488154709338
1633782548072617000,5.603616943359375,0.16243161888122556,-0.029936873102188108,-0.1864392480649054
1633782548092496000,5.623495849609375,0.0630120442301035,0.00971270797997713,-0.1803533522799611
1633782548112374000,5.6433740234375,-0.010162497574090957,0.05276216063350439,-0.15419059088900686
1633782548132253000,5.6632529296875,-0.03590250350832939,0.05265373182296752,-0.16684724336639045
1633782548152132000,5.683132080078125,-0.08188508700430393,0.02005903768837452,-0.15118191059231756
1633782548172010000,5.703010009765625,-0.04995031808316707,0.0197767136156559,-0.18633783351704478
1633782548191889200,5.72288916015625,-0.017465514063835143,0.019036124381422995,-0.2010381206512451
1633782548211767800,5.742767822265625,-0.14985036972761154,0.005111059403419494,-0.13762041822969912
1633782548231647000,5.76264697265625,-0.20465572662651538,-0.03026712796986103,-0.1417868902593851
1633782548251524900,5.78252490234375,-0.24207038826346397,-0.08150310194939374,-0.08740414268672465
1633782548271404000,5.802404052734375,-0.20340134265124796,-0.08797814318239688,-0.03285334507077932
1633782548291283000,5.822282958984375,-0.0437403575271368,-0.09082797965556383,-0.006647767451405525
1633782548311162000,5.842162109375,0.11469196258485316,-0.11580781487226485,0.011564619456976651
1633782548331040000,5.8620400390625,0.2759831792593002,-0.14348025017380714,-0.031837884417921306
1633782548350919000,5.8819189453125,0.3063467533409595,-0.20862638382315635,-0.11079495514631271
1633782548370797800,5.9017978515625,0.24547931992411612,-0.1507756678789854,-0.10268149905651808
1633782548390676000,5.921676025390625,0.1954962686151266,-0.042947745844721795,-0.03146379040852189
1633782548410555000,5.941554931640625,0.13858663291335105,-0.04090191923081875,-0.09533420503363013
1633782548430434000,5.96143408203125,0.09166004656553269,-0.022270868518948553,-0.1254822366684675
1633782548450313000,5.98131298828125,0.13061258529424666,0.04574380630403757,-0.11180318234078586
1633782548470191000,6.001191162109375,0.040216859576106066,0.046536125725507735,-0.13083470361232757
1633782548490069800,6.02106982421875,-0.046667643150687214,0.054254445017874235,-0.13136844516284762
1633782548509949000,6.040948974609375,-0.08211305054128169,0.05194441450983286,-0.10655636772848665
1633782548529827800,6.060827880859375,-0.006453121662139892,0.025948095726966856,-0.06337561684548855
1633782548549706000,6.0807060546875,0.062083238947391504,-0.04909136316627264,-0.0851428466912359
1633782548569585000,6.1005849609375,0.0032446810096502304,-0.1200125730857253,-0.09021065147481858
1633782548589464000,6.120464111328125,-0.047862405893206596,-0.0824114489659667,-0.018069544371590016
1633782548609342000,6.140342041015625,-0.11942366728186607,-0.0518684266641736,0.0619630466338247
1633782548629220900,6.160220947265625,-0.16584873384833335,-0.04075841910690069,0.13742628389708697
1633782548649100000,6.18010009765625,-0.16816227148771284,-0.10851064360141753,0.13129428394809364
1633782548668979000,6.19997900390625,-0.1140460658967495,-0.17332681464403868,0.07420527309142053
1633782548688856800,6.21985693359375,-0.04219721973836422,-0.1548749198913574,0.07023585800379514
1633782548708736000,6.239736083984375,0.06413607982397079,-0.06330664326250553,0.06954670669585467
1633782548728615200,6.259615234375,0.08053250335156917,-0.006563304038345813,0.04559380337409675
1633782548748494300,6.279494384765625,0.15078092857599257,0.06726531776040792,-0.017231339981779455
1633782548768372200,6.299372314453125,0.20075170492529867,0.15179887344688175,-0.061442018434405325
1633782548788251400,6.31925146484375,0.2618178757846355,0.24237463190704583,-0.07833835430815815
1633782548808130300,6.33913037109375,0.25433658011853694,0.2830672923013568,-0.1274783789217472
1633782548828008400,6.359008544921875,0.18660101449787617,0.325728914681077,-0.1516572730191052
1633782548847887400,6.378887451171875,0.06063654727041721,0.3170101861745119,-0.18009528586566448
1633782548867766300,6.398766357421875,-0.020937574088573455,0.3320633783996105,-0.1498521232932806
1633782548887645200,6.418645263671875,-0.08132277694642544,0.2778612480908632,-0.13642273287773132
1633782548907523300,6.4385234375,-0.09076046737730503,0.20951193448603153,-0.1321600339319557
1633782548927402200,6.45840234375,-0.1153963114619255,0.1424403857320547,-0.05437807139754295
1633782548947281400,6.478281494140625,-0.09720657477676868,0.08773352077156304,0.01442373521514237
1633782548967159300,6.4981591796875,-0.08039280261993408,0.0019505495458841324,0.05148965647965669
1633782548987038500,6.51803857421875,-0.03766191439628601,-0.06835252847522497,0.07508855873197316
1633782549006917000,6.537917236328125,0.005730652606487274,-0.13661533284038305,0.08147000339739024
1633782549026796300,6.55779638671875,0.04446458014845848,-0.09671762221604585,0.1131665065832436
1633782549046674200,6.577674072265625,0.08014847247004508,-0.033381168337166305,0.20735928649678825
1633782549066553300,6.59755322265625,0.12890110520124434,-0.05133855757117271,0.1756384525872767
1633782549086432300,6.617432373046875,0.12651917850077152,-0.12026420975923538,0.13657017852440476
1633782549106310400,6.637310302734375,0.05086626388430595,-0.08194120110571385,0.15395108304470775
1633782549126189300,6.657189208984375,0.011055062499642372,0.03636427580118179,0.21781433727666735
1633782549146068200,6.677068115234375,-0.030483401069045065,0.15813158359974622,0.20174122741930187
1633782549165947400,6.696947509765625,0.05152151292264461,0.22161972090899942,0.1726674739524722
1633782549185825300,6.7168251953125,0.16206570817828178,0.1598860260516405,0.026344547698646782
1633782549205704200,6.7367041015625,0.32730420117378234,0.1295651220679283,-0.0219376910418272
1633782549225583400,6.756583251953125,0.41322891895771025,0.0675473495721817,0.06747603790163993
1633782549245462500,6.776462646484375,0.4227116175740957,-0.07369827341735363,0.11637421658337116
1633782549265340400,6.79634033203125,0.25192250471413136,-0.24252806890308856,0.22684932865817098
1633782549285219300,6.81621923828125,-0.050392801153659815,-0.5356131896108388,0.3832509831927717
1633782549305098200,6.83609814453125,-0.37722295507490633,-0.8623743699491023,0.3364980363788083
1633782549324976000,6.85597607421875,-0.4710965860366821,-1.0677852988570928,0.31784239921495316
1633782549344855300,6.875855224609375,-0.4741115499436855,-1.2150263628691433,0.28124899083301425
1633782549364734500,6.895734375,-0.5371013823419809,-1.2017980479836463,0.14345658617042936
1633782549384613400,6.91561328125,-0.4634767586827278,-0.9936614935040473,-0.10037614472359419
1633782549404491500,6.935491455078125,-0.23286942919790743,-0.9921879138201475,-0.22504443466067311
1633782549424370200,6.9553701171875,0.31689912701547146,-0.6758551885157823,-0.1108367484614253
1633782549444249300,6.975249267578125,0.3982248265713453,-0.06118892045617103,-0.25358254688084125
1633782549464128300,6.995128173828125,0.3281803994864225,0.41214872250556944,-0.2636499135173857
1633782549484006400,7.01500634765625,0.018897592693567274,0.6629524523228406,-0.15192410726174713
1633782549503885300,7.03488525390625,0.007196633505821228,0.6060638594090938,0.0029373686261475085
1633782549523764500,7.054764404296875,0.11564882491827011,0.576607463300228,-0.024133593650907278
1633782549543642400,7.074642333984375,-0.08588613933920859,0.5891898814976215,-0.05033347218185663
1633782549563521300,7.094521240234375,-0.24011399349868295,0.6459066249758004,-0.09939312503561377
1633782549583400200,7.114400146484375,-0.3039291708052158,0.8938906211972236,-0.020015344677120447
1633782549603279400,7.134279296875,-0.20586685598194598,1.0849901161581277,0.09783420515581964
1633782549623157200,7.1541572265625,-0.07858078476190566,1.0205313802510498,0.012724018625169992
1633782549643036400,7.174036376953125,0.22945991301536559,0.796864663684368,-0.09556304535344243
1633782549662915300,7.193915283203125,0.46419338251948356,0.5690957724958657,-0.29225583027675744
1633782549682794200,7.213794189453125,0.44195407818257804,0.3345847135707736,-0.4667706856615841
1633782549702672100,7.233672119140625,0.31601065374314785,0.2521165659815073,-0.42718554811775683
1633782549722551300,7.25355126953125,0.23237784628868102,0.3051274406790733,-0.32770883645191784
1633782549742433800,7.273433837890625,0.14383330139517783,0.28706922141909597,-0.28912586168795823
1633782549762311700,7.293311767578125,0.0018330606460571289,0.20652444310784338,-0.2878314379632473
1633782549782190800,7.31319091796875,-0.11670388692915439,0.13139964401870965,-0.2612093884974718
1633782549802069800,7.33306982421875,-0.1100023434638977,0.05399111790657043,-0.22005568646267054
1633782549821948700,7.35294873046875,-0.1422790576905012,-0.002744622533023357,-0.17950553981158882
1633782549841826600,7.37282666015625,-0.08874912755489349,-0.0026446692898869513,-0.14590513923317194
1633782549861705700,7.392705810546875,-0.06113046826720237,-0.05189560693204403,-0.07320420629009604
1633782549881584600,7.412584716796875,-0.0713899964749813,-0.11318769550174473,-0.1088999717125669
1633782549901462800,7.432462890625,-0.006384732601046562,-0.13990093038231133,-0.12815262492150067
1633782549921341700,7.452341796875,0.04312544049918651,-0.08783055140525102,-0.2010834210976958
1633782549941220900,7.472220947265625,0.019231939214468002,-0.05664192467629909,-0.24720307497680186
1633782549961099500,7.492099609375,0.04192950871288776,-0.05328092381060123,-0.2896882082784548
1633782549980977700,7.511977783203125,0.1634855118483305,-0.020767478218674657,-0.3842801801100373
1633782550000856600,7.531856689453125,0.22287001323103903,0.05494856476187706,-0.4595382501900196
1633782550020735700,7.55173583984375,0.1851958238750696,0.05649374837726354,-0.5961679038166999
1633782550040615000,7.571614990234375,0.14154256010949612,-0.019028817857801913,-0.6561499327011406
1633782550060492800,7.591492919921875,0.26681553794145585,-0.03347001566439867,-0.6910989348769188
1633782550080372000,7.6113720703125,0.4149994357615709,-0.10294541068971157,-0.7867161946356296
1633782550100250600,7.631250732421875,0.6222416717499494,-0.0720347241193056,-0.8366840483754873
1633782550120128500,7.65112841796875,0.7738198881834745,0.02445873395204544,-0.7685669360913335
1633782550140007700,7.671007568359375,0.8560276312708854,0.05138678062707185,-0.6892391323544085
1633782550159886800,7.690886962890625,0.7523661812663078,0.08608020060658454,-0.5542115070968866
1633782550179765800,7.710765869140625,0.38544776258468627,-0.049105391691625117,-0.620343729174137
1633782550199644000,7.730643798828125,-0.1069172369301319,-0.21427169623374936,-0.8372888824008404
1633782550219522800,7.750522705078125,-0.4289595720529556,-0.34175065967738627,-0.7508144217796623
1633782550239401700,7.770401611328125,-0.6035030690103769,-0.3718400929927826,-0.5723083048015832
1633782550259279600,7.790279541015625,-0.678429422917962,-0.33521658173352475,-0.4111541585102677
1633782550279158800,7.81015869140625,-0.6157435419023036,-0.13851356767714024,-0.27863106341958044
1633782550299037700,7.83003759765625,-0.4924450790137052,0.08794131830334663,-0.11609306155443191
1633782550318916900,7.849916748046875,-0.4306815735399723,0.1581914970934391,0.03744154964387417
1633782550338794800,7.869794677734375,-0.3682049513608217,0.16744740121662616,0.05611687788888812
1633782550358674000,7.889673828125,-0.25529694958329197,0.08329612284600735,0.021718495333194733
1633782550378552600,7.909552490234375,-0.20157529626786708,-0.09428747245967388,-0.018054273737221956
1633782550398431700,7.929431640625,-0.08802782754302024,-0.20882687483131884,-0.028114041589200493
1633782550418309600,7.9493095703125,0.0512432805031538,-0.23970190556645393,-0.03811725694835186
1633782550438188800,7.969188720703125,0.19383798001408575,-0.1847913347274065,-0.03521495963558555
1633782550458067700,7.989067626953125,0.39212826326191424,0.005183832378685474,-0.03955525386221707
1633782550477945900,8.00894580078125,0.5165893401890993,0.07073328613191843,-0.15643924659863112
1633782550497824800,8.02882470703125,0.6877268280953168,0.1382183841228485,-0.18339768841192125
1633782550517703700,8.04870361328125,0.8126870867162942,0.06441606580913066,-0.15640402915477752
1633782550537582600,8.06858251953125,0.9306389278799295,-0.1334177058428526,-0.3449883264243603
1633782550557460700,8.088460693359375,0.9812620306581258,-0.3673667469710111,-0.5466644527181983
1633782550577339600,8.108339599609375,0.9516665183395147,-0.5244517441272736,-0.712684889871627
1633782550597218800,8.12821875,0.8400789515107869,-0.6192015734016895,-0.8504252081539482
1633782550617096700,8.1480966796875,0.6991442941665649,-0.6244491186663508,-1.064931662991643
1633782550636975900,8.167975830078126,0.5068389305472374,-0.537382829631865,-1.1551591925360263
1633782550656854500,8.1878544921875,0.23663316564559936,-0.4191384352624416,-1.1077434344317763
1633782550676733700,8.207733642578125,0.1370680450439453,-0.2927516509696841,-1.0315110394269227
1633782550696611600,8.227611572265625,-0.035001170754432674,-0.422436892285943,-1.1806095678739248
1633782550716490800,8.24749072265625,-0.00979424878358841,-0.6246089854031801,-1.4204199022509156
1633782550736366800,8.267366943359375,0.05794599301218986,-0.6749059249669314,-1.543392201925069
1633782550756245500,8.28724560546875,0.08963058656454086,-0.6879743731155992,-1.4804878558531402
1633782550776123600,8.30712353515625,0.06925766062140465,-0.7622896093875169,-1.456433611048758
1633782550796002600,8.32700244140625,0.10389233615100384,-0.8242889694437384,-1.5208803642570972
1633782550815881700,8.3468818359375,0.15154840581715107,-0.7448328631520271,-1.4481122112967073
1633782550835759600,8.366759521484376,0.1437386088490486,-0.6928297041922807,-1.3696898319669066
1633782550855638800,8.386638671875,0.3210106539875269,-0.6495534570455551,-1.3481842487320304
1633782550875517700,8.406517578125,0.9520406123489141,-0.5877320839047432,-1.5383656059347093
1633782550895396600,8.426396728515625,1.5859534326702356,-0.6285837342530488,-1.9277480776198208
1633782550915274500,8.4462744140625,1.440168997207284,-0.6206874280452728,-2.5287510003775355
1633782550935153700,8.466153564453125,0.6262929929673672,-0.5723056744530797,-2.591304194924235
1633782550955032600,8.486032470703124,-0.519732314389944,-0.37138036652654405,-2.2538366193935273
1633782550974910700,8.50591064453125,-1.8526000437855719,-0.2682134220406413,-1.9109389816381037
1633782550994789600,8.52578955078125,-2.6269571075856684,-0.12868950827717782,-1.5326039736680686
1633782551014668800,8.545668701171875,-2.4654917033880945,-0.05938128651231527,-1.3125962180003523
1633782551034547700,8.565547607421875,-2.123436507806182,0.09887684607654809,-1.3261372520968318
1633782551054425600,8.585425537109375,-2.0432079558372496,0.5933592761367559,-1.273087652824074
1633782551074304500,8.605304443359374,-2.002333509135246,1.383256146635115,-0.8640469793364405
1633782551094183700,8.62518359375,-1.988514242619276,1.8506798893779515,-0.48567741150967775
1633782551114062800,8.645062744140626,-1.659580978938937,1.8782503256097436,-0.38630883639343083
1633782551133940700,8.664940673828125,-1.0815279930055142,1.7901292668253181,-0.45514308397099373
1633782551153820000,8.68481982421875,-0.4809907880634069,1.6639420967578886,-0.5522298317603767
1633782551173698600,8.704698486328125,0.1457785902440548,1.5453350065559148,-0.6202198835987597
1633782551193576700,8.72457666015625,0.4117582618832588,1.3310428520560265,-0.7206417671602219
1633782551213455600,8.74445556640625,0.3619599194914102,1.2108116677835583,-0.8716699484955519
1633782551233334800,8.764334716796874,0.10563947207927703,1.1429980684906245,-1.0565050492994488
1633782551253213700,8.784213623046876,-0.2915688709259033,1.0800152503550051,-1.1326336186036468
1633782551273091800,8.804091796875,-0.6689286041229963,1.0579515948459506,-1.0928253398284316
1633782551292970800,8.823970703125,-0.9108195441663265,1.1789528867080807,-1.0908526515159755
1633782551312849700,8.843849609375,-0.9135001615524292,1.4233113859087227,-0.9761195532031357
1633782551332727600,8.8637275390625,-0.6133657068550586,1.6850301852330565,-0.7598765568964183
1633782551352606700,8.883606689453124,-0.14710019423663614,1.7877882566571235,-0.5222960639307275
1633782551372485600,8.903485595703126,0.3772457514286041,1.5778788472861052,-0.3831318503251299
1633782551392364800,8.92336474609375,0.6368973890900611,1.0693749061360955,-0.37117768356129527
1633782551412242700,8.94324267578125,0.5553174225121736,0.5148182388633489,-0.48129232829324897
1633782551432121900,8.963121826171875,0.4241559711635112,0.14243863216638564,-0.48934170617088674
1633782551452000500,8.98300048828125,0.2923305029481649,-0.06986585564762353,-0.4753583716670051
1633782551471879700,9.002879638671875,0.6126578508466481,0.06021189211755991,-0.3157119265248999
1633782551491757600,9.022757568359374,0.9318810368955135,0.038302550387382506,-0.2764591262079775
1633782551511636700,9.04263671875,0.98474168946743,0.017937223228812218,-0.08067757437806576
1633782551531515600,9.062515625,0.4412643423527479,-0.1673559235408902,0.32943617170117795
1633782551551393800,9.082393798828125,-0.28219489338099957,-0.6613607992172241,0.6476162784378975
1633782551571272700,9.102272705078125,-0.26732465650737286,-1.2086705641016364,0.8206674910109489
1633782551591151600,9.122151611328125,0.19148995558321474,-1.7484306442588566,0.775186938752979
1633782551611030800,9.14203076171875,0.6627490387052297,-2.145667336575687,0.5760272522594779
1633782551630908700,9.16190869140625,0.8187386418402195,-2.3009283331751824,0.443433576150611
1633782551650787600,9.18178759765625,0.45811552391052246,-2.246241049697995,0.6864338656753302
1633782551670666800,9.201666748046875,-0.18171441150009632,-1.9901745770469306,0.827839793793112
1633782551690546000,9.2215458984375,-0.8600228383868932,-1.5499349015668034,1.01496680492647
1633782551710423800,9.241423828125,-1.6757260580539703,-1.3094029749169944,0.806666730448231
1633782551730302700,9.261302734375,-2.3689579133063554,-1.065494557571411,0.3913423005159944
1633782551750182000,9.281181884765624,-2.3001462428867816,-0.3987254695698619,0.34292277219668027
1633782551770060000,9.30106005859375,-1.7990093233734368,0.3078682638198137,0.5979854015674442
1633782551789939000,9.32093896484375,-1.2770616710215805,0.758419489955902,0.7338834529839455
1633782551809818000,9.340818115234375,-1.075890279379487,0.9606304537788033,0.5837864880841225
1633782551829696800,9.36069677734375,-1.1053209565252065,1.033638406844437,0.7062401707116513
1633782551849575200,9.3805751953125,-0.9020850335687398,1.0630948029533027,1.0052111345876007
1633782551869453800,9.400453857421875,-0.4184387625604868,1.1317103662788868,1.4298901797771453
1633782551889333000,9.4203330078125,0.014669161343574523,0.7249521046400069,1.3065655595339833
1633782551909211000,9.4402109375,0.7162532498776912,0.14614362416416407,0.8254840975124389
1633782551929090000,9.460090087890626,1.2893752091497181,-0.2830667077794671,0.38652368472050874
1633782551948969000,9.479968994140625,1.3620985000550747,-0.3320701004013419,0.3574371083047241
1633782551968848000,9.499847900390625,0.9949661463618278,-0.025317396607995032,0.8171341292530298
1633782551988726000,9.51972607421875,1.220383505988121,0.6421592551410198,0.8846675964303314
1633782552008605000,9.53960498046875,1.4089490985572337,1.1428665510654448,0.8129064285553992
1633782552028484000,9.559484130859374,1.5327338836580513,1.155505667886138,0.5709615663677454
1633782552048363000,9.579363037109376,1.6105395923942327,0.7667959808960556,0.18453005344271659
1633782552068241000,9.599240966796875,1.6196920361429452,0.4939388247027993,0.18025705229863523
1633782552088120000,9.6191201171875,1.884340166917443,0.4628220941662788,0.19770013533495365
1633782552107999000,9.6389990234375,1.8440011422663927,0.21404022556543348,0.22956373871602118
1633782552127878000,9.6588779296875,1.6834920158803461,-0.11589432411193847,0.30541933629773554
1633782552147756000,9.678756103515624,1.5055571229189633,-0.4660279044702649,0.398631946067512
1633782552167635000,9.698635009765624,1.3339333128005266,-0.7045216032907367,0.6267872062250971
1633782552187514000,9.71851416015625,1.2829939836800097,-0.9910147783875465,0.6785578716032207
1633782552207392000,9.73839208984375,0.9670575642168522,-1.2427946597605943,0.9472839924063533
1633782552227271200,9.758271240234375,0.7797726591080427,-0.9437930084854363,0.9045812342986463
1633782552247149800,9.77814990234375,0.2366968785315752,-0.8414774201318621,0.8970330108761787
1633782552267029000,9.798029052734375,0.293507145512104,-1.1945420855060218,0.6481549884244799
1633782552286907000,9.817906982421874,0.11229483831524849,-1.6185758915945887,0.24551848289072511
1633782552306786000,9.8377861328125,0.09712941788733005,-1.78782303570956,-0.5415783085603266
1633782552326665000,9.8576650390625,-0.21765373988747597,-1.8832266527175903,-1.2291671164244413
1633782552346544000,9.877544189453126,-0.8085095087707043,-1.6144482902705668,-1.383719087971747
1633782552366422000,9.897422119140625,-1.203919277921319,-1.9684365002304314,-1.0380462864145636
1633782552386301000,9.917301025390625,-2.0238900919049976,-0.9419777757570147,-1.875056790265441
1633782552406179800,9.937179931640625,-3.2987095369577406,0.6863079012081027,-1.0201407734982668
1633782552426058000,9.95705810546875,-4.090781705668569,1.8508108222812414,-1.2229264684692025
1633782552445937000,9.97693701171875,-4.36038424398005,2.0953575375303624,-0.9001599837902933
1633782552465816000,9.996816162109376,-3.131432816132903,1.447246388247609,-1.042732398404181
1633782552485695000,10.016695068359375,-1.6783417935103178,0.6221262286767363,-1.2112646722480653
1633782552505573000,10.036572998046875,-0.5165104297339916,0.017596446967124937,-1.5705378368735312
1633782552525451800,10.05645166015625,0.24352292515933513,0.19155542203485965,-1.5306043242834508
1633782552545331000,10.0763310546875,0.48465340222418307,0.8329431082814931,-0.9749133192185312
1633782552565210000,10.096210205078124,0.44339317107498644,1.32961837221086,-0.5553079605640843
1633782552585088000,10.116087890625,0.1923550479799509,1.434922328725457,-0.20022826557308435
1633782552604967000,10.135966796875,0.4124883297234773,1.223246201942861,0.017737316742539404
1633782552624846000,10.15584619140625,1.179637069579959,0.8239517003133893,-0.2103555091707036
1633782552644724000,10.175723876953125,2.0237895541399715,0.7110089194834232,-0.3722462626408785
1633782552664603000,10.195602783203125,2.521598206013441,0.7325327690273523,-0.3940012905921787
1633782552684482000,10.21548193359375,2.6943583266854283,0.5824333929747343,-0.3402718923617154
1633782552704361000,10.23536083984375,2.5438790114045142,0.49593555147796864,-0.2530561849191785
1633782552724238800,10.25523876953125,2.23813840726316,0.2301385429292917,-0.217470766269695
1633782552744117500,10.275117431640625,1.7170792281836271,-0.18322277023643255,-0.26982217241153117
1633782552763996700,10.29499658203125,1.1734645184248684,-0.23475714264065026,-0.10312471277937292
1633782552783875600,10.31487548828125,0.8978805676162243,-0.22207594024389982,0.10603986957371234
1633782552803753700,10.334753662109375,0.8767956940114497,-0.34747108315080405,-0.00586874590292573
1633782552823632400,10.35463232421875,0.925958661109209,-0.8529749657019973,-0.3242823691345751
1633782552843511600,10.374511474609376,0.9123965842247008,-1.3511059813976287,-0.4120115059919655
1633782552863389400,10.394389404296875,0.7863169661849737,-1.7089996743634341,-0.49662134178504347
1633782552883268600,10.4142685546875,0.5450082099437713,-1.8554954729661344,-0.46567383033558724
1633782552903147500,10.4341474609375,-0.2791869437366724,-1.6669933010220526,-0.23431582861393688
1633782552923026700,10.454026611328125,-1.1314812336981297,-1.065868067058921,0.2342356029845774
1633782552942904600,10.473904541015624,-2.0319155774503943,-0.6630670186132193,0.831435480197519
1633782552962783500,10.493783447265624,-2.0675760888963937,-0.6270294905483722,1.01068876228109
1633782552982662700,10.51366259765625,-1.6206985828369855,-0.6246832196831703,0.8155547511070966
1633782553002540500,10.53354052734375,-1.200662906473875,-0.4235705724909901,1.0835167556699365
1633782553022419700,10.553419677734375,-0.3441448613375425,0.3481245786234736,1.76791392788589
1633782553042298600,10.573298583984375,-0.8762772230952978,0.5292354712724685,2.2876728380218148
1633782553062177500,10.593177490234375,-2.283781383541226,0.3310731983184814,2.500769352996349
1633782553082055700,10.6130556640625,-2.8012024983793498,0.8133937736809254,2.6327847908258435
1633782553101934600,10.6329345703125,-1.9669617515027522,1.0892924895271658,2.5907623431324955
1633782553121813500,10.6528134765625,-0.6263339094996452,0.6798176624059676,2.168626041228324
1633782553141692700,10.672692626953125,0.32242227435112,0.51918958581537,1.9578473016768694
1633782553161570600,10.692570556640625,0.5350754294723272,0.552750494633615,1.7540929078042506
1633782553181449700,10.71244970703125,0.3357575567424297,0.8797890306085348,1.7270529251873492
1633782553201328600,10.73232861328125,0.03076689418554306,1.064392733809352,1.69274470513314
1633782553221207600,10.75220751953125,0.027549101182818413,1.3237813366204498,1.6919712365426123
1633782553241085400,10.77208544921875,0.4765823239713907,1.3793179304033516,1.5853253638997673
1633782553260964600,10.791964599609376,1.4517705876737832,0.8788350908845662,0.9199635123476385
1633782553280843500,10.811843505859375,2.3743349301695824,0.4490194865241646,0.44739444260559974
1633782553300721700,10.8317216796875,2.829603247955441,0.21319529917389154,0.21622326869294045
1633782553320600600,10.8516005859375,2.8964152689903973,0.19666238978505132,0.3072026395179331
1633782553340479500,10.8714794921875,2.833994176390767,0.04500584741830826,0.37469073318354784
1633782553360358400,10.8913583984375,2.748743996867537,-0.22013211269974708,0.3111390291187912
1633782553380236500,10.911236572265626,2.4222189633727074,-0.41890228841900823,0.21072094494961202
1633782553400115500,10.931115478515625,1.651916143399477,-0.6356997037380934,0.24718897338621318
1633782553419994600,10.95099462890625,0.7368512167483567,-0.8716083545014262,0.2453627260734327
1633782553439872500,10.97087255859375,0.2687333542615175,-1.0733978780418634,-0.09278143354458734
1633782553459751700,10.990751708984375,0.02247545118033886,-1.091403198070824,-0.45565059510171413
1633782553479630600,11.010630615234374,-0.48048050045371055,-0.9981818935379385,-0.5301485675293952
1633782553499509500,11.030509521484374,-1.2129834588646888,-0.8699526962488889,-0.5797674617011099
1633782553519387400,11.050387451171876,-2.2966420341581104,-0.8684721023023128,-0.7033283018529415
1633782553539266600,11.0702666015625,-2.6858038488298654,-0.6129498195305466,-0.6467520628239959
1633782553559145700,11.090145751953125,-3.18936594966352,-1.1597311766266822,-0.5368479921028018
1633782553579024600,11.110024658203125,-3.6018051795482635,-1.5263018047839403,-0.5974680266298353
1633782553598902500,11.129902587890625,-3.7380093012392517,-0.8528966397687793,-0.2814681865416467
1633782553618781400,11.149781494140624,-3.651137073472142,0.1334460551545024,-0.020132212522439658
1633782553638660600,11.16966064453125,-3.202125477993488,0.9373048155099153,0.2176925009952858
1633782553658538500,11.18953857421875,-2.172183879840374,0.9393868824809789,-0.15310754489265382
1633782553678417700,11.209417724609375,-0.7630196772277354,0.3899582257464528,-0.9089642716884613
1633782553698296600,11.229296630859375,0.32836277031600475,-0.1162631574243307,-1.4197433181636034
1633782553718175700,11.24917578125,1.1149041929066181,-0.06128478204607963,-1.7194634929716586
1633782553738053000,11.26905322265625,1.0765852759063244,0.6663581691130995,-1.1965475801095367
1633782553757932300,11.288932373046874,0.8108703926831483,1.2917901613369582,-0.7540498235043138
1633782553777811000,11.30881103515625,0.6369137557029724,1.4446034725233912,-0.4365883133657276
1633782553797690000,11.328690185546876,0.6625912177950144,1.235286768348515,-0.2257057481136173
1633782553817568000,11.348568115234375,0.6914537396639585,0.9550783726096153,-0.08746361778900026
1633782553837447200,11.368447265625,0.7045990524411201,1.2043375033333896,0.0540307192645967
1633782553857326000,11.388326171875,0.7728548425436019,1.6329551300808787,0.28712475099861623
1633782553877204200,11.408204345703124,0.9231646464765071,1.4704557066604493,0.36545156099945303
1633782553897083100,11.428083251953124,1.639799004626274,0.9811880886390805,0.22307138102203605
1633782553916962000,11.447962158203126,2.428696050432324,0.08982873948514461,-0.0003606500059366226
1633782553936841000,11.467841064453125,2.9031173969775437,-0.6548492253661156,-0.2800795086622238
1633782553956719000,11.487718994140625,3.1179975804984568,-0.9652122286111116,-0.6598838585324585
1633782553976598000,11.507597900390625,2.886085598155856,-1.1360317366093395,-0.7279900110311806
1633782553996477200,11.527477294921875,2.5303017369508742,-1.169765079385042,-0.6390396618157624
1633782554016356000,11.547356201171874,1.8970961881160735,-1.024753381860256,-0.5016958685703575
1633782554036234200,11.567234130859376,1.1318658491015434,-0.7330167531520128,-0.2889075427621603
1633782554056113000,11.58711279296875,0.686333327910304,-0.2242132445335388,0.023865151973068714
1633782554075992000,11.606991943359375,-0.2022147632151842,0.019831658673286436,0.4625596438378095
1633782554095870000,11.626869873046875,-1.3656342729657887,-0.297196063157916,0.5074542859666049
1633782554115749000,11.6467490234375,-2.354431959825754,-0.7045926227003335,0.4689014140799641
1633782554135628000,11.6666279296875,-2.8599235674172636,-1.118800031301379,0.4245832566648721
1633782554155507200,11.686507080078124,-2.2798154025197026,-1.5587053602606058,0.6552537145137787
1633782554175385000,11.706385009765626,-1.5567174013137817,-1.8358476464271545,0.4395964091405272
1633782554195264000,11.726263916015625,-1.2499854480475188,-2.2273943104088305,0.19229948186781257
1633782554215143000,11.746142822265625,-1.227569033578038,-1.5958821214884518,0.377729881683737
1633782554235021000,11.76602099609375,-1.9262246674448251,-0.3066173869758844,0.618500293264538
1633782554254900000,11.78589990234375,-2.741648485648632,1.1787515189170836,0.9579173223625868
1633782554274779100,11.805779052734374,-2.7503105155318974,2.4551480040282008,1.5005951165974138
1633782554294658300,11.825658203125,-2.1139964792877435,2.5766946548134086,1.261842766840756
1633782554314536200,11.8455361328125,-1.0256091219067573,1.485859904280305,0.5351955487206578
1633782554334414800,11.865414794921875,0.08008183697462082,0.6643044514536858,-0.025087971766293047
1633782554354294000,11.8852939453125,0.4409726659297943,0.5423118104666471,-0.054436085195094346
1633782554374173200,11.905173095703125,0.2848983071208,1.0717220537841319,0.25488069693259896
1633782554394051000,11.925051025390625,0.34981238557994365,1.670482312181592,0.659414779715985
1633782554413930200,11.94493017578125,0.8770634050369263,1.936176737138629,0.5504875181376934
1633782554433809200,11.96480908203125,1.187619300505519,1.726988043257594,0.30831337723881
1633782554453687300,11.984687255859376,1.7906383853912353,1.3479513167589903,0.23017726750448345
1633782554473566000,12.00456591796875,2.560027013128996,0.819116242980957,-0.08993775281757116
1633782554493445000,12.024445068359375,2.894766917261481,0.3783101657897234,-0.14625713100861756
1633782554513324000,12.044323974609375,2.8325428085386752,-0.025039748710393904,-0.09279767229333519
1633782554533202200,12.0642021484375,2.679706116476655,-0.08001110982596873,0.02795987394079566
1633782554553081000,12.0840810546875,2.315992046794295,0.011160860961675644,0.20618132875859735
1633782554572960300,12.103960205078126,1.6197364598065613,0.08210340593010186,0.40177261871341613
1633782554592838100,12.123838134765625,0.9176490979254245,0.08100070538520812,0.6671047496967017
1633782554612717000,12.143717041015625,0.20249474920034408,0.06098696814328432,0.8363375730253756
1633782554632596000,12.163595947265625,-0.3291471986919641,-0.020787644223868845,0.9320615080289543
1633782554652475100,12.18347509765625,-0.48410921234488485,-0.507033576336503,0.8657483764268458
1633782554672353000,12.20335302734375,-0.3096756055027246,-1.166063302257657,0.5725412367746233
1633782554692232200,12.223232177734374,-0.010798457390069962,-1.716392999485135,0.18231676130741833
1633782554712111000,12.243111083984376,-0.04276771310269832,-1.9756588526993988,0.015303294528648256
1633782554731990000,12.262989990234376,-0.8433218789547682,-2.080978006783128,-0.1586222897261381
1633782554751867600,12.28286767578125,-1.3721826716959475,-1.9803782824367284,-0.28290581812933085
1633782554771746800,12.302746826171875,-2.0596447113752365,-2.078562177813053,-0.8110630657110363
1633782554791626000,12.3226259765625,-2.599145556074381,-1.724789364169538,-0.9358031057100743
1633782554811503900,12.34250390625,-2.7096026575684546,-0.9876794964849949,-0.6823666162364185
1633782554831382800,12.3623828125,-2.70679578345418,-0.24746377173960207,-0.6644291738118976
1633782554851262000,12.382261962890626,-2.4889491513431072,0.6896896526008844,-0.518586505355686
1633782554871140900,12.402140869140625,-1.8409505225241183,1.204730594304204,-0.23225122423432765
1633782554891018800,12.422018798828125,-0.8214122449636458,0.8820075834408402,-0.5336707503061742
1633782554910898000,12.44189794921875,0.09514730415940284,0.17916706510484218,-1.0946205526821315
1633782554930776800,12.46177685546875,0.5262351204127073,0.00001198269873857498,-1.2598475013703108
1633782554950656000,12.481656005859374,0.5020739081025123,0.48641135180741546,-0.8119845644701271
1633782554970534000,12.501533935546876,0.4344721979945898,1.0578823290020227,-0.18075016957782208
1633782554990413000,12.5214130859375,0.49253041920959945,1.4157470881342886,0.29381993778832255
1633782555010291700,12.541291748046875,0.5436684857726097,1.523133696141839,0.5281599509954452
1633782555030169900,12.561169921875,0.6812889040023088,1.5460791029214858,0.3974604180701077
1633782555050048800,12.581048828125,1.1626900264322757,1.653023812380433,0.38892727526351806
1633782555069928000,12.600927978515625,1.4203203873991965,1.6266478466302154,0.373636182629317
1633782555089806800,12.620806884765624,1.654810111275315,1.3403320739269255,0.4418586549840867
1633782555109685000,12.64068505859375,1.714967935118079,0.8439046472787857,0.4489008285805583
1633782555129564000,12.66056396484375,1.8989853628635405,0.5274532640308142,0.4642060958705842
1633782555149442800,12.68044287109375,2.0207085392594335,0.25131226386129857,0.3439883556015789
1633782555169320700,12.70032080078125,1.976196028316021,0.20330752688795328,0.33143457897678014
1633782555189200000,12.720199951171875,1.840876288244128,0.23245208056867123,0.39466055821850893
1633782555209078800,12.740078857421874,1.5680606331050395,0.22602730821818112,0.4030257971122861
1633782555228958000,12.7599580078125,0.8200947326242923,0.11991291210353373,0.44428646665289995
1633782555248835800,12.7798359375,0.3150438545376062,-0.08336831129938363,0.1365172792933881
1633782555268715000,12.799715087890625,0.2422732173591852,-0.1993389155179262,-0.14212598602063953
1633782555288593700,12.81959375,-0.06436287431716918,-0.5222638786941767,-0.0888720963474363
1633782555308471800,12.839471923828125,-0.5306570285081863,-1.0331076609686016,-0.12446261129714548
1633782555328350700,12.859350830078125,-1.405830089753866,-1.3301008950307964,-0.14517740948051214
1633782555348230000,12.87922998046875,-2.1590116790562868,-0.7416983645185827,0.33488303893022237
1633782555368108800,12.89910888671875,-2.3128730379909275,-0.14852584312558173,1.0178512743216008
1633782555387987000,12.918987060546876,-1.7618939369440079,-0.2453495560646057,0.9949036755848676
1633782555407865900,12.938865966796875,-1.4650450797885655,-0.8406555823549627,0.5689453311745077
1633782555427744800,12.958744873046875,-1.734276446700096,-1.125687744988501,0.5107386413995176
1633782555447624000,12.9786240234375,-2.200473570257425,-0.9423124145388603,0.7333953041408211
1633782555467501800,12.998501708984374,-2.4853432358056304,-0.17266221325546502,1.0333744221460073
1633782555487381000,13.018381103515624,-2.5175591597557068,1.0437585265815257,1.5991284099332987
1633782555507260000,13.038260009765626,-1.7990490708619356,1.8744947724685073,2.0612178059108555
1633782555527137800,13.0581376953125,-0.8108119404941797,1.6409256705686448,1.5823209213867782
1633782555547017000,13.078016845703125,0.1023380924463272,0.8885878386139869,0.9697503834974021
1633782555566895900,13.097895751953125,0.44165363393127915,0.2809481081902981,0.5874903841033577
1633782555586774800,13.11777490234375,0.4794008885234594,-0.0942471404492855,0.4126205778010189
1633782555606653000,13.13765283203125,0.3735743694394827,0.1341246850684285,0.544204053954035
1633782555626531800,13.15753173828125,0.27886019600033757,0.939094037014246,0.9006430911321193
1633782555646411000,13.177410888671876,0.3809340845525265,1.591364644064009,1.2753322168804704
1633782555666289000,13.197288818359375,0.9807815536648035,1.7037544671863316,1.1131960738144815
1633782555686168000,13.21716796875,1.6120733778327703,1.224678572833538,0.7420652981348336
1633782555706046700,13.237046630859375,2.2972674725800752,0.5400067483946681,0.32373189564496274
1633782555725926000,13.25692578125,2.661055192020535,-0.03343289852440357,0.24767405348941682
1633782555745804800,13.2768046875,2.800625575274229,-0.4735539160609245,0.1574725351691246
1633782555765683700,13.29668359375,2.9671079308509825,-0.58927668299824,0.16987082897126674
1633782555785563000,13.31656298828125,2.6588398540586233,-0.5584747174993157,0.15063289840742944
1633782555805441800,13.33644189453125,1.8593202919512986,-0.38295886837840076,0.34408407106101513
1633782555825319700,13.356319580078125,1.0726087734907865,-0.27007366295456886,0.4120268496915698
1633782555845198600,13.376198486328125,0.4175391833722591,-0.2776595880389213,0.5266556839123367
1633782555865077800,13.396077880859375,-0.09674246439635753,-0.3422165236234665,0.4817467209972441
1633782555884955600,13.41595556640625,-0.36211306422650813,-0.5795987540706992,0.37546573614403606
1633782555904834800,13.435834716796874,-0.2696335179716349,-1.0062354361340402,0.17388357174396513
1633782555924713700,13.455713623046876,-0.14008593156039714,-1.4280080192923545,-0.17095526320710777
1633782555944592600,13.475592529296875,-0.4435322872847318,-1.615238856126368,-0.3395269922785461
1633782555964470500,13.495470458984375,-0.9152607414841651,-1.693081974263489,-0.4193807195857167
1633782555984349700,13.515349609375,-1.7169062097042798,-1.7348700286790728,-0.42469256225824353
1633782556004228900,13.535228759765625,-2.7690339207023382,-1.9475684842467307,-0.4994220784194767
1633782556024106800,13.555106689453124,-3.0084219380140302,-1.8529586479648947,-0.4145636746928096
1633782556043986000,13.57498583984375,-2.6038871976435183,-1.709779426564276,-0.4302808837845921
1633782556063864800,13.59486474609375,-1.9129303015857935,-0.7698667666435242,-0.22715178220346569
1633782556083743700,13.61474365234375,-1.5407657989442347,0.40461569665223357,0.09960384517684578
1633782556103621600,13.63462158203125,-1.5722376265287399,1.6080387154892086,0.6219836053356528
1633782556123500800,13.654500732421875,-1.5051543873369693,2.44387520712465,1.0583827528048306
1633782556143379700,13.674379638671875,-1.0613771853804588,2.259057568912208,0.7731579902086406
1633782556163259000,13.6942587890625,0.18365970034897328,1.5482494326978922,0.007032236724346876
1633782556183136800,13.71413671875,1.4616805717915295,0.9149395467057824,-0.4688849013365805
1633782556203015700,13.734015625,2.5258885966837403,0.42256490257978435,-0.8035445798397064
1633782556222894600,13.75389453125,2.5368752701222896,0.10813070437312125,-0.7992559427350759
1633782556242772700,13.773772705078125,2.1528654313862323,0.4107701276287436,-0.7441517490200698
1633782556262651600,13.793651611328125,1.0137684619873761,0.9304457433953881,-0.7774158668488264
1633782556282530800,13.81353076171875,-0.6965484324544667,1.616639662835002,-0.2789669443104416
1633782556302409700,13.83340966796875,-1.6942933958798645,2.0192501571446657,0.197106918682158
1633782556322287900,13.853287841796876,-2.0528572431921956,1.9764090865448116,0.24695505503248422
1633782556342166800,13.873166748046875,-1.0222598114788533,1.344320559041202,0.1232739860344678
1633782556362045700,13.893045654296875,0.8129968833178282,0.6269847746238112,-0.27230880159549414
1633782556381924600,13.912924560546875,1.978221396663785,0.1216442659407854,-0.5000295427933334
1633782556401802800,13.932802734375,2.325859945335984,-0.13882687141001224,-0.5660073049612343
1633782556421681700,13.952681640625,2.0320465103536844,-0.1820741847231984,-0.5108236162692308
1633782556441560800,13.972560791015624,1.540256095856428,-0.10892360831648111,-0.3612494331344962
1633782556461438700,13.992438720703126,0.9590034370988607,-0.05225158076286315,-0.20563575063981115
1633782556481317600,14.012317626953125,0.24067221190333365,0.06613806729614734,-0.17618702638074754
1633782556501196500,14.032196533203125,-0.27869010013043877,-0.02038607768565416,-0.15409472929909823
1633782556521075700,14.05207568359375,-0.5808136828184127,-0.2941667784646153,-0.06839008400663733
1633782556540953600,14.07195361328125,-0.5638198779195547,-0.7115288517042994,-0.13172843758165836
1633782556560832800,14.091832763671874,-0.42464404694139957,-0.9765016843885183,-0.22604035036284476
1633782556580712000,14.1117119140625,-0.5560363844364882,-0.8482102355182171,-0.10153780891411006
1633782556600590600,14.131590576171876,-1.1059949102640152,-0.3842126678317785,0.3986940149856731
1633782556620468700,14.15146875,-1.6737340074539184,-0.0006397592082619666,0.8855069698639213
1633782556640347600,14.17134765625,-1.7268699698358774,-0.2099222688525915,1.1748281349282712
1633782556660226800,14.191226806640625,-0.981668273371458,-0.7175874210909009,0.9808624368812888
1633782556680104700,14.211104736328124,-1.0541776292651892,-1.2095534844160079,0.6643938833028078
1633782556699984000,14.23098388671875,-1.2790373550087213,-1.0501067265644668,1.0102391918826847
1633782556719862800,14.25086279296875,-1.2802882318526505,-0.4576654420554638,1.3245087741121648
1633782556739741700,14.27074169921875,-1.55067812114954,0.37544746983498334,1.500930339901149
1633782556759620000,14.2906201171875,-1.980005941992998,1.2220906021669506,1.9726189004816115
1633782556779499300,14.310499267578125,-1.3500520884305238,1.5948773283600806,2.21452240774557
1633782556799378200,14.330378173828125,0.13191957623958586,1.17359252871871,1.6619890629939733
1633782556819256300,14.35025634765625,1.568164093479514,0.5820578376606106,1.0226344900101423
1633782556839135200,14.37013525390625,2.1851240254342557,0.26103023253828284,0.6166407099377363
1633782556859014400,14.390014404296876,1.854065440163016,0.254466928499937,0.5396710866995156
1633782556878893000,14.40989306640625,0.9591378771334886,0.6231272224128246,0.8449696461617946
1633782556898771200,14.429771240234375,0.2629553553819656,0.9886004107221961,0.9433407346732914
1633782556918650000,14.449650146484375,0.08329729188978671,1.0621025770455599,0.808135487826541
1633782556938529300,14.469529296875,0.5635732096821069,0.817667213216424,0.46771278881728645
1633782556958408200,14.489408203125,1.303598380291462,0.23935031564980744,0.09882234854348934
1633782556978286300,14.509286376953124,1.957420600697398,-0.2784182974517345,-0.4236770285401493
1633782556998165200,14.529165283203126,2.216845443865657,-0.3971329396814108,-0.6348864145938307
1633782557018044200,14.549044189453125,1.9207132105469702,-0.36623657389730213,-0.5497108346767723
1633782557037922000,14.568922119140625,1.14541214389503,-0.4753589196562767,-0.4094703336091712
1633782557057801200,14.58880126953125,0.3033113311678171,-0.679149261625111,-0.08543682466913013
1633782557077680000,14.60868017578125,-0.0024871406406164168,-0.9486991929665207,-0.00616369199519977
1633782557097559300,14.628559326171874,-0.38262101472616195,-1.039733508849144,-0.044576479557715355
1633782557117437200,14.648437255859376,-0.6289759484410286,-0.3265887463808059,0.2022349292203784
1633782557137316400,14.66831640625,-0.49515842962563034,0.33844109673798084,0.46767037444766607
1633782557157195000,14.688195068359375,-0.2690647781729698,0.2904202854126692,0.47022729238886385
1633782557177074200,14.70807421875,0.11319441750347614,0.1600096524313092,0.23392281070835888
1633782557196952000,14.7279521484375,0.16167875468730925,-0.287539177018404,-0.09658325524665415
1633782557216831200,14.747831298828125,-0.059981882753968235,-0.5107315540716052,-0.21426325719896702
1633782557236710400,14.76771044921875,-0.1945464205443859,-0.5468579294636845,-0.16389438491016625
1633782557256588300,14.78758837890625,-0.501114123159647,-0.7140709374025463,-0.13851649028658866
1633782557276467200,14.80746728515625,-0.6153852299839258,-1.0361907216757535,-0.2792101784817874
1633782557296346000,14.82734619140625,-0.25655717877745626,-1.0248758391961454,-0.25380276550278064
1633782557316225300,14.847225341796875,-0.2127805808931589,-1.4867556840762495,-0.6669264705203474
1633782557336103200,14.867103271484375,-0.2635971604168415,-1.4766729737401008,-0.7565048885062337
1633782557355982300,14.886982421875,-0.6042120940625667,-0.938957843413949,-0.3305873144976795
1633782557375861200,14.906861328125,-1.2531541412115097,-0.2370487607091665,0.012221329800039529
1633782557395739400,14.926739501953126,-1.6498761620044706,0.2977951980948448,0.2099876987716183
1633782557415618300,14.946618408203125,-1.6331646811783314,0.4055851262062788,0.26001784062534566
1633782557435497200,14.966497314453125,-1.2701555448949335,0.307063961699605,-0.006892828253656625
1633782557455376100,14.986376220703125,-0.49405134516656396,0.25061200663745403,-0.16398958891294896
1633782557475254300,15.006254150390625,0.2428963176935911,0.0834025058299303,-0.4349586663372814
1633782557495133200,15.02613330078125,0.9464701187402009,0.24338965416848657,-0.7485156433179974
1633782557515012400,15.046012451171874,1.0774527063906192,0.5395628040194511,-0.7885384416267275
1633782557534891000,15.06589111328125,0.7219096682041883,0.8758198347166181,-0.6138003719452768
1633782557554769200,15.08576904296875,-0.031015900510549543,1.2154232532322407,-0.2236192241631448
1633782557574648000,15.10564794921875,-0.38856794043183324,1.3217694122761487,0.12633505410552023
1633782557594527200,15.12552734375,-0.30740064630806446,1.227086218497157,0.3045224605232477
1633782557614405000,15.145405029296874,0.17376958997547626,1.089618652741611,0.32314043255783614
1633782557634284300,15.1652841796875,0.8462976798951626,0.9121823569521308,0.18354549938477574
1633782557654163200,15.1851630859375,1.4214251337707042,0.7144155130565166,0.009128405285999178
1633782557674042000,15.2050419921875,1.7479326316088437,0.44285190380513667,-0.040712899464741346
1633782557693920300,15.224920166015625,2.01974524718523,0.06760960115343331,-0.13203669981323182
1633782557713799200,15.244799072265625,1.8632167148679495,-0.2924696191579103,-0.2799081706833094
1633782557733678000,15.264677978515625,1.5278455270946025,-0.35832360881567,-0.18480170999094842
1633782557753556000,15.284555908203124,1.1977081483215093,-0.28187399086356163,0.011795724799111484
1633782557773434000,15.30443408203125,1.157562600415945,-0.2545987381860614,-0.07436353239305317
1633782557793313000,15.32431298828125,0.8191641737759113,-0.3737444653093815,-0.20359050854779778
1633782557813192200,15.344192138671875,0.45413317627608774,-0.40914895616769786,-0.2222089920390397
1633782557833070000,15.364070068359375,0.28263503836393356,-0.665855480287969,-0.4291604283872992
1633782557852949200,15.38394921875,0.2554272979646921,-0.9397714978843927,-0.6277453837327659
1633782557872828000,15.403827880859374,0.1574725351691246,-1.2093345809683202,-0.8233287461094557
1633782557892707000,15.42370703125,-0.161759418708086,-1.3912714030474425,-0.84309449993968
1633782557912585000,15.4435849609375,-0.7169944236338138,-1.2976473629325627,-0.5393184738695621
1633782557932464000,15.463464111328125,-1.5752520059138535,-1.0947986857280134,-0.11080684651350602
1633782557952343000,15.483343017578125,-2.2602947094917294,-1.29216922378242,0.061009979126113466
1633782557972221200,15.50322119140625,-2.041931360030174,-1.7177727634057403,0.16576229767389594
1633782557992100000,15.52310009765625,-1.6172499036878347,-2.268962584593892,-0.10921592406025156
1633782558011979000,15.54297900390625,-1.8803724323302506,-2.2255536509782075,-0.14339651741310952
1633782558031858000,15.56285791015625,-1.958972506314516,-0.938232451748848,0.6037172232177108
1633782558051736000,15.582736083984376,-2.090028743723035,0.20071780265569686,1.1174063119206576
1633782558071615000,15.602614990234375,-2.2369173410356042,0.9855608968958258,1.361840433640778
1633782558091494100,15.622494140625,-1.5907938584387302,1.5046917382612823,1.4398270519018173
1633782558111373300,15.642373291015625,-0.4083288719564676,1.4539607911944388,1.123308156375587
1633782558131251200,15.662251220703125,0.46254093913733957,0.9868114814788103,0.8030008283518254
1633782558151129900,15.6821298828125,1.0231044456094502,0.682571637289226,0.4992077050164342
1633782558171009000,15.702009033203124,1.3503735754698514,0.7789590046375989,0.280049076991342
1633782558190887000,15.721886962890625,1.163109128627181,1.2319061859995126,0.3520113934615627
1633782558210766000,15.74176611328125,0.6727706665039062,1.5550596972346304,0.5218828434873372
1633782558230645200,15.761645263671875,0.4537374549567699,1.5451847844302653,0.35685485143736
1633782558250524200,15.781524169921875,0.7359644970417022,1.4365923077642917,0.07040010865479707
1633782558270402300,15.80140234375,1.122817450249195,1.2892454452902078,-0.07200644787289202
1633782558290281000,15.821281005859374,1.4290654193907975,1.199523088788986,-0.1275122081261128
1633782558310160100,15.84116015625,1.5326853683412074,0.9767173729658126,-0.0696394630132243
1633782558330038000,15.8610380859375,1.7229793921381233,0.626464842402935,-0.045809272755682466
1633782558349917200,15.880917236328125,1.723852667841315,0.28757132572233673,-0.059664268172159786
1633782558369796000,15.900796142578125,1.591404099291563,-0.01776537379324436,0.02405713088121265
1633782558389675300,15.92067529296875,1.3993278682529926,-0.2190630221635103,0.07849798358296975
1633782558409553200,15.94055322265625,1.3698083437800406,-0.47503217191994185,0.09655569138629361
1633782558429432000,15.96043212890625,1.483548704728484,-0.654853901541233,0.12140271226987243
1633782558449311000,15.98031103515625,1.4311632684528828,-0.7489397139489651,0.07153809057562611
1633782558469190100,16.000190185546874,1.1894424242794512,-0.6596019728511572,-0.013765234773792325
1633782558489068000,16.020068115234373,0.7432523159623146,-0.5191881245106459,-0.03950133171789348
1633782558508947200,16.039947265625,0.44528877556324004,-0.46033524578660723,0.08967427957579494
1633782558528826000,16.059826171875,0.17912614857256412,-0.9147861097097396,-0.03794330688724294
1633782558548704300,16.079704345703124,0.0826619165956974,-1.4097554465040563,-0.3169954269967973
1633782558568583000,16.0995830078125,-0.353560339936614,-1.64203509311527,-0.494733409146592
1633782558588462000,16.119462158203124,-1.0676742396980523,-1.548529418683052,-0.6242708394899964
1633782558608341000,16.139341064453124,-1.5546160451203583,-1.1586246766895054,-0.6732011668756603
1633782558628219100,16.15921923828125,-1.659042049756646,-1.2087880530014634,-1.1135850731320678
1633782558648098000,16.17909814453125,-0.8389414719134569,-1.5300725554943084,-1.5313428676910696
1633782558667977200,16.198977294921875,-0.22211305738389492,-1.6685595274254679,-2.114540084645152
1633782558687855000,16.218855224609374,-1.058221351698041,-1.45095576415956,-2.2887499657340347
1633782558707734000,16.238734130859374,-2.8652503153979776,-0.2844426723077893,-1.1207911320533603
1633782558727613000,16.258613037109374,-3.9118338362723586,0.6010916239544749,-0.24962135163228957
1633782558747492600,16.27849267578125,-3.3041181180030104,0.9666256025403738,-0.1462823385151103
1633782558767370500,16.29837060546875,-1.6075146916151046,0.845187088304758,-0.49401831967979665
1633782558787249700,16.318249755859377,-0.3212052997767925,0.7416720610335469,-0.8330999062784016
1633782558807128600,16.338128662109376,0.24274141939282415,0.6915241745516657,-1.1102802594330161
1633782558827007500,16.358007568359376,0.3611655542433262,0.8659551510453224,-1.001979459189996
1633782558846885600,16.3778857421875,0.4917191028267145,0.9848226457491517,-0.8669613324131816
1633782558866764500,16.3977646484375,0.6706161188185215,0.9575675590768455,-0.6669109806902707
1633782558886643700,16.417643798828124,0.5883434938013553,1.0429551012441516,-0.43973895941637453
1633782558906521600,16.437521484375,0.5550713387966155,1.0336807846814393,-0.23561178670860825
1633782558926400800,16.45740087890625,0.4574181892961263,1.0598737950801849,-0.061266223476082085
1633782558946279400,16.477279541015626,0.8018693401038646,1.140389639557898,0.0338158699600026
1633782558966158600,16.49715869140625,1.2215011118412018,0.98895667681396,0.04235518677905201
1633782558986036500,16.517036376953126,1.6904945881187914,0.9203308843553065,-0.022658260401338337
1633782559005915600,16.53691552734375,1.7693202875524758,0.8202566451877356,-0.12377360611967742
1633782559025794600,16.556794677734374,1.5460755957901477,0.709023006363213,0.07643368973061442
1633782559045672700,16.576672607421877,1.6507143663942814,0.5273348983481526,0.01015650622472167
1633782559065551600,16.596551513671876,2.10182439545691,0.3829135679319501,-0.0024840719006955624
1633782559085430500,16.616430419921876,2.1993390132695434,0.04970394210666418,-0.13506364641897378
1633782559105309400,16.636309326171876,1.7374200054228304,-0.13132131808549166,-0.10272942985147238
1633782559125187600,16.6561875,1.0275234310954808,-0.08794073378145695,-0.06880334098264575
1633782559145066500,16.67606640625,0.09792845931053161,-0.19766046091169118,-0.09312076676785945
1633782559164945700,16.695945556640623,-0.40412382148206233,-0.5198036260604858,-0.05508899614587426
1633782559184823600,16.715823486328127,0.10303484253883362,-1.0858274437651037,-0.3091124917272478
1633782559204702700,16.73570263671875,0.15746668995022772,-1.2872221227690577,-0.5828255340974777
1633782559224581400,16.755581298828126,-1.0593629229485988,-0.9644280924960971,-0.21128522776886818
1633782559244460500,16.77546044921875,-2.2356997819393873,-0.7410305482596159,0.09090601332783699
1633782559264338400,16.79533837890625,-2.255310491338372,-0.9180109169751405,0.39555538816638286
1633782559284217600,16.815217529296874,-1.4651608151227236,-1.6972437701180576,0.013280629594624041
1633782559304096500,16.835096435546873,-1.7604770558834075,-2.038016816934943,-0.4400025787886232
1633782559323974700,16.854974609375,-2.882868974196911,-0.8668702200636267,0.36498624504264443
1633782559343853600,16.874853515625,-4.190682341834902,0.5209656555771828,1.4268342993378638
1633782559363732500,16.894732421875,-4.448443635705114,1.4680328634276985,2.0048441767819223
1633782559383611600,16.914611572265624,-3.33339974206686,1.526259426946938,2.0072411549210547
1633782559403489500,16.934489501953124,-1.2146668819069861,1.2815832400992513,1.628507649152726
1633782559423368700,16.95436865234375,0.23081951093077657,0.8334957737281918,1.179566050170362
1633782559443247600,16.97424755859375,0.7281400870263576,0.5097556947767734,0.9451577209673822
1633782559463126800,16.994126708984375,0.5475315909415484,0.6497817128434776,1.1456149729907512
1633782559483004700,17.014004638671874,0.4359557145506143,1.042987834469974,1.385719906400144
1633782559502883600,17.033883544921874,0.6699281365543603,1.2187617500051855,1.364464352403581
1633782559522762500,17.053762451171874,1.1654770268023014,1.2489178188160062,1.0439566795021296
1633782559542640600,17.073640625,1.547729208216071,1.1652838423177598,0.7621462553940713
1633782559562519600,17.09351953125,1.8431658604860304,0.9915943318411707,0.5949812513153999
1633782559582398700,17.113398681640625,2.124333164384961,0.728116998411715,0.3769567784193903
1633782559602277600,17.133277587890625,2.196374902766943,0.49650516805946826,0.3413013815399259
1633782559622155800,17.15315576171875,1.997852564328909,0.22762626784741877,0.40207996762953696
1633782559642034400,17.173034423828124,2.080574686679244,-0.013873042529821395,0.43663690174780784
1633782559661913600,17.19291357421875,2.2265847475916147,-0.15762392633855343,0.41248248450458047
1633782559681791500,17.21279150390625,2.250976261526346,-0.17655629808455706,0.39961102023273704
1633782559701670700,17.232670654296875,2.1719734519600866,-0.32416035019010303,0.37001704228408633
1633782559721549600,17.252549560546875,1.9184382513523102,-0.557080925053358,0.373302420630306
1633782559741428700,17.2724287109375,1.4420949968338013,-0.6210469090074301,0.3315113705400377
1633782559761307000,17.292306884765626,0.7278700379133224,-0.5396089812487364,0.43118711190931497
1633782559781185500,17.312185546875,0.28209201752841473,-0.4955471366822719,0.44978835200481115
1633782559801064700,17.332064697265626,0.19662147325277327,-0.900221577784419,0.20988200990743933
1633782559820942600,17.351942626953125,0.5175140538185835,-1.3934680363088845,-0.43439255688712
1633782559840821800,17.37182177734375,0.638693624857068,-1.4753741661012172,-0.818242894212529
1633782559860700700,17.39170068359375,0.1404980194926262,-1.3738105651587247,-0.7963494076386094
1633782559880579600,17.41157958984375,-1.078372743844986,-1.2775038618311285,-0.6651796999182552
1633782559900457700,17.431457763671876,-1.9665397266983984,-1.5042247052714228,-0.8391077683910727
1633782559920336600,17.451336669921876,-1.3243617668569088,-1.6070152176603674,-1.2372738505125045
1633782559940215600,17.471215576171875,-0.8747486983537673,-1.8708046857789158,-2.151381330308318
1633782559960094700,17.4910947265625,-0.9335311421900987,-1.2048539284229278,-2.1532979775846
1633782559979972600,17.51097265625,-2.3880407994389534,0.005254851788282394,-1.793143646210432
1633782559999851800,17.530851806640626,-4.002871951547265,1.3703908198431134,-0.8714123204726726
1633782560019730700,17.550730712890626,-4.399447257345915,2.087782133840024,-0.0978332553077489
1633782560039608800,17.57060888671875,-2.994838233819604,1.8389517499223351,-0.3479294944427907
1633782560059487500,17.590487548828126,-1.069963227418065,1.0995613700851798,-0.6452429003700614
1633782560079366700,17.61036669921875,0.023829788398742675,0.6378188878491521,-0.7343491707995533
1633782560099245800,17.630245849609373,0.010900164198875427,0.6960235317975282,-0.06901881036423146
1633782560119123700,17.650123779296877,-0.46455812417864795,0.9039014353409409,0.7857773063503205
1633782560139003000,17.6700029296875,-0.3594856383323669,0.8833502302214503,1.2653855540141463
1633782560158881800,17.6898818359375,0.2974509147018194,0.7086006892979144,1.3884988695941864
1633782560178760000,17.709760009765624,1.4224340185523032,0.5422969051584601,1.3207663727134464
1633782560198638600,17.729638671875,2.2307576493620873,0.25228110889345406,0.9745981157895177
1633782560218517800,17.749517822265624,2.5408535261034966,0.04863485157042741,0.5597425454780459
1633782560238396700,17.769396728515623,2.344899576848745,0.1036930141866207,0.5091965995892882
1633782560258274800,17.78927490234375,2.102415347087383,0.13599077120125294,0.6059485624663531
1633782560278153700,17.80915380859375,1.9831845720291137,0.07430208452939986,0.5612945972256362
1633782560298032600,17.82903271484375,1.7990327042490244,-0.04565788158625364,0.4971687465347349
1633782560317910800,17.848910888671874,1.6838362992733715,-0.11905717205703258,0.35112149541713294
1633782560337789700,17.868789794921874,1.2566630261152982,-0.16564795057922602,0.23986893269643186
1633782560357668600,17.888668701171873,0.8325023787766694,0.05603811356425285,0.3335512788698077
1633782560377547800,17.9085478515625,0.7084153958588838,0.11341653582155704,0.32314832360334694
1633782560397425700,17.92842578125,0.5931026710271835,-0.09254062879234552,0.17423662296533585
1633782560417304800,17.948304931640624,0.29622400325536724,-0.39830549059212206,-0.028370792829245327
1633782560437183700,17.968183837890624,-0.11085282281339168,-0.7161614799410104,-0.30918826037719843
1633782560457062000,17.988061767578124,-0.4580570717215538,-0.866815567266941,-0.3855411399565637
1633782560476940500,18.0079404296875,-0.7618424501419067,-0.7721335425317287,-0.45220951473712917
1633782560496819700,18.02781982421875,-1.2866308788776397,-0.4918173025041818,-0.10823745268322527
1633782560516698600,18.04769873046875,-1.9036387416273355,-0.4114823675513267,0.03862973651513457
1633782560536576800,18.06757666015625,-1.8736983613938092,-0.6980576679736376,0.10804207624159752
1633782560556455700,18.08745556640625,-1.4675462489545343,-0.7957990802794694,0.11480024526491761
1633782560576334600,18.10733447265625,-1.6565116544961929,-1.1884107431441544,-0.19853717068098484
1633782560596213800,18.1272138671875,-1.6707833409547805,-0.5215156906753778,0.4576942297585308
1633782560616091600,18.147091552734373,-1.8256874869406223,0.36306904977709054,1.0690318648520856
1633782560635970600,18.166970458984373,-2.0007997236967086,0.9412953464508056,1.3825101505734025
1633782560655849700,18.186849609375,-1.5420950017213821,1.1939029108196497,1.5225168794177473
1633782560675727600,18.2067275390625,-0.25974340759813785,0.9185100986689329,1.0153670562904327
1633782560695606800,18.226606689453124,0.7623907316744327,0.6389116515219211,0.47707624496817586
1633782560715485700,18.246485595703124,0.9067407504200935,0.5898953994184732,0.2636073530172929
1633782560735364600,18.266364501953124,0.5399731383860111,0.8155944985955953,0.4395449346816167
1633782560755242500,18.286242431640623,0.33183892199397086,1.060520860812068,0.6033543812546879
1633782560775121400,18.306121337890627,0.08712240313589573,1.3770973317444324,0.7064663076177239
1633782560795000600,18.32600048828125,0.2295680495649576,1.4493980133235453,0.7249893679104745
1633782560814878500,18.34587841796875,0.3549205223739147,0.8509802847534418,0.2822092872325331
1633782560834757600,18.365757568359374,0.11355214489996432,0.45924365115761756,0.3951813306896016
1633782560854636500,18.385636474609374,0.39373043776154515,0.29281156446337697,0.43369657397959377
1633782560874515500,18.405515380859374,1.1634843916803597,0.11479600748121738,0.016008154862374065
1633782560894393300,18.425393310546873,1.684143173265457,0.06697802525162697,-0.05857683826163411
1633782560914272500,18.4452724609375,1.8946049558222293,-0.0720218646377325,-0.11769867012016474
1633782560934151400,18.4651513671875,1.8173136263489722,-0.2216249816060066,-0.14825477109923957
1633782560954029600,18.485029541015624,1.4404337856233118,-0.1665215185433626,0.07957392398510128
1633782560973908500,18.504908447265624,1.1790431953400373,-0.059543491336703294,0.28450426630191505
1633782560993787600,18.52478759765625,0.9736018712937832,-0.09102467127144336,0.40651729248985646
1633782561013666300,18.544666259765624,0.8308809150546789,-0.14709493353962896,0.4829620881363749
1633782561033544400,18.56454443359375,0.6935410673320292,-0.033254034826159476,0.44419418525956567
1633782561053423400,18.58442333984375,0.588909310990572,-0.02977729862630367,0.2796487160295248
1633782561073302500,18.604302490234375,0.9776029236286878,-0.27101298963129516,-0.12115677468478679
1633782561093180400,18.624180419921874,1.139599073702097,-0.5993892039507627,-0.5128138402383774
1633782561113059600,18.6440595703125,0.7190116086751223,-0.6810334679365158,-0.7688754175186157
1633782561132938500,18.6639384765625,-0.20861469338536262,-0.46718671911656856,-0.6488760692406446
1633782561152817400,18.6838173828125,-1.3934499161303042,-0.3381552655339241,-0.5219518901355564
1633782561172695300,18.7036953125,-1.5569821897298097,-0.5151718746066093,-0.48603594262376426
1633782561192574500,18.723574462890625,-1.0721633678108453,-1.0319815795481204,-0.7124112605620175
1633782561212453600,18.74345361328125,-0.7423930687844753,-1.6169465368270872,-1.0018816248387097
1633782561232331500,18.76333154296875,-0.8979308364987373,-1.7101383230045437,-0.964242652926594
1633782561252210400,18.78321044921875,-1.6404373025298118,-1.2660080698266625,-0.5871086913093925
1633782561272089600,18.803089599609375,-2.499624859136343,-0.4718748769327998,-0.0874428672619164
1633782561291968500,18.822968505859375,-2.539004683366418,0.04665303010344505,0.1333219903834164
1633782561311846400,18.842846435546875,-1.4198404949277639,0.12141191848963498,-0.21733444480523464
1633782561331725600,18.8627255859375,0.06047054305374622,-0.04476239405125379,-0.8152022844076157
1633782561351604500,18.8826044921875,0.8115437619000673,-0.0595388151615858,-1.36105366717726
1633782561371482400,18.902482421875,0.7525088046073913,0.33421938738971946,-1.4320514494642615
1633782561391361500,18.922361572265626,0.1347159289598465,0.9827937702700495,-0.9739185360275209
1633782561411240700,18.94224072265625,-0.11375848112702369,1.2071283030956983,-0.7110747512612492
1633782561431119400,18.962119384765625,0.18398060286641119,1.0206351328864693,-0.6396756946969777
1633782561450997500,18.98199755859375,0.7985399034202099,0.703081049093604,-0.7812151860665529
1633782561470876400,19.00187646484375,1.2379139019817114,0.8015007990524172,-0.8553053083457052
1633782561490755600,19.021755615234376,1.3856149847209454,1.0749211420863867,-0.9247607565615326
1633782561510633500,19.041633544921876,1.338880121552944,1.2706637866780162,-0.8399487492598593
1633782561530512600,19.0615126953125,1.315345516708493,1.2247338101521135,-0.7613304820317774
1633782561550391600,19.0813916015625,1.4003724088698626,0.816212338232994,-0.8060118467360734
1633782561570270500,19.1012705078125,1.6588737074524162,0.39804157895892855,-0.8681322758886962
1633782561590148400,19.1211484375,1.8574772944331168,0.3106730921074748,-0.8790300289347768
1633782561610027500,19.141027587890626,1.8989689962506293,0.23863573763966558,-0.8802017030626534
1633782561629906400,19.160906494140626,1.2972884664922952,0.16771394319832325,-0.689615710581839
1633782561649785600,19.18078564453125,0.5317699581861496,-0.007221767947077751,-0.4777436228357255
1633782561669663500,19.20066357421875,0.17759937739670276,-0.5175611078307032,-0.4844564183473587
1633782561689542700,19.220542724609373,-0.01362052907347679,-1.200453939898312,-0.5831514050509781
1633782561709421300,19.24042138671875,-0.5915490118443966,-1.6089692743375896,-0.4830676308700815
1633782561729299500,19.260299560546876,-1.6564754141390323,-1.516869082789123,-0.15198190186358987
1633782561749178000,19.28017822265625,-2.7147598942011593,-0.7633072619974612,0.7110340539246797
1633782561769057300,19.300057373046876,-3.2861446544170376,-0.6563911941111087,1.0350591603625565
1633782561788936200,19.319936279296876,-2.2441659969896075,-1.1447563103348015,0.8864635399363935
1633782561808814300,19.339814453125,-0.9670137250751256,-1.904012835636735,0.5127345644570886
1633782561828693200,19.359693359375,-1.225375907447934,-2.592587804993987,0.20674181218557058
1633782561848572200,19.379572265625,-2.2898405374497175,-1.8486808245152233,1.1544874307543038
1633782561868450000,19.399449951171874,-3.168714206779003,-0.5864315227001905,2.1294677507944404
1633782561888329200,19.4193291015625,-3.209706726902723,0.46076603841930625,2.6710122301504016
1633782561908208000,19.4392080078125,-2.00075939168632,1.1983794717118144,2.532008540868759
1633782561928087300,19.45908740234375,-0.22745266484618185,1.1785413832977414,1.7015189632192254
1633782561947965200,19.478965087890625,1.1629267577975988,0.7860679598599671,1.0577938470009713
1633782561967844400,19.49884423828125,1.6311206081300973,0.6952607307314872,0.7017240815266966
1633782561987723000,19.518722900390625,1.1588485485732554,1.0138444498330355,1.0060016273781656
1633782562007601200,19.53860107421875,0.8020832751154899,1.543766149803996,1.1793758613605052
1633782562027480000,19.55847998046875,0.9981471144855022,1.9427146144747733,1.3008685169361531
1633782562047359200,19.578359130859376,1.5540958206385374,1.9609692330896853,1.165594734897837
1633782562067238100,19.598238037109375,2.2387053934961556,1.5252981806993484,0.7747732433855533
1633782562087116300,19.6181162109375,2.2474480874001976,1.0749264027833938,0.5014103296272456
1633782562106995200,19.6379951171875,2.0010037218362093,0.9505138411730527,0.6485224334973841
1633782562126874000,19.6578740234375,2.092553878286481,0.7806804216027259,0.5167106284812093
1633782562146752000,19.677751953125,2.3644220234423874,0.5923375318735837,0.4460748113743961
1633782562166631200,19.697631103515626,2.270056225049496,0.27608722415566445,0.4611342872098088
1633782562186510000,19.717510009765626,1.8600217182189225,-0.07556056015789508,0.4272400547839701
1633782562206389200,19.73738916015625,1.409446526685357,-0.2057084505498409,0.6599118425179272
1633782562226267100,19.75726708984375,1.136294186937809,-0.4873363576978445,0.7887938046272843
1633782562246146300,19.777146240234377,0.8271206857383251,-0.7575216643333434,0.7264955346897244
1633782562266025200,19.797025146484376,0.35182664801180363,-0.8293652497947216,0.6218349906452
1633782562285903000,19.816903076171876,0.21554127777814863,-1.0410358236193655,0.40132374243475494
1633782562305782300,19.8367822265625,0.5827846906304359,-1.4543319625943898,0.03462495785318315
1633782562325661200,19.8566611328125,0.40501872449517246,-1.8171026139467954,-0.18332126217484473
1633782562345540400,19.876540283203123,-0.530961564412713,-1.8557985475659369,-0.28958295780569315
1633782562365418200,19.896418212890627,-1.6120985122740268,-1.4548983643054962,0.03658697864115238
1633782562385297400,19.91629736328125,-1.9667606759727,-1.5453671552598476,0.04811017010919749
1633782562405176000,19.936176025390626,-1.4515572371840477,-1.984993082755804,-0.18475005286894738
1633782562425054200,19.95605419921875,-1.13944417540133,-2.5137504151225087,-0.7824792146530002
1633782562444933000,19.97593310546875,-1.4914385811954736,-2.324929971009493,-1.0740026390019803
1633782562464812300,19.995812255859374,-2.2853981710880995,-1.014837260262668,-0.6176119661226869
1633782562484691200,20.015691162109373,-3.0449808596044776,0.4713490994930267,-0.2780360932011157
1633782562504569300,20.0355693359375,-2.864382300391793,1.573500193810463,-0.18130641522109509
1633782562524448300,20.0554482421875,-1.3918243607550858,1.6675120641991494,-0.45248621278665957
1633782562544327200,20.0753271484375,-0.08762801457047462,0.6552279955506325,-1.0638412374064325
1633782562564205000,20.095205078125,0.6043617316663265,0.025818916389346122,-1.5643310911878943
1633782562584084200,20.115084228515624,0.543082210317254,0.3413268813073635,-1.3156971066251397
1633782562603963100,20.134963134765623,0.012577742022275924,1.1568202576160431,-0.6015466011803597
1633782562623842300,20.15484228515625,-0.2887777789026499,1.537701150676608,-0.037796500561386344
1633782562643720200,20.17472021484375,0.06608721389174461,1.3873755646526813,0.213182293561846
1633782562663599400,20.194599365234374,0.8183002504229545,1.041466031730175,0.13973141903430222
1633782562683478000,20.21447802734375,1.532975291198492,0.8413502866208553,0.059282210052013395
1633782562703356200,20.234356201171874,1.714815374904871,0.7023229242026805,-0.10138166850432753
1633782562723235000,20.254235107421874,1.505401055574417,0.8471440675914287,0.09405154481194913
1633782562743114200,20.2741142578125,1.6687240703374147,0.8461153090655803,0.08885616812594234
1633782562762993700,20.29399365234375,1.9874036510288715,0.525551229801774,0.05828428505584597
1633782562782871800,20.313871826171876,2.3140970268279313,0.20425182200074193,0.0794822636462748
1633782562802750500,20.33375048828125,2.2960464063525197,-0.03911737390160561,-0.010850918229669331
1633782562822629600,20.353629638671876,1.774157790711522,0.018525836771726607,-0.03924341143406927
1633782562842508500,20.373508544921876,0.8627262521266936,0.09315876069068908,0.307467720194906
1633782562862386700,20.39338671875,0.33804362185299397,-0.1971171478152275,0.4456227567579597
1633782562882265600,20.413265625,0.20641747560203075,-0.7182949848383665,0.2088124079145491
1633782562902144800,20.433144775390623,0.1991775874763727,-0.8109837899297475,-0.022521993735805153
1633782562922022700,20.453022705078126,-0.006828969237208366,-0.6429904452681541,-0.13672339632473884
1633782562941901600,20.472901611328126,-0.47855099369585513,-0.8601403272867202,0.0038506110135465856
1633782562961780500,20.492780517578126,-0.7703367222428321,-1.219262393003702,-0.17429302932769059
1633782562981659600,20.51265966796875,-1.1896429152876138,-1.3099042024374008,-0.15352072880342602
1633782563001537500,20.53253759765625,-1.2348726345896721,-1.2265186477422714,0.004787307341769337
1633782563021416700,20.552416748046873,-1.2684621849805116,-1.2961731987267733,-0.1991040107835084
1633782563041295600,20.572295654296877,-1.776241026726365,-1.1334493189007042,-0.27152108528390523
1633782563061173800,20.592173828125,-2.382785363128781,-0.12084171738624572,0.6081922497399151
1633782563081052400,20.612052490234376,-3.4708114859819412,0.559007509201765,1.0976042446680367
1633782563100931600,20.631931640625,-3.6716491156250237,1.0670599071919917,1.389809806062281
1633782563120810500,20.651810546875,-2.2947779938519,1.4774492188096044,1.3333379772558807
1633782563140688600,20.671688720703123,-0.7056891857653856,1.1586316909521817,0.8829909684550017
1633782563160567600,20.691567626953123,0.18838789791464805,0.7199976971030235,0.6841244196891785
1633782563180446700,20.71144677734375,0.46133097882568835,0.5841957264721394,0.7343042356792837
1633782563200324600,20.73132470703125,0.3440419854849577,0.6985065807849168,0.9209980430271476
1633782563220203500,20.75120361328125,0.22483985199928283,0.9404448671013116,0.9912016792617737
1633782563240082400,20.77108251953125,0.5811819316089153,0.9893635040491818,0.8920544187460094
1633782563259961600,20.790961669921874,1.1520990743130446,0.9058926091581583,0.6594527005735784
1633782563279839500,20.810839599609373,1.686442682379484,0.7295160515546798,0.4482109466202557
1633782563299718700,20.83071875,2.102842632588744,0.5012479786723852,0.05532762720733881
1633782563319597800,20.850597900390625,2.0442484048008915,0.46501697386205193,-0.06860014656074345
1633782563339475700,20.870475830078124,1.5895494113355875,0.5185048184216022,0.12776004540733993
1633782563359354600,20.890354736328124,1.505960443022847,0.2868517792761326,0.2285587263919413
1633782563379233500,20.910233642578124,1.7621926276296376,0.01026478890478611,0.18253398425467313
1633782563399112700,20.93011279296875,1.8386036671370267,-0.028442250630259513,0.28168102557472885
1633782563418990600,20.949990478515623,1.4918261192083357,-0.05808394017815589,0.4688869471631944
1633782563438869800,20.969869873046875,1.0121744707942009,-0.29761399630904195,0.6656872841142117
1633782563458748700,20.989748779296875,0.2684925312429666,-0.5748398691058159,0.599137348081544
1633782563478627600,21.009627685546874,-0.22973697639107704,-0.5762088193714618,0.42766361395828423
1633782563498505500,21.02950537109375,-0.28486849650442597,-0.5623316851884126,0.32246786705851554
1633782563518384600,21.049384521484374,-0.22756080139577387,-0.8309095566272735,0.0707891079723835
1633782563538263600,21.069263671875,-0.3518044361799955,-1.0697586447566747,-0.1600400475695729
1633782563558141700,21.0891416015625,-0.95721421559453,-0.9867062675386666,-0.5119529125601053
1633782563578020600,21.1090205078125,-0.060281742483377455,-1.1374480331480503,-1.2012183483995496
1633782563597899800,21.128899658203125,-0.4653016360223293,-1.5786585994869469,-1.93059806022346
1633782563617778400,21.1487783203125,-0.3895049290210008,-1.3532535148203373,-1.2970587493896484
1633782563637656600,21.168656494140624,-1.8793045108377933,-0.9054664927005768,-1.1289483542196452
1633782563657535500,21.188535400390624,-3.2532501005530357,0.23948797055482862,-0.36473596007600423
