time,seconds_elapsed,z,y,x
1633782542486692900,0.01769287109375,-7.827442514908313,-5.907655187034607,0.03366207220435608
1633782542506571800,0.03757177734375,-7.8123261943191284,-5.927692012891173,0.020174140551581513
1633782542526451000,0.057450927734375,-7.8002184078961605,-5.9436436152607195,0.009319001092054531
1633782542546328800,0.077328857421875,-7.794507629033923,-5.951136601364612,0.0010269420270364207
1633782542566208000,0.0972080078125,-7.792715484920143,-5.953478780576586,-0.00827614725466119
1633782542586086700,0.117086669921875,-7.793004238733649,-5.953087735432386,-0.014615665032580726
1633782542605965800,0.1369658203125,-7.794031828215718,-5.951732813692092,-0.018312591313268057
1633782542625843700,0.15684375,-7.79546390684545,-5.9498413008570665,-0.022684493104426655
1633782542645723000,0.176722900390625,-7.797956308183074,-5.946555118793249,-0.027366956398810725
1633782542665602000,0.19660205078125,-7.800550416329503,-5.943118714603782,-0.03374945366028696
1633782542685481000,0.21648095703125,-7.802896687194704,-5.939941253611445,-0.047784687314764596
1633782542705359000,0.236359130859375,-7.805778964632749,-5.93584784681797,-0.07688856649179943
1633782542725239300,0.2562392578125,-7.811501433932781,-5.927330193841457,-0.1326154312829487
1633782542745118200,0.2761181640625,-7.834635056760907,-5.89392359880209,-0.22481983212456105
1633782542764997000,0.2959970703125,-7.868550770366191,-5.843233860528469,-0.3360301996713504
1633782542784875300,0.315875244140625,-7.903878104335069,-5.787578024280071,-0.45058772222157567
1633782542804754200,0.335754150390625,-7.9314932564914224,-5.743458312046528,-0.5239137282604351
1633782542824633000,0.355633056640625,-7.947880327668786,-5.7169216027766465,-0.5642568810973316
1633782542844511200,0.37551123046875,-7.94981158799231,-5.711018516212701,-0.5959410362582653
1633782542864390100,0.39539013671875,-7.943717362770438,-5.718384661066532,-0.60647908914648
1633782542884269300,0.415269287109375,-7.944802235397696,-5.718889687979221,-0.5871989999413489
1633782542904148200,0.435148193359375,-7.955252902263402,-5.7050417798906565,-0.580370870954357
1633782542924026400,0.4550263671875,-7.968221689429878,-5.682659852212667,-0.6206435158383101
1633782542943905000,0.474905029296875,-7.965752668967842,-5.673858121597767,-0.724222548256442
1633782542963784200,0.4947841796875,-7.914407097133994,-5.720436917421221,-0.8995245354309678
1633782542983663000,0.5146630859375,-7.809279081708192,-5.826104446551203,-1.114477199666202
1633782543003541200,0.534541259765625,-7.684130022516846,-5.9514966668486595,-1.305456429248303
1633782543023420200,0.554420166015625,-7.568947646066546,-6.058592182955145,-1.474747850896418
1633782543043299000,0.574299072265625,-7.4840522713303566,-6.129289520990848,-1.6097088406585156
1633782543063178200,0.59417822265625,-7.430187994673847,-6.160699389255046,-1.7344935965821147
1633782543083056000,0.61405615234375,-7.411338917297124,-6.151548699072003,-1.8441512182615696
1633782543102935300,0.633935302734375,-7.434336931046843,-6.1037424072802065,-1.9092802546456455
1633782543122814200,0.653814208984375,-7.497422625035047,-6.019691082152724,-1.9293435301177202
1633782543142692000,0.673692138671875,-7.595622887024283,-5.901712352982163,-1.9096327213451265
1633782543162571300,0.6935712890625,-7.706077650430798,-5.772195161709189,-1.8623940003082156
1633782543182450200,0.7134501953125,-7.807765170013904,-5.657901843053102,-1.7881100359573958
1633782543202329000,0.7333291015625,-7.8831667402178045,-5.57508035198152,-1.7159684904627501
1633782543222207200,0.753207275390625,-7.936568075537681,-5.517786100876331,-1.6538748762518167
1633782543242086100,0.773086181640625,-7.983432702565192,-5.462361735296249,-1.6117682574063539
1633782543261965300,0.79296533203125,-8.03448484441042,-5.3927212128371,-1.5924825421780346
1633782543281844200,0.81284423828125,-8.092218071454763,-5.308078936079144,-1.584515654952079
1633782543301722400,0.832722412109375,-8.153001918241381,-5.218126277953386,-1.571655150465667
1633782543321601300,0.852601318359375,-8.21730867845714,-5.125974648478627,-1.5396777114465832
1633782543341480200,0.872480224609375,-8.283384201911092,-5.032275205039978,-1.4940347351685166
1633782543361359000,0.892359130859375,-8.342586332464217,-4.945223529052734,-1.4547861361026764
1633782543381237200,0.9122373046875,-8.387344927123188,-4.873618720783293,-1.4389838790759444
1633782543401116200,0.9321162109375,-8.416893093168735,-4.817997079065441,-1.453686358167231
1633782543420995300,0.951995361328125,-8.435354048010707,-4.772060380537807,-1.4975398206800221
1633782543440874000,0.9718740234375,-8.452201722437144,-4.7239027910903095,-1.5541609948292374
1633782543460752100,0.991752197265625,-8.475226624193787,-4.665062187325955,-1.605648897743225
1633782543480631000,1.011631103515625,-8.505361650216578,-4.595306514054537,-1.6469259338967501
1633782543500510200,1.03151025390625,-8.535063545519114,-4.526280324101448,-1.6840025957509874
1633782543520389000,1.05138916015625,-8.558525669649242,-4.469209068097174,-1.7170304206058382
1633782543540267300,1.071267333984375,-8.57580062957704,-4.429827782562374,-1.732816018758714
1633782543560146200,1.091146240234375,-8.586613115492463,-4.412160316185653,-1.7243243770062922
1633782543580025000,1.111025146484375,-8.591768598559499,-4.414253781333565,-1.6930035021997987
1633782543599903200,1.1309033203125,-8.589031282550096,-4.433247235617041,-1.6568772729381918
1633782543619782100,1.1507822265625,-8.58143366702795,-4.4618964069962495,-1.6189064387232064
1633782543639661300,1.170661376953125,-8.572811969155072,-4.494238295413553,-1.574516677376628
1633782543659540200,1.190540283203125,-8.563034671506285,-4.530924935036897,-1.5216894886828958
1633782543679418000,1.210418212890625,-8.548653094932437,-4.57856200774163,-1.4586591781437397
1633782543699297300,1.23029736328125,-8.52354320359528,-4.646801723492145,-1.3881031482748687
1633782543719176200,1.25017626953125,-8.487206984844804,-4.732996490389108,-1.3177438100218772
1633782543739054000,1.27005419921875,-8.445974810746312,-4.821637189133465,-1.2600424394205212
1633782543758932000,1.289931884765625,-8.410027883574367,-4.893101712149381,-1.2244866304580122
1633782543778811000,1.309810791015625,-8.387727788960934,-4.934871061864495,-1.2097346131365745
1633782543798689800,1.329689697265625,-8.37734551115632,-4.947545249998569,-1.2297390710934997
1633782543818568000,1.34956787109375,-8.368701016929744,-4.946697108736634,-1.2905104967899619
1633782543838446800,1.36944677734375,-8.353307048442959,-4.94993126835227,-1.3750722556576132
1633782543858326000,1.389325927734375,-8.324378475600481,-4.971176300954818,-1.4705503992065787
1633782543878205200,1.409205078125,-8.294673073166608,-4.997344176912307,-1.5476868303790687
1633782543898083000,1.4290830078125,-8.276042022454739,-5.012364635911584,-1.5980352078691125
1633782543917961700,1.448961669921875,-8.269689438557624,-5.012502583077549,-1.6301638919271528
1633782543937841000,1.4688408203125,-8.268076742663979,-5.009086052632331,-1.6487407282337545
1633782543957720000,1.488719970703125,-8.264851935398578,-5.012319043204188,-1.6550722693428397
1633782543977598000,1.508597900390625,-8.26229114499986,-5.0209553541243075,-1.6416256355315446
1633782543997477000,1.52847705078125,-8.261158341577648,-5.0338475689232345,-1.6074894110433757
1633782544017356000,1.54835595703125,-8.261176461756229,-5.048194074183702,-1.561757002916187
1633782544037235000,1.56823486328125,-8.262253151077031,-5.060350960445404,-1.516049144708365
1633782544057112800,1.58811279296875,-8.267707324829697,-5.063180046391487,-1.4763503176569939
1633782544076992000,1.607991943359375,-8.277533137795329,-5.054845348766446,-1.4496122405961156
1633782544096871000,1.627870849609375,-8.285209079250693,-5.043839970627427,-1.4440826635196804
1633782544116750000,1.64775,-8.288082588860393,-5.036285025203227,-1.4539268889248371
1633782544136628000,1.6676279296875,-8.285192128115892,-5.036127788814902,-1.4708476285874843
1633782544156507100,1.687507080078125,-8.280303187030553,-5.041799989232421,-1.4789239675372838
1633782544176385800,1.7073857421875,-8.276090537771582,-5.050366742047667,-1.4732633114270866
1633782544196264000,1.727263916015625,-8.27428494965434,-5.057194542241096,-1.4599246680349112
1633782544216142800,1.747142822265625,-8.279127713510393,-5.054927181831002,-1.4401862406030297
1633782544236022000,1.76702197265625,-8.293983337336778,-5.037500830733776,-1.4155609179124236
1633782544255901000,1.78690087890625,-8.31954974026978,-5.003923555302619,-1.3842771602459252
1633782544275779000,1.806779052734375,-8.347571135139464,-4.965201902720332,-1.3546974300183354
1633782544295658000,1.826657958984375,-8.37288911626935,-4.9299920576512815,-1.3267572836913168
1633782544315537000,1.846536865234375,-8.391000527021289,-4.903301326863468,-1.3111546408899128
1633782544335415800,1.866415771484375,-8.399851357474923,-4.8865331474140286,-1.31707175597921
1633782544355294000,1.8862939453125,-8.401656945592164,-4.875186700752377,-1.3472567586235702
1633782544375172900,1.9061728515625,-8.400163492164015,-4.866509765560925,-1.3873437082096933
1633782544395052000,1.926052001953125,-8.396392741453647,-4.861058806678653,-1.4286639989830552
1633782544414931000,1.945930908203125,-8.390370996946096,-4.859058572772145,-1.4702411871269345
1633782544434809000,1.96580908203125,-8.38797504172027,-4.8533331808626645,-1.5024708473414181
1633782544454687700,1.985687744140625,-8.3913512401551,-4.84350356850475,-1.515282836510986
1633782544474567000,2.00556689453125,-8.395842121833562,-4.837553135667741,-1.5094044459968805
1633782544494444800,2.02544482421875,-8.396662206044793,-4.8387867691159245,-1.5008628276228904
1633782544514324000,2.045323974609375,-8.39940770536065,-4.834060032854974,-1.5007321869805454
1633782544534203100,2.065203125,-8.413256782492995,-4.808968261696398,-1.5037679014146328
1633782544554081800,2.085081787109375,-8.442094754442572,-4.762224922960996,-1.4908506983049212
1633782544573960200,2.104960205078125,-8.478587040537596,-4.707487662862241,-1.4572238846436143
1633782544593838800,2.1248388671875,-8.50959300417602,-4.664075222115218,-1.4154887294590472
1633782544613718000,2.144718017578125,-8.528079093459247,-4.641435812544822,-1.3781598464094102
1633782544633597000,2.164596923828125,-8.534480192673206,-4.636129230569303,-1.3562224476285278
1633782544653475000,2.18447509765625,-8.532817227897047,-4.641910736580193,-1.3468766732648014
1633782544673354000,2.20435400390625,-8.527838270440697,-4.653403021453321,-1.3387298994272947
1633782544693233000,2.22423291015625,-8.521509651941061,-4.669344102428854,-1.3234339844875036
1633782544713111800,2.24411181640625,-8.511939275041222,-4.692207091622055,-1.3040186515301466
1633782544732990200,2.263990234375,-8.502236211672425,-4.715493274663388,-1.2831544349387287
1633782544752869000,2.283869140625,-8.48734376296699,-4.746882100139558,-1.265895987754315
1633782544772748300,2.303748291015625,-8.470285076138376,-4.7808223636642095,-1.2523534923531114
1633782544792627500,2.32362744140625,-8.456294544708728,-4.807817922617494,-1.2435232662960887
1633782544812505300,2.34350537109375,-8.442643620496987,-4.83064496371448,-1.2478064965732394
1633782544832384300,2.36338427734375,-8.424857788437604,-4.855655778591334,-1.2707345138266681
1633782544852263200,2.38326318359375,-8.402958675840496,-4.885296006834507,-1.3017517295114696
1633782544872141000,2.40314111328125,-8.379605272781848,-4.91483306696415,-1.340525258411467
1633782544892020200,2.423020263671875,-8.366850420626998,-4.927534143105149,-1.3731725595161317
1633782544911899400,2.4428994140625,-8.373245674622058,-4.912718266767263,-1.3872072223484515
1633782544931778300,2.4627783203125,-8.402084815615416,-4.866785075370967,-1.3746839869923888
1633782544951656400,2.482656494140625,-8.45002496291995,-4.791847907808423,-1.343749042763561
1633782544971535000,2.50253515625,-8.50685042746961,-4.698953351011872,-1.3129030919924378
1633782544991414300,2.522414306640625,-8.56201994150579,-4.604565633048117,-1.2884794293537736
1633782545011293200,2.542293212890625,-8.602232124906777,-4.5313799853280186,-1.2800706435792146
1633782545031171300,2.56217138671875,-8.616996563318372,-4.499867825733125,-1.2918772550985216
1633782545051050200,2.58205029296875,-8.604021930932998,-4.515699601115286,-1.3227422028310596
1633782545070929400,2.601929443359375,-8.575106802093982,-4.558198141887784,-1.364095226830244
1633782545090807300,2.621807373046875,-8.546148418635129,-4.604706795084476,-1.389389680954069
1633782545110686200,2.641686279296875,-8.526551153239607,-4.640954751029611,-1.3891881670325994
1633782545130565000,2.661565185546875,-8.521314421629905,-4.659326566283404,-1.3595065838657319
1633782545150444300,2.6814443359375,-8.526847505837678,-4.667525070308149,-1.2951682594679295
1633782545170322200,2.701322265625,-8.536086458826064,-4.679482342344522,-1.1866171377256511
1633782545190201300,2.721201416015625,-8.542780988028644,-4.702544361241162,-1.037955247130245
1633782545210080300,2.741080322265625,-8.544141754987836,-4.733216562880576,-0.8744638169977813
1633782545229959200,2.760959228515625,-8.539260997208952,-4.766216330684721,-0.7311497171711177
1633782545249837000,2.780837158203125,-8.526236095941066,-4.802321371027827,-0.6413971116621047
1633782545269716200,2.80071630859375,-8.504242875319719,-4.844095396918058,-0.6188488144412636
1633782545289595100,2.82059521484375,-8.478086105278134,-4.886505674885213,-0.643812502240762
1633782545309474300,2.840474365234375,-8.45215028451085,-4.9249569860935205,-0.6901718100946396
1633782545329352200,2.860352294921875,-8.428551382258535,-4.958072489231824,-0.7398818896811455
1633782545349231400,2.8802314453125,-8.410518297439813,-4.9822687728554005,-0.7813880584154278
1633782545369110300,2.9001103515625,-8.400426527014375,-4.994405200850963,-0.8118752588767558
1633782545388988200,2.91998828125,-8.393827859401702,-5.001365687513351,-0.8368865121450275
1633782545408867300,2.939867431640625,-8.386993629467486,-5.008635970777273,-0.8615602770872414
1633782545428746200,2.959746337890625,-8.38210118125081,-5.011797649678588,-0.8903060407087207
1633782545448625400,2.97962548828125,-8.381663374355435,-5.006666716530919,-0.9227119342729448
1633782545468503300,2.99950341796875,-8.384090309241413,-4.998467043462395,-0.9448439057778567
1633782545488382500,3.019382568359375,-8.389029519209265,-4.990259187087417,-0.9443953582927584
1633782545508261000,3.03926123046875,-8.398221125924588,-4.978610250347852,-0.9239614959426223
1633782545528140300,3.059140380859375,-8.41278331976235,-4.960480719417333,-0.8883072681069374
1633782545548018200,3.07901806640625,-8.431738780122995,-4.934571202135086,-0.8521544430993497
1633782545567897300,3.0988974609375,-8.454860127991438,-4.899250005646049,-0.8264804881386458
1633782545587776300,3.1187763671875,-8.481095223966241,-4.856405720175802,-0.8103895503636449
1633782545607654400,3.138654296875,-8.506395084917544,-4.813615795241296,-0.8004537742175162
1633782545627533300,3.158533203125,-8.526105163037776,-4.778879412902891,-0.7988933930329978
1633782545647412200,3.178412109375,-8.540257607030869,-4.753552371683717,-0.7988280727118253
1633782545667291100,3.198291015625,-8.550722886943817,-4.735761571188271,-0.7925156746946275
1633782545687169300,3.218169189453125,-8.558627376458048,-4.723431958708167,-0.7806894816920161
1633782545707048200,3.238048095703125,-8.565237734508514,-4.713526358504593,-0.7679576450865715
1633782545726927400,3.25792724609375,-8.569151693081855,-4.707701890134811,-0.7599770215962082
1633782545746806800,3.277806884765625,-8.570537594482301,-4.704466561475396,-0.7643717494238168
1633782545766685000,3.297684814453125,-8.571519006735086,-4.698949259358645,-0.7869689272876829
1633782545786563800,3.317563720703125,-8.572083654880522,-4.691652088087797,-0.8235111900042742
1633782545806443000,3.337443115234375,-8.572516785600781,-4.683175936165452,-0.8661405906148254
1633782545826322000,3.357322021484375,-8.570822256642579,-4.676941425690055,-0.9152112763192504
1633782545846200000,3.377199951171875,-8.570220783618092,-4.669875140565633,-0.9560184299387037
1633782545866079000,3.397078857421875,-8.571310332420468,-4.661692418631911,-0.9857230286549776
1633782545885958000,3.4169580078125,-8.572315125548839,-4.655867073479294,-1.0043376396887003
1633782545905835800,3.436835693359375,-8.574522280204295,-4.650343049360812,-1.0110722817059605
1633782545925715000,3.45671484375,-8.578480662441253,-4.642844802559912,-1.0119521332804113
1633782545945593900,3.47659375,-8.584837922513485,-4.631373268213868,-1.0106075868036597
1633782545965473000,3.49647314453125,-8.592133924740553,-4.617462816283107,-1.0122543310973793
1633782545985351000,3.516350830078125,-8.597217511615156,-4.606677510635555,-1.0182154314588754
1633782546005229800,3.536229736328125,-8.599416482964157,-4.600260629330575,-1.028603116090968
1633782546025109000,3.55610888671875,-8.60032716806829,-4.597165001402795,-1.0348100079070777
1633782546044988000,3.57598779296875,-8.601563431864976,-4.595442123132944,-1.0321803169906139
1633782546064866000,3.595865966796875,-8.603884568288922,-4.5930157727688545,-1.0236032619770616
1633782546084745000,3.615744873046875,-8.607372994926571,-4.5887230440109965,-1.0134770047601311
1633782546104624000,3.6356240234375,-8.610973065245151,-4.584080771163106,-1.0038575280215591
1633782546124502800,3.655502685546875,-8.612822492504119,-4.582318437665701,-0.9960106869786978
1633782546144381000,3.675380859375,-8.611398012658952,-4.587425989937782,-0.9847489959910511
1633782546164259800,3.695259765625,-8.605916950899362,-4.601201125051081,-0.9682606563962995
1633782546184139000,3.715138916015625,-8.599380242606998,-4.6189580232769245,-0.9414210186570883
1633782546204017000,3.735016845703125,-8.594473765864969,-4.634873969811201,-0.9073840167596936
1633782546223896000,3.75489599609375,-8.595310216689109,-4.639103277944028,-0.8773531817637383
1633782546243775000,3.77477490234375,-8.603915547949075,-4.625693176750839,-0.8637020383562892
1633782546263654000,3.79465380859375,-8.61947844326198,-4.595844566453993,-0.8678622998408972
1633782546283532000,3.814531982421875,-8.637694483432174,-4.558328198008239,-0.8844540998101234
1633782546303411000,3.834410888671875,-8.65372032008171,-4.52363682385534,-0.9056604809027164
1633782546323289900,3.854289794921875,-8.666761587962508,-4.494759688939154,-0.9245343273945152
1633782546343169000,3.8741689453125,-8.67742385175228,-4.471849061211944,-0.9355562913421541
1633782546363047000,3.894046875,-8.685362243536114,-4.4561040873304005,-0.9370155502397567
1633782546382926000,3.913926025390625,-8.690379779437183,-4.447772312314808,-0.930056524882093
1633782546402804700,3.9338046875,-8.692448402404784,-4.446373551432788,-0.9173242498852312
1633782546422683000,3.953682861328125,-8.69001386873424,-4.453646465045213,-0.9050291972618549
1633782546442561800,3.973561767578125,-8.684222425851225,-4.465835792271792,-0.9005432109542191
1633782546462441000,3.99344091796875,-8.677670519989729,-4.478163651186228,-0.9024779053438454
1633782546482320000,4.01331982421875,-8.670662102532386,-4.491455386696756,-0.9037852616153657
1633782546502198000,4.033197998046875,-8.660774330246449,-4.510928148929774,-0.9016147126432508
1633782546522077000,4.053076904296875,-8.64669027531445,-4.537730523398518,-0.902295096122846
1633782546541955800,4.072955810546875,-8.630792448958754,-4.566953695273399,-0.9070517160654068
1633782546561835000,4.0928349609375,-8.615223123905063,-4.5953410008460285,-0.9116762340608984
1633782546581713000,4.112712890625,-8.598397076788544,-4.626339657960832,-0.9137462452679872
1633782546601592000,4.132592041015625,-8.581295719861984,-4.658529278425872,-0.9109606331374496
1633782546621471000,4.152470947265625,-8.566416715160011,-4.686747072650492,-0.9062518709246069
1633782546641350100,4.17235009765625,-8.555197402009368,-4.707499353300035,-0.9046728581048548
1633782546661228000,4.19222802734375,-8.548806239667535,-4.718299856516719,-0.9088189449336379
1633782546681107000,4.21210693359375,-8.545648652419448,-4.722177282471955,-0.9183212250333279
1633782546700985900,4.23198583984375,-8.543585874670743,-4.723916819615662,-0.9285145561370998
1633782546720864000,4.251864013671875,-8.541776779422163,-4.7263197891041635,-0.9329214127939194
1633782546740742400,4.271742431640625,-8.540915778678656,-4.728239943511784,-0.9310717663392424
1633782546760621600,4.29162158203125,-8.542560623276232,-4.726966854836046,-0.9224000918447971
1633782546780500500,4.31150048828125,-8.54592103962004,-4.723329667377472,-0.9098186234954744
1633782546800378600,4.331378662109375,-8.549291392835974,-4.71958463563025,-0.8975102729991078
1633782546820257500,4.351257568359375,-8.553862938535213,-4.7128915677323935,-0.8890834401112049
1633782546840136400,4.371136474609375,-8.560474465629458,-4.701948733435571,-0.8833678389433771
1633782546860014300,4.391014404296875,-8.568754802718757,-4.688201070851087,-0.8761247359473258
1633782546879893500,4.4108935546875,-8.573835466983914,-4.680950076809525,-0.8651230841353535
1633782546899772400,4.4307724609375,-8.573678230595588,-4.683995435854793,-0.8500691612578928
1633782546919651600,4.450651611328125,-8.570314891642331,-4.692873154315352,-0.8348837209552527
1633782546939529500,4.470529541015625,-8.567113465252518,-4.699972757187486,-0.8277729391019791
1633782546959408600,4.49040869140625,-8.56666338339746,-4.700305350142717,-0.8305367047268897
1633782546979287300,4.510287353515625,-8.570199740830063,-4.692231641541421,-0.8396586802721023
1633782546999166500,4.53016650390625,-8.57501620120108,-4.682214105395972,-0.8463748367846011
1633782547019044400,4.55004443359375,-8.576538296201825,-4.679459253729879,-0.8461883743017912
1633782547038923500,4.569923583984375,-8.573370187559723,-4.686149106757343,-0.8412564708575606
1633782547058802700,4.589802734375,-8.567658824175595,-4.696786236105859,-0.8401183336731046
1633782547078681300,4.609681396484375,-8.561983116626738,-4.70578290477097,-0.8476057668190449
1633782547098559500,4.6295595703125,-8.558479492419957,-4.709836564075947,-0.8603825385447591
1633782547118438400,4.6494384765625,-8.557578159666061,-4.709537873390317,-0.8709146731488406
1633782547138317600,4.669317626953125,-8.557862237304448,-4.7083200220331545,-0.8746977718841284
1633782547158195500,4.689195556640625,-8.55599293630123,-4.712286879837513,-0.8716190220259129
1633782547178074600,4.70907470703125,-8.551495624881982,-4.721576101708412,-0.8654619607008993
1633782547197953500,4.72895361328125,-8.546829971158504,-4.73115729226321,-0.8592068458288907
1633782547217832400,4.74883251953125,-8.544782390978932,-4.736112284322083,-0.8522421213828026
1633782547237710600,4.768710693359375,-8.54491800005734,-4.736500699117779,-0.8487168698661028
1633782547257589500,4.788589599609375,-8.545742175921797,-4.734162903819978,-0.8534509126506745
1633782547277468400,4.808468505859375,-8.546564598220586,-4.731419450330734,-0.8603969323962927
1633782547297346600,4.8283466796875,-8.547712014690042,-4.72964571865648,-0.8587506264939904
1633782547317225500,4.8482255859375,-8.54694804458022,-4.7330154873505235,-0.8477183603480458
1633782547337104600,4.868104736328125,-8.545649821463227,-4.73869967046678,-0.8288438562691212
1633782547356983300,4.8879833984375,-8.54620161012709,-4.741145310053229,-0.8089270035304129
1633782547376861700,4.90786181640625,-8.547939393705128,-4.739997309061884,-0.797212235013023
1633782547396740400,4.927740234375,-8.548594058221578,-4.738910098347067,-0.796653578216955
1633782547416619500,4.94761962890625,-8.547392281216382,-4.740657818797231,-0.7991469294026493
1633782547436498400,4.96749853515625,-8.546229667177796,-4.743756369334459,-0.7931693162977695
1633782547456376600,4.98737646484375,-8.545807642373441,-4.746585455280542,-0.7806924773667008
1633782547476255500,5.00725537109375,-8.545465697067975,-4.749337092076241,-0.7675912229269742
1633782547496134400,5.027134521484375,-8.542931794676184,-4.755032965630293,-0.7605022875793278
1633782547516013300,5.047013427734375,-8.539719846892357,-4.7613542776063085,-0.7570158337030559
1633782547535891500,5.066891357421875,-8.538504041361808,-4.764549858777225,-0.750599098528549
1633782547555770400,5.086770263671875,-8.53837018584907,-4.7661429731875655,-0.7419516086272895
1633782547575649500,5.1066494140625,-8.53859464225471,-4.767340366278589,-0.7316082015283405
1633782547595527400,5.12652734375,-8.540323658004402,-4.766130990488827,-0.7192053046163172
1633782547615406600,5.146406494140625,-8.54340408836305,-4.761876547914743,-0.7107463960897177
1633782547635285500,5.166285400390625,-8.544773623150586,-4.759823999299108,-0.7080293191507459
1633782547655164400,5.186164306640625,-8.543063896623254,-4.762911443920434,-0.7078963404208422
1633782547675042300,5.206042236328125,-8.539368549236654,-4.7694826390042895,-0.7082360207039863
1633782547694921500,5.22592138671875,-8.537295834615826,-4.772980710253119,-0.7096583085920661
1633782547714800600,5.245800537109375,-8.537730718901752,-4.771919803023338,-0.7115631923653185
1633782547734679000,5.265678955078125,-8.538049867853521,-4.770873508840799,-0.714743868228048
1633782547754557000,5.285556884765625,-8.537186529022454,-4.771744738717377,-0.7192271511219441
1633782547774436000,5.30543603515625,-8.535988259148597,-4.773154313254356,-0.7240753218054771
1633782547794314800,5.325314697265625,-8.535338270807266,-4.7735766303196545,-0.7289389823190867
1633782547814193000,5.34519287109375,-8.536004041239618,-4.7719580892071125,-0.731734165995568
1633782547834071800,5.36507177734375,-8.537596278867126,-4.7690343107149005,-0.7322238492086529
1633782547853951000,5.384950927734375,-8.541570443195104,-4.763106966492534,-0.7244116410877555
1633782547873830000,5.404829833984375,-8.546360600081085,-4.7565118060112,-0.7111287464708089
1633782547893708000,5.4247080078125,-8.55028917170167,-4.7511502789780495,-0.6996508554492146
1633782547913587000,5.4445869140625,-8.552010004144906,-4.748320023988187,-0.6978297044366598
1633782547933465900,5.4644658203125,-8.5539430180341,-4.744408695763349,-0.7007292983356863
1633782547953343700,5.48434375,-8.557481713554262,-4.737510460682213,-0.7041888642050326
1633782547973223000,5.504222900390625,-8.561488026586174,-4.729131339393556,-0.711771282158047
1633782547993101800,5.524101806640625,-8.565974816611408,-4.718612867988646,-0.7274302582565695
1633782548012981000,5.54398095703125,-8.572036308607458,-4.704693940490484,-0.7459451352428644
1633782548032859000,5.56385888671875,-8.580231890022754,-4.68700221645534,-0.7628970737613737
1633782548052738000,5.583738037109375,-8.589959503310919,-4.66772789940387,-0.771552089381963
1633782548072617000,5.603616943359375,-8.59929899406433,-4.649979184484481,-0.7746830078188329
1633782548092496000,5.623495849609375,-8.60791776932776,-4.634113214571774,-0.7740353575650603
1633782548112374000,5.6433740234375,-8.616744634383917,-4.6174572633251545,-0.7753583497971296
1633782548132253000,5.6632529296875,-8.625271055188774,-4.600589130632579,-0.780807628178969
1633782548152132000,5.683132080078125,-8.63046511670053,-4.5887943556815385,-0.7927321669895201
1633782548172010000,5.703010009765625,-8.631873814454675,-4.583872973631322,-0.8057594794102013
1633782548191889200,5.72288916015625,-8.631737620854377,-4.5831326766580345,-0.811409906387329
1633782548211767800,5.742767822265625,-8.631782044517994,-4.582974271225929,-0.8118301776260137
1633782548231647000,5.76264697265625,-8.630846224972606,-4.58470620958507,-0.8120032691705972
1633782548251524900,5.78252490234375,-8.628595815697311,-4.5882378908425565,-0.8159579250805079
1633782548271404000,5.802404052734375,-8.624768366363645,-4.593434290441871,-0.8271141098670661
1633782548291283000,5.822282958984375,-8.620276900163292,-4.599413072590529,-0.8406004181016236
1633782548311162000,5.842162109375,-8.615903507384658,-4.605408513613045,-0.8525279525868594
1633782548331040000,5.8620400390625,-8.611246621489524,-4.612750985330343,-0.8598524502560496
1633782548350919000,5.8819189453125,-8.608091372328996,-4.618683005727827,-0.8596049783010036
1633782548370797800,5.9017978515625,-8.606031517189741,-4.6225139621928335,-0.8596379307225346
1633782548390676000,5.921676025390625,-8.604231774291396,-4.625446216252446,-0.8618727771025151
1633782548410555000,5.941554931640625,-8.603884568288922,-4.625696391621232,-0.8639925457354635
1633782548430434000,5.96143408203125,-8.60424404925108,-4.6244253487721085,-0.86721377280429
1633782548450313000,5.98131298828125,-8.604290226480364,-4.62480382669568,-0.8647318197954446
1633782548470191000,6.001191162109375,-8.603378372332454,-4.628588898192346,-0.8534813808541745
1633782548490069800,6.02106982421875,-8.600739256000518,-4.635559029465914,-0.8421738779634237
1633782548509949000,6.040948974609375,-8.59881267185211,-4.640731171406805,-0.8333174945518373
1633782548529827800,6.060827880859375,-8.598606920146942,-4.642567446923255,-0.8251724742799997
1633782548549706000,6.0807060546875,-8.59935686173141,-4.642646065117418,-0.8168724826421588
1633782548569585000,6.1005849609375,-8.598727331656217,-4.645196626383066,-0.8089615633871405
1633782548589464000,6.120464111328125,-8.595355224874615,-4.652571246804297,-0.8023933639779687
1633782548609342000,6.140342041015625,-8.590232475033401,-4.663511743013561,-0.793691075149551
1633782548629220900,6.160220947265625,-8.583461373463273,-4.676866022366285,-0.7883498602520674
1633782548649100000,6.18010009765625,-8.575462191402911,-4.691265426857769,-0.7898494511600583
1633782548668979000,6.19997900390625,-8.567627844515442,-4.7044098628520965,-0.7966555509783327
1633782548688856800,6.21985693359375,-8.559570794788003,-4.716876545715332,-0.8094456936422735
1633782548708736000,6.239736083984375,-8.552329153096675,-4.72779015391767,-0.8222237805422395
1633782548728615200,6.259615234375,-8.5452318883121,-4.737696630904078,-0.8388225947741419
1633782548748494300,6.279494384765625,-8.538416947600245,-4.746432895067334,-0.8585976278893649
1633782548768372200,6.299372314453125,-8.533022395080328,-4.752556638644635,-0.8781324225079268
1633782548788251400,6.31925146484375,-8.530791859549284,-4.75379874766022,-0.8929594778269528
1633782548808130300,6.33913037109375,-8.53198954490125,-4.75004903973788,-0.9014297114651649
1633782548828008400,6.359008544921875,-8.53533184106648,-4.743629528084397,-0.9035870356295257
1633782548847887400,6.378887451171875,-8.539402451506257,-4.736556813219189,-0.9022336482591926
1633782548867766300,6.398766357421875,-8.542972126686573,-4.730511395575106,-0.9001548692237585
1633782548887645200,6.418645263671875,-8.54618290542662,-4.725539744642377,-0.8957774578571319
1633782548907523300,6.4385234375,-8.54961404891908,-4.7207861203745,-0.8880690023716539
1633782548927402200,6.45840234375,-8.551464060699939,-4.719705047139525,-0.8759190573073923
1633782548947281400,6.478281494140625,-8.551248372122645,-4.722608075104653,-0.8622701789222658
1633782548967159300,6.4981591796875,-8.550105631828307,-4.7269075258642435,-0.8499558370765298
1633782548987038500,6.51803857421875,-8.548992702150345,-4.730824699307978,-0.83928772806786
1633782549006917000,6.537917236328125,-8.547643041107058,-4.734986495162547,-0.8295083115272224
1633782549026796300,6.55779638671875,-8.544329386514425,-4.742712120978534,-0.8194558501988649
1633782549046674200,6.577674072265625,-8.538114749783277,-4.755620702390372,-0.8093515125527977
1633782549066553300,6.59755322265625,-8.532548932349682,-4.767291266439855,-0.7993278389275074
1633782549086432300,6.617432373046875,-8.531513744083046,-4.770790506732464,-0.7894391898587345
1633782549106310400,6.637310302734375,-8.533672383421658,-4.767813244487345,-0.784075105542317
1633782549126189300,6.657189208984375,-8.534861885467171,-4.765960017836093,-0.7823969431970268
1633782549146068200,6.677068115234375,-8.53387521251738,-4.767269054608047,-0.7851780983481556
1633782549165947400,6.696947509765625,-8.53238234361112,-4.769256136772036,-0.7893240390464663
1633782549185825300,6.7168251953125,-8.533541450518369,-4.767227845814824,-0.7890474871274084
1633782549205704200,6.7367041015625,-8.536422558912633,-4.764440260922909,-0.7745832737714051
1633782549225583400,6.756583251953125,-8.537503339886666,-4.768262741820514,-0.7383015616871416
1633782549245462500,6.776462646484375,-8.535912855824828,-4.781593055775761,-0.667040744549781
1633782549265340400,6.79634033203125,-8.528827281478048,-4.8075911281242965,-0.5626362210929393
1633782549285219300,6.81621923828125,-8.513965812432765,-4.846701487763226,-0.4384671493822708
1633782549305098200,6.83609814453125,-8.4925460077852,-4.8938846792206165,-0.31135888241454956
1633782549324976000,6.85597607421875,-8.470797117313742,-4.937022102418542,-0.2044169859671965
1633782549344855300,6.875855224609375,-8.45476426640153,-4.9669519612580535,-0.12936689608208835
1633782549364734500,6.895734375,-8.44564338683486,-4.983471718904376,-0.08060863732770085
1633782549384613400,6.91561328125,-8.440559215438366,-4.992441207301616,-0.05360078971500042
1633782549404491500,6.935491455078125,-8.445512453931569,-4.9841877582192415,-0.0396645411892794
1633782549424370200,6.9553701171875,-8.454940207490324,-4.968325587698817,-0.010669018899189541
1633782549444249300,6.975249267578125,-8.45830471548736,-4.9622950753629205,0.055612129537411965
1633782549464128300,6.995128173828125,-8.45080880677402,-4.972803609895706,0.15950217783320694
1633782549484006400,7.01500634765625,-8.440053019481898,-4.98553391213119,0.2834554513687268
1633782549503885300,7.03488525390625,-8.432541913199424,-4.990595287173986,0.3956973539203405
1633782549523764500,7.054764404296875,-8.422780397641658,-5.000493580853939,0.4714002816909924
1633782549543642400,7.074642333984375,-8.410836277347803,-5.017265851956606,0.505231751078926
1633782549563521300,7.094521240234375,-8.406096389344334,-5.023554722967743,0.5213711311055347
1633782549583400200,7.114400146484375,-8.409019583314656,-5.019698632061481,0.5112756708856672
1633782549603279400,7.134279296875,-8.419992812749744,-5.0050464218527075,0.4728836155839264
1633782549623157200,7.1541572265625,-8.442981474149226,-4.970664844301343,0.4230206469906494
1633782549643036400,7.174036376953125,-8.476137893819809,-4.9177340491026635,0.3759840243970975
1633782549662915300,7.193915283203125,-8.511254799908398,-4.859355217631161,0.3399903720065951
1633782549682794200,7.213794189453125,-8.543483583340048,-4.803811025063693,0.32042525531500576
1633782549702672100,7.233672119140625,-8.5697216019243,-4.75755517758429,0.3097199926337227
1633782549722551300,7.25355126953125,-8.586496211114525,-4.727666819798946,0.30271946622189133
1633782549742433800,7.273433837890625,-8.594018423312901,-4.713947798787057,0.3031919425718486
1633782549762311700,7.293311767578125,-8.598663034248352,-4.704930087333917,0.31147421588990837
1633782549782190800,7.31319091796875,-8.606420224246381,-4.689810259613394,0.3249551903622225
1633782549802069800,7.33306982421875,-8.615964882183075,-4.671208727256953,0.3396161683993414
1633782549821948700,7.35294873046875,-8.626334300506114,-4.650834924530983,0.35562899943683296
1633782549841826600,7.37282666015625,-8.634524621224402,-4.634624671225249,0.3682665453549474
1633782549861705700,7.392705810546875,-8.635956699854136,-4.6314621155411,0.3744245565280318
1633782549881584600,7.412584716796875,-8.630784265652299,-4.641696509307622,0.3668752005944028
1633782549901462800,7.432462890625,-8.623664789035915,-4.656283545325696,0.34901772807091475
1633782549921341700,7.452341796875,-8.622298176857829,-4.6595720654770725,0.3387500530892983
1633782549941220900,7.472220947265625,-8.62982857236266,-4.64616839402467,0.3310000600170344
1633782549961099500,7.492099609375,-8.643996213924884,-4.620350062157214,0.3226086272360757
1633782549980977700,7.511977783203125,-8.659010827705263,-4.592709483298659,0.3145490567579865
1633782550000856600,7.531856689453125,-8.66946383265853,-4.57340564789176,0.30780575651023534
1633782550020735700,7.55173583984375,-8.67563287668228,-4.561932067719102,0.30422490234877914
1633782550040615000,7.571614990234375,-8.684353358754516,-4.545815630176663,0.2965707891327329
1633782550060492800,7.591492919921875,-8.69754718684852,-4.521199075314402,0.2860299780318513
1633782550080372000,7.6113720703125,-8.70911195243597,-4.498709887869656,0.2887222127905115
1633782550100250600,7.631250732421875,-8.709405966946482,-4.4965506640091535,0.3125035589376464
1633782550120128500,7.65112841796875,-8.691444778320193,-4.527652781498432,0.359906749821268
1633782550140007700,7.671007568359375,-8.653941853877901,-4.592588779528438,0.4333589760556817
1633782550159886800,7.690886962890625,-8.600708860862255,-4.681151736861467,0.5338607929855584
1633782550179765800,7.710765869140625,-8.540996442699432,-4.775510228730738,0.6451835713982582
1633782550199644000,7.730643798828125,-8.49081056229472,-4.849763797943294,0.7458603065036237
1633782550219522800,7.750522705078125,-8.463554306578636,-4.885090839651227,0.8212938062157481
1633782550239401700,7.770401611328125,-8.459896953114868,-4.882684363031387,0.8717332960553467
1633782550259279600,7.790279541015625,-8.46936620772779,-4.861697396843135,0.8967282557759434
1633782550279158800,7.81015869140625,-8.480277477842568,-4.8430718990892165,0.8943896567605435
1633782550299037700,7.83003759765625,-8.485811146572232,-4.836690381358563,0.8762519425235689
1633782550318916900,7.849916748046875,-8.487868663623928,-4.836910161589086,0.8548476277060806
1633782550338794800,7.869794677734375,-8.492735392877458,-4.83225006082356,0.8325808508403599
1633782550358674000,7.889673828125,-8.505835112947224,-4.813191140088438,0.8089200623329729
1633782550378552600,7.909552490234375,-8.52783359426558,-4.77761392301172,0.787939745081216
1633782550398431700,7.929431640625,-8.55638748857677,-4.729214049240946,0.770166845568642
1633782550418309600,7.9493095703125,-8.587769299790263,-4.674696277111768,0.7535347135890275
1633782550438188800,7.969188720703125,-8.617387608462572,-4.622915236470103,0.7346210465434938
1633782550458067700,7.989067626953125,-8.64359406286478,-4.577509868340194,0.7106799797900021
1633782550477945900,8.00894580078125,-8.666751066568493,-4.536517932738364,0.6912439693707972
1633782550497824800,8.02882470703125,-8.685707111451029,-4.501800255100429,0.6801944598291069
1633782550517703700,8.04870361328125,-8.700983006516099,-4.472440889625251,0.6786392662763595
1633782550537582600,8.06858251953125,-8.713739612236619,-4.445941882017254,0.6890051774680614
1633782550557460700,8.088460693359375,-8.726205126056074,-4.418043821266293,0.7103679181661456
1633782550577339600,8.108339599609375,-8.741351257261634,-4.383062816517055,0.7402181358981877
1633782550597218800,8.12821875,-8.762043332156539,-4.335448832426965,0.7751573473323136
1633782550617096700,8.1480966796875,-8.789001481708883,-4.272890377183258,0.8162338924776762
1633782550636975900,8.167975830078126,-8.821153108251094,-4.19700131572336,0.8618695622321217
1633782550656854500,8.1878544921875,-8.85575855768621,-4.117723780868947,0.8889731846697628
1633782550676733700,8.207733642578125,-8.887426200103759,-4.046589220459759,0.8995306729108095
1633782550696611600,8.227611572265625,-8.915871373343467,-3.984689521385729,0.8943526857510209
1633782550716490800,8.24749072265625,-8.940180469691754,-3.9352980062291025,0.8700527225572615
1633782550736366800,8.267366943359375,-8.960036678284407,-3.897420695516467,0.8356064092066139
1633782550756245500,8.28724560546875,-8.97690656454265,-3.866545080259442,0.7970929194822907
1633782550776123600,8.30712353515625,-8.992297610419989,-3.8384684480711817,0.7583741164442152
1633782550796002600,8.32700244140625,-9.004935558196902,-3.8158231932818887,0.7218154871147126
1633782550815881700,8.3468818359375,-9.011441286829113,-3.8068434757515788,0.6872049231130629
1633782550835759600,8.366759521484376,-9.012609746086596,-3.8115617364451286,0.6443962204128504
1633782550855638800,8.386638671875,-9.011663405147194,-3.82266560652256,0.5895214880721643
1633782550875517700,8.406517578125,-9.00568549978137,-3.8433363463684915,0.5447718439046293
1633782550895396600,8.426396728515625,-8.98343801213801,-3.8936142889708276,0.554972737260349
1633782550915274500,8.4462744140625,-8.941053160873055,-3.978872944061458,0.6297000249318778
1633782550935153700,8.466153564453125,-8.889880022996664,-4.074540472702682,0.7338526194542646
1633782550955032600,8.486032470703124,-8.851322621065378,-4.140642591902614,0.8243485906764865
1633782550974910700,8.50591064453125,-8.847087175452709,-4.146245526476204,0.8414790275670587
1633782550994789600,8.52578955078125,-8.886908313709498,-4.076725707787275,0.7573315485887229
1633782551014668800,8.545668701171875,-8.955747456657885,-3.946716349083185,0.6232156313486397
1633782551034547700,8.565547607421875,-9.020973669806121,-3.8140792722240087,0.4951997114840895
1633782551054425600,8.585425537109375,-9.053318188571929,-3.7499645274490114,0.3815467365581542
1633782551074304500,8.605304443359374,-9.043614540681242,-3.7820965725079176,0.2813581502959132
1633782551094183700,8.62518359375,-9.005809418421983,-3.8769226818889377,0.18774899722291155
1633782551114062800,8.645062744140626,-8.960797725784778,-3.983351843041181,0.08598611084865405
1633782551133940700,8.664940673828125,-8.91935161667466,-4.076142939463257,-0.024595105648855677
1633782551153820000,8.68481982421875,-8.881085891166329,-4.156455662584305,-0.14343537898561917
1633782551173698600,8.704698486328125,-8.843913221591711,-4.2301328932136295,-0.2481271492854692
1633782551193576700,8.72457666015625,-8.81271261216402,-4.290575379216671,-0.3121569739896804
1633782551213455600,8.74445556640625,-8.791943964901566,-4.3319528070047495,-0.3260294319976121
1633782551233334800,8.764334716796874,-8.782824838900565,-4.352724669137597,-0.2935253752885386
1633782551253213700,8.784213623046876,-8.785597226223349,-4.350943630939722,-0.23011607536915687
1633782551273091800,8.804091796875,-8.798792223361135,-4.327233669528365,-0.1633823072021827
1633782551292970800,8.823970703125,-8.818767089897394,-4.287823742420971,-0.11956589789730496
1633782551312849700,8.843849609375,-8.839130663490295,-4.245775868025422,-0.11638454618114046
1633782551332727600,8.8637275390625,-8.85570185906291,-4.210015111075341,-0.15066828938121907
1633782551352606700,8.883606689453124,-8.867817244270443,-4.182438829624653,-0.19850827338006347
1633782551372485600,8.903485595703126,-8.87681128258705,-4.161372076198458,-0.2357692788252607
1633782551392364800,8.92336474609375,-8.882976234957574,-4.146971502663195,-0.2564024448734708
1633782551412242700,8.94324267578125,-8.890281589534878,-4.130062745699286,-0.2754250156535767
1633782551432121900,8.963121826171875,-8.907111728304624,-4.09152463299036,-0.3052340063260868
1633782551452000500,8.98300048828125,-8.935997046527266,-4.024218983219564,-0.3521375771244988
1633782551471879700,9.002879638671875,-8.964381429490446,-3.956475526553392,-0.39566520521640774
1633782551491757600,9.022757568359374,-8.973555500549077,-3.9351650274991985,-0.4002021545263007
1633782551511636700,9.04263671875,-8.954290828108787,-3.9830344476550814,-0.3556656781854108
1633782551531515600,9.062515625,-8.914942568060756,-4.076067243878543,-0.2825996382569894
1633782551551393800,9.082393798828125,-8.874129496157169,-4.166845831434428,-0.24000342752998693
1633782551571272700,9.102272705078125,-8.845605412462353,-4.226017566849291,-0.25773084393301976
1633782551591151600,9.122151611328125,-8.8326126598984,-4.249044222171604,-0.3177448205919936
1633782551611030800,9.14203076171875,-8.832214015969633,-4.244905807192623,-0.37835594116020943
1633782551630908700,9.16190869140625,-8.839164565759896,-4.228658144485951,-0.39749486832898107
1633782551650787600,9.18178759765625,-8.84754777870178,-4.213913579818606,-0.36635903123319147
1633782551670666800,9.201666748046875,-8.851608452269435,-4.210508447550237,-0.3017140337727032
1633782551690546000,9.2215458984375,-8.853851847282051,-4.210065379957855,-0.2346068109171465
1633782551710423800,9.241423828125,-8.872078408846258,-4.174365997806191,-0.17684207448968664
1633782551730302700,9.261302734375,-8.910724658104776,-4.091615526144206,-0.16748444529138504
1633782551750182000,9.281181884765624,-8.955594896444678,-3.9899958111003038,-0.21827468479741363
1633782551770060000,9.30106005859375,-8.99210647176206,-3.902762056544423,-0.28434502061959355
1633782551789939000,9.32093896484375,-9.010822278147936,-3.8571146963521836,-0.3132520392173901
1633782551809818000,9.340818115234375,-9.006392186746,-3.868986628192663,-0.2936392109265551
1633782551829696800,9.36069677734375,-8.983246288958192,-3.9253850995019075,-0.25104259834075343
1633782551849575200,9.3805751953125,-8.946313273358344,-4.010656321813166,-0.22021226526387033
1633782551869453800,9.400453857421875,-8.902637213239073,-4.107104479438067,-0.21243859905507415
1633782551889333000,9.4203330078125,-8.871718927884102,-4.172452857661247,-0.2315689775912091
1633782551909211000,9.4402109375,-8.86880917791724,-4.1758842934146525,-0.27676298625906925
1633782551929090000,9.460090087890626,-8.900691924390197,-4.103858629384637,-0.3262197304053232
1633782551948969000,9.479968994140625,-8.961144931787253,-3.966569342805445,-0.36686427734158933
1633782551968848000,9.499847900390625,-9.03708952282667,-3.784755562584102,-0.4207441534260288
1633782551988726000,9.51972607421875,-9.107781015643477,-3.5995971481099724,-0.511471412653476
1633782552008605000,9.53960498046875,-9.163469000595807,-3.436661379098892,-0.6249616712983698
1633782552028484000,9.559484130859374,-9.202708539572358,-3.30564839631021,-0.7437929987102746
1633782552048363000,9.579363037109376,-9.225447610124945,-3.2145679031983017,-0.8532605046451092
1633782552068241000,9.599240966796875,-9.236246067515015,-3.160181356233358,-0.9356277491431683
1633782552088120000,9.6191201171875,-9.233940128660201,-3.151360628657043,-0.9867392199601978
1633782552107999000,9.6389990234375,-9.220236597478388,-3.187039844803512,-1.0001972519483417
1633782552127878000,9.6588779296875,-9.199788852733374,-3.248258283615112,-0.9915076764710247
1633782552147756000,9.678756103515624,-9.182714383813739,-3.303941592392325,-0.9654591891095041
1633782552167635000,9.698635009765624,-9.174045924189686,-3.3364421785026788,-0.9356391473200172
1633782552187514000,9.71851416015625,-9.168596426612138,-3.3604467389464374,-0.9025653644315897
1633782552207392000,9.73839208984375,-9.164055860573052,-3.3860949749439953,-0.8513663614615797
1633782552227271200,9.758271240234375,-9.149153474995494,-3.4347529151290654,-0.8159958459381014
1633782552247149800,9.77814990234375,-9.113049895957111,-3.5244989447668194,-0.8370283317685127
1633782552267029000,9.798029052734375,-9.060774349796771,-3.638602878330648,-0.9128639094755053
1633782552286907000,9.817906982421874,-9.021867403775452,-3.7154058397650718,-0.9859254193592816
1633782552306786000,9.8377861328125,-9.013136400309204,-3.72826795168668,-1.0167476969938725
1633782552326665000,9.8576650390625,-9.027405748680234,-3.6975074872419236,-1.0023783223144709
1633782552346544000,9.877544189453126,-9.048119450885057,-3.659229779034853,-0.95496702118963
1633782552366422000,9.897422119140625,-9.062267803224922,-3.6440211039870976,-0.8756691011343151
1633782552386301000,9.917301025390625,-9.074581341353058,-3.642170215423405,-0.7462948985286056
1633782552406179800,9.937179931640625,-9.078264998301863,-3.667537880913913,-0.5519518916018307
1633782552426058000,9.95705810546875,-9.06176511439979,-3.7317552092805504,-0.3588926408752799
1633782552445937000,9.97693701171875,-9.029188540443778,-3.817387081597745,-0.26776155008729546
1633782552465816000,9.996816162109376,-8.995348230162262,-3.895766206307709,-0.27766985370460895
1633782552485695000,10.016695068359375,-8.9780995737195,-3.9315114734277126,-0.3276084448173642
1633782552505573000,10.036572998046875,-8.980090455275773,-3.921641236798465,-0.38612346988916396
1633782552525451800,10.05645166015625,-8.996125059753656,-3.8825162641122937,-0.40765148415155705
1633782552545331000,10.0763310546875,-9.013098990908265,-3.845746330119669,-0.38035445803366597
1633782552565210000,10.096210205078124,-9.019422933232784,-3.83559903011471,-0.3294991539347917
1633782552585088000,10.116087890625,-9.013192514410614,-3.8530660054832695,-0.294324014852941
1633782552604967000,10.135966796875,-9.009767216137051,-3.859711142586171,-0.311625533994101
1633782552624846000,10.15584619140625,-9.017803807598352,-3.8360064418718216,-0.3669463296018541
1633782552644724000,10.175723876953125,-9.031168900606035,-3.799379131220281,-0.41604463396556673
1633782552664603000,10.195602783203125,-9.038615124958753,-3.7803514824062585,-0.4275092271141708
1633782552684482000,10.21548193359375,-9.034054685175418,-3.795452020904422,-0.3883136368772015
1633782552704361000,10.23536083984375,-9.014358635580539,-3.8494638893380757,-0.3055409899160266
1633782552724238800,10.25523876953125,-8.984399550646543,-3.925887788327038,-0.19582833184739573
1633782552744117500,10.275117431640625,-8.952805557987093,-4.001093543697893,-0.09439576427289284
1633782552763996700,10.29499658203125,-8.9296304341048,-4.053557305906713,-0.02750890160317067
1633782552783875600,10.31487548828125,-8.921448296692967,-4.071625462038814,0.00214808198280225
1633782552803753700,10.334753662109375,-8.922061460155248,-4.070279892648756,0.005419868482620222
1633782552823632400,10.35463232421875,-8.916457064276933,-4.082522411367297,-0.01374895835078205
1633782552843511600,10.374511474609376,-8.90005187292099,-4.117849160814285,-0.052762918685330076
1633782552863389400,10.394389404296875,-8.879466765531896,-4.161283521132171,-0.09579404109772294
1633782552883268600,10.4142685546875,-8.862015864515303,-4.197644874323904,-0.121803374625789
1633782552903147500,10.4341474609375,-8.858882242664695,-4.204187720096111,-0.12406622325754724
1633782552923026700,10.454026611328125,-8.868350912755727,-4.1844665360599755,-0.11392696956172585
1633782552942904600,10.473904541015624,-8.881304502353071,-4.15735874890387,-0.0958170383808203
1633782552962783500,10.493783447265624,-8.896670413789153,-4.125011892050504,-0.06258495052498765
1633782552982662700,10.51366259765625,-8.906007566455006,-4.105211797559261,0.025558208210102747
1633782553002540500,10.53354052734375,-8.887005928865074,-4.142321631030738,0.18077143156155942
1633782553022419700,10.553419677734375,-8.819362717702985,-4.269228639805316,0.4036269048105925
1633782553042298600,10.573298583984375,-8.716091143798828,-4.444203513917326,0.6702135293669998
1633782553062177500,10.593177490234375,-8.62285464169681,-4.584970998001098,0.8915150511723011
1633782553082055700,10.6130556640625,-8.579186180362106,-4.649353746062517,0.9754266755681484
1633782553101934600,10.6329345703125,-8.587576992088556,-4.643185578821599,0.9299110519967972
1633782553121813500,10.6528134765625,-8.62067086791694,-4.598676575009525,0.8405860242500901
1633782553141692700,10.672692626953125,-8.65349586367607,-4.547583808892965,0.7790243249587714
1633782553161570600,10.692570556640625,-8.675809986814857,-4.505727073155343,0.7740344077169895
1633782553181449700,10.71244970703125,-8.684338745707272,-4.484708250524103,0.8000270001728087
1633782553201328600,10.73232861328125,-8.685057707631588,-4.4830134293049575,0.8017141495421528
1633782553221207600,10.75220751953125,-8.691715996477008,-4.482032601574063,0.732008306761831
1633782553241085400,10.77208544921875,-8.716825887814164,-4.4540717047199605,0.5904052851693704
1633782553260964600,10.791964599609376,-8.756330215206741,-4.396665517672896,0.4079205103512853
1633782553280843500,10.811843505859375,-8.796182333123683,-4.329122552014887,0.237197612861637
1633782553300721700,10.8317216796875,-8.824384929779171,-4.276754066874086,0.09996096978513523
1633782553320600600,10.8516005859375,-8.835531177693605,-4.25483391148895,-0.012416601210390217
1633782553340479500,10.8714794921875,-8.835509550383687,-4.253563453161716,-0.10654014724604785
1633782553360358400,10.8913583984375,-8.834505341777206,-4.253732964509726,-0.16628979214672
1633782553380236500,10.911236572265626,-8.835686660516261,-4.250538844643533,-0.18423510735044255
1633782553400115500,10.931115478515625,-8.835867862302065,-4.250267334225773,-0.18179735880950465
1633782553419994600,10.95099462890625,-8.833891593793034,-4.253778557217121,-0.19523412881391122
1633782553439872500,10.97087255859375,-8.829949578168987,-4.259835665298998,-0.23701980860931798
1633782553459751700,10.990751708984375,-8.831341909310222,-4.255148384265602,-0.2673983610644005
1633782553479630600,11.010630615234374,-8.841044388157128,-4.2358422107711435,-0.25290499467914923
1633782553499509500,11.030509521484374,-8.8499951718539,-4.219970103378594,-0.19954517867974936
1633782553519387400,11.050387451171876,-8.847917781057953,-4.226538668113947,-0.14526654906868933
1633782553539266600,11.0702666015625,-8.83419671421945,-4.2568563572272655,-0.08078594838967547
1633782553559145700,11.090145751953125,-8.81890211445391,-4.289172526681423,0.018652945166558493
1633782553579024600,11.110024658203125,-8.812728978776931,-4.299539022395015,0.1419711973177269
1633782553598902500,11.129902587890625,-8.81254543890357,-4.293440120998024,0.27533298998856914
1633782553618781400,11.149781494140624,-8.79691590809524,-4.31686454346627,0.38644506652634586
1633782553638660600,11.16966064453125,-8.753021236789227,-4.401864255359769,0.42260680549275126
1633782553658538500,11.18953857421875,-8.694798180401325,-4.521411841282248,0.357362910557352
1633782553678417700,11.209417724609375,-8.647838860827683,-4.61856727039367,0.23260233922693876
1633782553698296600,11.229296630859375,-8.633847744876146,-4.649245609512925,0.10757110686213708
1633782553718175700,11.24917578125,-8.652149709764123,-4.616236781619489,0.032299460347951385
1633782553738053000,11.26905322265625,-8.683861775845289,-4.556337608712911,0.02683045206904644
1633782553757932300,11.288932373046874,-8.702308702161908,-4.520670375265181,0.06122769526371266
1633782553777811000,11.30881103515625,-8.694449805355072,-4.5349195576310155,0.10693663575034588
1633782553797690000,11.328690185546876,-8.669250482168794,-4.581632501228153,0.15208405619696713
1633782553817568000,11.348568115234375,-8.641400352212786,-4.6322728474020956,0.1965493943972513
1633782553837447200,11.368447265625,-8.612198223125935,-4.685357079596817,0.21875863238945603
1633782553857326000,11.388326171875,-8.579298993086814,-4.745566925887763,0.21356259811632333
1633782553877204200,11.408204345703124,-8.543309980338812,-4.811713761012256,0.17219642237462102
1633782553897083100,11.428083251953124,-8.50457371470928,-4.88209078105241,0.08832448153519071
1633782553916962000,11.447962158203126,-8.4716610406667,-4.939733114942908,-0.01954116042726673
1633782553936841000,11.467841064453125,-8.45347539563477,-4.969130474340916,-0.1299275621721521
1633782553956719000,11.487718994140625,-8.447789751213788,-4.975101365444064,-0.23150738359708337
1633782553976598000,11.507597900390625,-8.453502283641695,-4.961401341393589,-0.3052577342615463
1633782553996477200,11.527477294921875,-8.468670042157173,-4.933952777975797,-0.32881635930240155
1633782554016356000,11.547356201171874,-8.479355102300643,-4.918253689062595,-0.2858467304194346
1633782554036234200,11.567234130859376,-8.461863869273662,-4.952912914511561,-0.18948396778935567
1633782554056113000,11.58711279296875,-8.399403613707422,-5.061435833072662,-0.047657572070066816
1633782554075992000,11.606991943359375,-8.302737721678614,-5.217044912457466,0.1318008086981252
1633782554095870000,11.626869873046875,-8.20533650111258,-5.36164919822514,0.30911811775043607
1633782554115749000,11.6467490234375,-8.142496306318044,-5.445961804637313,0.4600488665932789
1633782554135628000,11.6666279296875,-8.131856254360079,-5.454779901865124,0.5372872603029012
1633782554155507200,11.686507080078124,-8.168180782672762,-5.400789368480444,0.5316717219760642
1633782554175385000,11.706385009765626,-8.24215144329071,-5.2898950446128845,0.5043175953760742
1633782554195264000,11.726263916015625,-8.328466621696949,-5.154377736142277,0.48929980325791983
1633782554215143000,11.746142822265625,-8.398767653891444,-5.035308289125561,0.5260812815578654
1633782554235021000,11.76602099609375,-8.433336278447507,-4.967659232744574,0.6095754842592402
1633782554254900000,11.78589990234375,-8.426703708565235,-4.971615861415863,0.6663987933844328
1633782554274779100,11.805779052734374,-8.38571995626986,-5.04133470980823,0.6595734043437987
1633782554294658300,11.825658203125,-8.337741230520605,-5.128614349332452,0.5914189557239413
1633782554314536200,11.8455361328125,-8.319109595286845,-5.167992419996858,0.5046361598059534
1633782554334414800,11.865414794921875,-8.336486262023449,-5.145202496039867,0.4475149637127295
1633782554354294000,11.8852939453125,-8.362039220952987,-5.10536089951694,0.42658487881086765
1633782554374173200,11.905173095703125,-8.369518763053417,-5.095926131695508,0.391254476102069
1633782554394051000,11.925051025390625,-8.35721983797252,-5.121275092485547,0.31592319465540347
1633782554413930200,11.94493017578125,-8.333804475593567,-5.165056951066851,0.20069316140478477
1633782554433809200,11.96480908203125,-8.317701482054591,-5.194540235182643,0.05455788037728052
1633782554453687300,11.984687255859376,-8.32456376903951,-5.182563966184854,-0.11420823418851941
1633782554473566000,12.00456591796875,-8.34741156066358,-5.13945313873291,-0.27772183962017294
1633782554493445000,12.024445068359375,-8.375693067774176,-5.084262581908702,-0.41039482804294675
1633782554513324000,12.044323974609375,-8.402054420477151,-5.030765969520807,-0.5169754899624734
1633782554533202200,12.0642021484375,-8.425640463247895,-4.982827575781941,-0.5919439294461161
1633782554553081000,12.0840810546875,-8.450235975322126,-4.9373804143369195,-0.6214258253224194
1633782554572960300,12.103960205078126,-8.47732798038721,-4.891904611319303,-0.612013525061123
1633782554592838100,12.123838134765625,-8.500534083929658,-4.85503881573677,-0.5830084163837135
1633782554612717000,12.143717041015625,-8.51172066385448,-4.838915656192601,-0.5530736987059935
1633782554632596000,12.163595947265625,-8.506055477699636,-4.8494671530842774,-0.5477921415738761
1633782554652475100,12.18347509765625,-8.483822018581629,-4.883960082055628,-0.5848785211045294
1633782554672353000,12.20335302734375,-8.45938725002706,-4.918949270111322,-0.6427213460031896
1633782554692232200,12.223232177734374,-8.445372168678045,-4.937691964504123,-0.6821064309302717
1633782554712111000,12.243111083984376,-8.442282385969161,-4.942685535007715,-0.6841832372043282
1633782554731990000,12.262989990234376,-8.438698682263492,-4.948248429831862,-0.6881767638199031
1633782554751867600,12.28286767578125,-8.440153557246923,-4.943054368320107,-0.7073958435527979
1633782554771746800,12.302746826171875,-8.461973759388924,-4.902929863202572,-0.7257151979669928
1633782554791626000,12.3226259765625,-8.500373340409993,-4.8324800701871515,-0.7491163126248865
1633782554811503900,12.34250390625,-8.544192608392239,-4.750772970098256,-0.7728590803273022
1633782554831382800,12.3623828125,-8.574532801598309,-4.692223165974021,-0.7942381876382977
1633782554851262000,12.382261962890626,-8.569569626232981,-4.6951890300422905,-0.8294986669160426
1633782554871140900,12.402140869140625,-8.524296652311087,-4.7635617245227095,-0.902899564822018
1633782554891018800,12.422018798828125,-8.46988584768772,-4.84067039090544,-0.9996657754201441
1633782554910898000,12.44189794921875,-8.444327043539285,-4.8701563053697345,-1.0701866609103976
1633782554930776800,12.46177685546875,-8.457177757284045,-4.8437806318804615,-1.088265703762695
1633782554950656000,12.481656005859374,-8.488083183157444,-4.7940290512397885,-1.0677630139600485
1633782554970534000,12.501533935546876,-8.512209324154258,-4.75916875026077,-1.031015218733996
1633782554990413000,12.5214130859375,-8.516248370411992,-4.760447099633515,-0.9909815337050706
1633782555010291700,12.541291748046875,-8.502443132421373,-4.79121896225512,-0.9607622634649277
1633782555030169900,12.561169921875,-8.481897187998891,-4.830025662772357,-0.947977016171813
1633782555050048800,12.581048828125,-8.462012337833642,-4.8664913531214,-0.9391447442881763
1633782555069928000,12.600927978515625,-8.44700298475027,-4.8951823178157206,-0.9250506794188171
1633782555089806800,12.620806884765624,-8.436984864082932,-4.9154737029552455,-0.9087279787145555
1633782555109685000,12.64068505859375,-8.432948155912756,-4.9246717394113535,-0.8963172638222575
1633782555129564000,12.66056396484375,-8.433210606241225,-4.924404612907767,-0.8953121053677052
1633782555149442800,12.68044287109375,-8.43926391493082,-4.913870359411836,-0.8961512596055865
1633782555169320700,12.70032080078125,-8.452511519038676,-4.891154377473891,-0.8955683451510965
1633782555189200000,12.720199951171875,-8.47281488687694,-4.856104399141669,-0.8944500086456537
1633782555209078800,12.740078857421874,-8.499872989672422,-4.808977906307578,-0.8923408344719559
1633782555228958000,12.7599580078125,-8.53466139445901,-4.746408345147967,-0.8952942774500697
1633782555248835800,12.7798359375,-8.564864225021005,-4.687078496561944,-0.9191218738917261
1633782555268715000,12.799715087890625,-8.578584122815728,-4.658346615335345,-0.9370603392295539
1633782555288593700,12.81959375,-8.585438811016083,-4.646518230375647,-0.9330030997280031
1633782555308471800,12.839471923828125,-8.606064834937452,-4.614215212664008,-0.9027994654484093
1633782555328350700,12.859350830078125,-8.650565070921182,-4.538087374012172,-0.8624822142377495
1633782555348230000,12.87922998046875,-8.703930165883898,-4.4392043904557825,-0.8399098785541951
1633782555368108800,12.89910888671875,-8.74040725440979,-4.364095081196725,-0.8545965755544602
1633782555387987000,12.918987060546876,-8.762866923499107,-4.31590388174057,-0.8692081614919006
1633782555407865900,12.938865966796875,-8.78468128042221,-4.276501261156797,-0.8433806234046817
1633782555427744800,12.958744873046875,-8.812481141495704,-4.231189124268293,-0.7794878508172929
1633782555447624000,12.9786240234375,-8.84697085559666,-4.17454573828727,-0.6889528627589344
1633782555467501800,12.998501708984374,-8.871103426334262,-4.138696426270902,-0.5874543629419058
1633782555487381000,13.018381103515624,-8.858190753269195,-4.174626110047102,-0.5247304149381816
1633782555507260000,13.038260009765626,-8.798884577819704,-4.297426268024743,-0.531173307467252
1633782555527137800,13.0581376953125,-8.721701969417929,-4.447079653875529,-0.5707706834381446
1633782555547017000,13.078016845703125,-8.660262289071083,-4.562041373312473,-0.5983497779004275
1633782555566895900,13.097895751953125,-8.634611714985967,-4.609066159337758,-0.6085892131682485
1633782555586774800,13.11777490234375,-8.649015503391624,-4.5825265274584295,-0.6044559492884204
1633782555606653000,13.13765283203125,-8.682501593407988,-4.520002851267159,-0.5950808757649734
1633782555626531800,13.15753173828125,-8.70525235439837,-4.47323496261239,-0.6157330205082893
1633782555646411000,13.177410888671876,-8.705423619312047,-4.462610985006392,-0.686358608482033
1633782555666289000,13.197288818359375,-8.68861452333033,-4.476689194719493,-0.7985081200424581
1633782555686168000,13.21716796875,-8.676912979620695,-4.474058846215904,-0.9297107801843434
1633782555706046700,13.237046630859375,-8.680807648971676,-4.4382156716793775,-1.0565071681912988
1633782555725926000,13.25692578125,-8.696687939670682,-4.378482210728526,-1.1691424174420535
1633782555745804800,13.2768046875,-8.715650414294004,-4.313802233286202,-1.2644915277838706
1633782555765683700,13.29668359375,-8.729203138828277,-4.266014646194875,-1.3313579093545675
1633782555785563000,13.31656298828125,-8.740261123937367,-4.236662002721428,-1.3523722019411624
1633782555805441800,13.33644189453125,-8.756267086842655,-4.208371727782487,-1.3370792096108197
1633782555825319700,13.356319580078125,-8.778197179099918,-4.1720679499968885,-1.306709936440736
1633782555845198600,13.376198486328125,-8.804577236503363,-4.125576540195942,-1.2764897163525224
1633782555865077800,13.396077880859375,-8.825848572590946,-4.082118506741524,-1.2692894295848904
1633782555884955600,13.41595556640625,-8.833416962018608,-4.054677834369242,-1.304116558946669
1633782555904834800,13.435834716796874,-8.833570106753706,-4.034456591856479,-1.364400201126188
1633782555924713700,13.455713623046876,-8.839068119648099,-4.009223950922489,-1.40263392406106
1633782555944592600,13.475592529296875,-8.850309644630551,-3.983901001356542,-1.4039007291264831
1633782555964470500,13.495470458984375,-8.863855939424038,-3.964566186289489,-1.372828860644996
1633782555984349700,13.515349609375,-8.885815842297673,-3.937891529853642,-1.3060159628272057
1633782556004228900,13.535228759765625,-8.90883431431353,-3.901465879254043,-1.2576226649276911
1633782556024106800,13.555106689453124,-8.92966608994007,-3.8545191269010304,-1.254643795247376
1633782556043986000,13.57498583984375,-8.961453559345006,-3.780723530589044,-1.252543608097732
1633782556063864800,13.59486474609375,-9.003581805500387,-3.6983120816230772,-1.1951535684678702
1633782556083743700,13.61474365234375,-9.033375470739603,-3.665219082577526,-1.0652153022386133
1633782556103621600,13.63462158203125,-9.016867403531075,-3.7454622475937005,-0.9154229463085531
1633782556123500800,13.654500732421875,-8.941495059421658,-3.9396526943072674,-0.8361708381563424
1633782556143379700,13.674379638671875,-8.842686310145258,-4.15062622577846,-0.8657836669359356
1633782556163259000,13.6942587890625,-8.763430987122655,-4.29454837450087,-0.9641143503718077
1633782556183136800,13.71413671875,-8.722546019026636,-4.35106784184128,-1.0750758942566812
1633782556203015700,13.734015625,-8.713702787357569,-4.350701638877392,-1.1459341950077564
1633782556222894600,13.75389453125,-8.730674964946507,-4.3156408468902105,-1.1493249334245919
1633782556242772700,13.773772705078125,-8.764004403096436,-4.267230451725423,-1.0739451366610824
1633782556262651600,13.793651611328125,-8.804500664135814,-4.220527737261355,-0.9155839820891618
1633782556282530800,13.81353076171875,-8.840005692759156,-4.181577828881144,-0.7342292707469313
1633782556302409700,13.83340966796875,-8.857551870843768,-4.166849046304821,-0.592898380626738
1633782556322287900,13.853287841796876,-8.856771534121036,-4.172490559323132,-0.5641867750031874
1633782556342166800,13.873166748046875,-8.850828700068593,-4.173219165858626,-0.6461076274406164
1633782556362045700,13.893045654296875,-8.847638379594683,-4.1617245428979395,-0.7548037106115371
1633782556381924600,13.912924560546875,-8.845539946010708,-4.150935730119049,-0.8345881720747799
1633782556401802800,13.932802734375,-8.843923742985725,-4.147093375477194,-0.8700647052560001
1633782556421681700,13.952681640625,-8.84639334796965,-4.143051114349067,-0.8641962516140193
1633782556441560800,13.972560791015624,-8.85499108044505,-4.1315068070277565,-0.8307636453505605
1633782556461438700,13.992438720703126,-8.865255284827947,-4.120243070213497,-0.7753883065439761
1633782556481317600,14.012317626953125,-8.872367747181654,-4.116828001073003,-0.7093683126695454
1633782556501196500,14.032196533203125,-8.869853718534111,-4.131608513836563,-0.6526015925697982
1633782556521075700,14.05207568359375,-8.855932160687447,-4.165931639198958,-0.62278600775972
1633782556540953600,14.07195361328125,-8.842250256815552,-4.1961356388047335,-0.6143646547645331
1633782556560832800,14.091832763671874,-8.841664565882086,-4.2008097680956125,-0.5903824522830545
1633782556580712000,14.1117119140625,-8.852577589562534,-4.1858980301678175,-0.5296336037445813
1633782556600590600,14.131590576171876,-8.862413339400291,-4.176142944350838,-0.43340997559055683
1633782556620468700,14.15146875,-8.858209457969664,-4.193253361366689,-0.3451656557526439
1633782556640347600,14.17134765625,-8.843380722150206,-4.227580870643258,-0.3042365745202638
1633782556660226800,14.191226806640625,-8.839795264878868,-4.237811465017497,-0.26335010858690366
1633782556680104700,14.211104736328124,-8.856021008014679,-4.2073271871656175,-0.1991706280126236
1633782556699984000,14.23098388671875,-8.88375014193952,-4.150697829709947,-0.1451841954143252
1633782556719862800,14.25086279296875,-8.911977873036264,-4.0913174199804665,-0.09029779090215452
1633782556739741700,14.27074169921875,-8.929041236039996,-4.054886216422915,-0.022361170301039235
1633782556759620000,14.2906201171875,-8.92573225762248,-4.062212613788247,0.010827505388041026
1633782556779499300,14.310499267578125,-8.899674856302141,-4.118814790976047,-0.03924051165750716
1633782556799378200,14.330378173828125,-8.864171581244468,-4.1925311845719815,-0.13972573821218684
1633782556819256300,14.35025634765625,-8.83531432007253,-4.249675798073411,-0.21878126434637232
1633782556839135200,14.37013525390625,-8.823347403424977,-4.273861852563917,-0.23027645356263965
1633782556859014400,14.390014404296876,-8.8301699429214,-4.262659490548074,-0.16797127896025776
1633782556878893000,14.40989306640625,-8.845189232876896,-4.2340322387397284,-0.07732869320842437
1633782556898771200,14.429771240234375,-8.857690402531624,-4.208502076163888,-0.014689768023474607
1633782556918650000,14.449650146484375,-8.864780068531632,-4.193568710926175,-0.006526857043564086
1633782556938529300,14.469529296875,-8.868759493556619,-4.18481257301867,-0.05321662183615845
1633782556958408200,14.489408203125,-8.878552573296426,-4.162399081158638,-0.12695420891717077
1633782556978286300,14.509286376953124,-8.89596664943397,-4.122573558987677,-0.19118388530872762
1633782556998165200,14.529165283203126,-8.913726762530207,-4.082418366470932,-0.22298594949459655
1633782557018044200,14.549044189453125,-8.926296905767916,-4.054956359049678,-0.22122206336092204
1633782557037922000,14.568922119140625,-8.938837822911143,-4.02768549028635,-0.212872460427694
1633782557057801200,14.58880126953125,-8.96538330000937,-3.967546955665946,-0.2255101159436628
1633782557077680000,14.60868017578125,-9.006444793716073,-3.8705294737204907,-0.2708155125641264
1633782557097559300,14.628559326171874,-9.051730627119541,-3.7580966882392763,-0.3365504972184077
1633782557117437200,14.648437255859376,-9.084449824416637,-3.6709798380613323,-0.40873482240885495
1633782557137316400,14.66831640625,-9.08718421781659,-3.656804597714543,-0.47036381478272377
1633782557157195000,14.688195068359375,-9.054555036890505,-3.730588795849681,-0.5178120503844693
1633782557177074200,14.70807421875,-8.989247575199604,-3.8800004818990823,-0.5562421726742759
1633782557196952000,14.7279521484375,-8.911288721728324,-4.053148725105822,-0.575588860842213
1633782557216831200,14.747831298828125,-8.84719648104608,-4.190283405645191,-0.5822577076142653
1633782557236710400,14.76771044921875,-8.809297835284472,-4.269228055283427,-0.5833957717334851
1633782557256588300,14.78758837890625,-8.79691766166091,-4.2932521972104905,-0.5938099425137042
1633782557276467200,14.80746728515625,-8.794126569637656,-4.29255398581326,-0.6385172453768551
1633782557296346000,14.82734619140625,-8.798612775141,-4.275437723578513,-0.689512761664018
1633782557316225300,14.847225341796875,-8.815155329141021,-4.237032297338545,-0.7148272356625646
1633782557336103200,14.867103271484375,-8.83990573951602,-4.186511485891044,-0.7068013117257506
1633782557355982300,14.886982421875,-8.867249673515557,-4.135851558233798,-0.661061012553051
1633782557375861200,14.906861328125,-8.887786265587806,-4.100646097078919,-0.6019431627498939
1633782557395739400,14.926739501953126,-8.891644110059737,-4.09619642419368,-0.5746545391341671
1633782557415618300,14.946618408203125,-8.879026036027073,-4.120039072073996,-0.5987973390048369
1633782557435497200,14.966497314453125,-8.859711679226159,-4.149608280907571,-0.6757539200983941
1633782557455376100,14.986376220703125,-8.840491430449486,-4.172014758504927,-0.7812710809722543
1633782557475254300,15.006254150390625,-8.816382825109361,-4.2021775493174784,-0.8851442740313709
1633782557495133200,15.02613330078125,-8.783141065242885,-4.255921998986602,-0.9560062280442565
1633782557515012400,15.046012451171874,-8.749671341839433,-4.3227007022738455,-0.9632689855888485
1633782557534891000,15.06589111328125,-8.72692233441472,-4.380482152374088,-0.9069664489347488
1633782557554769200,15.08576904296875,-8.717097690492867,-4.415872322446107,-0.8262382038153707
1633782557574648000,15.10564794921875,-8.717628436368704,-4.42674939803034,-0.7597511038858443
1633782557594527200,15.12552734375,-8.719787075707316,-4.427834270657598,-0.7279968791633844
1633782557614405000,15.145405029296874,-8.712389951193332,-4.441351047095656,-0.7341948570206761
1633782557634284300,15.1652841796875,-8.692096520227194,-4.477148921185732,-0.7569567969921975
1633782557654163200,15.1851630859375,-8.66343624293208,-4.52987513372302,-0.7716816340457647
1633782557674042000,15.2050419921875,-8.633806243821978,-4.585568963894247,-0.7748120410259812
1633782557693920300,15.224920166015625,-8.612778068840504,-4.626768404766917,-0.7638436338964849
1633782557713799200,15.244799072265625,-8.61097481881082,-4.634348192371427,-0.7377770263563841
1633782557733678000,15.264677978515625,-8.630244751948117,-4.603808969461918,-0.702998193115741
1633782557753556000,15.284555908203124,-8.656095232519506,-4.55965038652271,-0.6722961077947169
1633782557773434000,15.30443408203125,-8.673859437268971,-4.530213279636204,-0.6416524015974253
1633782557793313000,15.32431298828125,-8.682769888955354,-4.5174601810470225,-0.6102884183015674
1633782557813192200,15.344192138671875,-8.68809196076095,-4.510186975173652,-0.5879289581837133
1633782557833070000,15.364070068359375,-8.691819456851482,-4.5041237296119325,-0.5792473833497613
1633782557852949200,15.38394921875,-8.698429814901948,-4.493420257028937,-0.562920992851071
1633782557872828000,15.403827880859374,-8.706417891046405,-4.482730228449404,-0.523260050124675
1633782557892707000,15.42370703125,-8.715042511528729,-4.474223096866905,-0.44693128207325933
1633782557912585000,15.4435849609375,-8.721396848991512,-4.472228708179295,-0.32678394015934314
1633782557932464000,15.463464111328125,-8.714877091833948,-4.493118351472914,-0.18218358164811504
1633782557952343000,15.483343017578125,-8.68988527391851,-4.544445218606293,-0.06549910267232917
1633782557972221200,15.50322119140625,-8.666434840226174,-4.58945223506838,0.014700659310247282
1633782557992100000,15.52310009765625,-8.670784267607331,-4.58010017709434,0.10278150709858164
1633782558011979000,15.54297900390625,-8.702747093579173,-4.515770036002993,0.2010069948606193
1633782558031858000,15.56285791015625,-8.735477396792174,-4.446775994753837,0.29665222033848987
1633782558051736000,15.582736083984376,-8.742536667653917,-4.426034527759254,0.38555381677504624
1633782558071615000,15.602614990234375,-8.720445247355103,-4.463437791219353,0.44937304920218885
1633782558091494100,15.622494140625,-8.67569249791503,-4.5468242226973175,0.47867673896737395
1633782558111373300,15.642373291015625,-8.623347978171706,-4.643635952937602,0.49487285414990034
1633782558131251200,15.662251220703125,-8.573347975727915,-4.732838961739838,0.5179999376393855
1633782558151129900,15.6821298828125,-8.523239836734533,-4.819452830831707,0.5455620079016312
1633782558171009000,15.702009033203124,-8.465940324932337,-4.91568997605443,0.5781225440382957
1633782558190887000,15.721886962890625,-8.407813714656234,-5.010554956141114,0.6110561878036708
1633782558210766000,15.74176611328125,-8.364742050170898,-5.080372004210949,0.6255383021425456
1633782558230645200,15.761645263671875,-8.34592336793244,-5.113891411975025,0.6033696153564378
1633782558250524200,15.781524169921875,-8.346382802137732,-5.119173736292123,0.5498477589294314
1633782558270402300,15.80140234375,-8.35330587939918,-5.114730200886726,0.48186384457089004
1633782558290281000,15.821281005859374,-8.359231762316822,-5.11090099798739,0.41511568255238235
1633782558310160100,15.84116015625,-8.365886544030904,-5.104620310282707,0.3538012725530192
1633782558330038000,15.8610380859375,-8.375567980089784,-5.09195021380186,0.30378448337120934
1633782558349917200,15.880917236328125,-8.387214578741789,-5.074926598286629,0.26481738639418034
1633782558369796000,15.900796142578125,-8.401561084002257,-5.053153742417693,0.2231441722636111
1633782558389675300,15.92067529296875,-8.420324236661195,-5.023939338371157,0.16900263130199164
1633782558409553200,15.94055322265625,-8.443027651378513,-4.987637606412172,0.09557899184124544
1633782558429432000,15.96043212890625,-8.474168639573454,-4.935457337319851,0.01057765538788517
1633782558449311000,15.98031103515625,-8.517850544911623,-4.85917839975953,-0.070640255819913
1633782558469190100,16.000190185546874,-8.569269766503572,-4.766407177081704,-0.13916439626868812
1633782558489068000,16.020068115234373,-8.61718302580118,-4.677576508723199,-0.18660108756311236
1633782558508947200,16.039947265625,-8.64917040169239,-4.61671901217848,-0.2194100820355117
1633782558528826000,16.059826171875,-8.664176832166314,-4.587238942933082,-0.244273213803675
1633782558548704300,16.079704345703124,-8.67440421167016,-4.5666208100572225,-0.26659124593259764
1633782558568583000,16.0995830078125,-8.692481720152497,-4.53171316280514,-0.2733564109522849
1633782558588462000,16.119462158203124,-8.71727830775678,-4.48321275126934,-0.28328126384560015
1633782558608341000,16.139341064453124,-8.73835558257699,-4.439467425306141,-0.3203925220891833
1633782558628219100,16.15921923828125,-8.748851842150092,-4.411151431404054,-0.4119703337313607
1633782558648098000,16.17909814453125,-8.757766970011591,-4.380163880205155,-0.5348531284911557
1633782558667977200,16.198977294921875,-8.778289533558487,-4.331160195322335,-0.5941997820815071
1633782558687855000,16.218855224609374,-8.809630428239704,-4.271784754028916,-0.5591528724892064
1633782558707734000,16.238734130859374,-8.83895413787961,-4.219200288049876,-0.49155404845811423
1633782558727613000,16.258613037109374,-8.85165462949872,-4.193740560361743,-0.4807597557865083
1633782558747492600,16.27849267578125,-8.838973427101969,-4.210918489655852,-0.5577625871745869
1633782558767370500,16.29837060546875,-8.80307209263742,-4.270242493022978,-0.664326371024549
1633782558787249700,16.318249755859377,-8.759702906510233,-4.3471901236251,-0.7348029059164226
1633782558807128600,16.338128662109376,-8.71746652380526,-4.4264784721344705,-0.7631823935087769
1633782558827007500,16.358007568359376,-8.684607625776529,-4.490178206367791,-0.7656895540241152
1633782558846885600,16.3778857421875,-8.663727334833144,-4.532879868496954,-0.7504714535608887
1633782558866764500,16.3977646484375,-8.655577930647134,-4.554556278254092,-0.7122988131634891
1633782558886643700,16.417643798828124,-8.652911926308274,-4.566621102318168,-0.6659332216992974
1633782558906521600,16.437521484375,-8.651363527822493,-4.576051778486371,-0.619716756382212
1633782558926400800,16.45740087890625,-8.649926773017645,-4.582791608135402,-0.5892084400676191
1633782558946279400,16.477279541015626,-8.642580501908064,-4.597916112031042,-0.5790953345932066
1633782558966158600,16.49715869140625,-8.627664672327041,-4.625748998591304,-0.5798534594841301
1633782558986036500,16.517036376953126,-8.607193546706437,-4.663515542405843,-0.5815783470479771
1633782559005915600,16.53691552734375,-8.586061326828599,-4.702155361923575,-0.5828151588339359
1633782559025794600,16.556794677734374,-8.5676699300915,-4.732478896255791,-0.6074975454740226
1633782559045672700,16.576672607421877,-8.552150289398432,-4.752801553316414,-0.6648210226736962
1633782559065551600,16.596551513671876,-8.536390994730592,-4.771784193944931,-0.7283459117967634
1633782559085430500,16.616430419921876,-8.520480308893323,-4.7942634445175525,-0.7660540034223348
1633782559105309400,16.636309326171876,-8.501338970571755,-4.825723581664264,-0.7810301848884671
1633782559125187600,16.6561875,-8.4847134144634,-4.854589318403601,-0.7829338265527039
1633782559145066500,16.67606640625,-8.474342242574691,-4.871911916865408,-0.7876462420273572
1633782559164945700,16.695945556640623,-8.465345866170525,-4.880916768836975,-0.8276231553677469
1633782559184823600,16.715823486328127,-8.461492113351822,-4.880223818136751,-0.8700318989649415
1633782559204702700,16.73570263671875,-8.472379418069124,-4.863033029361069,-0.8602795165617019
1633782559224581400,16.755581298828126,-8.499337567621469,-4.824751521761715,-0.8083454042501748
1633782559244460500,16.77546044921875,-8.529528707745671,-4.777903553608059,-0.7675672575294971
1633782559264338400,16.79533837890625,-8.55181652739942,-4.738140575279295,-0.7660579489450902
1633782559284217600,16.815217529296874,-8.5824057269305,-4.686894956688582,-0.738723805687204
1633782559304096500,16.835096435546873,-8.633799229559301,-4.607538511379063,-0.6312528803970664
1633782559323974700,16.854974609375,-8.69159967662096,-4.517838951231539,-0.46434557740651067
1633782559343853600,16.874853515625,-8.73606133415997,-4.4455110893845555,-0.29841707458654415
1633782559363732500,16.894732421875,-8.74540316300094,-4.431605605889857,-0.22176247211424632
1633782559383611600,16.914611572265624,-8.711230259764195,-4.496416223974526,-0.2590249753967859
1633782559403489500,16.934489501953124,-8.647349031484126,-4.613563763017952,-0.32980288612172004
1633782559423368700,16.95436865234375,-8.579699390581249,-4.734548103745281,-0.3784063196405768
1633782559443247600,16.97424755859375,-8.537128076833486,-4.810190496967732,-0.38715909654721614
1633782559463126800,16.994126708984375,-8.530248838713765,-4.822276656080782,-0.3884486614337191
1633782559483004700,17.014004638671874,-8.546013978600502,-4.792157704409957,-0.4138236699804663
1633782559502883600,17.033883544921874,-8.562413909259439,-4.757541149058937,-0.4703796699389815
1633782559522762500,17.053762451171874,-8.56505653272271,-4.744452242644131,-0.54805758757703
1633782559542640600,17.073640625,-8.555856742700934,-4.7510497412130235,-0.6286695128403603
1633782559562519600,17.09351953125,-8.545883045697211,-4.75916991930455,-0.6989793859284371
1633782559582398700,17.113398681640625,-8.539746150377391,-4.762346503514051,-0.750452164338529
1633782559602277600,17.133277587890625,-8.53756705277264,-4.761326512816548,-0.781086298989877
1633782559622155800,17.15315576171875,-8.537464761441946,-4.756857258448004,-0.8089446122523397
1633782559642034400,17.173034423828124,-8.541028591403364,-4.74505137758106,-0.8400598814841359
1633782559661913600,17.19291357421875,-8.548623284316063,-4.726696805723011,-0.8658843508314341
1633782559681791500,17.21279150390625,-8.559099085623025,-4.703574873332679,-0.8880280858393758
1633782559701670700,17.232670654296875,-8.576163617670536,-4.669396124877036,-0.9036247372914105
1633782559721549600,17.252549560546875,-8.605443488168715,-4.616789154805243,-0.8955377308171242
1633782559741428700,17.2724287109375,-8.639065187263489,-4.5589580203443765,-0.867662904811278
1633782559761307000,17.292306884765626,-8.661655789256095,-4.52203231126815,-0.8350590044569224
1633782559781185500,17.312185546875,-8.662845291301608,-4.52120316696763,-0.8271743156217038
1633782559801064700,17.332064697265626,-8.649200796830653,-4.542248000822961,-0.8542216047622263
1633782559820942600,17.351942626953125,-8.638945360276102,-4.554925988349318,-0.889750598783046
1633782559840821800,17.37182177734375,-8.642210499551892,-4.54679119721055,-0.8995967969495803
1633782559860700700,17.39170068359375,-8.66146114346683,-4.51592551882565,-0.8694164704803377
1633782559880579600,17.41157958984375,-8.683984525442122,-4.477259103561938,-0.8443645198754965
1633782559900457700,17.431457763671876,-8.698131708738208,-4.436537509334087,-0.9110535721179097
1633782559920336600,17.451336669921876,-8.721109848743676,-4.366368579086661,-1.0234511401552706
1633782559940215600,17.471215576171875,-8.764606460642813,-4.258201926617324,-1.1044337984271346
1633782559960094700,17.4910947265625,-8.825234824606776,-4.139153814649582,-1.0737864389680325
1633782559979972600,17.51097265625,-8.876528373992443,-4.0586382624328134,-0.9513597174126655
1633782559999851800,17.530851806640626,-8.887509786733984,-4.0572833406925195,-0.8491208475571125
1633782560019730700,17.550730712890626,-8.855002770882844,-4.126893468013406,-0.8532633541893213
1633782560039608800,17.57060888671875,-8.798250956091284,-4.227018268324435,-0.9452386772491037
1633782560059487500,17.590487548828126,-8.740128437468409,-4.328441584013402,-1.0223185559287666
1633782560079366700,17.61036669921875,-8.693981603321433,-4.421555044257641,-1.0173085457470268
1633782560099245800,17.630245849609373,-8.660552211928367,-4.502354966373741,-0.9455241431269794
1633782560119123700,17.650123779296877,-8.631611948648095,-4.571519103492796,-0.8757094331447035
1633782560139003000,17.6700029296875,-8.602909001255036,-4.628779452328383,-0.8571742440227419
1633782560158881800,17.6898818359375,-8.575103294962645,-4.673547983859479,-0.8921508648578077
1633782560178760000,17.709760009765624,-8.546530111429094,-4.714043952637911,-0.9513111290305852
1633782560198638600,17.729638671875,-8.518380121743679,-4.753978780402242,-1.003627737853676
1633782560218517800,17.749517822265624,-8.496280518138407,-4.787657762642205,-1.0305024469062685
1633782560238396700,17.769396728515623,-8.484829734319447,-4.8057554371297355,-1.0405596574749798
1633782560258274800,17.78927490234375,-8.483860597026348,-4.806180384543538,-1.0464816679351032
1633782560278153700,17.80915380859375,-8.48538736820221,-4.802551088130474,-1.0507591260585933
1633782560298032600,17.82903271484375,-8.484990477839112,-4.8034983058527105,-1.0496307065505535
1633782560317910800,17.848910888671874,-8.48426683973968,-4.807312018921971,-1.037958096674457
1633782560337789700,17.868789794921874,-8.484159287711977,-4.811897300885618,-1.017385921832174
1633782560357668600,17.888668701171873,-8.48062994454205,-4.821247313033044,-1.0024314407411963
1633782560377547800,17.9085478515625,-8.469668990066648,-4.842712710388004,-0.9915793534677475
1633782560397425700,17.92842578125,-8.449376143622398,-4.880964407370985,-0.9770423671364784
1633782560417304800,17.948304931640624,-8.422892041322589,-4.9289428408592935,-0.9647739833243191
1633782560437183700,17.968183837890624,-8.401731179872154,-4.966625798043609,-0.9559976063463836
1633782560457062000,17.988061767578124,-8.397047405970095,-4.977879597985744,-0.9384523781098425
1633782560476940500,18.0079404296875,-8.404807518577575,-4.970508776956796,-0.9075474636930971
1633782560496819700,18.02781982421875,-8.416320261716843,-4.960079152879119,-0.8564762518212199
1633782560516698600,18.04769873046875,-8.415519466727972,-4.969186003920435,-0.8103107129737734
1633782560536576800,18.06757666015625,-8.404310090449451,-4.9926598184883595,-0.781860205971822
1633782560556455700,18.08745556640625,-8.401951544624566,-5.002957340618968,-0.7402855020459741
1633782560576334600,18.10733447265625,-8.423526832094788,-4.973965054890513,-0.6886641820106655
1633782560596213800,18.1272138671875,-8.464321199297904,-4.912722942942381,-0.6251387083657085
1633782560616091600,18.147091552734373,-8.499306587961316,-4.861025488930941,-0.5500886550132185
1633782560635970600,18.166970458984373,-8.501066583371163,-4.862698390579223,-0.506382053625211
1633782560655849700,18.186849609375,-8.46761322658062,-4.9191310564190145,-0.5215909113360568
1633782560675727600,18.2067275390625,-8.419087972864508,-4.997032042223215,-0.5648081948371604
1633782560695606800,18.226606689453124,-8.37460468801558,-5.0690819639116524,-0.5837677833836525
1633782560715485700,18.246485595703124,-8.346273496544361,-5.11837820200026,-0.5588423452353105
1633782560735364600,18.266364501953124,-8.332800266987086,-5.145208925780653,-0.511520658622682
1633782560755242500,18.286242431640623,-8.32562876792252,-5.1631344585716725,-0.4430925076279789
1633782560775121400,18.306121337890627,-8.3138979981184,-5.188516152587533,-0.35885808101855216
1633782560795000600,18.32600048828125,-8.29204214014113,-5.2281964210689065,-0.27996715259524063
1633782560814878500,18.34587841796875,-8.264314759781957,-5.274866402307152,-0.2174162230708636
1633782560834757600,18.365757568359374,-8.242614969149232,-5.309297664219141,-0.20259775291709228
1633782560854636500,18.385636474609374,-8.235040149980783,-5.318690346464514,-0.25697454567300154
1633782560874515500,18.405515380859374,-8.238499935045837,-5.308268321171402,-0.346108708756417
1633782560894393300,18.425393310546873,-8.249792313432692,-5.284691630750895,-0.42819425023626534
1633782560914272500,18.4452724609375,-8.268119412761926,-5.251634579801559,-0.47845754325874146
1633782560934151400,18.4651513671875,-8.28599759927988,-5.2212932175517075,-0.5007234798742458
1633782560954029600,18.485029541015624,-8.296977842977643,-5.202476288878917,-0.5145704746473581
1633782560973908500,18.504908447265624,-8.303888060757517,-5.189743648555875,-0.5314063490381464
1633782560993787600,18.52478759765625,-8.315719952848553,-5.168288772594928,-0.5549577954195439
1633782561013666300,18.544666259765624,-8.335057106003164,-5.1328679151237,-0.5923471764847635
1633782561033544400,18.56454443359375,-8.356632393473387,-5.091384981134533,-0.6441100238826125
1633782561053423400,18.58442333984375,-8.373506371384858,-5.053412101092935,-0.7195832710832357
1633782561073302500,18.604302490234375,-8.384514672133326,-5.023165431389212,-0.7988152132302522
1633782561093180400,18.624180419921874,-8.391186989504098,-5.005137607267499,-0.8408079233724624
1633782561113059600,18.6440595703125,-8.395869594362377,-4.998012869954109,-0.8364367956161498
1633782561132938500,18.6639384765625,-8.405124329441785,-4.9884512608826155,-0.7997655727576464
1633782561152817400,18.6838173828125,-8.420681379535793,-4.96500082719028,-0.7818404783580452
1633782561172695300,18.7036953125,-8.443448507139086,-4.921611182796955,-0.8101250542085617
1633782561192574500,18.723574462890625,-8.474566114458442,-4.861794719737768,-0.8456154697846621
1633782561212453600,18.74345361328125,-8.512692723757029,-4.792181669807434,-0.859909441140294
1633782561232331500,18.76333154296875,-8.561410285174846,-4.71066161672324,-0.8260216384552419
1633782561252210400,18.78321044921875,-8.609438695284723,-4.633155183194577,-0.7627721322074532
1633782561272089600,18.803089599609375,-8.641044378381967,-4.580040263600647,-0.7252389587573707
1633782561291968500,18.822968505859375,-8.645807647261023,-4.5664565594062205,-0.7535699310328811
1633782561311846400,18.842846435546875,-8.627726047125458,-4.586299031734466,-0.8358150104559957
1633782561331725600,18.8627255859375,-8.602083656346798,-4.620638523709774,-0.9078746498208492
1633782561351604500,18.8826044921875,-8.57968068588078,-4.658983451934159,-0.9237628315653651
1633782561371482400,18.902482421875,-8.566135560131073,-4.693462060119211,-0.873564676200971
1633782561391361500,18.922361572265626,-8.558564832615852,-4.721040387396514,-0.7956956929702311
1633782561411240700,18.94224072265625,-8.552054427808523,-4.743064587678015,-0.7321798639364541
1633782561431119400,18.962119384765625,-8.544981712943315,-4.760677401258051,-0.6997305696219206
1633782561450997500,18.98199755859375,-8.540490246742964,-4.770231119284033,-0.6894231106191873
1633782561470876400,19.00187646484375,-8.538582951816917,-4.774379178874194,-0.6843159967385232
1633782561490755600,19.021755615234376,-8.534850779551267,-4.782791033388674,-0.6720220400936902
1633782561510633500,19.041633544921876,-8.525076404511928,-4.802859423427283,-0.652686421309039
1633782561530512600,19.0615126953125,-8.509921505478024,-4.832496436800063,-0.6313466961603611
1633782561550391600,19.0813916015625,-8.49484084072411,-4.860318217444419,-0.6207827051132917
1633782561570270500,19.1012705078125,-8.485191553369164,-4.876994334696233,-0.6219589092858135
1633782561590148400,19.1211484375,-8.484627489745616,-4.877762104198336,-0.6236308610860258
1633782561610027500,19.141027587890626,-8.491103407761454,-4.869171385985613,-0.6022580008527264
1633782561629906400,19.160906494140626,-8.498598147431016,-4.860648180051148,-0.5641976982560009
1633782561649785600,19.18078564453125,-8.498475982356071,-4.863332596829533,-0.5424855230657384
1633782561669663500,19.20066357421875,-8.489668991044164,-4.8783705914855,-0.5453495707273482
1633782561689542700,19.220542724609373,-8.483999713236093,-4.88859943229407,-0.541973847216554
1633782561709421300,19.24042138671875,-8.48890911258757,-4.883207510122657,-0.5129201136244461
1633782561729299500,19.260299560546876,-8.503917881149054,-4.861733052678406,-0.46617107580062
1633782561749178000,19.28017822265625,-8.516738784277438,-4.842117082582414,-0.43525195019543167
1633782561769057300,19.300057373046876,-8.51337895245552,-4.845035308116674,-0.46733416476324197
1633782561788936200,19.319936279296876,-8.500412503376603,-4.860051090940833,-0.5415489363353699
1633782561808814300,19.339814453125,-8.501006377616525,-4.855416709138453,-0.5728889542337506
1633782561828693200,19.359693359375,-8.534736797782779,-4.801305179722607,-0.5254699447264894
1633782561848572200,19.379572265625,-8.590010356715322,-4.710832881636917,-0.4360772220384329
1633782561868450000,19.399449951171874,-8.630808815571665,-4.640858597178757,-0.37676242489106954
1633782561888329200,19.4193291015625,-8.630218448463081,-4.64014372690767,-0.39846597838345915
1633782561908208000,19.4392080078125,-8.579666657355427,-4.723242865876853,-0.5006780332973226
1633782561928087300,19.45908740234375,-8.501357675272226,-4.849152095785737,-0.6188908269520849
1633782561947965200,19.478965087890625,-8.425138943466544,-4.97232897812128,-0.6807070124611259
1633782561967844400,19.49884423828125,-8.367056756854057,-5.069466579315066,-0.6806251063313334
1633782561987723000,19.518722900390625,-8.330978896778822,-5.131422392490506,-0.6585430383827537
1633782562007601200,19.53860107421875,-8.31044931896925,-5.164247972771525,-0.6613304040789604
1633782562027480000,19.55847998046875,-8.298217613905667,-5.180573084628581,-0.6867558641713112
1633782562047359200,19.578359130859376,-8.284346324941515,-5.197630602413415,-0.7243134414102882
1633782562067238100,19.598238037109375,-8.266257126021385,-5.222693147477507,-0.7502325302384794
1633782562087116300,19.6181162109375,-8.246569259732961,-5.250863010907173,-0.7700098283760249
1633782562106995200,19.6379951171875,-8.234756072342396,-5.2645653730452056,-0.8022001794934273
1633782562126874000,19.6578740234375,-8.23457896220982,-5.257537666365504,-0.8487564712241291
1633782562146752000,19.677751953125,-8.245628179490566,-5.233945778375864,-0.88645820617415
1633782562166631200,19.697631103515626,-8.26768102134466,-5.1963212733805175,-0.9022658700283617
1633782562186510000,19.717510009765626,-8.296383968737722,-5.150383113548159,-0.9021898821827024
1633782562206389200,19.73738916015625,-8.324499471631645,-5.105977570110559,-0.895591068439558
1633782562226267100,19.75726708984375,-8.348228137743472,-5.069755333128572,-0.8803720181282609
1633782562246146300,19.777146240234377,-8.365563887947797,-5.043928233432769,-0.864012492544949
1633782562266025200,19.797025146484376,-8.377040390729904,-5.024906137576699,-0.863649285255745
1633782562285903000,19.816903076171876,-8.381414952552317,-5.013151986896991,-0.8891424037568271
1633782562305782300,19.8367822265625,-8.386086451494693,-5.002829914847016,-0.9031215370096266
1633782562325661200,19.8566611328125,-8.398659517341851,-4.988265382921695,-0.8660873260576277
1633782562345540400,19.876540283203123,-8.408239246591926,-4.983986682689189,-0.7948408297065644
1633782562365418200,19.896418212890627,-8.404941958612204,-4.997924022626877,-0.7403327021885663
1633782562385297400,19.91629736328125,-8.389208967429399,-5.023424959108233,-0.7461695185832679
1633782562405176000,19.936176025390626,-8.384571370756627,-5.024630827766656,-0.7889418347958475
1633782562425054200,19.95605419921875,-8.412821898207069,-4.971571437752247,-0.8235811865005642
1633782562444933000,19.97593310546875,-8.474425829204916,-4.866204352873564,-0.8213072502192109
1633782562464812300,19.995812255859374,-8.535345869591831,-4.761024022738635,-0.8067882379360497
1633782562484691200,20.015691162109373,-8.561659876021743,-4.711180964422225,-0.8204536290645599
1633782562504569300,20.0355693359375,-8.534711078819631,-4.747912319970131,-0.8868068004161119
1633782562524448300,20.0554482421875,-8.469742639824748,-4.845515492849052,-0.9771513804689049
1633782562544327200,20.0753271484375,-8.407598026078938,-4.9405496920228,-1.0361729668233544
1633782562564205000,20.095205078125,-8.377585749652981,-4.990794609138369,-1.0384652424789964
1633782562584084200,20.115084228515624,-8.378405833864212,-4.999245626619458,-0.9900686566438526
1633782562603963100,20.134963134765623,-8.384053484362363,-5.002506674242019,-0.9235599294044077
1633782562623842300,20.15484228515625,-8.373593465146422,-5.028297533580661,-0.8772374464295803
1633782562643720200,20.17472021484375,-8.348378944391012,-5.073548295670747,-0.8567735542673617
1633782562663599400,20.194599365234374,-8.317089487636089,-5.125525151145458,-0.8517070646580308
1633782562683478000,20.21447802734375,-8.284025422424078,-5.17964369482398,-0.8465255703669041
1633782562703356200,20.234356201171874,-8.253230471187829,-5.2306566737025975,-0.833554079786688
1633782562723235000,20.254235107421874,-8.230115553060173,-5.267587935736775,-0.8295203672911972
1633782562743114200,20.2741142578125,-8.212675757959484,-5.2927463423907755,-0.8421319385178386
1633782562762993700,20.29399365234375,-8.197064931851624,-5.312757449284196,-0.8678237944614142
1633782562782871800,20.313871826171876,-8.185577323153614,-5.326945549112558,-0.8890216999866067
1633782562802750500,20.33375048828125,-8.181442999827862,-5.335266802734136,-0.877098695546016
1633782562822629600,20.353629638671876,-8.175205566743015,-5.351310175040364,-0.8365854103066027
1633782562842508500,20.373508544921876,-8.166836966848374,-5.370727407693862,-0.7927425422530621
1633782562862386700,20.39338671875,-8.16109754641354,-5.3834676468014715,-0.7649494031812996
1633782562882265600,20.413265625,-8.154119524094462,-5.394551350873709,-0.7612743679303675
1633782562902144800,20.433144775390623,-8.1420906481266,-5.411396102690697,-0.7704075955219566
1633782562922022700,20.453022705078126,-8.129566097596287,-5.429751843592524,-0.7735221473459154
1633782562941901600,20.472901611328126,-8.128603974565863,-5.433168374037742,-0.7595205100003629
1633782562961780500,20.492780517578126,-8.140582581651211,-5.418212212446331,-0.7377482386533171
1633782562981659600,20.51265966796875,-8.149987538856267,-5.406280367112159,-0.7212607027761637
1633782563001537500,20.53253759765625,-8.160872505486012,-5.3901569153070445,-0.7188578794181346
1633782563021416700,20.552416748046873,-8.190579661485552,-5.346988220188021,-0.7032108129531145
1633782563041295600,20.572295654296877,-8.25022661319673,-5.258021650490164,-0.6762834969304502
1633782563061173800,20.592173828125,-8.334708730956912,-5.12949347025454,-0.6255502848412842
1633782563081052400,20.612052490234376,-8.407421500468253,-5.012970200589299,-0.5964678731439634
1633782563100931600,20.631931640625,-8.434182081621884,-4.962126148536801,-0.6420705539442598
1633782563120810500,20.651810546875,-8.408799803084134,-4.993932907164097,-0.7232653936620801
1633782563140688600,20.671688720703123,-8.354418809077144,-5.075545022445917,-0.7828834846049547
1633782563160567600,20.691567626953123,-8.303384787410497,-5.155855407479405,-0.8008417506217956
1633782563180446700,20.71144677734375,-8.277052660802006,-5.19961797683835,-0.7904183370891958
1633782563200324600,20.73132470703125,-8.274535709545015,-5.2055906215071674,-0.7773459434177726
1633782563220203500,20.75120361328125,-8.278036411142349,-5.198532519689202,-0.7872456253372132
1633782563240082400,20.77108251953125,-8.27090875121951,-5.20375697633922,-0.8266627128377556
1633782563259961600,20.790961669921874,-8.24746533178985,-5.230568410897255,-0.8892961330138146
1633782563279839500,20.810839599609373,-8.21992032226026,-5.261290881419182,-0.9602708266861736
1633782563299718700,20.83071875,-8.204465563496948,-5.274986229294538,-1.0157016950722784
1633782563319597800,20.850597900390625,-8.203780503842234,-5.269879846066236,-1.0472473916105924
1633782563339475700,20.870475830078124,-8.208768813648819,-5.2578264201790095,-1.0685316602449864
1633782563359354600,20.890354736328124,-8.206133788970112,-5.254969277182221,-1.102292767810449
1633782563379233500,20.910233642578124,-8.19675922690332,-5.261796492853761,-1.1388679098833352
1633782563399112700,20.93011279296875,-8.188026469871401,-5.27082326439619,-1.1597544113717972
1633782563418990600,20.949990478515623,-8.185116135382652,-5.275898083442449,-1.1572199244581163
1633782563438869800,20.969869873046875,-8.185651557433605,-5.277283984842896,-1.1470714554093777
1633782563458748700,20.989748779296875,-8.183872857323289,-5.277187538731098,-1.1601287245769054
1633782563478627600,21.009627685546874,-8.175257589191197,-5.280307132056355,-1.2057791535090654
1633782563498505500,21.02950537109375,-8.15723619481027,-5.2925388371199364,-1.2723672295950352
1633782563518384600,21.049384521484374,-8.13388922149241,-5.313209869226813,-1.3341792503856122
1633782563538263600,21.069263671875,-8.11020147191286,-5.335478399658203,-1.3884098761364816
1633782563558141700,21.0891416015625,-8.086133783105016,-5.355683567818999,-1.4496462889961899
1633782563578020600,21.1090205078125,-8.033914935567974,-5.40605474166274,-1.5495697215162216
1633782563597899800,21.128899658203125,-8.002391085535287,-5.431563861450552,-1.6217986530333757
1633782563617778400,21.1487783203125,-8.047063170954585,-5.375051700633764,-1.5887024391174316
1633782563637656600,21.168656494140624,-8.145966028255224,-5.254814378881454,-1.4834250783488154
1633782563657535500,21.188535400390624,-8.236523666536808,-5.134582902348042,-1.402184865119308
