time,seconds_elapsed,z,y,x
1633780095081327000,0.0203271484375,-7.339109547388553,-6.480761948737502,-0.5545948803912848
1633780095101206300,0.040206298828125,-7.317938164544105,-6.51026861372888,-0.484325521976687
1633780095121085200,0.060085205078125,-7.301508423268794,-6.532815961101651,-0.42505518502555784
1633780095140964400,0.07996435546875,-7.284500005322695,-6.55542059161961,-0.3645600920524448
1633780095160844300,0.09984423828125,-7.258187752458452,-6.587346592712402,-0.3097685810158029
1633780095180723200,0.11972314453125,-7.224784080028534,-6.625546851769089,-0.27388940358413383
1633780095200602400,0.139602294921875,-7.185078092584013,-6.670396631842851,-0.22549840723956002
1633780095220481300,0.159481201171875,-7.129319380483031,-6.732506758797168,-0.12863000577543862
1633780095240361200,0.179361328125,-7.05665921794176,-6.809830236974358,-0.012847416675975545
1633780095260240400,0.199240478515625,-6.992991924673318,-6.874717427426576,0.08187145120459609
1633780095280119300,0.219119384765625,-6.963612100932002,-6.903046865332127,0.16258481841525063
1633780095299998200,0.238998291015625,-6.965951942056417,-6.898860519558191,0.2272060331413522
1633780095319878100,0.258878173828125,-6.987705508702993,-6.875644479143619,0.2605178077704273
1633780095339757300,0.27875732421875,-7.016605439972877,-6.846177561640739,0.2597597194121219
1633780095359636200,0.29863623046875,-7.043648345199227,-6.8188903262645,0.24523526376886293
1633780095379515100,0.31851513671875,-7.062331418359279,-6.79912062691152,0.25656475929571315
1633780095399395300,0.338395263671875,-7.071022674337029,-6.787946321946382,0.3079147333100438
1633780095419274200,0.358274169921875,-7.0760150757968425,-6.778803230547904,0.38499198164120313
1633780095439153200,0.378153076171875,-7.073973340836167,-6.781787214794755,0.3696533966034651
1633780095459033300,0.398033447265625,-7.070929150834679,-6.789925513064861,0.26318403130499646
1633780095478912000,0.417912109375,-7.065745610716939,-6.7994029509842395,0.11724698082990943
1633780095498791200,0.437791259765625,-7.05281774008274,-6.81372490632534,-0.035882036109035835
1633780095518670300,0.45767041015625,-7.039257416763902,-6.825946089994907,-0.16028218576237557
1633780095538550000,0.477550048828125,-7.029927862882614,-6.832823574548959,-0.2510330450611189
1633780095558429200,0.49742919921875,-7.021947970044613,-6.839305922305583,-0.2941367851851508
1633780095578308000,0.51730810546875,-7.012738243150711,-6.849007232108712,-0.28807430680841206
1633780095598187300,0.537187255859375,-6.998671723875403,-6.865189720624685,-0.241145053579472
1633780095618067200,0.557067138671875,-6.977468776848911,-6.8889669020533555,-0.1656790398372337
1633780095637946000,0.576946044921875,-6.949360872739553,-6.919013080748916,-0.06343050710419193
1633780095657825300,0.5968251953125,-6.91805329580605,-6.950427040666342,0.049834258522023445
1633780095677704400,0.616704345703125,-6.889547332289815,-6.977212756261229,0.15172131469864397
1633780095697584400,0.63658447265625,-6.870013779780268,-6.994566626644134,0.22210416169138625
1633780095717463600,0.656463623046875,-6.865624604910612,-6.99763302847743,0.258284404428862
1633780095737342500,0.676342529296875,-6.8712839458465576,-6.991730526435375,0.26748218515664335
1633780095757221400,0.696221435546875,-6.87851565066576,-6.9852113537997,0.2514723863264546
1633780095777101600,0.7161015625,-6.882751680800318,-6.982053766551614,0.2214458987120539
1633780095796980500,0.73598046875,-6.883741860881448,-6.9819853774905205,0.1906900556434877
1633780095816859400,0.755859375,-6.882984905034303,-6.983258466166258,0.17028841506252065
1633780095836738300,0.77573828125,-6.879262669640779,-6.987025125223398,0.16616189145073293
1633780095856618500,0.795618408203125,-6.872886704868078,-6.993331531891227,0.16470913535915313
1633780095876497400,0.815497314453125,-6.86712098094821,-6.9989563860356805,0.16627748065441847
1633780095896376300,0.835376220703125,-6.861278100138902,-7.004727955174446,0.16443859305577352
1633780095916255500,0.85525537109375,-6.856796570810675,-7.009114207434654,0.16447892506616188
1633780095936135400,0.875135498046875,-6.858788036888837,-7.00714378414452,0.1653583199828863
1633780095956014300,0.895014404296875,-6.866116187819838,-7.0000208003968,0.16292048011040314
1633780095975893500,0.9148935546875,-6.872866246601939,-6.993621454748511,0.15281158502022735
1633780095995772400,0.9347724609375,-6.875671367150544,-6.991195688906312,0.13680484579680488
1633780096015652400,0.95465234375,-6.878631970521807,-6.98855072735548,0.12233346291449852
1633780096035531500,0.974531494140625,-6.884772957494855,-6.982720706027746,0.1090878772337921
1633780096055410400,0.994410400390625,-6.892649974480271,-6.975127766680717,0.0966650974443648
1633780096075289600,1.01428955078125,-6.900023133596777,-6.9679726342290635,0.08614781334954313
1633780096095169500,1.03416943359375,-6.904555516329407,-6.963610931888223,0.07495573983227367
1633780096115048400,1.05404833984375,-6.908470643946528,-6.959862393009662,0.06109257024249527
1633780096134927600,1.073927734375,-6.912820071327686,-6.955643898531794,0.048099132691952394
1633780096154806300,1.09380615234375,-6.920050607103109,-6.94848993512392,0.042042010910343375
1633780096174686500,1.1136865234375,-6.928589302867651,-6.939961176231503,0.04444730022009462
1633780096194565600,1.133565673828125,-6.937863327169418,-6.930642728266119,0.05127243809897918
1633780096214444300,1.1534443359375,-6.948109411373734,-6.92030896577835,0.05898908602406736
1633780096234323500,1.173323486328125,-6.95947602404058,-6.908862273612618,0.060845198752149006
1633780096254203400,1.193203369140625,-6.971010979011655,-6.897236133226752,0.05935831662868149
1633780096274082300,1.213082275390625,-6.982566976770758,-6.885559139436483,0.056834538338682614
1633780096293961500,1.23296142578125,-6.9927662992238995,-6.875206672248244,0.0560212172283791
1633780096313840400,1.25284033203125,-7.0001838820040225,-6.8676318530797955,0.058680449333158316
1633780096333720300,1.27272021484375,-7.003223395830393,-6.8644865407913915,0.06383838008560705
1633780096353599200,1.29259912109375,-7.000820426341891,-6.866884249582887,0.0692343893436715
1633780096373478400,1.312478515625,-6.99435152258873,-6.87344141614139,0.07236437619877979
1633780096393357600,1.332357666015625,-6.98638741184175,-6.881489113518596,0.07670585773549973
1633780096413237200,1.3522373046875,-6.97935561350882,-6.888543708205223,0.08330467147864401
1633780096433116400,1.372116455078125,-6.972910090631246,-6.894942469331622,0.09323555225394665
1633780096452995600,1.39199560546875,-6.9661606163710355,-6.901612448614835,0.10362591290031559
1633780096472874500,1.41187451171875,-6.957858067449927,-6.909896292835474,0.10918625044119544
1633780096492754400,1.43175439453125,-6.948578782451152,-6.919253319245576,0.10759040521765127
1633780096512633300,1.45163330078125,-6.940639221623539,-6.927301016622781,0.10205239823958837
1633780096532512500,1.471512451171875,-6.935847895693779,-6.932199310058355,0.09490369552872144
1633780096552391400,1.491391357421875,-6.932648807391524,-6.935495428994297,0.08752613423173315
1633780096572271400,1.511271240234375,-6.930681891232728,-6.937555284133553,0.0797798309538979
1633780096592150500,1.531150634765625,-6.929507002234459,-6.938782195580005,0.07497654972486198
1633780096612029400,1.551029541015625,-6.929978126877546,-6.938367769560218,0.0695919158107601
1633780096631908400,1.570908447265625,-6.932254255115986,-6.936165875601768,0.06193041843927931
1633780096651788500,1.59078857421875,-6.935736252012848,-6.932757528463005,0.05307935509020462
1633780096671667500,1.61066748046875,-6.938914882048964,-6.929644949400425,0.04315123252756893
1633780096691546600,1.630546630859375,-6.940952525356412,-6.927645300015807,0.036034788118489085
1633780096711425800,1.65042578125,-6.940641559711098,-6.927967371577024,0.033930100606952326
1633780096731305500,1.670305419921875,-6.937811304721236,-6.930774830213188,0.03883954334091395
1633780096751184600,1.6901845703125,-6.935410673320293,-6.933089536896348,0.052405880842008624
1633780096771063600,1.7100634765625,-6.935965969115495,-6.932375251147151,0.07024127853100653
1633780096790942700,1.729942626953125,-6.941226666122675,-6.926956733229756,0.08378814414665102
1633780096810822700,1.74982275390625,-6.947806629034877,-6.920252267155051,0.0920929215574637
1633780096830701600,1.76970166015625,-6.951366951864958,-6.916610111260414,0.09685867465455085
1633780096850580700,1.789580810546875,-6.9477990302503105,-6.920209597057104,0.09578793101734481
1633780096870460000,1.8094599609375,-6.9409250528275965,-6.927214507383107,0.08744301339238882
1633780096890339600,1.829339599609375,-6.9352113513559095,-6.933043944188952,0.078302086551534
1633780096910218800,1.84921875,-6.933163186654448,-6.935180956217646,0.07004248172300867
1633780096930097700,1.86909765625,-6.934252150934935,-6.93412998585999,0.06610947138932532
1633780096949976600,1.8889765625,-6.934999169909954,-6.933351402702927,0.06928904670693446
1633780096969856800,1.908856689453125,-6.930608241474628,-6.937692062255739,0.07402632719478569
1633780096989735700,1.928735595703125,-6.9233034714192145,-6.9449605919539925,0.07598064416691194
1633780097009614600,1.948614501953125,-6.917424350252747,-6.950818670332431,0.07577363208641763
1633780097029493500,1.968493408203125,-6.915420609214902,-6.952791431710124,0.0776946130445227
1633780097049373700,1.988373779296875,-6.916655119445919,-6.951510744249821,0.08223621113006957
1633780097069252600,2.008252685546875,-6.918698607972264,-6.949386591702699,0.08955399593068286
1633780097089131500,2.028131591796875,-6.919699893969297,-6.948288275071978,0.097036688969424
1633780097109010700,2.0480107421875,-6.919291313168406,-6.948628466811776,0.10175187178989872
1633780097128891000,2.067890869140625,-6.919045813974738,-6.948857014870643,0.10284578624013811
1633780097148769500,2.08776953125,-6.918759982770681,-6.949136416333913,0.1032227480600588
1633780097168648700,2.107648681640625,-6.918395241111517,-6.949429846322536,0.10782852482246234
1633780097188527600,2.127527587890625,-6.917809550178051,-6.949847194951772,0.11801430280744098
1633780097208407600,2.147407470703125,-6.9174915702700615,-6.949934873235225,0.13078277249569073
1633780097228286700,2.16728662109375,-6.9178837844580405,-6.949265595671534,0.14480548916188998
1633780097248165600,2.18716552734375,-6.9189458607316014,-6.94800419743359,0.1542839134619571
1633780097268044800,2.207044921875,-6.92038378458023,-6.946464566776156,0.1590654851826839
1633780097287924700,2.2269248046875,-6.921548152184486,-6.945251099333166,0.16137641073986886
1633780097307803600,2.2468037109375,-6.9234741518110035,-6.943300549787282,0.16272283864645287
1633780097327682800,2.266682861328125,-6.925333515942096,-6.9412652445673935,0.17022209009435027
1633780097347561500,2.2865615234375,-6.922481633642316,-6.9437330959856505,0.18496029808614403
1633780097367441700,2.306441650390625,-6.9129147638738155,-6.952786171013116,0.20189639971470458
1633780097387320800,2.32632080078125,-6.90210812317729,-6.963160850033163,0.21372593545187263
1633780097407199700,2.34619970703125,-6.894885186186433,-6.970242332726716,0.21601647580815478
1633780097427078700,2.36607861328125,-6.894717428404093,-6.9705310865402215,0.21204430250786244
1633780097446958800,2.385958740234375,-6.900146467715501,-6.965161083939671,0.21189424477899446
1633780097466837800,2.405837646484375,-6.903026407065987,-6.9621899591743945,0.21568563641859217
1633780097486716700,2.425716552734375,-6.900052944213152,-6.96503132008016,0.2190620905817486
1633780097506595600,2.445595703125,-6.89472035101354,-6.970259283861518,0.22067816574256865
1633780097526475800,2.465475830078125,-6.891524185320734,-6.973478830429912,0.21877825040537863
1633780097546354700,2.485354736328125,-6.891525354364514,-6.9736495108217,0.21325428108582273
1633780097566233600,2.505233642578125,-6.897029796999693,-6.968420377996564,0.20614421161860227
1633780097586112800,2.52511279296875,-6.908339126521349,-6.957421429598331,0.1988112931809388
1633780097605992700,2.54499267578125,-6.919369639101624,-6.9465995913326735,0.19355267853299155
1633780097625871600,2.56487158203125,-6.923469475635886,-6.942613152045011,0.1899423608150333
1633780097645750800,2.584750732421875,-6.918766412511467,-6.947358885267376,0.18777648801803587
1633780097665628700,2.604628662109375,-6.9110098070353265,-6.955152900144458,0.1848540612326935
1633780097685508600,2.624508544921875,-6.90690120267272,-6.959285469904541,0.182894725592155
1633780097705387500,2.644387451171875,-6.908331527736783,-6.9578311794430014,0.1841544798622839
1633780097725266700,2.6642666015625,-6.913079599046707,-6.9530404380351305,0.1869539743877016
1633780097745145600,2.6841455078125,-6.9168421664506194,-6.949227601748705,0.18952618122957646
1633780097765025500,2.704025634765625,-6.918014132839441,-6.948015887871384,0.19114289571121335
1633780097784904700,2.72390478515625,-6.919094913813471,-6.946891852277517,0.1928703953572549
1633780097804783600,2.74378369140625,-6.9222478248864405,-6.943750631642342,0.19284705101428554
1633780097824662800,2.763662841796875,-6.926556920257211,-6.939420493483543,0.19397837486546485
1633780097844542700,2.783542724609375,-6.931618295300006,-6.934219417709111,0.19913508177520706
1633780097864421600,2.803421630859375,-6.935859586131572,-6.929655470794439,0.21002587535753844
1633780097884300800,2.82330078125,-6.938392904001474,-6.926600174877047,0.22651640690937638
1633780097904179500,2.843179443359375,-6.939631505885719,-6.924773543971776,0.24374418496089054
1633780097924059600,2.8630595703125,-6.941802420184016,-6.922136765727401,0.25648650642773135
1633780097943938800,2.882938720703125,-6.946266413855552,-6.917360637366771,0.2643456041639671
1633780097963817500,2.9028173828125,-6.952481635108589,-6.91091043831408,0.2696171696250327
1633780097983696600,2.922696533203125,-6.959603449812531,-6.903589301645756,0.27341409595627336
1633780098003576800,2.942576904296875,-6.967601462829113,-6.895361571526527,0.2773087105083279
1633780098023455700,2.962455810546875,-6.975093864411115,-6.887716609731316,0.27894727149559184
1633780098043334700,2.982334716796875,-6.981536464679241,-6.881171718132496,0.2792950437536463
1633780098063213600,3.002213623046875,-6.9877452561914914,-6.874787570053338,0.2812443329242058
1633780098083093800,3.02209375,-6.994230526557565,-6.867918853327631,0.28777413655174894
1633780098102972700,3.04197265625,-7.001304410466552,-6.860165170460939,0.3004322868664749
1633780098122851600,3.0618515625,-7.009228189203142,-6.851368700543046,0.3159916933143511
1633780098142730800,3.081730712890625,-7.017097022882104,-6.842627760204673,0.3304195567153394
1633780098162610700,3.101610595703125,-7.021520684543251,-6.837583920818567,0.340698739471659
1633780098182489600,3.121489501953125,-7.0220549375504255,-6.8368468387156724,0.3444701843017712
1633780098202368800,3.14136865234375,-7.023539038628339,-6.835323574671149,0.34443949690256265
1633780098222247700,3.16124755859375,-7.027927044454216,-6.830594792583584,0.3487301433011889
1633780098242127600,3.181127685546875,-7.031634082278609,-6.826363438624143,0.35675033161696046
1633780098262006800,3.2010068359375,-7.032813647451996,-6.824782306912541,0.3636701940080151
1633780098281885700,3.2208857421875,-7.033111753615737,-6.824212982591987,0.368575538238883
1633780098301764600,3.2407646484375,-7.032408573782444,-6.824677677494287,0.3733390628462657
1633780098321644800,3.260644775390625,-7.0295771497488015,-6.827381675755977,0.3772193383457139
1633780098341523700,3.280523681640625,-7.025530504706501,-6.831435335060954,0.3792122657286003
1633780098361402600,3.300402587890625,-7.022329662838578,-6.834802765667438,0.37780871907360847
1633780098381281500,3.320281494140625,-7.019267937180399,-6.838232740116119,0.3726077528970316
1633780098401161700,3.34016162109375,-7.016198028215766,-6.841783126074075,0.3651689446657896
1633780098421041000,3.360041015625,-7.015987600335478,-6.842340175434947,0.3587292670071125
1633780098440919600,3.37991943359375,-7.020751453736424,-6.837440712955594,0.3589468552805483
1633780098460798700,3.399798828125,-7.027931136107444,-6.829665402778983,0.3663760189006105
1633780098480678700,3.4196787109375,-7.034432188564539,-6.8224418812662355,0.3760850005535409
1633780098500557600,3.4395576171875,-7.03918493604958,-6.81706252631545,0.3846107637712732
1633780098520436700,3.459436767578125,-7.043127536195517,-6.812367061975598,0.3954581018043682
1633780098540315600,3.479315673828125,-7.047860409936308,-6.806679663988947,0.40885169025417417
1633780098560194800,3.49919482421875,-7.052845797133445,-6.800873023536801,0.41938649173937737
1633780098580074800,3.51907470703125,-7.058965741318464,-6.794015997248888,0.42747265796344724
1633780098599953700,3.53895361328125,-7.0669584936380385,-6.785276225954294,0.43418260393086816
1633780098619832800,3.558832763671875,-7.07480628452897,-6.7767258397519585,0.43986996538490053
1633780098639712500,3.57871240234375,-7.079931956979632,-6.771074097600579,0.4444125041853636
1633780098659591700,3.598591796875,-7.08433632941842,-6.766429486665129,0.4449602742612362
1633780098679471600,3.6184716796875,-7.095201422303915,-6.7555667318671935,0.4368269809598103
1633780098699350500,3.6383505859375,-7.117821834912895,-6.732700235542654,0.4216042773867026
1633780098719230700,3.658230712890625,-7.153135140356421,-6.6961231937736265,0.406181667327322
1633780098739109600,3.678109619140625,-7.197090017417072,-6.650130673405528,0.38477271286733444
1633780098758988500,3.697988525390625,-7.239854807910323,-6.605264526718854,0.3540785916570574
1633780098778867500,3.717867431640625,-7.272817166313528,-6.570820405325293,0.31753892275635154
1633780098798746600,3.73774658203125,-7.2926260286331175,-6.550299595344066,0.28560015351353213
1633780098818626600,3.75762646484375,-7.296671504631638,-6.546845070976018,0.26036639833468944
1633780098838505500,3.77750537109375,-7.285923316124081,-6.55948652588427,0.2425878727989271
1633780098858384600,3.797384521484375,-7.264266195589304,-6.585658493494987,0.17298695169780404
1633780098878263600,3.817263671875,-7.244664254018664,-6.6084758899807925,0.11521548413545823
1633780098898143500,3.8371435546875,-7.2249524223327635,-6.630653234997391,0.06997841721058357
1633780098918022700,3.857022705078125,-7.2012541513592,-6.65667147335112,0.03228409153217217
1633780098937901600,3.876901611328125,-7.1761547814160584,-6.683796796163916,-0.006745233051577816
1633780098957780500,3.896780517578125,-7.1473179785102605,-6.71443158840239,-0.05127863494432531
1633780098977660700,3.91666064453125,-7.114672430971265,-6.748519151443243,-0.09650509371021762
1633780098997539600,3.93653955078125,-7.087443063262104,-6.7763616826146835,-0.13949405748131685
1633780099017418500,3.95641845703125,-7.074727374073863,-6.788765821635723,-0.17684229368539525
1633780099037297400,3.97629736328125,-7.076823469570279,-6.785659087792038,-0.2092621244434267
1633780099057177600,3.996177490234375,-7.086653374189138,-6.774401780718565,-0.2392042217100039
1633780099077056800,4.016056884765625,-7.100994034230709,-6.758335612058639,-0.2667661093091592
1633780099096935400,4.035935302734375,-7.121373389914631,-6.735831519305705,-0.2915560479769483
1633780099116814600,4.055814697265625,-7.150240587958693,-6.704525695937871,-0.3062165328237228
1633780099136694800,4.07569482421875,-7.185411270061135,-6.6670929141223425,-0.3002098762874491
1633780099156573400,4.095573486328125,-7.214203649303316,-6.636846244418621,-0.27915572661450133
1633780099176452600,4.11545263671875,-7.227509705600142,-6.623139206105471,-0.2598222632543184
1633780099196331500,4.13533154296875,-7.232140288010239,-6.618494010648131,-0.24913382384367286
1633780099216211500,4.15521142578125,-7.23767863291502,-6.6125827407777305,-0.2452496393540874
1633780099236090600,4.175090576171875,-7.245980012792349,-6.603552462103963,-0.24339230278329924
1633780099255969500,4.194969482421875,-7.2510296973973505,-6.59811231687665,-0.24057050509452818
1633780099275848700,4.2148486328125,-7.248483520045876,-6.601418957206606,-0.22614092466048896
1633780099295728600,4.234728759765625,-7.238679334390163,-6.613313977661728,-0.189717685213685
1633780099315607600,4.254607666015625,-7.2248086299479,-6.629793403297662,-0.13546854655859059
1633780099335486700,4.27448681640625,-7.210650340735912,-6.646108578282594,-0.07842414202862419
1633780099355365600,4.29436572265625,-7.20257750891745,-6.655259268465638,-0.02813286730396794
1633780099375245600,4.31424560546875,-7.211590251934528,-6.645545099180937,0.00898829299158824
1633780099395124700,4.334124755859375,-7.2350570522397755,-6.619944793978333,0.025847765741206237
1633780099415003600,4.354003662109375,-7.255906948044895,-6.597089403569698,0.024817550477210897
1633780099434882600,4.373882568359375,-7.263870474269986,-6.588329758530855,0.02200958495097002
1633780099454762800,4.3937626953125,-7.2643293239533895,-6.587764525863528,0.03557059325639857
1633780099474641700,4.4136416015625,-7.264391867795586,-6.587448299521207,0.06724186838616152
1633780099494520600,4.4335205078125,-7.266558690440655,-6.584470160493254,0.11075274170609191
1633780099514399500,4.4533994140625,-7.269070965522527,-6.580774228584766,0.1562165985575877
1633780099534278700,4.473278564453125,-7.275729838889837,-6.572433101218938,0.19303238098593428
1633780099554158600,4.49315869140625,-7.290602413851023,-6.5554708605021235,0.20808191994922234
1633780099574037500,4.51303759765625,-7.314561966109276,-6.528810232591629,0.20542943267906083
1633780099593916700,4.532916748046875,-7.344609313848614,-6.495099686169624,0.20193684132294729
1633780099613795600,4.552795654296875,-7.370445765894651,-6.465695312508941,0.2042066128858365
1633780099633675500,4.572675537109375,-7.383235104840994,-6.450957177582382,0.20825369631955398
1633780099653554700,4.5925546875,-7.3834250744551415,-6.450653226199746,0.21092163688717408
1633780099673433000,4.61243310546875,-7.37440122552216,-6.4609852351218455,0.21039014209266751
1633780099693312300,4.632312255859375,-7.357196992743015,-6.480352198892831,0.21695130897285417
1633780099713192000,4.65219189453125,-7.342462364947796,-6.4965329338431355,0.2317170625586994
1633780099733071000,4.672071044921875,-7.343864048439264,-6.495382594764232,0.21921395667521282
1633780099752950300,4.6919501953125,-7.354883455103636,-6.484763585594296,0.15464898391468448
1633780099772829000,4.711828857421875,-7.360638657629489,-6.479820283973217,0.057543111299723386
1633780099792709000,4.731709228515625,-7.359229959875345,-6.481469804745912,-0.0516559803567361
1633780099812588000,4.751588134765625,-7.3508151827514165,-6.489357343125343,-0.15537123377462847
1633780099832467200,4.77146728515625,-7.336278123354911,-6.503352550730109,-0.23625775646194813
1633780099852346000,4.79134619140625,-7.322398066562414,-6.517140253064036,-0.2824160253183916
1633780099872226000,4.81122607421875,-7.30769032677412,-6.533199407461285,-0.29215348414713516
1633780099892105200,4.831105224609375,-7.277974987468123,-6.566778436458111,-0.28086890547424553
1633780099911984000,4.850984130859375,-7.223698038357496,-6.627278205606341,-0.2603123300598934
1633780099931863000,4.870863037109375,-7.143097730466723,-6.71487991669178,-0.23859246475351972
1633780099951742200,4.8907421875,-7.044031207036972,-6.819153361114859,-0.226175941174943
1633780099971622000,4.910621826171875,-6.941640507620573,-6.92318130634427,-0.23145978159569203
1633780099991501000,4.9305009765625,-6.857123903068899,-7.006739294996858,-0.2363074408225715
1633780100011380200,4.950380126953125,-6.809298906576633,-7.053790969029069,-0.21876966524012387
1633780100031259100,4.970259033203125,-6.802671597391367,-7.061275771826505,-0.18003986588399856
1633780100051139000,4.99013916015625,-6.82422525755167,-7.041281616067886,-0.14383250681073403
1633780100071018000,5.01001806640625,-6.857087078189849,-7.00956838094294,-0.1291795568164438
1633780100090897200,5.029897216796875,-6.889429258868097,-6.977821243548393,-0.12717854659180156
1633780100110776000,5.049776123046875,-6.916870223501324,-6.950680723166466,-0.12381618488607928
1633780100130656000,5.069656005859375,-6.938986778241396,-6.928831294929981,-0.11020431404309347
1633780100150535200,5.08953515625,-6.955269220000505,-6.912696152687072,-0.09620333428466692
1633780100170414300,5.109414306640625,-6.971509576183557,-6.896179317650199,-0.1056168309892062
1633780100190293000,5.12929296875,-6.9950698999911545,-6.8717106468260285,-0.13775196305434217
1633780100210173200,5.149173095703125,-7.020620520833134,-6.8448705706954,-0.17035539761781693
1633780100230052000,5.169052001953125,-7.041010397911071,-6.823238584601879,-0.19485904842382296
1633780100249931000,5.188930908203125,-7.06344843969047,-6.799326378616691,-0.21733901138249784
1633780100269810200,5.20881005859375,-7.095677223122119,-6.764453218156099,-0.25283180157877505
1633780100289690000,5.228690185546875,-7.136793661886453,-6.719926678687334,-0.2813313536205329
1633780100309569000,5.248569091796875,-7.173194762566685,-6.681021486231685,-0.28217628001207484
1633780100329448000,5.268447998046875,-7.186807692855596,-6.667371146541833,-0.2575529666154645
1633780100349327000,5.2883271484375,-7.174654898247122,-6.681743955287337,-0.22137791150975972
1633780100369206300,5.308206298828125,-7.14935153016448,-6.709677671873569,-0.1933234728869982
1633780100389086000,5.3280859375,-7.123009466683865,-6.737668087083101,-0.19221494538951664
1633780100408965000,5.347965087890625,-7.1015347169786684,-6.758925394645333,-0.23561187804015352
1633780100428844000,5.367843994140625,-7.093813767337799,-6.763622028028965,-0.318760756168887
1633780100448723200,5.38772314453125,-7.108008881428837,-6.743568835559487,-0.41337146923355755
1633780100468603100,5.40760302734375,-7.142892563283443,-6.701230161523819,-0.4929338123787194
1633780100488482000,5.42748193359375,-7.185860767394304,-6.65122665194869,-0.5431205695662648
1633780100508361200,5.447361328125,-7.218024084374308,-6.614659547051787,-0.5628418997328728
1633780100528240000,5.467240234375,-7.229511693072318,-6.602680355444551,-0.5560138803437352
1633780100548120000,5.4871201171875,-7.223107086727023,-6.611295623576641,-0.5365406431866809
1633780100567999200,5.506999267578125,-7.207324995705485,-6.629411125981807,-0.5251208755604923
1633780100587878000,5.5268779296875,-7.190168109199404,-6.646969579026103,-0.5382098915731534
1633780100607757000,5.546757080078125,-7.180544540807604,-6.654092562773823,-0.5772504373788834
1633780100627637200,5.56663720703125,-7.1842626845479005,-6.645390785402059,-0.6289128931421786
1633780100647516000,5.586515869140625,-7.198337971651553,-6.624448535138368,-0.6862956262484192
1633780100667395300,5.606395263671875,-7.217774493527412,-6.596779606968164,-0.7460663504697382
1633780100687274200,5.626274169921875,-7.241174073815345,-6.5654965799540275,-0.793753838187456
1633780100707153400,5.6461533203125,-7.270840897804498,-6.530132421106099,-0.8140180430591106
1633780100727033300,5.666033447265625,-7.305069915142655,-6.491716473472118,-0.8148400269664824
1633780100746912300,5.685912353515625,-7.3415166085302825,-6.4491907524317496,-0.8248990641660988
1633780100766791400,5.70579150390625,-7.381882521188259,-6.398374172908067,-0.8596594119019806
1633780100786670000,5.725670166015625,-7.42483085155487,-6.342184668174386,-0.9049657035715878
1633780100806550300,5.74555029296875,-7.467066065216064,-6.287130304950475,-0.9409051050242035
1633780100826429400,5.765429443359375,-7.503812618333101,-6.239772925969958,-0.9635379387233406
1633780100846308400,5.785308349609375,-7.5345742518216365,-6.201849730288982,-0.9683154553234576
1633780100866187300,5.805187255859375,-7.561272289133071,-6.1712085083097215,-0.9558938537109642
1633780100886067500,5.8250673828125,-7.5834139783143995,-6.146852650210261,-0.9372413948848843
1633780100905946400,5.8449462890625,-7.5998296910643575,-6.129091368070244,-0.9204427472319453
1633780100925825300,5.8648251953125,-7.606998852041364,-6.120310095721483,-0.919646920679137
1633780100945704200,5.8847041015625,-7.604125342431664,-6.121069389656186,-0.9381708577547222
1633780100965584400,5.90458447265625,-7.595342901039123,-6.127977853870392,-0.9638632982201873
1633780100985463300,5.92446337890625,-7.581631186550855,-6.140652042004466,-0.9907794352617114
1633780101005342200,5.94434228515625,-7.565540467971563,-6.15519202401042,-1.0230299190685153
1633780101025221400,5.964221435546875,-7.548683441194892,-6.168784496033191,-1.0648291524652391
1633780101045100300,5.984100341796875,-7.533316945236921,-6.180127727824449,-1.1070367474671452
1633780101064980200,6.003980224609375,-7.521272871699929,-6.188961607143282,-1.1391163316864519
1633780101084859400,6.023859375,-7.517243762314319,-6.190725694206357,-1.1560052149061113
1633780101104738300,6.04373828125,-7.524394218590855,-6.18068419266343,-1.1631915462136269
1633780101124617200,6.0636171875,-7.541336585563421,-6.159282508194446,-1.1669923998013139
1633780101144497400,6.083497314453125,-7.5627844472616905,-6.131684307172894,-1.1735066770661622
1633780101164376300,6.103376220703125,-7.583065603268146,-6.105314186641573,-1.1801022759389133
1633780101184255500,6.12325537109375,-7.597274745884537,-6.08786445466876,-1.1788611898366361
1633780101204134100,6.143134033203125,-7.602503294187784,-6.085317108273506,-1.158123010777682
1633780101224014300,6.163014404296875,-7.597853422555327,-6.097825876712799,-1.1222887501999734
1633780101243893500,6.1828935546875,-7.587330274975299,-6.116956109118461,-1.0888802554644643
1633780101263772200,6.202772216796875,-7.578590503680705,-6.131846804258227,-1.0657401298303157
1633780101283651300,6.2226513671875,-7.575352252411842,-6.138049750551581,-1.052980528435111
1633780101303530200,6.2425302734375,-7.573693963810801,-6.143285313117504,-1.0342052469469607
1633780101323410200,6.26241015625,-7.566327818956971,-6.157919403147697,-1.000547088299319
1633780101343289300,6.282289306640625,-7.553651292735338,-6.1801388337403536,-0.9584470453251153
1633780101363168300,6.302168212890625,-7.543276613715291,-6.197939278846979,-0.9246163065895437
1633780101383047400,6.32204736328125,-7.542720733398198,-6.200677763900161,-0.9106864923711866
1633780101402927400,6.34192724609375,-7.552989613956212,-6.186767311969399,-0.9201311970647424
1633780101422806300,6.36180615234375,-7.573796255141496,-6.159686997342109,-0.9307260216414928
1633780101442685400,6.381685546875,-7.594920876234769,-6.133943484276533,-0.9285988003544509
1633780101462564400,6.401564453125,-7.611520128858089,-6.11645575838089,-0.9078104985434562
1633780101482443300,6.421443359375,-7.621759783321618,-6.109129361015558,-0.8704612302929162
1633780101502323500,6.441323486328125,-7.625877155512571,-6.110297235751152,-0.8250191834144294
1633780101522202400,6.461202392578125,-7.630447532168031,-6.1096267891436815,-0.7868384327758103
1633780101542081300,6.481081298828125,-7.644526326403021,-6.095834995156526,-0.7565674323484302
1633780101561960200,6.500960205078125,-7.665958990532159,-6.072097561216354,-0.7301300917997956
1633780101581840400,6.52084033203125,-7.685464485991001,-6.0499810064762825,-0.7083425498183816
1633780101601719300,6.54071923828125,-7.702399254179,-6.031680210632086,-0.6799018335580825
1633780101621598200,6.56059814453125,-7.714911529749632,-6.020478433138131,-0.6358917191788553
1633780101641477400,6.580477294921875,-7.725687775307893,-6.01220160318017,-0.5809968208329752
1633780101661357300,6.600357421875,-7.735558596459031,-6.002986031067371,-0.5437534606423229
1633780101681236200,6.620236328125,-7.746618335133791,-5.9910074239820235,-0.5177973277393728
1633780101701115400,6.640115478515625,-7.754501781859993,-5.9848757893592115,-0.4683550687761977
1633780101720994300,6.659994384765625,-7.74984664953053,-5.996029051536321,-0.39736751562226563
1633780101740874200,6.679874267578125,-7.734695257627964,-6.020603520822525,-0.311783574100025
1633780101760753400,6.69975341796875,-7.720155860143899,-6.042716568431258,-0.2348533330241218
1633780101780632300,6.71963232421875,-7.71539843648374,-6.050327627956867,-0.19117676144819706
1633780101800511500,6.739511474609375,-7.720843842408061,-6.043796180361509,-0.17745014165174214
1633780101820390100,6.75939013671875,-7.727354831737279,-6.035343993836641,-0.18164081654092296
1633780101840270300,6.779270263671875,-7.729606410056352,-6.032274084872007,-0.18770499368440358
1633780101860149500,6.7991494140625,-7.731055439820885,-6.030332303154468,-0.19040864488622172
1633780101880028200,6.819028076171875,-7.737020485705137,-6.022666298571228,-0.19075650847582146
1633780101899907300,6.8389072265625,-7.747050296810269,-6.009644904434681,-0.19432888706987722
1633780101919787500,6.85878759765625,-7.762036853539943,-5.989850070640444,-0.20703507777741179
1633780101939666200,6.878666259765625,-7.782623129972815,-5.962445930886268,-0.2245045373640023
1633780101959545300,6.89854541015625,-7.806756869754195,-5.930254556855559,-0.23878952169558032
1633780101979424300,6.91842431640625,-7.832789136633276,-5.895286703848838,-0.25178799161426724
1633780101999303400,6.938303466796875,-7.86155930404365,-5.8563604686051605,-0.26325799159035085
1633780102019183400,6.958183349609375,-7.89300365909934,-5.813831240433454,-0.26501948483753945
1633780102039062300,6.978062255859375,-7.925808196592331,-5.7692275440752505,-0.2606903330594301
1633780102058941400,6.99794140625,-7.961075909328461,-5.720740868803858,-0.2545164301974699
1633780102078820400,7.0178203125,-7.998513367319107,-5.668948137724399,-0.23915729556204748
1633780102098700300,7.0377001953125,-8.031575094443559,-5.622952694746852,-0.21583386751655487
1633780102118579500,7.057579345703125,-8.056990690729021,-5.587589120420813,-0.18475288414685054
1633780102138458400,7.077458251953125,-8.073862330552934,-5.564183110392094,-0.15166594951590523
1633780102158337300,7.097337158203125,-8.082717252659798,-5.551653299164772,-0.1386045704288408
1633780102178217500,7.117217529296875,-8.089787044915557,-5.540836721596121,-0.15765786514077335
1633780102198096400,7.137096435546875,-8.103741335988044,-5.519310533964633,-0.19227794588943942
1633780102217975300,7.156975341796875,-8.127787982007861,-5.482460520473122,-0.2281855822306126
1633780102237854200,7.176854248046875,-8.15878342425227,-5.434617988324165,-0.2637497206300497
1633780102257733400,7.1967333984375,-8.189134723374247,-5.387223199942707,-0.2937359858319163
1633780102277613300,7.21661328125,-8.211165937918425,-5.35264230042696,-0.310421893825382
1633780102297492200,7.2364921875,-8.223441482123732,-5.333893176293373,-0.3081863167930394
1633780102317371400,7.256371337890625,-8.228079078796505,-5.327383940529823,-0.2967924325267784
1633780102337250300,7.276250244140625,-8.231733509650827,-5.323116930735111,-0.27087206505695355
1633780102357130200,7.296130126953125,-8.240206154441832,-5.311714662232995,-0.2346677107915282
1633780102377009400,7.316009521484375,-8.257447212100029,-5.286070517888665,-0.20593584783123806
1633780102396888300,7.335888427734375,-8.287401036337018,-5.2396840297669165,-0.18729940855819732
1633780102416767200,7.355767333984375,-8.325809385186433,-5.178694431275129,-0.1800322853657417
1633780102436646100,7.375646240234375,-8.362568213263154,-5.119070275917649,-0.18153834254713727
1633780102456526300,7.3955263671875,-8.38825561222732,-5.076653275948763,-0.1874660703619942
1633780102476405500,7.415405517578125,-8.396288112035393,-5.0624447178542615,-0.210664794315584
1633780102496284200,7.4352841796875,-8.38392839667797,-5.080339855507016,-0.2651025600111112
1633780102516163300,7.455163330078125,-8.35412362552285,-5.124209392371774,-0.3485442653402686
1633780102536043500,7.47504345703125,-8.312053831556439,-5.184894454959035,-0.44386327280476684
1633780102555922200,7.494922119140625,-8.262795587390661,-5.256582557597756,-0.5147073258347808
1633780102575801300,7.51480126953125,-8.208520391845703,-5.336486115396022,-0.5590104318112135
1633780102595680300,7.53468017578125,-8.150125486022233,-5.421659722551703,-0.592832512316294
1633780102615560200,7.554560302734375,-8.087948139050603,-5.510004945480823,-0.6287482771649956
1633780102635439400,7.574439453125,-8.024155173575878,-5.597604318478703,-0.670927522855252
1633780102655318300,7.594318359375,-7.967509157246351,-5.67316137150526,-0.7102332589358091
1633780102675200800,7.61420068359375,-7.926676796120405,-5.726567967522144,-0.7379721836023032
1633780102695079700,7.63407958984375,-7.903195382767915,-5.758627824127673,-0.7403362823851406
1633780102714960000,7.6539599609375,-7.887665805202722,-5.783927100557088,-0.7080284423679113
1633780102734838800,7.6738388671875,-7.86594204917252,-5.819696333074569,-0.6545796877097338
1633780102754718000,7.693718017578125,-7.830913405889272,-5.873038047161698,-0.5954873376740142
1633780102774596600,7.7135966796875,-7.784839052456617,-5.938956334227323,-0.5435612990710884
1633780102794476800,7.733476806640625,-7.739716300660372,-6.001107377713918,-0.5038731030115857
1633780102814356000,7.75335595703125,-7.709708115887642,-6.041928632923961,-0.4752725930796936
1633780102834234600,7.773234619140625,-7.702700282952189,-6.052533029046654,-0.45348055758625266
1633780102854113800,7.79311376953125,-7.7167925211906425,-6.035721594977378,-0.4376764373959973
1633780102873993000,7.812992919921875,-7.743077886047959,-6.002051380565762,-0.43646070493068545
1633780102893872600,7.83287255859375,-7.773822568401694,-5.9611722576886415,-0.44998573774043465
1633780102913751800,7.852751708984375,-7.803293577557802,-5.920755491626262,-0.47290805590543894
1633780102933630700,7.872630615234375,-7.827527855104208,-5.8859191560447215,-0.5061083512503654
1633780102953510000,7.892510009765625,-7.8440587186664334,-5.860021329200268,-0.548889362226054
1633780102973389800,7.912389892578125,-7.853681118014454,-5.843326799508929,-0.5878847171831876
1633780102993268700,7.932268798828125,-7.8562898392081255,-5.8372144541084765,-0.6132040134873241
1633780103013148000,7.95214794921875,-7.849340458461642,-5.843792078933119,-0.6390018870886415
1633780103033026800,7.97202685546875,-7.836286331099271,-5.858702647817134,-0.6622746991917491
1633780103052905700,7.99190576171875,-7.830292643642425,-5.866099187809229,-0.6676658176455647
1633780103072786000,8.011785888671875,-7.839110156348347,-5.855605850845575,-0.6562116728257388
1633780103092664800,8.031664794921875,-7.869579528892039,-5.8172623839259145,-0.6321092049654573
1633780103112543700,8.051543701171875,-7.920221920892596,-5.750872972217202,-0.6065734528990462
1633780103132422700,8.071422607421875,-7.980068779090046,-5.669046921923757,-0.5922848153056577
1633780103152302800,8.091302734375,-8.035445213875175,-5.590782948026061,-0.5874956082677468
1633780103172181800,8.111181640625,-8.075651552057266,-5.533005297318101,-0.5831717537192628
1633780103192060700,8.131060791015624,-8.097271847712992,-5.504162649193406,-0.5556668570043519
1633780103211939800,8.15093994140625,-8.097666399988531,-5.508548901453614,-0.504052405101247
1633780103231819800,8.17081982421875,-8.078296513608098,-5.542628865709901,-0.43678102292623366
1633780103251698700,8.19069873046875,-8.046765649312734,-5.593667563551664,-0.36168811681270596
1633780103271577900,8.210577880859375,-8.008513367807865,-5.652858588188886,-0.2815629704193212
1633780103291456800,8.230456787109375,-7.96827488092184,-5.71258912653029,-0.20810679866215212
1633780103311335700,8.250335693359375,-7.9337471728980535,-5.762115666243433,-0.15512695842366664
1633780103331216000,8.2702158203125,-7.9079668349534264,-5.798161377614736,-0.1255789933075197
1633780103351094800,8.2900947265625,-7.891704266938567,-5.820369117769599,-0.12122487148493527
1633780103370974000,8.309973876953125,-7.884184977349639,-5.830321187463403,-0.1317908718260005
1633780103390852600,8.3298525390625,-7.884110743069648,-5.830051138350367,-0.1472648284801282
1633780103410732800,8.34973291015625,-7.89111974504888,-5.820206036162376,-0.1606538138200529
1633780103430612000,8.369612060546874,-7.900769616925716,-5.806984151017666,-0.16477778014857322
1633780103450490600,8.38949072265625,-7.906589116859435,-5.799114732816815,-0.162781455232203
1633780103470369800,8.409369873046876,-7.903924281564354,-5.802720648354292,-0.16369703570716082
1633780103490249000,8.4292490234375,-7.891897159162164,-5.818890861910581,-0.16987225374337284
1633780103510128600,8.449128662109375,-7.869065149629115,-5.849403489074111,-0.18078262880900875
1633780103530007800,8.4690078125,-7.841984835001826,-5.885113684880733,-0.1977272608038969
1633780103549886700,8.48888671875,-7.817142070168257,-5.917369940841198,-0.21772044844813643
1633780103569766000,8.508765869140625,-7.799440993782877,-5.939978078490495,-0.23615031403210013
1633780103589645800,8.528645751953125,-7.788602788904309,-5.952912963387369,-0.2662195265433751
1633780103609524700,8.548524658203124,-7.781651654592156,-5.959784602722525,-0.3118364367984235
1633780103629404000,8.56840380859375,-7.77466954061985,-5.966386777466536,-0.3565601428071037
1633780103649282800,8.58828271484375,-7.763411649024486,-5.97898497775495,-0.38931305971071123
1633780103669162800,8.608162841796876,-7.747098227605223,-5.998073124584555,-0.4194994140619412
1633780103689042000,8.6280419921875,-7.731594953525066,-6.015853695946931,-0.44980877373833206
1633780103708920800,8.6479208984375,-7.721997104096412,-6.02652414304316,-0.47132553595434873
1633780103728799700,8.6677998046875,-7.7223343732267615,-6.025259237673878,-0.481854126894474
1633780103748679000,8.687678955078125,-7.731863833594322,-6.012176468738913,-0.4923436279332265
1633780103768558800,8.707558837890625,-7.7453084215790025,-5.993274784392118,-0.5111219781612977
1633780103788437800,8.727437744140625,-7.755726355218887,-5.977108662489056,-0.5415384149413556
1633780103808317000,8.74731689453125,-7.760281534305214,-5.96831686874628,-0.5723718350244685
1633780103828195800,8.76719580078125,-7.7610361520648,-5.965120118531584,-0.5950235195545479
1633780103848075800,8.78707568359375,-7.76196963352263,-5.962171205598116,-0.612147636302188
1633780103867954700,8.80695458984375,-7.766953851675987,-5.954195404413342,-0.6263901697315275
1633780103887833900,8.826833740234376,-7.773466010048985,-5.944248595416545,-0.6399355877421796
1633780103907713000,8.846713134765626,-7.777365355575085,-5.9376177790999405,-0.6539614827461541
1633780103927591700,8.866591796875,-7.775093318989873,-5.939228136906028,-0.6662431644313037
1633780103947472000,8.886471923828125,-7.763733136063814,-5.952414366215467,-0.6808767430048436
1633780103967351000,8.90635107421875,-7.744844895720481,-5.974928980362415,-0.6985657636262476
1633780103987230000,8.92622998046875,-7.72571349427104,-5.998209318184852,-0.7107881894048302
1633780104007108900,8.94610888671875,-7.7120438653588295,-6.015325288158655,-0.7145788138594478
1633780104026988800,8.96598876953125,-7.704005520331859,-6.0256380078583955,-0.7144000232264399
1633780104046868000,8.985867919921875,-7.700148260381817,-6.030381987515091,-0.715952367234975
1633780104066747000,9.005746826171874,-7.701167082035541,-6.028467093804478,-0.7211026626702398
1633780104086625800,9.025625732421876,-7.705919829520583,-6.0210740609437226,-0.7320224083524197
1633780104106506000,9.045506103515624,-7.712155509039759,-6.01106295453906,-0.7484370251238346
1633780104126384600,9.065384521484376,-7.720234770599007,-5.999000760823488,-0.761807524958998
1633780104146263800,9.085263916015625,-7.729332269290089,-5.986618833634257,-0.7669379466500132
1633780104166143000,9.10514306640625,-7.737794392687082,-5.975810439372062,-0.7659061924494802
1633780104186022000,9.12502197265625,-7.745466827011108,-5.96695668630898,-0.7573365170247852
1633780104205901800,9.14490185546875,-7.751476296558976,-5.960852524214983,-0.7438003052338957
1633780104225780700,9.16478076171875,-7.756934561964869,-5.955066926550865,-0.7331592303626239
1633780104245660000,9.184659912109375,-7.763895048627257,-5.946734567013382,-0.7270956925399601
1633780104265538800,9.204538818359374,-7.77327077973783,-5.935162787163257,-0.721452791282162
1633780104285418800,9.224418701171874,-7.784542115336656,-5.92150601773262,-0.7120774254977703
1633780104305298000,9.2442978515625,-7.794915040791034,-5.909334518423676,-0.6996002943057567
1633780104325176800,9.2641767578125,-7.802700872361659,-5.900693531328439,-0.6856015065044164
1633780104345055700,9.2840556640625,-7.807652357289195,-5.89556318270266,-0.6732587422817945
1633780104364936000,9.30393603515625,-7.808890374651551,-5.894996780991554,-0.6637997168019414
1633780104384814800,9.32381494140625,-7.80678317323923,-5.898691543856263,-0.6557083994787186
1633780104404693800,9.34369384765625,-7.803472441256046,-5.904202416232228,-0.6454398842468857
1633780104424573000,9.363572998046875,-7.799107816305756,-5.9108273873299355,-0.6375042689420283
1633780104444451800,9.383451904296875,-7.792525515305996,-5.91947363512218,-0.6377784097082912
1633780104464331800,9.403331787109375,-7.784748451563716,-5.929537933018803,-0.6392558618497103
1633780104484210700,9.423210693359374,-7.778537906485796,-5.9379679077118634,-0.6366052742756902
1633780104504089900,9.44308984375,-7.775132481956481,-5.942783199039101,-0.6332686771988868
1633780104523969000,9.462968994140626,-7.7744263795137405,-5.943692130577564,-0.6334053822558373
1633780104543848700,9.4828486328125,-7.775161708050966,-5.942012799188494,-0.6400952352833003
1633780104563728000,9.502727783203126,-7.77608642168045,-5.940069263905286,-0.6468732780508697
1633780104583607000,9.52260693359375,-7.777983195212483,-5.937772092878818,-0.6451522264119237
1633780104603485700,9.542485595703125,-7.781839286118745,-5.93394522806704,-0.6337632557827979
1633780104623366000,9.562365966796875,-7.786015110498666,-5.929770572730899,-0.6214361275207251
1633780104643244800,9.582244873046875,-7.789449761122465,-5.92607464082241,-0.6135992964152246
1633780104663124000,9.6021240234375,-7.793228695139288,-5.921794771546125,-0.6068944650143384
1633780104682999600,9.62199951171875,-7.797122195446491,-5.917254790028929,-0.6011334903348237
1633780104702878700,9.641878662109375,-7.802484599262476,-5.9104708289772265,-0.5982874532539397
1633780104722758700,9.661758544921875,-7.8092329044789075,-5.901708845850825,-0.5967363513544202
1633780104742637600,9.681637451171875,-7.814746699464321,-5.894632039332389,-0.5944980709083378
1633780104762516700,9.701516845703125,-7.817506811827421,-5.890785885298252,-0.5963302913041785
1633780104782395600,9.721395751953125,-7.818141602599621,-5.889225211852788,-0.6033862011650577
1633780104802275600,9.741275634765625,-7.819518736171722,-5.886307278579473,-0.613926555608213
1633780104822154800,9.76115478515625,-7.825066433426738,-5.877818267175555,-0.6244789292827249
1633780104842033700,9.78103369140625,-7.833980392244458,-5.865026005619764,-0.6329352074608207
1633780104861912800,9.800912841796874,-7.842374126580357,-5.853107019767164,-0.6392882297493517
1633780104881791700,9.820791748046876,-7.847830053898692,-5.84576893196404,-0.6394792222768068
1633780104901671700,9.840671630859376,-7.850419485870003,-5.842489764162898,-0.6376672774840146
1633780104921550800,9.86055078125,-7.852315090358257,-5.839701010227203,-0.6398609150707721
1633780104941429500,9.880429443359375,-7.856938073983788,-5.833471175926923,-0.6399398255258798
1633780104961308700,9.90030859375,-7.864505294367671,-5.823270684430002,-0.6398887529257684
1633780104981188900,9.92018896484375,-7.873833094683289,-5.809658338662982,-0.648850934799388
1633780105001067500,9.940067626953125,-7.882527273270488,-5.795908630251884,-0.6660226535484194
1633780105020946700,9.95994677734375,-7.889089700525998,-5.785107834774255,-0.6820355576511472
1633780105040825600,9.97982568359375,-7.89307789337933,-5.7784676661074155,-0.6921077465932816
1633780105060705500,9.99970556640625,-7.8948747136682265,-5.77473081766665,-0.7027278517417609
1633780105080584700,10.019584716796874,-7.895608288639783,-5.772831706047058,-0.7100440199740231
1633780105100463600,10.039463623046874,-7.897029845875501,-5.77189471745789,-0.7018111022230238
1633780105120342800,10.0593427734375,-7.901110393187404,-5.76950869910419,-0.6749936032503843
1633780105140222000,10.079221923828126,-7.906402069854736,-5.766694226205349,-0.6359465911712497
1633780105160101600,10.0991015625,-7.9089166830241675,-5.768088895434141,-0.5903991111569106
1633780105179980800,10.118980712890625,-7.907535457798838,-5.774286581030488,-0.5467056980440392
1633780105199859700,10.138859619140625,-7.905687784105539,-5.780822704800963,-0.5025615820216015
1633780105219738600,10.158738525390625,-7.906621850085258,-5.7834811103552575,-0.45504605333730574
1633780105239618800,10.178618896484375,-7.907744132113456,-5.784847138011455,-0.41653621687479314
1633780105259497700,10.198497802734375,-7.907437842643261,-5.7867035795331,-0.3960741878760978
1633780105279376600,10.218376708984374,-7.9074764210879795,-5.787042602229118,-0.3903087927497923
1633780105299255600,10.238255615234374,-7.910158792039751,-5.783820133051276,-0.38366533614732323
1633780105319135700,10.2581357421875,-7.913432699143886,-5.7796378789305685,-0.3791419404387474
1633780105339014700,10.2780146484375,-7.9166043149173255,-5.775398926186561,-0.37754046005886044
1633780105358893600,10.2978935546875,-7.919110744780301,-5.771905238851905,-0.3783887474512681
1633780105378772700,10.317772705078125,-7.922027509009838,-5.7675072961539025,-0.3843510168565437
1633780105398651600,10.337651611328125,-7.927409786570072,-5.759639046996831,-0.3912998496137559
1633780105418531600,10.357531494140625,-7.932575206509232,-5.752209773778915,-0.3958842913271859
1633780105438410800,10.37741064453125,-7.93403300410211,-5.749952350240945,-0.39944223953709
1633780105458289700,10.39728955078125,-7.932147921007871,-5.752338953116536,-0.40250604755450037
1633780105478168800,10.4171689453125,-7.924644998031854,-5.762673884648084,-0.4024627929346636
1633780105498048800,10.437048828125,-7.910808195859193,-5.781501334714889,-0.4046475165626034
1633780105517927700,10.456927734375,-7.897823042079806,-5.7992281300634145,-0.40464368063770234
1633780105537806800,10.476806884765624,-7.891136111661791,-5.808731871467828,-0.39873409126773474
1633780105557685500,10.496685546875,-7.887950467363,-5.813263669678569,-0.3957135378701612
1633780105577564700,10.516564697265625,-7.885519440823793,-5.816620578891039,-0.39483207886051386
1633780105597444900,10.53644482421875,-7.881370504450798,-5.822134373876452,-0.39639994923174376
1633780105617323500,10.556323486328125,-7.872887338265776,-5.833351348939537,-0.4000439682899043
1633780105637202700,10.57620263671875,-7.861427786618471,-5.84895574530661,-0.3975573025733232
1633780105657081600,10.59608154296875,-7.85048261423409,-5.864167342963815,-0.38968276980593797
1633780105676961800,10.6159619140625,-7.841588529160618,-5.8763850195020435,-0.3846669874705374
1633780105696840700,10.6358408203125,-7.834527504733204,-5.885758412525058,-0.3852459929348901
1633780105716719900,10.655719970703124,-7.830217824840545,-5.891401971369981,-0.38658451152965423
1633780105736598800,10.675598876953124,-7.8275091504037375,-5.894961709678173,-0.387178787628375
1633780105756478700,10.695478759765624,-7.824495355540513,-5.899118829357624,-0.38478334385920315
1633780105776358000,10.71535791015625,-7.820130146068334,-5.905027176618575,-0.38288901801258324
1633780105796236800,10.73523681640625,-7.815365123623609,-5.91139671165049,-0.38188393262326714
1633780105816116000,10.755115966796875,-7.812366526329517,-5.915253971600532,-0.3835234069259837
1633780105835994600,10.77499462890625,-7.811247166910767,-5.916379176238179,-0.3889182151742279
1633780105855874800,10.794874755859375,-7.809972324669361,-5.917624792385101,-0.3955239335821941
1633780105875754000,10.81475390625,-7.806152474120259,-5.922497366857528,-0.3979823595849797
1633780105895632600,10.834632568359375,-7.800873656934499,-5.929554884153604,-0.3963946885347366
1633780105915511800,10.85451171875,-7.795347002467513,-5.937087033224105,-0.39234778776410967
1633780105935392000,10.87439208984375,-7.791315554994345,-5.942608426994085,-0.38884606325346976
1633780105955270700,10.894270751953124,-7.787830050966143,-5.947185233390331,-0.38868089928701516
1633780105975149800,10.91414990234375,-7.784581278303265,-5.9512026523381465,-0.3922503187390044
1633780105995028700,10.93402880859375,-7.781914689442515,-5.9545478711128235,-0.39439518528059125
1633780106014908700,10.95390869140625,-7.780594254493713,-5.956290915387869,-0.394120277329348
1633780106034787800,10.973787841796875,-7.7797519584506745,-5.95753711605668,-0.39191582608763126
1633780106054666800,10.993666748046875,-7.7779130525857205,-5.960040623310208,-0.3903471885314211
1633780106074546000,11.0135458984375,-7.775355769318342,-5.963460660886764,-0.38904911154489963
1633780106094424800,11.0334248046875,-7.773837181448936,-5.965458556705713,-0.38876711626574395
1633780106114304800,11.0533046875,-7.7740715747267,-5.965284953704476,-0.38674123646132647
1633780106134184000,11.073183837890625,-7.775315437307953,-5.96385988933742,-0.3837009189173579
1633780106154062800,11.093062744140624,-7.77612383108139,-5.963034544429183,-0.38013796573877334
1633780106173941800,11.112941650390624,-7.777955722683668,-5.96115530655384,-0.37203850164171304
1633780106193822000,11.132822021484374,-7.781117986106872,-5.95753770057857,-0.3637731429258361
1633780106213700900,11.152700927734376,-7.784265051960944,-5.953697391763329,-0.3593035232311114
1633780106233579800,11.172579833984376,-7.7869620359599585,-5.950321777850389,-0.3567625700440258
1633780106253458700,11.192458740234375,-7.788733137285709,-5.948142095723748,-0.3544376342277974
1633780106273339000,11.2123388671875,-7.789345716226101,-5.94746697294116,-0.35230303335189816
1633780106293217800,11.2322177734375,-7.7913845285773276,-5.944981585866213,-0.3491465786149725
1633780106313096700,11.2520966796875,-7.795190350601077,-5.939768819653987,-0.35291641600988805
1633780106332975900,11.271975830078125,-7.7986583189725875,-5.934636717462539,-0.36249198054149745
1633780106352854800,11.291854736328125,-7.800887100937962,-5.931265779724717,-0.3696333767287433
1633780106372734700,11.311734619140625,-7.802267157119512,-5.929294771912693,-0.37212621645778415
1633780106392614000,11.33161376953125,-7.8022507905066005,-5.929004849055409,-0.37705552608612924
1633780106412492800,11.351492919921874,-7.7998899065941565,-5.9315498573631045,-0.38576782485190775
1633780106432372000,11.3713720703125,-7.797644173493981,-5.934036413481831,-0.3928676469197497
1633780106452252000,11.391251953125,-7.79734723637402,-5.9342240450084205,-0.39591483259592203
1633780106472130800,11.411130859375,-7.798715017595887,-5.9322922001630065,-0.3979208386560902
1633780106492010000,11.431010009765625,-7.7993433786273,-5.931354042530059,-0.39957098048329354
1633780106511888600,11.450888671875,-7.798370149680972,-5.932310904863477,-0.40434064257051794
1633780106531768800,11.470768798828125,-7.797583967739343,-5.932907117190957,-0.4107053187642246
1633780106551648000,11.49064794921875,-7.798035218638181,-5.931911091890931,-0.4164896377867087
1633780106571526700,11.510526611328125,-7.800248803034425,-5.928567042160034,-0.4226037732854485
1633780106591405800,11.53040576171875,-7.804929069805145,-5.921909337836504,-0.42948713959101587
1633780106611285800,11.55028564453125,-7.810881256207823,-5.913461827486753,-0.4375878092644736
1633780106631164700,11.57016455078125,-7.815745062851906,-5.906556870403885,-0.4439599015796557
1633780106651043800,11.5900439453125,-7.81780784060061,-5.903565871894359,-0.44741468167603016
1633780106670922800,11.6099228515625,-7.815888270714878,-5.905853690570592,-0.4507497809154913
1633780106690805200,11.62980517578125,-7.810954905965924,-5.912314411017299,-0.4515629604618996
1633780106710685200,11.649685302734374,-7.806551702570915,-5.9185354774892325,-0.4461723899973556
1633780106730564400,11.669564453125,-7.804653175473213,-5.921526475998759,-0.43965259630717335
1633780106750443300,11.689443359375,-7.802984365478157,-5.923653551155328,-0.4406239986225962
1633780106770322400,11.709322509765625,-7.800227175724506,-5.926957268875837,-0.44499315361753106
1633780106790202400,11.729202392578125,-7.796717121776938,-5.931556287103891,-0.44523879894167184
1633780106810081300,11.749081298828125,-7.792752894321084,-5.93696603719294,-0.442514123218134
1633780106829960400,11.76896044921875,-7.789235826110839,-5.941593696993589,-0.44232729540914295
1633780106849839000,11.788839111328125,-7.787204612544178,-5.943973870128393,-0.44610063993539656
1633780106869718300,11.80871826171875,-7.785900544208288,-5.9453691238790745,-0.45024212365429844
1633780106889598500,11.828598388671875,-7.787485767573118,-5.943287641429901,-0.4503159926081076
1633780106909477000,11.84847705078125,-7.79025932393968,-5.939641393882036,-0.45045057877320793
1633780106929356300,11.868356201171874,-7.791934563675523,-5.937254206484556,-0.4529329336408525
1633780106949235200,11.888235107421876,-7.791885463836788,-5.937198092383146,-0.45451212912369515
1633780106969115100,11.908115234375,-7.790706483185291,-5.93881254184246,-0.4536314007664099
1633780106988994300,11.927994384765626,-7.789519319227337,-5.94086421367526,-0.44711610058825463
1633780107008873200,11.947873291015625,-7.787695610931515,-5.944073238849639,-0.43609347905348983
1633780107028752400,11.96775244140625,-7.7858274789720765,-5.94746755746305,-0.4229712183583528
1633780107048632300,11.98763232421875,-7.784477233406901,-5.949988600373268,-0.4122261351233348
1633780107068511200,12.00751123046875,-7.783713263297081,-5.951310204365849,-0.40755470924619586
1633780107088390400,12.027390380859375,-7.783107114097476,-5.952026828202605,-0.40866687173917887
1633780107108269300,12.047269287109375,-7.783131079494953,-5.951876021555066,-0.41040761445928364
1633780107128149200,12.067149169921874,-7.783930705440044,-5.950959491232037,-0.4085226044302806
1633780107148028400,12.0870283203125,-7.783121142622828,-5.952209199032187,-0.4057261421121657
1633780107167907300,12.1069072265625,-7.778941226589679,-5.9576984440982335,-0.4053262926070019
1633780107187786200,12.1267861328125,-7.773589928689598,-5.964566576302051,-0.40697764001060277
1633780107207665200,12.1466650390625,-7.769952448970079,-5.969046352064609,-0.4107327547604218
1633780107227545300,12.16654541015625,-7.767654108899832,-5.9716118186384435,-0.41688795292191205
1633780107247424300,12.18642431640625,-7.767998392292856,-5.971015606310964,-0.41899698096513743
1633780107267303200,12.20630322265625,-7.770825140151381,-5.967397415813803,-0.4181305368615314
1633780107287182300,12.226182373046875,-7.772509147715568,-5.965159866020083,-0.418752139358595
1633780107307062300,12.246062255859375,-7.77162768870592,-5.9659863799721,-0.4233192280784249
1633780107326941200,12.265941162109375,-7.769952448970079,-5.968077214771509,-0.424591184243001
1633780107346820400,12.2858203125,-7.767803161981702,-5.970923251852393,-0.4238984527384862
1633780107366699300,12.30569921875,-7.76584676721692,-5.973265431064367,-0.4267325071206316
1633780107386579200,12.3255791015625,-7.764438069462776,-5.9747431024014945,-0.43166444709748025
1633780107406458400,12.345458251953126,-7.762867459145188,-5.976406651699542,-0.43685255379248406
1633780107426337300,12.365337158203126,-7.7613190606594085,-5.978134498405456,-0.44070597781762477
1633780107446216400,12.385216552734375,-7.759994534057379,-5.97937660742104,-0.4471250510796904
1633780107466095000,12.40509521484375,-7.7585607018619775,-5.980474924051761,-0.45720155087076125
1633780107485975300,12.424975341796875,-7.756207416734099,-5.982741699939965,-0.4673671902500093
1633780107505854500,12.4448544921875,-7.753259672844409,-5.986062953317165,-0.4737096546119079
1633780107525733000,12.464733154296875,-7.7512565163284535,-5.988565876048803,-0.47485232184100895
1633780107545612300,12.4846123046875,-7.750452214208245,-5.9898307814180844,-0.47201713494770225
1633780107565492500,12.504492431640625,-7.7503651204466815,-5.990270341879129,-0.4678575310502201
1633780107585371100,12.52437109375,-7.750116114121675,-5.990968261015415,-0.46302258517444134
1633780107605250300,12.544250244140626,-7.749161589875817,-5.992443594264984,-0.45989378562942146
1633780107625129200,12.564129150390626,-7.74803696976006,-5.994127601829171,-0.45688408241942524
1633780107645009200,12.584009033203126,-7.747350741061568,-5.9953241181373595,-0.4527991511933505
1633780107664888300,12.603888427734375,-7.746760373952984,-5.996277473339438,-0.4502668927693739
1633780107684763100,12.62376318359375,-7.745619387224316,-5.9976698044806716,-0.4513650998022407
1633780107704642000,12.64364208984375,-7.745248800346255,-5.99797141777575,-0.4536913142601028
1633780107724521200,12.663521240234376,-7.7446473273217675,-5.998514438611268,-0.45678548088315873
1633780107744401200,12.683401123046876,-7.742710221779346,-6.000734452748298,-0.46044688946753737
1633780107764280000,12.703280029296875,-7.739493013298511,-6.004830197629333,-0.46114137453772125
1633780107784159200,12.7231591796875,-7.738470684513449,-6.006759704387187,-0.45309959544464945
1633780107804038400,12.743038330078125,-7.740354014042019,-6.0050710206478835,-0.4432031283956021
1633780107823918000,12.76291796875,-7.743138676324486,-6.001920447662473,-0.4371901151837781
1633780107843797200,12.78279736328125,-7.744393644821644,-6.00048836903274,-0.4346066745618358
1633780107863676200,12.80267626953125,-7.742587472182512,-6.00295154427588,-0.4327724448719993
1633780107883555000,12.82255517578125,-7.7397940420717,-6.006748013949394,-0.43005679270513353
1633780107903435300,12.842435302734375,-7.73666158926487,-6.011326573911309,-0.4223773441184312
1633780107923314200,12.862314208984374,-7.734816253659129,-6.014452596977352,-0.41154257330596444
1633780107943193000,12.882193115234376,-7.7340499454617495,-6.015639760935306,-0.40857546712867915
1633780107963072000,12.902072021484376,-7.735097408688068,-6.013966274765133,-0.4133461886618286
1633780107982952200,12.9219521484375,-7.737292872905731,-6.010664895132184,-0.42021757226865736
1633780108002831000,12.9418310546875,-7.739443328937888,-6.007686171582341,-0.4232084611803293
1633780108022710000,12.9617099609375,-7.741242487314343,-6.005490122842788,-0.42147579216882586
1633780108042589200,12.981589111328125,-7.743045152822137,-6.00324789687395,-0.4202941446362063
1633780108062468400,13.00146826171875,-7.7451874255478375,-6.000604104366898,-0.4185721431491896
1633780108082348000,13.02134814453125,-7.747195258238911,-5.998128069642186,-0.4169017257189378
1633780108102227200,13.041227294921875,-7.7489324572950595,-5.995904548373818,-0.41660248704403635
1633780108122106000,13.061106201171874,-7.749240500330925,-5.995511749663948,-0.4165220056863501
1633780108141985300,13.0809853515625,-7.747363016021251,-5.9981602183461185,-0.4133209446227178
1633780108161865200,13.100865234375,-7.744516978940367,-6.002174714684486,-0.40832832396719604
1633780108181744000,13.120744140625,-7.741364652389287,-6.006337095060944,-0.4068960992069915
1633780108201623300,13.140623291015626,-7.73955205000937,-6.00830225765407,-0.4123358060428872
1633780108221502000,13.160501953125,-7.738754177629947,-6.00884352492392,-0.4193704904526472
1633780108241382100,13.180382080078125,-7.739611671242117,-6.0074663913518185,-0.42325935111735014
1633780108261261300,13.20026123046875,-7.741460513979196,-6.004866437986493,-0.4263293696798384
1633780108281140000,13.220139892578125,-7.7414955852925775,-6.004586452001333,-0.42962296786513177
1633780108301019100,13.24001904296875,-7.739542113137245,-6.00677431743443,-0.4342002857180312
1633780108320899300,13.2598994140625,-7.738233368626236,-6.008437866732478,-0.43451399130970236
1633780108340778200,13.2797783203125,-7.737063740324974,-6.009932489204407,-0.4346694010671228
1633780108360657200,13.2996572265625,-7.734247513860463,-6.013532559522986,-0.43500466090347617
1633780108380536000,13.3195361328125,-7.729476061674952,-6.019745442688465,-0.43386867914348837
1633780108400415200,13.339415283203126,-7.7235390728414055,-6.0274769137233495,-0.4322621207296848
1633780108420295200,13.359295166015626,-7.7190248102873555,-6.03314385344386,-0.4338451886700466
1633780108440174000,13.379174072265625,-7.717053217953443,-6.035417643594742,-0.43727099840026346
1633780108460053200,13.39905322265625,-7.715639259502291,-6.036923371982574,-0.4414218344694003
1633780108479932200,13.41893212890625,-7.7122718288958065,-6.041009764513373,-0.44435032566934823
1633780108499812000,13.43881201171875,-7.707687423714995,-6.04683394062221,-0.44468470872286703
1633780108519691300,13.458691162109375,-7.702536032301187,-6.053192369738221,-0.4474201615687459
1633780108539570200,13.478570068359375,-7.697264229378104,-6.059558982160687,-0.45193910029791295
1633780108559449000,13.498448974609374,-7.69355952964127,-6.0639236071109766,-0.45646289786528793
1633780108579329300,13.518329345703124,-7.691882536339759,-6.066140114116668,-0.4552702174820006
