Acc_timestamp,Accx,Accy,Accz,Gyro_timestamp,Gyrox,Gyroy,Gyroz,Baro_timestamp,Pressure_Reading
 44061696.000000, 2.062613 , 2.644069, 11.416157, 0.000000, 0.000000,  0.000000,  0.000000, 0.000000,  0.000000
 0.000000, 2.507678 , 2.596212, 11.121840, 0.000000, 0.000000,  0.000000,  0.000000, 0.000000,  0.000000 
 20224.000000, 2.579463 , 2.342573, 10.648061, 0.000000, 0.000000,  0.000000,  0.000000, 0.000000,  0.000000 
 40960.000000, 3.270989 , 1.531406, 10.889735, 1013285376.000000, -11.480000,  6.230000,  9.800000, 0.000000,  0.000000 
 61184.000000, 2.323431 , 1.088734, 10.681561, 1013306112.000000, -11.480000,  6.230000,  9.800000, 0.000000,  0.000000 
 80384.000000, 1.708475 , 0.703490, 10.080962, 1013326336.000000, -41.930000,  32.130001,  -19.809999, 0.000000,  0.000000 
 100608.000000, 1.694118 , 0.445065, 9.793823, 1013345792.000000, -33.459999,  26.180000,  -22.469999, 0.000000,  0.000000 
 120576.000000, 1.596013 , 0.452243, 9.348758, 1013365760.000000, -30.450001,  22.820000,  -16.450001, 0.000000,  0.000000 
 140800.000000, 1.545763 , 1.007378, 8.898908, 1013385728.000000, -32.480000,  20.160000,  -13.230000, 0.000000,  0.000000 
 161024.000000, 1.495514 , 1.828116, 8.652447, 1013405952.000000, -24.850000,  15.680000,  -13.300000, 0.000000,  0.000000 
 180480.000000, 1.672583 , 2.057827, 8.298308, 1013426176.000000, -17.990000,  11.900000,  -16.450001, 0.000000,  0.000000 
 200448.000000, 1.730011 , 2.009971, 7.989635, 1013445632.000000, -23.379999,  9.240000,  -19.950001, 0.000000,  0.000000 
 220416.000000, 1.330409 , 1.852045, 7.999206, 1013465600.000000, -33.740002,  8.050000,  -24.570000, 0.000000,  0.000000 
 240640.000000, 1.191626 , 1.928615, 8.008778, 1013485568.000000, -31.290001,  7.910000,  -26.530001, 0.000000,  0.000000 
 261120.000000, 1.076770 , 2.392823, 7.862815, 1013506048.000000, -14.840000,  6.300000,  -23.799999, 0.000000,  0.000000 
 280320.000000, 0.990629 , 2.926422, 7.680960, 1013526272.000000, 2.800000,  4.200000,  -18.760000, 0.000000,  0.000000 
 300288.000000, 1.155733 , 3.292524, 7.156933, 1013545472.000000, 11.760000,  0.840000,  -10.500000, 0.000000,  0.000000 
 320256.000000, 1.270589 , 3.574877, 6.896115, 1013565696.000000, 12.670000,  -3.220000,  -1.820000, 0.000000,  0.000000 
 340736.000000, 1.373480 , 3.783052, 6.862615, 1013585664.000000, 8.190000,  -4.410000,  7.140000, 0.000000,  0.000000 
 360960.000000, 1.615155 , 3.670590, 6.453443, 1013605888.000000, 1.820000,  -3.220000,  16.870001, 0.000000,  0.000000 
 380416.000000, 1.832902 , 3.538985, 6.034698, 1013626112.000000, -2.940000,  0.700000,  28.210001, 0.000000,  0.000000 
 400384.000000, 1.878366 , 3.428915, 5.659025, 1013645568.000000, -7.630000,  12.250000,  42.070000, 0.000000,  0.000000 
 420352.000000, 1.466800 , 3.505485, 5.489135, 1013665536.000000, -12.600000,  31.780001,  57.049999, 0.000000,  0.000000 
 440576.000000, 0.634098 , 3.026921, 5.300103, 1013685504.000000, -24.080000,  59.010002,  71.330002, 0.000000,  0.000000 
 460800.000000, -0.586242 , 2.476572, 5.115855, 1013705728.000000, -27.930000,  90.370003,  85.050003, 0.000000,  0.000000 
 480256.000000, -2.914458 , 2.328217, 4.622933, 1013726208.000000, -8.610000,  124.320000,  96.110001, 0.000000,  0.000000 
 500224.000000, -5.996413 , 1.854438, 4.208975, 1013745408.000000, 15.680000,  167.229996,  107.449997, 0.000000,  0.000000 
 520192.000000, -9.576077 , 1.050449, 2.275574, 1013765376.000000, 19.460001,  220.850006,  116.059998, 0.000000,  0.000000 
 540672.000000, -12.894921 , 0.993021, 0.612563, 1013785344.000000, 17.710001,  279.299988,  111.930000, 0.000000,  0.000000 
 561152.000000, -15.014962 , 0.746561, 0.612563, 1013805824.000000, 0.560000,  333.130005,  108.500000, 0.000000,  0.000000 
 580352.000000, -17.828922 , -1.153341, 3.175276, 1013826304.000000, -42.770000,  360.570007,  112.279999, 0.000000,  0.000000 
 600320.000000, -22.475782 , -2.945565, 3.615555, 1013845504.000000, -94.500000,  389.200012,  106.889999, 0.000000,  0.000000 
 620288.000000, -22.267607 , -3.117848, 2.845066, 1013865472.000000, -127.470001,  425.110016,  91.629997, 0.000000,  0.000000 
 640512.000000, -19.848463 , -2.579463, 1.789831, 1013885440.000000, -106.540001,  401.869995,  101.709999, 0.000000,  0.000000 
 660736.000000, -19.783857 , -1.689333, 1.660619, 1013905664.000000, -59.849998,  357.000000,  98.489998, 3275488768.000000,  1005.534180 
 680192.000000, -20.327030 , -0.215354, 1.143769, 1013925888.000000, -7.560000,  350.209991,  76.440002, 0.000000,  0.000000 
 700160.000000, -18.178272 , 0.729811, 0.535992, 1013945344.000000, 63.420002,  338.589996,  56.840000, 0.000000,  0.000000 
 720128.000000, -15.505490 , 1.311267, 0.425922, 1013965312.000000, 115.989998,  281.190002,  33.250000, 0.000000,  0.000000 
 740352.000000, -13.825729 , 1.713261, 0.696311, 1013985280.000000, 117.459999,  228.619995,  8.540000, 0.000000,  0.000000 
 762624.000000, -12.964314 , 1.823331, 1.251446, 1014005760.000000, 64.750000,  215.110001,  -9.380000, 0.000000,  0.000000 
 780032.000000, -12.995420 , 1.655833, 1.270589, 1014027776.000000, -12.040000,  219.660004,  -18.690001, 0.000000,  0.000000 
 800000.000000, -13.165311 , 1.146162, 1.615155, 1014045440.000000, -80.360001,  230.020004,  -17.780001, 0.000000,  0.000000 
 820224.000000, -12.906885 , 0.351745, 2.165504, 1014065408.000000, -135.729996,  233.029999,  -15.890000, 0.000000,  0.000000 
 840448.000000, -13.258631 , -0.375673, 2.761317, 1014085376.000000, -169.960007,  225.540009,  -6.510000, 0.000000,  0.000000 
 860672.000000, -14.053047 , -0.820738, 3.469593, 1014105600.000000, -174.930008,  226.380005,  6.930000, 0.000000,  0.000000 
 880128.000000, -14.096118 , -1.141376, 4.697111, 1014125824.000000, -161.559998,  230.860001,  27.930000, 0.000000,  0.000000 
 900096.000000, -13.203594 , -1.155733, 5.618347, 1014145280.000000, -139.369995,  219.589996,  46.900002, 0.000000,  0.000000 
 920064.000000, -12.619746 , -0.425922, 6.800402, 1014165248.000000, -104.510002,  200.550003,  60.200001, 0.000000,  0.000000 
 940288.000000, -12.169895 , 0.311067, 8.575876, 1014185216.000000, -59.080002,  188.020004,  63.840000, 0.000000,  0.000000 
 961024.000000, -12.172288 , 0.631705, 10.616954, 1014205440.000000, -19.110001,  168.910004,  52.430000, 0.000000,  0.000000 
 979968.000000, -12.622139 , 1.115055, 11.009377, 1014226176.000000, 17.990000,  143.570007,  26.740000, 0.000000,  0.000000 
 999936.000000, -11.660224 , 2.232504, 8.350951, 1014245120.000000, 74.620003,  105.559998,  10.430000, 0.000000,  0.000000 
 1019904.000000, -10.157533 , 3.431308, 6.783652, 1014265088.000000, 137.550003,  39.830002,  1.680000, 0.000000,  0.000000 
 1040384.000000, -10.112068 , 6.037091, 6.709475, 1014285312.000000, 144.899994,  -33.389999,  -15.820000, 0.000000,  0.000000 
 1060608.000000, -10.327423 , 7.405786, 5.714060, 1014305536.000000, 101.360001,  -80.150002,  -31.219999, 0.000000,  0.000000 
 1080064.000000, -10.396815 , 5.687739, 6.008378, 1014325760.000000, 44.099998,  -115.709999,  -28.350000, 0.000000,  0.000000 
 1100032.000000, -13.445271 , 4.240082, 7.707282, 1014345216.000000, -29.330000,  -137.619995,  -39.130001, 0.000000,  0.000000 
 1120000.000000, -18.415163 , 2.670390, 6.939186, 1014365184.000000, -71.120003,  -125.580002,  -48.860001, 0.000000,  0.000000 
 1140224.000000, -21.530619 , 0.559920, 4.914857, 1014385152.000000, -64.820000,  -117.389999,  -45.150002, 0.000000,  0.000000 
 1160448.000000, -19.992033 , -0.004786, 3.534199, 1014405376.000000, -14.770000,  -123.620003,  -41.930000, 0.000000,  0.000000 
 1179904.000000, -19.010977 , 1.323231, 2.213361, 1014425600.000000, 67.830002,  -184.100006,  -15.050000, 0.000000,  0.000000 
 1199872.000000, -19.635502 , 2.100898, 1.234696, 1014445056.000000, 159.529999,  -246.470001,  18.760000, 0.000000,  0.000000 
 1219840.000000, -21.769901 , 3.007778, -0.217747, 1014484992.000000, 220.360001,  -276.429993,  54.250000, 0.000000,  0.000000 
 1240064.000000, -22.274784 , 3.306881, -0.660419, 0.000000, 0.000000,  0.000000,  0.000000, 0.000000,  0.000000 
 1260544.000000, -21.671795 , 4.299902, -0.823131, 1014505472.000000, 178.220001,  -290.570007,  75.879997, 0.000000,  0.000000 
 1279744.000000, -19.948963 , 4.098906, -1.540978, 1014525696.000000, 107.730003,  -306.179993,  91.279999, 0.000000,  0.000000 
 1299968.000000, -18.309877 , 2.222932, -1.203590, 1014545152.000000, 24.639999,  -317.239990,  90.160004, 0.000000,  0.000000 
 1319936.000000, -17.144573 , 1.045663, -0.296710, 1014565120.000000, -65.519997,  -320.459991,  66.639999, 0.000000,  0.000000 
 1340160.000000, -16.625332 , 0.342174, -0.112463, 1014585088.000000, -125.440002,  -320.320007,  41.090000, 0.000000,  0.000000 
 1360384.000000, -16.484156 , -0.442672, -0.016750, 1014605312.000000, -137.130005,  -316.260010,  25.830000, 0.000000,  0.000000 
 1379840.000000, -15.917056 , -0.736989, -1.150948, 1014625536.000000, -122.220001,  -307.230011,  19.809999, 0.000000,  0.000000 
 1399808.000000, -14.108082 , -0.009571, -2.234896, 1014644992.000000, -90.019997,  -290.850006,  27.719999, 0.000000,  0.000000 
 1419776.000000, -11.629118 , 0.428315, -3.883551, 1014664960.000000, -64.050003,  -274.890015,  43.959999, 0.000000,  0.000000 
 1440000.000000, -9.207582 , 0.435494, -4.493721, 1014684928.000000, -73.080002,  -255.710007,  48.230000, 0.000000,  0.000000 
 1460224.000000, -7.566105 , 0.354138, -3.574877, 1014705152.000000, -112.980003,  -230.020004,  36.189999, 0.000000,  0.000000 
 1479680.000000, -7.137790 , 0.887737, -2.608176, 1014725632.000000, -155.119995,  -195.089996,  13.860000, 0.000000,  0.000000 
 1499648.000000, -6.592227 , 1.304088, -2.502892, 1014744832.000000, -176.680008,  -152.600006,  -11.620000, 0.000000,  0.000000 
 1519616.000000, -5.046463 , 0.918844, -2.617748, 1014764800.000000, -159.880005,  -118.580002,  -22.260000, 0.000000,  0.000000 
 1540096.000000, -3.766303 , 0.514457, -2.143969, 1014785024.000000, -125.230003,  -98.559998,  -24.150000, 0.000000,  0.000000 
 1560320.000000, -4.520042 , 1.653440, -2.928815, 1014805248.000000, -84.629997,  -69.230003,  -22.120001, 0.000000,  0.000000 
 1579776.000000, -5.632704 , 3.026921, -5.391029, 1014825472.000000, -19.180000,  -26.530001,  -13.090000, 0.000000,  0.000000 
 1599744.000000, -5.599205 , 3.326023, -6.697510, 1014844928.000000, 43.470001,  5.670000,  -0.560000, 0.000000,  0.000000 
 1619712.000000, -6.881758 , 3.591627, -7.147361, 1014864896.000000, 35.980000,  33.529999,  5.740000, 0.000000,  0.000000 
 1639936.000000, -10.676775 , 4.620540, -7.281359, 1014884864.000000, -28.350000,  91.419998,  4.970000, 0.000000,  0.000000 
 1660160.000000, -15.438492 , 3.771089, -5.522634, 1014905088.000000, -90.090004,  170.100006,  -0.140000, 3276488192.000000,  1005.538452 
 1679616.000000, -17.379070 , 1.409373, -3.929015, 1014925312.000000, -123.199997,  232.960007,  7.490000, 0.000000,  0.000000 
 1699584.000000, -15.534204 , 0.605384, -1.677369, 1014944768.000000, -104.440002,  265.649994,  35.560001, 0.000000,  0.000000 
 1719552.000000, -17.548960 , 0.792024, -1.105484, 1014964736.000000, -9.170000,  284.480011,  76.720001, 0.000000,  0.000000 
 1740032.000000, -21.930218 , 0.981057, -1.399801, 1014984704.000000, 98.489998,  334.809998,  90.580002, 0.000000,  0.000000 
 1762048.000000, -25.033709 , 2.021935, -2.289931, 1015005184.000000, 178.570007,  376.459991,  75.529999, 0.000000,  0.000000 
 1779456.000000, -25.624739 , 3.046063, -2.644069, 1015027456.000000, 241.080002,  375.480011,  48.509998, 0.000000,  0.000000 
 1799680.000000, -24.990639 , 3.871587, -1.170090, 1015044864.000000, 230.089996,  356.579987,  18.059999, 0.000000,  0.000000 
 1819648.000000, -24.102903 , 2.565106, 1.246661, 1015064832.000000, 133.699997,  354.970001,  2.730000, 0.000000,  0.000000 
 1839872.000000, -24.294329 , 0.562313, 3.031706, 1015084800.000000, 31.430000,  361.690002,  -3.920000, 0.000000,  0.000000 
 1860096.000000, -24.543180 , 0.562313, 3.622734, 1015105280.000000, -22.330000,  369.880005,  1.330000, 0.000000,  0.000000 
 1879552.000000, -23.985653 , 0.985843, 3.696911, 1015125248.000000, -11.830000,  360.500000,  15.820000, 0.000000,  0.000000 
 1899520.000000, -22.155146 , 1.964507, 3.802195, 1015144704.000000, 15.750000,  335.230011,  29.120001, 0.000000,  0.000000 
 1919488.000000, -19.877178 , 1.969293, 4.232903, 1015164672.000000, 15.120000,  307.579987,  35.910000, 0.000000,  0.000000 
 1939712.000000, -18.443878 , 2.108077, 4.634897, 1015184640.000000, -17.920000,  282.799988,  36.259998, 0.000000,  0.000000 
 1960192.000000, -17.271393 , 2.019542, 5.778666, 1015205120.000000, -69.230003,  266.140015,  30.100000, 0.000000,  0.000000 
 1979392.000000, -15.345171 , 1.021735, 7.874779, 1015225344.000000, -127.680000,  248.360001,  24.430000, 0.000000,  0.000000 
 1999360.000000, -13.454842 , -0.045464, 10.006784, 1015244544.000000, -165.270004,  217.630005,  18.830000, 0.000000,  0.000000 
 2019328.000000, -11.600404 , -0.555135, 11.509477, 1015264768.000000, -157.570007,  182.910004,  16.450001, 0.000000,  0.000000 
 2039808.000000, -9.894321 , -0.832702, 12.117253, 1015284736.000000, -113.750000,  141.820007,  16.520000, 0.000000,  0.000000 
 2060032.000000, -9.461221 , -0.179462, 12.311072, 1015304960.000000, -53.410000,  94.639999,  14.700000, 0.000000,  0.000000 
 2079488.000000, -10.372886 , 0.638884, 12.043077, 1015325184.000000, 1.260000,  51.660000,  7.000000, 0.000000,  0.000000 
 2099456.000000, -11.444871 , 0.705883, 11.892329, 1015344640.000000, 35.700001,  9.520000,  -4.970000, 0.000000,  0.000000 
 2119424.000000, -12.547962 , 0.464208, 10.042676, 1015364608.000000, 50.750000,  -38.080002,  -16.730000, 0.000000,  0.000000 
 2139648.000000, -13.373486 , 0.997807, 7.817351, 1015384576.000000, 68.320000,  -90.790001,  -19.530001, 0.000000,  0.000000 
 2159872.000000, -13.730016 , 1.679761, 6.178268, 1015404800.000000, 76.860001,  -148.190002,  -18.760000, 0.000000,  0.000000 
 2179328.000000, -14.787644 , 1.569692, 5.321638, 1015425280.000000, 61.320000,  -201.600006,  -19.110001, 0.000000,  0.000000 
 2199296.000000, -16.761723 , 0.650848, 4.366901, 1015444480.000000, 32.130001,  -236.320007,  -32.340000, 0.000000,  0.000000 
 2219264.000000, -20.377277 , 0.325424, 3.574877, 1015464448.000000, 19.530001,  -259.839996,  -46.549999, 0.000000,  0.000000 
 2239744.000000, -24.935606 , 0.401994, 2.519642, 1015484416.000000, 30.799999,  -276.500000,  -51.029999, 0.000000,  0.000000 
 2259968.000000, -26.766113 , 0.638884, 1.447658, 1015504896.000000, 52.639999,  -295.470001,  -47.320000, 0.000000,  0.000000 
 2279424.000000, -25.339993 , 0.942772, 0.311067, 1015525120.000000, 72.800003,  -329.279999,  -36.750000, 0.000000,  0.000000 
 2299392.000000, -24.047867 , 0.433101, -0.363709, 1015544576.000000, 77.769997,  -358.399994,  -29.960001, 0.000000,  0.000000 
 2319360.000000, -22.482962 , 0.471386, -0.679562, 1015564544.000000, 55.230000,  -366.380005,  -37.029999, 0.000000,  0.000000 
 2339584.000000, -21.544977 , 0.217747, -0.882952, 1015584512.000000, 25.620001,  -375.339996,  -50.189999, 0.000000,  0.000000 
 2359808.000000, -20.685953 , -0.246461, -0.418744, 1015604736.000000, 5.250000,  -379.610016,  -65.379997, 0.000000,  0.000000 
 2379264.000000, -19.300507 , -0.430708, -0.138784, 1015624960.000000, -14.280000,  -373.100006,  -73.220001, 0.000000,  0.000000 
 2399232.000000, -17.802599 , -1.229911, 0.078963, 1015644416.000000, -16.940001,  -357.700012,  -61.950001, 0.000000,  0.000000 
 2419200.000000, -16.639688 , -1.574477, -0.339781, 1015664384.000000, -1.470000,  -334.040009,  -40.040001, 0.000000,  0.000000 
 2439424.000000, -15.280564 , -0.638884, -0.770489, 1015684352.000000, 24.850000,  -298.200012,  -9.730000, 0.000000,  0.000000 
 2459904.000000, -13.758730 , 0.270389, -1.883151, 1015704832.000000, 49.279999,  -263.970001,  26.460001, 0.000000,  0.000000 
 2479104.000000, -11.681760 , 0.818345, -3.527020, 1015725056.000000, 46.970001,  -234.919998,  46.200001, 0.000000,  0.000000 
 2499072.000000, -9.516255 , 0.861416, -4.079762, 1015744512.000000, 10.710000,  -215.110001,  52.360001, 0.000000,  0.000000 
 2519296.000000, -7.831708 , 0.672383, -3.507878, 1015764480.000000, -56.630001,  -196.839996,  45.920002, 0.000000,  0.000000 
 2539520.000000, -6.226124 , 0.614955, -3.103491, 1015784448.000000, -123.410004,  -168.630005,  26.740000, 0.000000,  0.000000 
 2559744.000000, -4.204189 , 0.602991, -2.457429, 1015804672.000000, -147.630005,  -141.889999,  6.930000, 0.000000,  0.000000 
 2579200.000000, -3.323631 , -0.071785, -1.674976, 1015824896.000000, -134.960007,  -115.639999,  -7.980000, 0.000000,  0.000000 
 2599168.000000, -4.895715 , -0.445065, -1.981257, 1015844352.000000, -96.739998,  -75.320000,  -15.400000, 0.000000,  0.000000 
 2619136.000000, -6.745367 , 0.524028, -3.768696, 1015864320.000000, -20.790001,  -27.930000,  -11.060000, 0.000000,  0.000000 
 2640128.000000, -7.140182 , 0.981057, -4.917251, 1015905536.000000, 109.620003,  22.610001,  15.890000, 3277488384.000000,  1005.537842 
 2659840.000000, -8.544770 , 0.375673, -4.378866, 0.000000, 0.000000,  0.000000,  0.000000, 0.000000,  0.000000 
 2679552.000000, -11.799009 , 0.045464, -3.294917, 1015924992.000000, 66.709999,  63.700001,  15.890000, 0.000000,  0.000000 
 2699520.000000, -14.782858 , 1.012164, -3.809374, 1015944704.000000, 18.129999,  125.440002,  -27.370001, 0.000000,  0.000000 
 2719488.000000, -13.603197 , 1.423729, -4.426722, 1015964672.000000, 15.680000,  172.199997,  -34.439999, 0.000000,  0.000000 
 2739968.000000, -11.655439 , 0.916451, -2.299503, 1015984640.000000, 36.750000,  185.360001,  -29.540001, 0.000000,  0.000000 
 2761984.000000, -14.220546 , 2.234896, 0.507278, 1016005120.000000, 27.650000,  217.210007,  -32.970001, 0.000000,  0.000000 
 2779904.000000, -17.570496 , 3.359523, 1.758725, 1016027136.000000, 12.250000,  291.549988,  -26.250000, 0.000000,  0.000000 
 2799872.000000, -18.762121 , 2.811567, 2.541178, 1016045056.000000, 23.940001,  339.220001,  -3.710000, 0.000000,  0.000000 
 2819840.000000, -18.458235 , 2.316252, 2.545963, 1016065024.000000, 44.029999,  345.380005,  8.820000, 0.000000,  0.000000 
 2840320.000000, -17.359928 , 4.620540, 2.069792, 1016084992.000000, 88.410004,  326.410004,  25.059999, 0.000000,  0.000000 
 2860544.000000, -16.577475 , 5.685347, 2.340181, 1016105472.000000, 114.029999,  289.029999,  40.599998, 0.000000,  0.000000 
 2880256.000000, -17.237894 , 3.979264, 3.000600, 1016125696.000000, 44.799999,  269.220001,  35.560001, 0.000000,  0.000000 
 2900224.000000, -18.628124 , 2.103291, 2.981457, 1016145408.000000, -65.519997,  275.450012,  23.730000, 0.000000,  0.000000 
 2920192.000000, -19.515860 , 1.505085, 2.962314, 1016165376.000000, -132.020004,  283.220001,  30.660000, 0.000000,  0.000000 
 2940672.000000, -20.370100 , 0.890130, 3.153740, 1016185344.000000, -153.300003,  282.589996,  53.830002, 0.000000,  0.000000 
 2960640.000000, -20.707485 , 0.119641, 3.634698, 1016205824.000000, -158.270004,  281.260010,  78.260002, 0.000000,  0.000000 
 2979840.000000, -19.898712 , -0.315853, 4.012764, 1016225792.000000, -153.229996,  276.010010,  100.029999, 0.000000,  0.000000 
 3001088.000000, -18.731016 , -0.662812, 4.668397, 1016244992.000000, -135.029999,  263.619995,  120.889999, 0.000000,  0.000000 
 3021056.000000, -17.343178 , -0.981057, 5.340781, 1016266240.000000, -119.840004,  251.300003,  133.279999, 0.000000,  0.000000 
 3041536.000000, -16.795221 , -1.261017, 7.257431, 1016286208.000000, -107.379997,  237.160004,  135.800003, 0.000000,  0.000000 
 3061760.000000, -15.713666 , -1.758725, 9.178867, 1016306688.000000, -105.769997,  218.889999,  122.010002, 0.000000,  0.000000 
 3081216.000000, -12.918849 , -2.251646, 8.343772, 1016326912.000000, -112.559998,  183.259995,  97.370003, 0.000000,  0.000000 
 3101184.000000, -10.537991 , -2.550749, 8.324631, 1016346368.000000, -107.239998,  125.090004,  69.370003, 0.000000,  0.000000 
 3121152.000000, -10.085747 , -2.651247, 9.664611, 1016366336.000000, -113.400002,  73.989998,  37.939999, 0.000000,  0.000000 
 3141376.000000, -10.068997 , -3.933800, 10.167104, 1016386304.000000, -128.869995,  46.340000,  11.900000, 0.000000,  0.000000 
 3161600.000000, -11.176874 , -4.826324, 10.961520, 1016406528.000000, -111.860001,  16.660000,  -5.950000, 0.000000,  0.000000 
 3181056.000000, -12.023933 , -4.465007, 9.422935, 1016426752.000000, -59.220001,  -5.040000,  -20.299999, 0.000000,  0.000000 
 3201024.000000, -11.813366 , -2.849852, 7.633104, 1016446208.000000, 17.500000,  -39.410000,  -29.960001, 0.000000,  0.000000 
 3220992.000000, -11.724831 , -1.641476, 6.951149, 1016466176.000000, 68.599998,  -85.330002,  -45.990002, 0.000000,  0.000000 
 3241472.000000, -12.918849 , -1.631905, 6.592227, 1016486144.000000, 67.480003,  -122.919998,  -70.070000, 0.000000,  0.000000 
 3261696.000000, -15.594026 , -2.222932, 6.230910, 1016506624.000000, 54.320000,  -146.720001,  -98.629997, 0.000000,  0.000000 
 3281152.000000, -18.707088 , -2.455036, 5.242674, 1016526848.000000, 68.180000,  -160.229996,  -122.430000, 0.000000,  0.000000 
 3300864.000000, -19.999210 , -1.746760, 3.479164, 1016546304.000000, 116.480003,  -178.710007,  -129.430008, 0.000000,  0.000000 
 3321344.000000, -19.379471 , 0.081356, 1.749153, 1016566272.000000, 184.100006,  -218.750000,  -127.330002, 0.000000,  0.000000 
 3341312.000000, -18.484554 , 1.256232, 0.607777, 1016586496.000000, 227.149994,  -264.040009,  -121.309998, 0.000000,  0.000000 
 3361536.000000, -17.584854 , 1.837688, 0.382852, 1016606464.000000, 210.979996,  -293.579987,  -120.680000, 0.000000,  0.000000 
 3380992.000000, -16.955542 , 1.519442, 0.387637, 1016626688.000000, 156.729996,  -312.410004,  -122.430000, 0.000000,  0.000000 
 3400960.000000, -17.091932 , 0.279960, 0.698704, 1016646144.000000, 98.209999,  -319.130005,  -121.940002, 0.000000,  0.000000 
 3420928.000000, -17.625532 , -0.174676, 0.985843, 1016666112.000000, 54.880001,  -310.450012,  -116.830002, 0.000000,  0.000000 
 3441152.000000, -17.919849 , 0.057428, 0.476172, 1016686080.000000, 50.680000,  -297.220001,  -94.500000, 0.000000,  0.000000 
 3461376.000000, -17.089540 , -0.081356, -0.198604, 1016726784.000000, 77.489998,  -280.489990,  -42.840000, 0.000000,  0.000000 
 3480832.000000, -15.716059 , 0.052642, -0.751346, 0.000000, 0.000000,  0.000000,  0.000000, 0.000000,  0.000000 
 3500800.000000, -14.531611 , 0.703490, -1.060020, 1016746240.000000, 70.910004,  -267.820007,  -10.500000, 0.000000,  0.000000 
 3520768.000000, -13.856836 , 1.055235, -1.421337, 1016765952.000000, 53.619999,  -249.059998,  15.750000, 0.000000,  0.000000 
 3541248.000000, -12.167502 , 1.208375, -2.969493, 1016786176.000000, 25.480000,  -232.119995,  33.320000, 0.000000,  0.000000 
 3561472.000000, -11.588440 , 1.318445, -3.625126, 1016806400.000000, -19.670000,  -211.610001,  39.480000, 0.000000,  0.000000 
 3580928.000000, -9.829715 , 1.251446, -3.400201, 1016826624.000000, -73.150002,  -189.490005,  36.470001, 0.000000,  0.000000 
 3600896.000000, -8.202596 , 1.445265, -1.651048, 1016846080.000000, -123.900002,  -170.729996,  22.260000, 0.000000,  0.000000 
 3620608.000000, -7.231110 , 1.634298, -0.179462, 1016866048.000000, -156.380005,  -145.180008,  -1.820000, 0.000000,  0.000000 
 3641088.000000, -7.511070 , 1.440479, -1.103091, 1016906240.000000, -93.309998,  -72.449997,  -14.700000, 3278489344.000000,  1005.537354 
 3661312.000000, -8.178668 , 1.904687, -3.120241, 0.000000, 0.000000,  0.000000,  0.000000, 0.000000,  0.000000 
 3680768.000000, -8.228917 , 3.261417, -5.558527, 1016926464.000000, -30.799999,  -42.139999,  -5.530000, 0.000000,  0.000000 
 3700736.000000, -8.573483 , 3.711268, -5.036892, 1016945920.000000, 6.300000,  -14.910000,  2.870000, 0.000000,  0.000000 
 3720704.000000, -10.597812 , 2.797210, -2.804388, 1016965888.000000, -5.880000,  32.900002,  5.390000, 0.000000,  0.000000 
 3740928.000000, -13.227524 , 1.792224, -1.983650, 1016985856.000000, -17.500000,  95.129997,  5.460000, 0.000000,  0.000000 
 3763200.000000, -13.009777 , 1.289732, -2.443072, 1017006080.000000, 13.580000,  148.470001,  21.070000, 0.000000,  0.000000 
 3780608.000000, -11.289338 , 1.234696, -2.103291, 1017028352.000000, 66.709999,  173.250000,  44.240002, 0.000000,  0.000000 
 3800576.000000, -12.083755 , 1.598405, -1.892723, 1017045760.000000, 108.010002,  192.289993,  52.430000, 0.000000,  0.000000 
 3820544.000000, -14.079369 , 1.225125, -1.895115, 1017065728.000000, 127.190002,  230.160004,  42.209999, 0.000000,  0.000000 
 3841024.000000, -15.361920 , 0.930808, -1.607977, 1017085696.000000, 129.009995,  264.320007,  29.960001, 0.000000,  0.000000 
 3861248.000000, -15.455240 , 1.103091, -0.789631, 1017106176.000000, 127.820000,  275.589996,  20.860001, 0.000000,  0.000000 
 3880704.000000, -15.194424 , 1.497907, 0.500100, 1017126400.000000, 129.850006,  277.829987,  18.690001, 0.000000,  0.000000 
 3900672.000000, -14.818751 , 1.325624, 0.799203, 1017145856.000000, 132.860001,  279.369995,  14.490000, 0.000000,  0.000000 
 3920640.000000, -15.302100 , 1.466800, 0.902094, 1017165824.000000, 136.779999,  280.980011,  10.430000, 0.000000,  0.000000 
 3940864.000000, -16.350157 , 3.134598, 1.036092, 1017185792.000000, 118.020004,  288.540009,  3.150000, 0.000000,  0.000000 
 3961088.000000, -17.209181 , 3.378666, 1.129412, 1017206016.000000, 85.820000,  292.390015,  8.330000, 0.000000,  0.000000 
 3980544.000000, -18.252451 , 3.383451, 1.806581, 1017226240.000000, 38.500000,  291.970001,  6.370000, 0.000000,  0.000000 
 4000512.000000, -18.795622 , 3.893122, 2.926422, 1017245696.000000, -28.910000,  298.760010,  3.430000, 0.000000,  0.000000 
 4020480.000000, -19.389042 , 3.613162, 4.577469, 1017265664.000000, -95.620003,  303.589996,  9.800000, 0.000000,  0.000000 
 4040704.000000, -19.487146 , 2.746960, 6.470192, 1017285632.000000, -146.020004,  304.779999,  9.730000, 0.000000,  0.000000 
 4061184.000000, -17.948563 , 2.103291, 8.513663, 1017306112.000000, -161.350006,  290.290009,  18.900000, 0.000000,  0.000000 
 4080384.000000, -15.603597 , 1.751546, 9.949356, 1017326336.000000, -135.100006,  251.649994,  34.790001, 0.000000,  0.000000 
 4100352.000000, -13.756337 , 2.060220, 9.571291, 1017345792.000000, -83.230003,  195.229996,  36.889999, 0.000000,  0.000000 
 4120576.000000, -12.526425 , 3.182454, 8.839087, 1017365760.000000, -26.670000,  137.619995,  24.570000, 0.000000,  0.000000 
 4140800.000000, -11.332408 , 3.077170, 8.676375, 1017385728.000000, -5.180000,  85.400002,  9.450000, 0.000000,  0.000000 
 4161024.000000, -11.028521 , 1.720440, 9.559326, 1017405952.000000, -25.270000,  43.470001,  -1.750000, 0.000000,  0.000000 
 4180480.000000, -10.825130 , 0.241675, 9.578469, 1017426176.000000, -37.869999,  16.450001,  -13.650000, 0.000000,  0.000000 
 4200448.000000, -12.768101 , 0.464208, 9.903893, 1017445632.000000, -3.990000,  -12.670000,  -16.030001, 0.000000,  0.000000 
 4220416.000000, -15.223137 , 1.174876, 8.315059, 1017465600.000000, 55.369999,  -33.670002,  -11.060000, 0.000000,  0.000000 
 4240640.000000, -15.440885 , 2.282753, 5.946165, 1017505792.000000, 115.570000,  -114.870003,  13.090000, 0.000000,  0.000000 
 4260864.000000, -13.993226 , 3.282953, 4.924429, 0.000000, 0.000000,  0.000000,  0.000000, 0.000000,  0.000000 
 4280320.000000, -13.658232 , 2.866602, 4.388437, 1017526272.000000, 71.050003,  -169.820007,  10.570000, 0.000000,  0.000000 
 4300288.000000, -14.675180 , 1.320838, 3.866802, 1017545472.000000, 0.350000,  -201.320007,  -10.010000, 0.000000,  0.000000 
 4320256.000000, -16.764114 , 0.897308, 3.711268, 1017565440.000000, -46.830002,  -221.619995,  -35.560001, 0.000000,  0.000000 
 4340736.000000, -19.489540 , 1.172483, 3.364309, 1017585664.000000, -50.400002,  -236.110001,  -49.209999, 0.000000,  0.000000 
 4360960.000000, -20.221743 , 1.497907, 2.072184, 1017605888.000000, -24.920000,  -251.229996,  -56.279999, 0.000000,  0.000000 
 4380416.000000, -18.661623 , 1.763510, 1.272982, 1017626112.000000, 7.910000,  -282.100006,  -55.510002, 0.000000,  0.000000 
 4400384.000000, -17.972490 , 1.873580, 1.150948, 1017645568.000000, 24.219999,  -315.420013,  -52.990002, 0.000000,  0.000000 
 4420352.000000, -17.912670 , 2.543570, 0.995414, 1017665536.000000, 22.049999,  -325.500000,  -59.570000, 0.000000,  0.000000 
 4440576.000000, -17.015362 , 1.895115, 0.612563, 1017685504.000000, 16.309999,  -328.369995,  -62.650002, 0.000000,  0.000000 
 4460800.000000, -16.182659 , 1.203590, 0.473779, 1017705728.000000, 5.250000,  -333.130005,  -59.010002, 0.000000,  0.000000 
 4480256.000000, -15.168103 , 1.622334, 0.595813, 1017725952.000000, -7.420000,  -321.929993,  -49.139999, 0.000000,  0.000000 
 4500224.000000, -14.263616 , 2.385644, 0.145962, 1017745408.000000, -5.110000,  -302.820007,  -26.740000, 0.000000,  0.000000 
 4520192.000000, -13.488340 , 1.983650, -1.043271, 1017765376.000000, 0.490000,  -278.950012,  -0.350000, 0.000000,  0.000000 
 4540416.000000, -12.232110 , 1.804188, -1.816152, 1017785344.000000, -13.090000,  -247.449997,  25.200001, 0.000000,  0.000000 
 4560896.000000, -10.877771 , 1.648655, -2.411965, 1017805824.000000, -47.529999,  -221.830002,  46.200001, 0.000000,  0.000000 
 4580096.000000, -10.317852 , 1.536192, -1.720440, 1017826048.000000, -83.510002,  -196.210007,  56.070000, 0.000000,  0.000000 
 4600320.000000, -9.372685 , 1.749153, -1.691726, 1017845504.000000, -126.419998,  -165.830002,  44.170002, 0.000000,  0.000000 
 4620288.000000, -7.855636 , 1.483550, -1.679761, 1017865472.000000, -145.389999,  -142.100006,  31.150000, 0.000000,  0.000000 
 4640512.000000, -7.070791 , 0.973879, -0.267996, 1017885440.000000, -138.949997,  -121.660004,  18.480000, 0.000000,  0.000000 
 4661504.000000, -8.382057 , 0.203390, 0.256032, 1017905664.000000, -115.919998,  -89.529999,  9.170000, 3279488768.000000,  1005.537415 
 4680192.000000, -10.114462 , -0.720240, -1.385444, 1017926656.000000, -58.240002,  -50.540001,  6.790000, 0.000000,  0.000000 
 4700928.000000, -9.934999 , -1.153341, -4.680361, 1017945344.000000, 38.849998,  -23.309999,  8.890000, 0.000000,  0.000000 
 4720896.000000, -8.102098 , 0.813560, -8.169096, 1017966080.000000, 147.000000,  -18.690001,  10.080000, 0.000000,  0.000000 
 4741120.000000, -7.405786 , 4.488935, -8.257630, 1017986048.000000, 215.040009,  -12.390000,  6.370000, 0.000000,  0.000000 
 4763392.000000, -9.717253 , 4.756931, -5.996413, 1018006272.000000, 203.630005,  25.059999,  -4.690000, 0.000000,  0.000000 
 4780800.000000, -11.854043 , 1.610370, -4.211368, 1018028544.000000, 118.790001,  99.750000,  -32.480000, 0.000000,  0.000000 
 4801280.000000, -11.325230 , 1.359123, -3.641876, 1018045952.000000, 32.340000,  165.619995,  -35.630001, 0.000000,  0.000000 
 4821248.000000, -11.289338 , 2.146362, -2.868994, 1018066432.000000, 6.790000,  203.419998,  -13.440001, 0.000000,  0.000000 
 4841472.000000, -13.787444 , 1.091127, -1.981257, 1018086400.000000, -6.650000,  244.089996,  -11.970000, 0.000000,  0.000000 
 4861952.000000, -16.627726 , -0.019143, -0.591027, 1018106624.000000, -25.129999,  296.519989,  -29.540001, 0.000000,  0.000000 
 4881152.000000, -18.410378 , 0.026321, 0.193819, 1018127104.000000, 2.940000,  320.040009,  -40.110001, 0.000000,  0.000000 
 4901632.000000, -17.515463 , 0.696311, -0.016750, 1018146304.000000, 50.049999,  315.209991,  -43.610001, 0.000000,  0.000000 
 4921600.000000, -16.886148 , 2.105684, 0.490529, 1018166784.000000, 80.430000,  296.380005,  -35.560001, 0.000000,  0.000000 
 4941824.000000, -18.082561 , 3.321238, -0.200997, 1018186752.000000, 92.820000,  280.420013,  -36.820000, 0.000000,  0.000000 
 4962048.000000, -19.341187 , 2.790031, 0.445065, 1018206976.000000, 51.939999,  281.540009,  -40.810001, 0.000000,  0.000000 
 4981504.000000, -20.003996 , 1.928615, 1.868794, 1018227200.000000, -48.720001,  289.450012,  -42.070000, 0.000000,  0.000000 
 5001216.000000, -20.437098 , 0.794417, 2.794817, 1018246656.000000, -134.330002,  299.880005,  -18.270000, 0.000000,  0.000000 
 5022464.000000, -21.626329 , 0.143569, 3.962514, 1018266368.000000, -170.100006,  307.369995,  16.520000, 0.000000,  0.000000 
 5042944.000000, -21.054445 , 0.631705, 4.835894, 1018287616.000000, -159.389999,  317.380005,  49.630001, 0.000000,  0.000000 
 5063168.000000, -20.027925 , 0.839881, 5.570491, 1018308096.000000, -123.410004,  300.299988,  77.910004, 0.000000,  0.000000 
 5082624.000000, -18.436699 , 0.531207, 6.501299, 1018328320.000000, -104.440002,  279.019989,  87.360001, 0.000000,  0.000000 
 5102592.000000, -16.900507 , 0.418744, 8.525627, 1018347776.000000, -102.480003,  248.360001,  87.709999, 0.000000,  0.000000 
 5122560.000000, -14.957534 , 0.129212, 9.298509, 1018367744.000000, -104.790001,  212.660004,  76.160004, 0.000000,  0.000000 
 5142784.000000, -12.880564 , 0.224925, 8.824730, 1018387712.000000, -99.190002,  167.930008,  56.349998, 0.000000,  0.000000 
 5163264.000000, -11.066804 , 0.160319, 8.544770, 1018407936.000000, -92.610001,  120.820000,  35.630001, 0.000000,  0.000000 
 5182464.000000, -9.870394 , -0.308674, 8.810372, 1018428416.000000, -101.570000,  76.930000,  17.430000, 0.000000,  0.000000 
 5202432.000000, -8.628519 , -1.270589, 9.157332, 1018447616.000000, -112.559998,  42.700001,  2.800000, 0.000000,  0.000000 
 5222400.000000, -7.702496 , -1.284946, 10.497313, 1018467584.000000, -100.449997,  13.650000,  -6.860000, 0.000000,  0.000000 
 5242624.000000, -8.080563 , -1.045663, 11.988041, 1018487552.000000, -57.260002,  -7.560000,  -13.790000, 0.000000,  0.000000 
 5263104.000000, -12.181859 , -1.064806, 11.301301, 1018508032.000000, 7.770000,  -25.059999,  -15.750000, 0.000000,  0.000000 
 5282304.000000, -15.565310 , -0.624527, 8.362915, 1018528256.000000, 64.120003,  -35.700001,  -15.610000, 0.000000,  0.000000 
 5302528.000000, -15.854843 , 0.794417, 6.721439, 1018547712.000000, 98.139999,  -70.910004,  -8.120000, 0.000000,  0.000000 
 5322496.000000, -14.560326 , 1.134198, 6.290731, 1018567680.000000, 92.680000,  -143.009995,  -15.470000, 0.000000,  0.000000 
 5342720.000000, -16.079767 , -0.270389, 5.721239, 1018587648.000000, 50.259998,  -201.389999,  -39.270000, 0.000000,  0.000000 
 5362944.000000, -19.618752 , -1.024128, 4.654040, 1018607872.000000, 27.650000,  -222.180008,  -72.730003, 0.000000,  0.000000 
 5382400.000000, -23.559732 , -0.655633, 3.077170, 1018628096.000000, 52.639999,  -231.979996,  -86.379997, 0.000000,  0.000000 
 5402368.000000, -24.916462 , 0.636491, 1.543371, 1018647552.000000, 104.370003,  -249.130005,  -79.940002, 0.000000,  0.000000 
 5422336.000000, -22.329821 , 2.428715, 0.133998, 1018667520.000000, 144.199997,  -288.049988,  -68.669998, 0.000000,  0.000000 
 5442560.000000, -20.020746 , 2.222932, -0.387637, 1018687488.000000, 134.330002,  -332.709991,  -55.790001, 0.000000,  0.000000 
 5463040.000000, -19.319651 , 1.395016, 0.361316, 1018707712.000000, 67.340004,  -350.070007,  -65.660004, 0.000000,  0.000000 
 5482240.000000, -19.441683 , 1.380659, 1.864009, 1018728192.000000, 2.520000,  -349.089996,  -82.949997, 0.000000,  0.000000 
 5502464.000000, -19.350756 , 1.170090, 3.292524, 1018747392.000000, -15.400000,  -342.790009,  -92.470001, 0.000000,  0.000000 
 5522176.000000, -18.726231 , 0.440279, 3.038885, 1018767616.000000, 3.500000,  -334.040009,  -87.430000, 0.000000,  0.000000 
 5542656.000000, -18.690338 , 0.413958, 1.485943, 1018787584.000000, 48.580002,  -326.339996,  -63.910000, 0.000000,  0.000000 
 5562880.000000, -17.967705 , 1.263410, -0.126820, 1018807808.000000, 104.440002,  -315.769989,  -28.490000, 0.000000,  0.000000 
 5582336.000000, -16.165909 , 2.139183, -0.887737, 1018828032.000000, 143.009995,  -305.480011,  9.380000, 0.000000,  0.000000 
 5602304.000000, -14.553147 , 3.450450, -1.835295, 1018847488.000000, 142.309998,  -292.739990,  42.209999, 0.000000,  0.000000 
 5622272.000000, -12.430713 , 4.240082, -4.405186, 1018867456.000000, 113.889999,  -268.730011,  62.160000, 0.000000,  0.000000 
 5642496.000000, -8.745767 , 3.474378, -5.132604, 1018887424.000000, 50.330002,  -245.000000,  71.959999, 0.000000,  0.000000 
 5662720.000000, -5.505885 , 2.275574, -3.881158, 1018907648.000000, -56.700001,  -231.000000,  68.110001, 3280490752.000000,  1005.542603 
 5682176.000000, -4.819145 , 1.576870, -1.488336, 1018927872.000000, -149.520004,  -200.830002,  53.619999, 0.000000,  0.000000 
 5702144.000000, -6.470192 , 1.071985, -2.215754, 1018947328.000000, -186.130005,  -142.520004,  38.009998, 0.000000,  0.000000 
 5722112.000000, -5.936593 , 0.533599, -5.309673, 1018967296.000000, -147.559998,  -84.769997,  36.959999, 0.000000,  0.000000 
 5742336.000000, -4.524827 , 0.468993, -5.848059, 1018987264.000000, -80.919998,  -60.689999,  44.240002, 0.000000,  0.000000 
 5764608.000000, -6.620940 , 1.213161, -5.618347, 1019007488.000000, -53.480000,  -29.190001,  44.799999, 0.000000,  0.000000 
 5782016.000000, -10.789237 , 1.562513, -5.194818, 1019029760.000000, -57.119999,  41.160000,  35.560001, 0.000000,  0.000000 
 5801984.000000, -12.993028 , 0.390030, -3.823731, 1019047168.000000, -61.389999,  114.239998,  27.650000, 0.000000,  0.000000 
 5821952.000000, -11.164910 , 0.308674, -2.916851, 1019067392.000000, -52.920002,  153.369995,  27.370001, 0.000000,  0.000000 
 5842432.000000, -9.868000 , 0.629312, -2.636890, 1019087360.000000, -37.730000,  158.059998,  33.670002, 0.000000,  0.000000 
 5862656.000000, -12.126825 , 0.239282, -1.799403, 1019107584.000000, 11.060000,  168.559998,  37.029999, 0.000000,  0.000000 
 5882112.000000, -13.679767 , 0.373280, -0.492921, 1019127808.000000, 38.290001,  216.930008,  26.600000, 0.000000,  0.000000 
 5902080.000000, -13.536198 , 0.512064, -0.052642, 1019147264.000000, 61.110001,  257.670013,  13.650000, 0.000000,  0.000000 
 5922048.000000, -12.892529 , 1.371087, -0.066999, 1019167232.000000, 103.459999,  262.360016,  6.300000, 0.000000,  0.000000 
 5942272.000000, -13.406984 , 3.007778, -0.155533, 1019187200.000000, 142.660004,  260.540009,  -13.160000, 0.000000,  0.000000 
 5962496.000000, -13.820943 , 3.280560, 0.023928, 1019207424.000000, 146.649994,  268.309998,  -32.130001, 0.000000,  0.000000 
 5981952.000000, -15.256638 , 3.962514, 0.308674, 1019227904.000000, 117.040001,  278.950012,  -42.490002, 0.000000,  0.000000 
 6001920.000000, -16.845470 , 4.113262, -0.267996, 1019247104.000000, 63.070000,  293.019989,  -40.459999, 0.000000,  0.000000 
 6021888.000000, -19.082762 , 2.292324, -0.088534, 1019267072.000000, 5.320000,  300.089996,  -23.730000, 0.000000,  0.000000 
 6042368.000000, -21.346373 , 0.954736, 1.215554, 1019287040.000000, -74.059998,  309.610016,  -16.030001, 0.000000,  0.000000 
 6062592.000000, -22.963917 , 0.411566, 3.046063, 1019307520.000000, -133.770004,  314.299988,  6.370000, 0.000000,  0.000000 
 6082048.000000, -22.794027 , -0.323031, 4.398008, 1019327744.000000, -150.430008,  315.279999,  26.389999, 0.000000,  0.000000 
 6102016.000000, -22.523640 , -0.729811, 5.402994, 1019347200.000000, -134.680008,  308.279999,  41.509998, 0.000000,  0.000000 
 6121984.000000, -21.415762 , -0.629312, 7.080362, 1019367168.000000, -95.410004,  301.209991,  49.420002, 0.000000,  0.000000 
 6142208.000000, -19.831713 , 0.198604, 8.013563, 1019387136.000000, -38.639999,  279.230011,  52.009998, 0.000000,  0.000000 
 6162432.000000, -17.063217 , 1.959722, 7.381857, 1019407360.000000, 30.170000,  247.589996,  48.369999, 0.000000,  0.000000 
 6181888.000000, -14.416756 , 3.443272, 6.805188, 1019427584.000000, 71.470001,  201.529999,  40.250000, 0.000000,  0.000000 
 6201856.000000, -13.313664 , 3.206382, 7.223931, 1019447040.000000, 38.920002,  157.570007,  26.110001, 0.000000,  0.000000 
 6221824.000000, -13.765909 , 1.933401, 8.157133, 1019467008.000000, -41.439999,  131.039993,  10.920000, 0.000000,  0.000000 
 6242048.000000, -13.194024 , 0.868595, 8.468199, 1019486976.000000, -103.529999,  110.599998,  2.310000, 0.000000,  0.000000 
 6262528.000000, -12.361321 , 0.315853, 9.056834, 1019507456.000000, -116.970001,  72.730003,  10.080000, 0.000000,  0.000000 
 6281728.000000, -12.136396 , -0.246461, 8.860621, 1019527680.000000, -109.970001,  38.290001,  19.389999, 0.000000,  0.000000 
 6301696.000000, -11.523834 , -0.306281, 7.779066, 1019547136.000000, -88.550003,  8.050000,  25.059999, 0.000000,  0.000000 
 6321664.000000, -10.128819 , -0.260818, 7.209574, 1019567104.000000, -65.730003,  -33.250000,  18.340000, 0.000000,  0.000000 
 6342144.000000, -9.334401 , -0.715454, 6.788438, 1019587072.000000, -59.290001,  -80.220001,  -1.400000, 0.000000,  0.000000 
 6362368.000000, -10.279566 , -1.213161, 6.537192, 1019607296.000000, -55.299999,  -116.550003,  -28.350000, 0.000000,  0.000000 
 6381824.000000, -12.830315 , -1.519442, 6.137590, 1019627520.000000, -31.850000,  -138.600006,  -52.709999, 0.000000,  0.000000 
 6401792.000000, -15.716059 , -1.225125, 5.489135, 1019646976.000000, 20.370001,  -152.529999,  -65.519997, 0.000000,  0.000000 
 6421760.000000, -16.572689 , -0.217747, 3.524628, 1019666944.000000, 86.169998,  -168.070007,  -67.550003, 0.000000,  0.000000 
 6441984.000000, -15.751952 , 0.957129, 2.431108, 1019686912.000000, 145.250000,  -202.860001,  -56.209999, 0.000000,  0.000000 
 6462208.000000, -15.199209 , 1.524228, 1.842474, 1019707136.000000, 155.889999,  -235.759995,  -48.299999, 0.000000,  0.000000 
 6481664.000000, -14.581861 , 1.177269, 1.435694, 1019727616.000000, 119.209999,  -251.229996,  -46.410000, 0.000000,  0.000000 
 6501632.000000, -14.268401 , 0.241675, 1.478764, 1019746816.000000, 61.529999,  -262.850006,  -50.119999, 0.000000,  0.000000 
 6521600.000000, -14.914464 , 0.674776, 1.579263, 1019766784.000000, 17.710001,  -267.470001,  -52.639999, 0.000000,  0.000000 
 6542080.000000, -15.479170 , 1.622334, 0.930808, 1019786752.000000, 3.920000,  -266.769989,  -49.209999, 0.000000,  0.000000 
 6562304.000000, -15.129817 , 0.801596, 0.272782, 1019807232.000000, -5.950000,  -270.480011,  -41.230000, 0.000000,  0.000000 
 6581760.000000, -14.672788 , 0.863809, 0.993021, 1019827456.000000, -37.029999,  -271.320007,  -35.700001, 0.000000,  0.000000 
 6601728.000000, -14.634504 , 1.196411, 0.899701, 1019846912.000000, -56.490002,  -264.670013,  -24.500000, 0.000000,  0.000000 
 6621696.000000, -13.808979 , 1.428515, 0.267996, 1019886848.000000, -63.349998,  -243.389999,  -6.160000, 0.000000,  0.000000 
 6641920.000000, -12.064612 , 1.270589, -0.952343, 0.000000, 0.000000,  0.000000,  0.000000, 0.000000,  0.000000 
 6662144.000000, -10.162319 , 0.839881, -1.603191, 1019907072.000000, -76.019997,  -238.910004,  -4.690000, 3281490176.000000,  1005.544495 
 6682368.000000, -8.740981 , 0.650848, -0.823131, 1019927296.000000, -98.980003,  -224.350006,  -9.940000, 0.000000,  0.000000 
 6701568.000000, -7.668997 , 1.002593, -0.433101, 1019947520.000000, -110.459999,  -197.820007,  -18.620001, 0.000000,  0.000000 
 6722560.000000, -6.482157 , 1.012164, -0.815953, 1019966720.000000, -87.290001,  -166.180008,  -22.120001, 0.000000,  0.000000 
 6742784.000000, -5.718846 , 0.815953, -0.760918, 1019987712.000000, -45.430000,  -132.649994,  -16.590000, 0.000000,  0.000000 
 6765056.000000, -6.597012 , 0.856631, -0.691526, 1020007936.000000, -2.450000,  -94.919998,  -2.240000, 0.000000,  0.000000 
 6782464.000000, -8.384450 , 0.717847, -1.399801, 1020030208.000000, 33.180000,  -52.009998,  14.840000, 0.000000,  0.000000 
 6802432.000000, -8.836694 , 1.433301, -2.919244, 1020047616.000000, 67.340004,  -12.460000,  26.950001, 0.000000,  0.000000 
 6822912.000000, -8.097312 , 1.816152, -4.563113, 1020067584.000000, 103.389999,  6.300000,  39.340000, 0.000000,  0.000000 
 6843136.000000, -9.281759 , 2.304288, -4.675575, 1020088064.000000, 104.090004,  21.700001,  39.410000, 0.000000,  0.000000 
 6863360.000000, -12.021541 , 2.385644, -3.701697, 1020108544.000000, 55.090000,  72.029999,  20.510000, 0.000000,  0.000000 
 6882816.000000, -13.663017 , 1.457229, -2.739782, 1020128512.000000, 12.810000,  132.229996,  0.070000, 0.000000,  0.000000 
 6902784.000000, -12.672389 , 0.514457, -3.077170, 1020148224.000000, 11.130000,  172.759995,  -6.580000, 0.000000,  0.000000 
 6923264.000000, -12.569498 , 0.947558, -3.069991, 1020167936.000000, 47.950001,  190.539993,  5.250000, 0.000000,  0.000000 
 6943488.000000, -14.474185 , 1.581656, -2.976671, 1020188416.000000, 83.860001,  216.020004,  13.790000, 0.000000,  0.000000 
 6963712.000000, -17.118254 , 1.342373, -1.727618, 1020208896.000000, 75.739998,  242.830002,  8.050000, 0.000000,  0.000000 
 6983168.000000, -18.364914 , 1.158126, -0.399601, 1020228864.000000, 37.520000,  264.529999,  -3.500000, 0.000000,  0.000000 
 7003136.000000, -17.548960 , 0.772882, 0.880559, 1020248320.000000, 14.560000,  268.170013,  -14.910000, 0.000000,  0.000000 
 7022848.000000, -17.170895 , 0.397209, 2.330609, 1020268288.000000, 11.760000,  261.799988,  -26.040001, 0.000000,  0.000000 
 7044608.000000, -16.481762 , 1.280160, 2.792424, 1020288256.000000, 29.190001,  265.510010,  -37.520000, 0.000000,  0.000000 
 7064832.000000, -15.428921 , 1.909473, 2.469393, 1020309760.000000, 58.099998,  262.989990,  -38.150002, 0.000000,  0.000000 
 7084288.000000, -15.098711 , 1.564906, 2.344966, 1020329984.000000, 61.320000,  253.540009,  -40.250000, 0.000000,  0.000000 
 7104256.000000, -16.216160 , 1.284946, 3.816552, 1020349440.000000, 35.139999,  249.899994,  -44.730000, 0.000000,  0.000000 
 7124224.000000, -16.912472 , 2.055435, 4.575077, 1020369408.000000, 20.370001,  250.180008,  -44.170002, 0.000000,  0.000000 
 7144448.000000, -15.467206 , 2.632105, 4.742575, 1020389376.000000, 27.860001,  240.729996,  -32.619999, 0.000000,  0.000000 
 7164672.000000, -14.074582 , 2.672783, 4.802395, 1020409600.000000, 20.510000,  221.619995,  -20.440001, 0.000000,  0.000000 
 7184128.000000, -13.828122 , 2.522035, 5.962914, 1020429824.000000, -10.080000,  207.270004,  -10.570000, 0.000000,  0.000000 
 7204096.000000, -13.548162 , 2.361716, 7.154540, 1020449536.000000, -49.910000,  201.740005,  -6.230000, 0.000000,  0.000000 
 7224064.000000, -11.971292 , 2.132005, 8.178668, 1020469248.000000, -67.550003,  183.470001,  -1.190000, 0.000000,  0.000000 
 7244288.000000, -10.451849 , 2.333002, 9.750752, 1020489472.000000, -58.170002,  152.669998,  5.670000, 0.000000,  0.000000 
 7264768.000000, -9.875179 , 2.885744, 10.025927, 1020509696.000000, -30.380001,  124.529999,  13.930000, 0.000000,  0.000000 
 7284224.000000, -9.879964 , 3.500700, 9.150154, 1020529920.000000, 6.370000,  99.400002,  22.540001, 0.000000,  0.000000 
 7304192.000000, -10.298709 , 3.866802, 8.822337, 1020549376.000000, 26.670000,  65.379997,  27.020000, 0.000000,  0.000000 
 7324160.000000, -11.605190 , 3.565305, 9.353544, 1020569344.000000, 11.620000,  26.880001,  31.430000, 0.000000,  0.000000 
 7344384.000000, -13.196418 , 2.277967, 10.200603, 1020589312.000000, -24.150000,  -1.960000,  36.049999, 0.000000,  0.000000 
 7364608.000000, -15.383456 , 1.306481, 9.678967, 1020609536.000000, -40.110001,  -29.190001,  44.380001, 0.000000,  0.000000 
 7384064.000000, -17.560926 , 0.768096, 7.353144, 1020629760.000000, -21.490000,  -57.470001,  60.619999, 0.000000,  0.000000 
 7404032.000000, -18.226130 , 0.782453, 5.096712, 1020649216.000000, 3.710000,  -96.180000,  72.239998, 0.000000,  0.000000 
 7424000.000000, -18.419949 , 0.969093, 4.474578, 1020669184.000000, 1.820000,  -154.910004,  67.410004, 0.000000,  0.000000 
 7444224.000000, -19.834106 , 0.351745, 3.945765, 1020689408.000000, -35.980000,  -209.020004,  44.450001, 0.000000,  0.000000 
 7464448.000000, -22.277180 , -0.985843, 3.235096, 1020709376.000000, -79.029999,  -238.630005,  10.500000, 0.000000,  0.000000 
 7484160.000000, -23.734409 , -1.741975, 2.304288, 1020729856.000000, -91.489998,  -257.320007,  -19.670000, 0.000000,  0.000000 
 7503872.000000, -22.511675 , -0.811167, 0.985843, 1020749312.000000, -62.650002,  -279.369995,  -35.770000, 0.000000,  0.000000 
 7524096.000000, -20.513668 , 0.086142, -0.253639, 1020769280.000000, -13.020000,  -310.309998,  -41.439999, 0.000000,  0.000000 
 7544320.000000, -18.872192 , -0.038285, -0.416351, 1020789248.000000, 8.750000,  -330.890015,  -52.290001, 0.000000,  0.000000 
 7564544.000000, -17.462820 , 0.100499, -0.258425, 1020809472.000000, -4.900000,  -339.220001,  -73.150002, 0.000000,  0.000000 
 7584000.000000, -16.429121 , -0.002393, -0.129212, 1020829696.000000, -11.200000,  -342.089996,  -90.580002, 0.000000,  0.000000 
 7603968.000000, -15.409778 , -0.270389, -0.284746, 1020849152.000000, -9.240000,  -337.610016,  -103.040001, 0.000000,  0.000000 
 7623936.000000, -14.481362 , -0.406780, -0.655633, 1020869120.000000, -5.950000,  -328.369995,  -103.110001, 0.000000,  0.000000 
 7644160.000000, -13.385449 , -0.133998, -0.973879, 1020909312.000000, 17.850000,  -293.019989,  -67.900002, 0.000000,  0.000000 
 7664384.000000, -11.944970 , 0.519243, -1.031307, 0.000000, 0.000000,  0.000000,  0.000000, 3282492416.000000,  1005.545898 
 7683840.000000, -10.691131 , 1.043271, -1.804188, 1020929792.000000, 30.590000,  -271.110016,  -38.779999, 0.000000,  0.000000 
 7703808.000000, -9.296116 , 1.313660, -2.316252, 1020949248.000000, 25.410000,  -245.000000,  -13.090000, 0.000000,  0.000000 
 7723776.000000, -8.169096 , 1.746760, -2.892922, 1020968960.000000, 1.260000,  -217.070007,  6.510000, 0.000000,  0.000000 
 7744000.000000, -7.245467 , 2.129612, -3.486342, 1020988928.000000, -30.940001,  -190.050003,  19.389999, 0.000000,  0.000000 
 7766272.000000, -6.132804 , 1.572084, -3.529413, 1021009408.000000, -73.360001,  -161.559998,  24.219999, 0.000000,  0.000000 
 7783680.000000, -4.814359 , 0.823131, -3.182454, 1021031424.000000, -121.169998,  -131.880005,  19.670000, 0.000000,  0.000000 
 7803648.000000, -4.400401 , 0.421137, -1.988436, 1021048832.000000, -149.169998,  -98.279999,  9.380000, 0.000000,  0.000000 
 7823616.000000, -5.084748 , 0.392423, -1.629512, 1021069056.000000, -139.789993,  -51.240002,  -1.190000, 0.000000,  0.000000 
 7844096.000000, -6.106483 , 0.459422, -2.782853, 1021089024.000000, -83.790001,  0.140000,  -4.410000, 0.000000,  0.000000 
 7864320.000000, -7.544570 , 1.148555, -3.663411, 1021109248.000000, 5.880000,  43.820000,  2.170000, 0.000000,  0.000000 
 7883776.000000, -10.128819 , 1.457229, -2.634498, 1021129472.000000, 75.669998,  93.099998,  11.550000, 0.000000,  0.000000 
 7903744.000000, -13.902299 , 1.131805, -1.682154, 1021148928.000000, 99.330002,  157.779999,  19.320000, 0.000000,  0.000000 
 7923712.000000, -16.220945 , 1.170090, -1.261017, 1021168896.000000, 108.779999,  223.509995,  23.940001, 0.000000,  0.000000 
 7943936.000000, -14.876178 , 1.883151, -0.277567, 1021188864.000000, 133.279999,  251.580002,  28.630001, 0.000000,  0.000000 
 7964160.000000, -14.756538 , 2.084148, -0.284746, 1021209088.000000, 144.479996,  246.399994,  25.129999, 0.000000,  0.000000 
 7983616.000000, -16.462620 , 1.931008, 0.416351, 1021229568.000000, 116.830002,  265.299988,  13.720000, 0.000000,  0.000000 
 8003584.000000, -16.831116 , 1.579263, 2.153540, 1021248768.000000, 74.760002,  290.429993,  4.270000, 0.000000,  0.000000 
 8023552.000000, -15.821342 , 1.339981, 3.261417, 1021268736.000000, 66.570000,  289.450012,  -1.260000, 0.000000,  0.000000 
 8044032.000000, -15.105889 , 2.438286, 3.629912, 1021288704.000000, 105.419998,  279.299988,  -10.850000, 0.000000,  0.000000 
 8064256.000000, -14.763715 , 4.797609, 2.352145, 1021309184.000000, 164.570007,  270.480011,  -20.930000, 0.000000,  0.000000 
 8083712.000000, -13.763516 , 5.192425, 0.270389, 1021329408.000000, 204.539993,  250.040009,  -19.530001, 0.000000,  0.000000 
 8103680.000000, -13.036098 , 6.233303, 0.222532, 1021348864.000000, 183.889999,  225.750000,  -15.050000, 0.000000,  0.000000 
 8123648.000000, -13.780266 , 6.783652, 1.493121, 1021368832.000000, 95.059998,  214.830002,  -5.040000, 0.000000,  0.000000 
 8143872.000000, -16.201803 , 5.266603, 2.644069, 1021388800.000000, -30.380001,  228.619995,  2.520000, 0.000000,  0.000000 
 8164096.000000, -17.536997 , 3.390630, 3.512664, 1021409024.000000, -150.570007,  254.589996,  -12.250000, 0.000000,  0.000000 
 8183552.000000, -17.101503 , 2.687140, 5.134997, 1021429248.000000, -215.809998,  265.790009,  -6.020000, 0.000000,  0.000000 
 8203520.000000, -17.036898 , 2.414358, 7.195218, 1021448704.000000, -212.240005,  266.700012,  21.420000, 0.000000,  0.000000 
 8223488.000000, -16.603796 , 2.005185, 8.712267, 1021468672.000000, -156.589996,  268.660004,  53.270000, 0.000000,  0.000000 
 8243712.000000, -15.244674 , 2.316252, 9.932607, 1021488640.000000, -65.239998,  252.770004,  74.410004, 0.000000,  0.000000 
 8264192.000000, -13.859229 , 2.708675, 10.191031, 1021509120.000000, 42.070000,  215.040009,  89.809998, 0.000000,  0.000000 
 8283392.000000, -12.301501 , 4.091727, 8.429914, 1021529344.000000, 93.379997,  190.470001,  92.610001, 0.000000,  0.000000 
 8303360.000000, -10.621738 , 6.350551, 6.800402, 1021548800.000000, 165.339996,  131.389999,  84.769997, 0.000000,  0.000000 
 8323584.000000, -9.329616 , 7.020542, 6.597012, 1021568768.000000, 172.830002,  67.900002,  67.550003, 0.000000,  0.000000 
 8343808.000000, -10.241282 , 4.247260, 7.788638, 1021588736.000000, 94.849998,  15.890000,  42.279999, 0.000000,  0.000000 
 8364032.000000, -10.971091 , 2.648855, 8.025528, 1021608960.000000, -26.460001,  -8.610000,  9.030000, 0.000000,  0.000000 
 8383488.000000, -12.062220 , 0.574277, 8.291130, 1021629184.000000, -104.300003,  -18.059999,  -12.320000, 0.000000,  0.000000 
 8403456.000000, -13.849657 , -0.057428, 8.238488, 1021648640.000000, -87.779999,  -44.730000,  -6.930000, 0.000000,  0.000000 
 8423424.000000, -15.529420 , 0.658026, 7.008578, 1021668608.000000, -13.650000,  -70.139999,  12.950000, 0.000000,  0.000000 
 8443648.000000, -16.048662 , 1.971686, 5.185246, 1021688576.000000, 67.620003,  -100.099998,  37.380001, 0.000000,  0.000000 
 8463872.000000, -15.909878 , 3.333202, 3.388237, 1021708800.000000, 112.000000,  -139.300003,  53.549999, 0.000000,  0.000000 
 8483328.000000, -16.326229 , 3.629912, 2.455036, 1021729280.000000, 96.529999,  -179.410004,  54.529999, 0.000000,  0.000000 
 8503296.000000, -18.168701 , 2.679961, 2.522035, 1021748480.000000, 26.530001,  -208.880005,  41.860001, 0.000000,  0.000000 
 8523264.000000, -20.300707 , 1.588834, 1.887937, 1021768448.000000, -52.360001,  -225.119995,  18.059999, 0.000000,  0.000000 
 8543744.000000, -20.659632 , 1.519442, 0.928415, 1021788416.000000, -88.480003,  -246.119995,  -5.950000, 0.000000,  0.000000 
 8563968.000000, -19.348364 , 1.741975, 0.141177, 1021808896.000000, -85.750000,  -281.679993,  -23.379999, 0.000000,  0.000000 
 8583424.000000, -17.714066 , 1.521835, 0.145962, 1021829120.000000, -75.320000,  -314.929993,  -38.990002, 0.000000,  0.000000 
 8603392.000000, -16.541582 , 1.627119, 0.423530, 1021848576.000000, -73.150002,  -335.230011,  -60.900002, 0.000000,  0.000000 
 8623360.000000, -15.725630 , 1.792224, 1.060020, 1021868544.000000, -61.670002,  -343.559998,  -79.940002, 0.000000,  0.000000 
 8643584.000000, -14.864214 , 1.308874, 0.524028, 1021888512.000000, -35.420002,  -343.980011,  -88.199997, 0.000000,  0.000000 
 8663808.000000, -13.823336 , 1.000200, 0.059821, 1021908736.000000, -0.350000,  -339.709991,  -82.320000, 3283491840.000000,  1005.549622 
 8683264.000000, -12.442677 , 1.509871, -0.780060, 1021928960.000000, 26.600000,  -326.899994,  -66.989998, 0.000000,  0.000000 
 8703232.000000, -10.786844 , 2.407180, -1.495514, 1021948416.000000, 47.110001,  -309.329987,  -43.259998, 0.000000,  0.000000 
 8723200.000000, -8.781659 , 2.648855, -2.507678, 1021968384.000000, 48.230000,  -287.700012,  -23.240000, 0.000000,  0.000000 
 8744960.000000, -7.185646 , 2.397608, -2.502892, 1021988352.000000, 21.280001,  -259.350006,  -8.890000, 0.000000,  0.000000 
 8766464.000000, -6.656832 , 1.940579, -1.844866, 1022010112.000000, -31.010000,  -219.869995,  -3.710000, 0.000000,  0.000000 
 8783872.000000, -7.221539 , 2.115255, -1.268196, 1022031616.000000, -83.019997,  -170.589996,  -3.150000, 0.000000,  0.000000 
 8803840.000000, -6.771688 , 1.871187, -2.129612, 1022049024.000000, -111.230003,  -121.870003,  -2.380000, 0.000000,  0.000000 
 8823808.000000, -5.443672 , 1.289732, -2.392823, 1022069248.000000, -113.750000,  -93.660004,  3.080000, 0.000000,  0.000000 
 8844544.000000, -5.412565 , 0.835095, -1.639083, 1022089216.000000, -116.480003,  -70.769997,  3.850000, 0.000000,  0.000000 
 8864768.000000, -7.590034 , 0.973879, -1.373480, 1022109952.000000, -113.959999,  -30.380001,  2.100000, 0.000000,  0.000000 
 8884224.000000, -8.975478 , 1.009771, -2.100898, 1022130176.000000, -95.690002,  23.590000,  -2.240000, 0.000000,  0.000000 
 8904192.000000, -9.284152 , 0.533599, -2.620141, 1022149376.000000, -50.049999,  57.189999,  0.070000, 0.000000,  0.000000 
 8924160.000000, -10.315458 , 0.413958, -1.952543, 1022169600.000000, -6.790000,  82.320000,  5.530000, 0.000000,  0.000000 
 8944896.000000, -12.854243 , 0.720240, -1.483550, 1022189312.000000, 27.090000,  129.990005,  13.930000, 0.000000,  0.000000 
 8965120.000000, -14.641682 , 0.337388, -1.665405, 1022210048.000000, 59.080002,  183.750000,  23.030001, 0.000000,  0.000000 
 8984576.000000, -13.799409 , -0.141177, -1.454836, 1022230272.000000, 83.300003,  223.300003,  29.260000, 0.000000,  0.000000 
 9004544.000000, -13.792230 , 0.758525, -1.256232, 1022249728.000000, 97.090004,  240.520004,  30.590000, 0.000000,  0.000000 
 9024512.000000, -16.651653 , 2.266003, -0.725025, 1022269696.000000, 100.239998,  264.950012,  26.670000, 0.000000,  0.000000 
 9044736.000000, -18.987047 , 1.569692, 0.928415, 1022289664.000000, 89.459999,  300.160004,  21.559999, 0.000000,  0.000000 
 9066240.000000, -18.149559 , 1.859223, 2.105684, 1022309888.000000, 76.510002,  309.679993,  10.990000, 0.000000,  0.000000 
 9085696.000000, -15.988840 , 3.242275, 2.199004, 1022331392.000000, 92.050003,  291.619995,  12.390000, 0.000000,  0.000000 
 9105664.000000, -14.902499 , 3.972085, 1.433301, 1022350848.000000, 108.290001,  268.450012,  11.760000, 0.000000,  0.000000 
 9125632.000000, -14.459827 , 3.716053, 0.823131, 1022370816.000000, 75.739998,  256.410004,  -9.450000, 0.000000,  0.000000 
 9145856.000000, -14.907285 , 2.699104, 1.359123, 1022390784.000000, 5.670000,  245.350006,  -25.270000, 0.000000,  0.000000 
 9166080.000000, -15.730415 , 1.864009, 2.127219, 1022411008.000000, -68.110001,  240.309998,  -31.920000, 0.000000,  0.000000 
 9185536.000000, -16.046268 , 1.378266, 2.605784, 1022431488.000000, -116.900002,  238.770004,  -24.360001, 0.000000,  0.000000 
 9205504.000000, -15.735202 , 1.045663, 2.557927, 1022450688.000000, -129.990005,  234.710007,  -7.910000, 0.000000,  0.000000 
 9225472.000000, -15.981662 , 0.961915, 2.895315, 1022470656.000000, -123.059998,  232.470001,  12.810000, 0.000000,  0.000000 
 9245952.000000, -16.340586 , 0.859023, 3.347559, 1022490624.000000, -114.379997,  237.089996,  34.230000, 0.000000,  0.000000 
 9266176.000000, -16.074982 , 0.533599, 4.096512, 1022511104.000000, -110.459999,  241.990005,  52.009998, 0.000000,  0.000000 
 9285376.000000, -15.328422 , 0.385244, 5.020142, 1022531328.000000, -105.070000,  238.910004,  66.290001, 0.000000,  0.000000 
 9305600.000000, -14.892928 , 0.351745, 6.642475, 1022550784.000000, -91.629997,  228.970001,  74.620003, 0.000000,  0.000000 
 9325568.000000, -14.464613 , 0.122034, 9.370294, 1022570752.000000, -76.720001,  216.229996,  76.160004, 0.000000,  0.000000 
 9345792.000000, -13.191631 , -0.282353, 9.212367, 1022590720.000000, -56.630001,  191.029999,  69.090004, 0.000000,  0.000000 
 9366016.000000, -11.770294 , 0.279960, 8.666803, 1022610944.000000, -28.070000,  142.029999,  51.310001, 0.000000,  0.000000 
 9385472.000000, -11.722438 , 1.227518, 9.499505, 1022631168.000000, -17.150000,  82.599998,  23.870001, 0.000000,  0.000000 
 9405440.000000, -12.904492 , -0.009571, 10.080962, 1022650624.000000, -45.220001,  38.009998,  -7.140000, 0.000000,  0.000000 
 9425408.000000, -13.631909 , -0.784846, 9.650253, 1022670592.000000, -64.400002,  2.450000,  -27.930000, 0.000000,  0.000000 
 9445888.000000, -12.576675 , 0.734596, 7.259824, 1022690560.000000, -30.170000,  -38.990002,  -33.040001, 0.000000,  0.000000 
 9466112.000000, -12.220145 , 1.842474, 5.577669, 1022711040.000000, 31.360001,  -95.340004,  -20.299999, 0.000000,  0.000000 
 9485312.000000, -12.859028 , 2.124826, 5.702096, 1022731264.000000, 40.250000,  -135.520004,  -24.850000, 0.000000,  0.000000 
 9505536.000000, -13.660624 , 1.610370, 5.180461, 1022750720.000000, -0.560000,  -160.020004,  -38.290001, 0.000000,  0.000000 
 9525248.000000, -15.421742 , 0.507278, 4.881358, 1022770688.000000, -29.610001,  -185.289993,  -53.549999, 0.000000,  0.000000 
 9545728.000000, -18.163916 , -0.160319, 4.469792, 1022790656.000000, -35.630001,  -201.740005,  -73.570000, 0.000000,  0.000000 
 9565952.000000, -19.566111 , -0.011964, 3.529413, 1022810880.000000, -4.200000,  -215.180008,  -83.300003, 0.000000,  0.000000 
 9585408.000000, -18.245272 , 1.277767, 2.167897, 1022831104.000000, 57.119999,  -243.600006,  -86.029999, 0.000000,  0.000000 
 9605376.000000, -16.893328 , 2.048256, 0.923629, 1022850560.000000, 114.870003,  -288.750000,  -83.440002, 0.000000,  0.000000 
 9625344.000000, -16.735401 , 2.325824, 0.526421, 1022870528.000000, 123.550003,  -315.350006,  -89.250000, 0.000000,  0.000000 
 9645824.000000, -16.744972 , 2.177469, 0.574277, 1022910976.000000, 48.650002,  -322.350006,  -96.809998, 3284493824.000000,  1005.552795 
 9665792.000000, -16.668402 , 1.280160, 0.863809, 1022930944.000000, 19.389999,  -314.790009,  -89.320000, 0.000000,  0.000000 
 9685248.000000, -16.275980 , 0.574277, 0.966700, 0.000000, 0.000000,  0.000000,  0.000000, 0.000000,  0.000000 
 9705216.000000, -15.622739 , 0.174676, 0.851845, 1022970624.000000, 21.420000,  -274.750000,  -36.610001, 0.000000,  0.000000 
 9725184.000000, -14.641682 , -0.074178, 0.993021, 0.000000, 0.000000,  0.000000,  0.000000, 0.000000,  0.000000 
 9745408.000000, -12.947563 , 0.086142, 1.359123, 1022990336.000000, 34.720001,  -249.130005,  -3.640000, 0.000000,  0.000000 
 9767680.000000, -11.351551 , 0.023928, 2.182254, 1023010816.000000, 42.560001,  -225.820007,  24.010000, 0.000000,  0.000000 
 9785088.000000, -11.813366 , 0.490529, 3.215954, 1023032832.000000, 41.230000,  -201.949997,  43.820000, 0.000000,  0.000000 
 9805056.000000, -12.531212 , 1.194018, 2.459821, 1023050240.000000, 39.200001,  -164.430008,  54.880001, 0.000000,  0.000000 
 9825024.000000, -11.662617 , 1.261017, 1.201197, 1023070464.000000, 37.799999,  -149.800003,  62.439999, 0.000000,  0.000000 
 9845504.000000, -9.126225 , 0.825524, 0.722632, 1023090432.000000, 8.820000,  -154.279999,  58.170002, 0.000000,  0.000000 
 9865728.000000, -7.271788 , 0.516850, 0.753739, 1023110656.000000, -37.310001,  -168.279999,  45.430000, 0.000000,  0.000000 
 9885184.000000, -8.044669 , 0.844666, -0.571885, 1023130880.000000, -66.500000,  -164.570007,  19.670000, 0.000000,  0.000000 
 9905152.000000, -8.793623 , 1.706082, -3.225525, 1023150336.000000, -55.510002,  -136.009995,  -1.540000, 0.000000,  0.000000 
 9925120.000000, -7.255038 , 2.591427, -6.419943, 1023170304.000000, -30.030001,  -112.070000,  -10.360000, 0.000000,  0.000000 
 9945344.000000, -6.077770 , 3.754339, -7.353144, 1023190272.000000, -22.260000,  -101.989998,  -9.660000, 0.000000,  0.000000 
 9965568.000000, -7.305287 , 3.885944, -4.713861, 1023210496.000000, -62.510002,  -57.049999,  -12.250000, 0.000000,  0.000000 
 9985024.000000, -10.310673 , 2.725425, -2.510071, 1023230976.000000, -115.080002,  15.470000,  -15.540000, 0.000000,  0.000000 
 10004992.000000, -10.470992 , 1.974079, -2.292324, 1023250176.000000, -125.370003,  85.120003,  -7.630000, 0.000000,  0.000000 
 10024960.000000, -9.008978 , 2.258825, -2.043471, 1023270144.000000, -75.949997,  117.669998,  15.750000, 0.000000,  0.000000 
 10045440.000000, -9.535398 , 2.005185, -2.158326, 1023290112.000000, -10.640000,  138.039993,  29.750000, 0.000000,  0.000000 
 10065664.000000, -11.284552 , 0.732204, -2.301895, 1023310592.000000, 25.340000,  173.110001,  23.940001, 0.000000,  0.000000 
 10085120.000000, -12.617353 , 0.253639, -2.014757, 1023330816.000000, 43.889999,  212.240005,  14.490000, 0.000000,  0.000000 
 10105088.000000, -12.729815 , 0.906880, -1.555335, 1023350272.000000, 66.360001,  228.830002,  6.230000, 0.000000,  0.000000 
 10125056.000000, -12.703495 , 1.148555, -0.483350, 1023370240.000000, 85.190002,  229.110001,  -1.470000, 0.000000,  0.000000 
 10145280.000000, -13.476377 , 1.220340, 0.318245, 1023390208.000000, 82.389999,  239.680008,  -12.530000, 0.000000,  0.000000 
 10165504.000000, -14.299508 , 1.031307, 0.540778, 1023410432.000000, 70.000000,  257.390015,  -25.760000, 0.000000,  0.000000 
 10184960.000000, -15.471991 , 1.220340, 0.433101, 1023430656.000000, 56.630001,  272.579987,  -24.780001, 0.000000,  0.000000 
 10204928.000000, -17.032110 , 1.280160, 0.815953, 1023450112.000000, 40.040001,  289.100006,  -16.450001, 0.000000,  0.000000 
 10224896.000000, -19.066011 , 1.069592, 1.952543, 1023470080.000000, 15.190001,  305.200012,  -3.570000, 0.000000,  0.000000 
 10245120.000000, -20.051853 , 0.957129, 2.952743, 1023490048.000000, -7.630000,  319.549988,  12.670000, 0.000000,  0.000000 
 10265600.000000, -19.958532 , 1.816152, 3.732803, 1023510528.000000, -19.180000,  321.089996,  36.330002, 0.000000,  0.000000 
 10284800.000000, -20.362919 , 2.026721, 4.012764, 1023530752.000000, -23.730000,  309.470001,  55.720001, 0.000000,  0.000000 
 10304768.000000, -21.164516 , 1.954936, 5.723632, 1023550208.000000, -43.330002,  301.630005,  63.630001, 0.000000,  0.000000 
 10324992.000000, -19.616360 , 2.060220, 7.154540, 1023570176.000000, -70.139999,  288.119995,  64.680000, 0.000000,  0.000000 
 10345216.000000, -17.142181 , 2.167897, 8.195417, 1023590144.000000, -81.830002,  248.009995,  64.820000, 0.000000,  0.000000 
 10365440.000000, -15.402599 , 2.060220, 8.573483, 1023610368.000000, -86.800003,  202.020004,  58.799999, 0.000000,  0.000000 
 10384896.000000, -13.629518 , 2.033899, 7.750352, 1023630592.000000, -90.930000,  163.240005,  47.670002, 0.000000,  0.000000 
 10404864.000000, -11.751152 , 2.206182, 6.343372, 1023650048.000000, -95.690002,  117.879997,  39.480000, 0.000000,  0.000000 
 10424832.000000, -11.083554 , 1.727618, 6.570691, 1023670016.000000, -112.980003,  72.730003,  30.590000, 0.000000,  0.000000 
 10445056.000000, -11.310873 , 0.282353, 6.915257, 1023689984.000000, -154.419998,  47.950001,  19.530001, 0.000000,  0.000000 
 10465280.000000, -11.868401 , -1.763510, 8.417950, 1023710208.000000, -189.559998,  35.700001,  12.950000, 0.000000,  0.000000 
 10484736.000000, -12.882957 , -3.235096, 9.860823, 1023730688.000000, -183.960007,  22.469999,  9.240000, 0.000000,  0.000000 
 10504704.000000, -13.153346 , -3.507878, 8.049455, 1023749888.000000, -118.650002,  7.770000,  16.799999, 0.000000,  0.000000 
 10524672.000000, -12.571891 , -2.407180, 6.506085, 1023769856.000000, -15.120000,  -25.480000,  23.660000, 0.000000,  0.000000 
 10545152.000000, -11.267801 , -0.839881, 5.704489, 1023789824.000000, 59.709999,  -68.459999,  13.090000, 0.000000,  0.000000 
 10565376.000000, -11.566904 , -0.514457, 5.450850, 1023810304.000000, 76.510002,  -112.349998,  -9.940000, 0.000000,  0.000000 
 10584832.000000, -13.670196 , -1.493121, 5.146961, 1023830528.000000, 58.240002,  -136.990005,  -44.590000, 0.000000,  0.000000 
 10604800.000000, -15.211173 , -1.835295, 4.371687, 1023849984.000000, 51.450001,  -149.309998,  -75.110001, 0.000000,  0.000000 
 10624768.000000, -15.471991 , -0.973879, 3.074777, 1023869952.000000, 87.080002,  -170.800003,  -88.620003, 0.000000,  0.000000 
 10644992.000000, -15.022141 , -0.741775, 1.655833, 1023889920.000000, 141.960007,  -202.369995,  -93.660004, 0.000000,  0.000000 
 10665216.000000, -14.490934 , -0.827917, 0.732204, 1023910144.000000, 163.449997,  -216.580002,  -96.739998, 3285493248.000000,  1005.550842 
 10684672.000000, -14.069797 , 0.093320, 0.165105, 1023930368.000000, 186.830002,  -236.250000,  -104.230003, 0.000000,  0.000000 
 10704640.000000, -13.978869 , 1.885544, 0.136391, 1023949824.000000, 201.389999,  -250.389999,  -108.290001, 0.000000,  0.000000 
 10724608.000000, -13.976478 , 2.514857, 0.382852, 1023969792.000000, 208.389999,  -260.750000,  -106.540001, 0.000000,  0.000000 
 10744832.000000, -12.315859 , 1.567299, 2.294717, 1023989760.000000, 178.919998,  -267.470001,  -97.860001, 0.000000,  0.000000 
 10767104.000000, -11.569297 , 1.701297, 3.627519, 1024010240.000000, 112.139999,  -265.860016,  -83.510002, 0.000000,  0.000000 
 10784512.000000, -11.751152 , 2.462214, 4.984250, 1024032256.000000, 64.540001,  -255.080002,  -60.270000, 0.000000,  0.000000 
 10804480.000000, -12.392428 , 2.084148, 3.759124, 1024049920.000000, 68.669998,  -237.020004,  -34.930000, 0.000000,  0.000000 
 10825984.000000, -12.047862 , 2.112862, 3.917051, 1024069888.000000, 69.440002,  -217.070007,  -2.450000, 0.000000,  0.000000 
 10845696.000000, -13.359130 , 2.629712, 3.725625, 1024091136.000000, 49.770000,  -211.889999,  29.610001, 0.000000,  0.000000 
 10865920.000000, -13.899906 , 2.636890, 3.072384, 1024110848.000000, 38.849998,  -198.729996,  58.869999, 0.000000,  0.000000 
 10885376.000000, -14.002798 , 2.065006, 1.835295, 1024131072.000000, 15.610000,  -183.259995,  82.599998, 0.000000,  0.000000 
 10905344.000000, -12.866207 , 1.718047, 1.423729, 1024150528.000000, -21.490000,  -173.389999,  98.070000, 0.000000,  0.000000 
 10925824.000000, -12.830315 , 1.873580, 0.660419, 1024170496.000000, -54.670002,  -167.300003,  101.010002, 0.000000,  0.000000 
 10946048.000000, -12.894921 , 2.419144, -1.213161, 1024190976.000000, -70.279999,  -149.380005,  94.919998, 0.000000,  0.000000 
 10966272.000000, -12.031113 , 2.608176, -2.526821, 1024211200.000000, -85.330002,  -125.370003,  83.790001, 0.000000,  0.000000 
 10985728.000000, -9.188439 , 1.969293, -5.891129, 1024231424.000000, -95.269997,  -116.760002,  75.809998, 0.000000,  0.000000 
 11005440.000000, -7.606783 , 1.234696, -4.053442, 1024250880.000000, -98.980003,  -95.620003,  61.459999, 0.000000,  0.000000 
 11025920.000000, -9.341579 , 1.780260, -4.479364, 1024270848.000000, -115.360001,  -50.610001,  32.340000, 0.000000,  0.000000 
 11046144.000000, -10.466206 , 1.091127, -4.161119, 1024291072.000000, -77.910004,  10.430000,  7.490000, 0.000000,  0.000000 
 11066368.000000, -9.449257 , 0.748954, -5.319244, 1024311296.000000, 3.850000,  48.790001,  5.950000, 0.000000,  0.000000 
 11085824.000000, -8.516055 , 1.811367, -6.623333, 1024331776.000000, 81.970001,  64.959999,  9.800000, 0.000000,  0.000000 
 11105792.000000, -8.939585 , 2.242075, -6.250053, 1024351232.000000, 124.599998,  92.470001,  12.810000, 0.000000,  0.000000 
 11125760.000000, -9.020942 , 1.009771, -4.582255, 1024371200.000000, 113.260002,  137.690002,  -3.430000, 0.000000,  0.000000 
 11147264.000000, -9.913465 , 0.921237, -3.335595, 1024390912.000000, 98.139999,  171.570007,  -22.330000, 0.000000,  0.000000 
 11167488.000000, -10.815558 , 1.289732, -3.017349, 1024412416.000000, 122.290001,  198.449997,  -36.330002, 0.000000,  0.000000 
 11186944.000000, -10.973484 , 1.079163, -2.878566, 1024432640.000000, 159.600006,  222.389999,  -43.540001, 0.000000,  0.000000 
 11206912.000000, -11.447264 , 1.043271, -3.026921, 1024452096.000000, 167.229996,  233.869995,  -51.520000, 0.000000,  0.000000 
 11226880.000000, -12.327823 , 1.576870, -3.036492, 1024472064.000000, 142.729996,  238.979996,  -64.120003, 0.000000,  0.000000 
 11247104.000000, -13.682159 , 1.892723, -1.866402, 1024492288.000000, 94.290001,  244.930008,  -71.540001, 0.000000,  0.000000 
 11267584.000000, -15.163318 , 1.617548, -1.478764, 1024512256.000000, 12.390000,  249.339996,  -80.220001, 0.000000,  0.000000 
 11287040.000000, -16.996220 , 0.555135, -0.756132, 1024532736.000000, -90.720001,  256.549988,  -88.550003, 0.000000,  0.000000 
 11306752.000000, -19.379471 , -0.765703, 1.184447, 1024552192.000000, -179.130005,  269.360016,  -89.250000, 0.000000,  0.000000 
 11326976.000000, -21.461226 , -1.210768, 4.058227, 1024572160.000000, -222.180008,  282.799988,  -77.139999, 0.000000,  0.000000 
 11347200.000000, -20.985056 , -1.337588, 6.348158, 1024592128.000000, -204.680008,  290.290009,  -48.650002, 0.000000,  0.000000 
 11367424.000000, -19.750359 , -1.119841, 7.913064, 1024612352.000000, -128.660004,  280.489990,  -10.570000, 0.000000,  0.000000 
 11386880.000000, -19.539789 , 0.064606, 8.461020, 1024632576.000000, -17.430000,  265.860016,  17.430000, 0.000000,  0.000000 
 11406848.000000, -19.448862 , 2.933600, 8.573483, 1024652032.000000, 96.180000,  242.270004,  24.080000, 0.000000,  0.000000 
 11426816.000000, -16.618155 , 4.548756, 8.975478, 1024672000.000000, 162.050003,  204.259995,  14.980000, 0.000000,  0.000000 
 11447040.000000, -13.356737 , 4.692325, 7.946564, 1024691968.000000, 167.649994,  139.580002,  3.990000, 0.000000,  0.000000 
 11467264.000000, -11.447264 , 5.690133, 6.362515, 1024712192.000000, 156.589996,  81.970001,  -5.390000, 0.000000,  0.000000 
 11486720.000000, -12.083755 , 8.037491, 6.589834, 1024732416.000000, 162.680008,  42.560001,  -0.140000, 0.000000,  0.000000 
 11506688.000000, -16.017555 , 10.317852, 8.707481, 1024752128.000000, 143.360001,  22.469999,  6.580000, 0.000000,  0.000000 
 11526912.000000, -18.128025 , 7.977671, 5.084748, 1024771840.000000, 94.709999,  35.070000,  24.920000, 0.000000,  0.000000 
 11547136.000000, -17.295322 , 5.156533, 3.031706, 1024792064.000000, 45.849998,  13.230000,  52.639999, 0.000000,  0.000000 
 11567360.000000, -12.356536 , 4.223332, 3.206382, 1024812288.000000, -38.500000,  -31.710001,  70.559998, 0.000000,  0.000000 
 11586816.000000, -8.922836 , 3.658626, 3.749553, 1024832512.000000, -104.860001,  -97.510002,  85.820000, 0.000000,  0.000000 
 11606784.000000, -9.736395 , 1.576870, 4.264010, 1024851968.000000, -145.740005,  -141.539993,  58.730000, 0.000000,  0.000000 
 11626752.000000, -14.644074 , 0.593420, 5.029713, 1024871936.000000, -157.360001,  -147.979996,  16.660000, 0.000000,  0.000000 
 11646976.000000, -19.724037 , 0.531207, 4.354938, 1024891904.000000, -128.869995,  -136.009995,  -4.340000, 0.000000,  0.000000 
 11667200.000000, -19.558933 , 1.191626, 2.713461, 1024912128.000000, -54.180000,  -151.199997,  -3.920000, 3286495232.000000,  1005.554932 
 11686656.000000, -15.457633 , 2.103291, 0.870987, 1024932352.000000, 35.000000,  -213.080002,  21.280001, 0.000000,  0.000000 
 11706624.000000, -13.481163 , 2.622534, 0.976272, 1024951808.000000, 85.680000,  -275.100006,  47.670002, 0.000000,  0.000000 
 11726592.000000, -12.239288 , 4.034299, 1.890330, 1024971776.000000, 68.250000,  -284.549988,  37.099998, 0.000000,  0.000000 
 11746816.000000, -11.215159 , 3.814159, 1.998007, 1024992000.000000, 17.010000,  -288.750000,  28.559999, 0.000000,  0.000000 
 11769088.000000, -11.696117 , 2.294717, 3.134598, 1025012224.000000, -33.110001,  -292.040009,  6.020000, 0.000000,  0.000000 
 11786752.000000, -12.835101 , 2.170290, 5.089533, 1025034496.000000, -80.849998,  -274.959991,  -17.850000, 0.000000,  0.000000 
 11806720.000000, -13.423735 , 2.163112, 5.235496, 1025051904.000000, -101.150002,  -259.700012,  -14.210000, 0.000000,  0.000000 
 11826688.000000, -12.457035 , 0.547956, 4.130012, 1025071872.000000, -88.760002,  -254.660004,  13.440001, 0.000000,  0.000000 
 11846912.000000, -11.925828 , -0.227318, 3.596412, 1025091840.000000, -67.760002,  -254.869995,  45.990002, 0.000000,  0.000000 
 11867136.000000, -13.550553 , 0.868595, 3.175276, 1025112064.000000, -43.119999,  -248.430008,  76.230003, 0.000000,  0.000000 
 11886592.000000, -15.744773 , 1.641476, 1.332802, 1025132288.000000, -42.349998,  -222.880005,  93.800003, 0.000000,  0.000000 
 11906560.000000, -14.797215 , 0.327817, -1.493121, 1025151744.000000, -73.360001,  -203.839996,  89.879997, 0.000000,  0.000000 
 11926528.000000, -11.267801 , -0.023928, -1.356731, 1025171712.000000, -124.040001,  -210.770004,  73.080002, 0.000000,  0.000000 
 11946752.000000, -8.731410 , -0.011964, -2.955136, 1025191680.000000, -180.039993,  -227.990005,  49.420002, 0.000000,  0.000000 
 11966976.000000, -6.879365 , 0.325424, -0.763310, 1025211904.000000, -200.690002,  -209.580002,  21.840000, 0.000000,  0.000000 
 11986432.000000, -5.809773 , 1.624727, 1.146162, 1025232128.000000, -203.770004,  -182.070007,  -20.160000, 0.000000,  0.000000 
 12006400.000000, -5.953342 , 1.933401, -0.177069, 1025251584.000000, -149.520004,  -147.839996,  -42.840000, 0.000000,  0.000000 
 12026368.000000, -7.044470 , 1.450050, -3.615555, 1025271552.000000, -71.470001,  -102.760002,  -42.840000, 0.000000,  0.000000 
 12046592.000000, -7.211967 , 1.856830, -4.969893, 1025291520.000000, -15.610000,  -54.810001,  -34.860001, 0.000000,  0.000000 
 12067072.000000, -6.699903 , 2.627320, -3.809374, 1025312000.000000, 16.170000,  -16.100000,  -25.059999, 0.000000,  0.000000 
 12086272.000000, -8.288737 , 2.287539, -2.170290, 1025332224.000000, 17.639999,  17.639999,  -28.559999, 0.000000,  0.000000 
 12106240.000000, -9.992428 , 1.672583, -2.505285, 1025351680.000000, 14.420000,  80.989998,  -36.470001, 0.000000,  0.000000 
 12126464.000000, -10.238889 , 1.885544, -3.034099, 1025371648.000000, 37.450001,  129.430008,  -31.850000, 0.000000,  0.000000 
 12146688.000000, -10.348958 , 1.993221, -2.428715, 1025391616.000000, 69.230003,  163.169998,  -15.330000, 0.000000,  0.000000 
 12166912.000000, -11.478370 , 1.828116, -1.462015, 1025411840.000000, 80.639999,  203.350006,  -5.670000, 0.000000,  0.000000 
 12186368.000000, -12.854243 , 1.572084, 0.332602, 1025432064.000000, 78.959999,  243.809998,  0.560000, 0.000000,  0.000000 
 12206336.000000, -12.815958 , 0.715454, 0.009571, 1025451520.000000, 87.010002,  270.410004,  3.220000, 0.000000,  0.000000 
 12226304.000000, -12.397215 , 0.674776, -0.497707, 1025471488.000000, 127.820000,  275.589996,  8.960000, 0.000000,  0.000000 
 12246528.000000, -12.349358 , 1.500300, -0.576670, 1025491456.000000, 163.169998,  276.149994,  11.690000, 0.000000,  0.000000 
 12266752.000000, -12.811172 , 1.483550, -0.217747, 1025511680.000000, 172.270004,  277.690002,  9.030000, 0.000000,  0.000000 
 12286208.000000, -14.225330 , 1.665405, 0.452243, 1025532160.000000, 144.830002,  279.299988,  -0.630000, 0.000000,  0.000000 
 12306176.000000, -15.964913 , 3.735196, 0.129212, 1025551360.000000, 96.320000,  292.390015,  -4.550000, 0.000000,  0.000000 
 12326144.000000, -18.647268 , 4.297509, 0.193819, 1025571328.000000, 87.639999,  308.000000,  15.050000, 0.000000,  0.000000 
 12346624.000000, -20.501705 , 3.407379, 1.469193, 1025591552.000000, 79.870003,  318.290009,  6.930000, 0.000000,  0.000000 
 12366848.000000, -20.786449 , 4.019942, 3.402594, 1025611776.000000, 55.930000,  320.670013,  -13.930000, 0.000000,  0.000000 
 12386304.000000, -20.623739 , 4.898108, 5.704489, 1025632000.000000, 36.189999,  310.589996,  -23.799999, 0.000000,  0.000000 
 12406272.000000, -19.422541 , 4.986642, 6.821937, 1025651456.000000, 17.080000,  295.329987,  -38.009998, 0.000000,  0.000000 
 12426240.000000, -17.637495 , 5.347959, 6.300302, 1025671424.000000, 21.139999,  260.610016,  -44.029999, 0.000000,  0.000000 
 12446464.000000, -16.316658 , 6.166305, 5.592027, 1025691392.000000, 39.549999,  209.229996,  -46.970001, 0.000000,  0.000000 
 12466688.000000, -15.005391 , 6.321837, 5.692525, 1025711616.000000, 37.590000,  158.199997,  -45.360001, 0.000000,  0.000000 
 12486144.000000, -14.033905 , 6.022735, 5.417351, 1025731840.000000, 6.860000,  110.879997,  -44.240002, 0.000000,  0.000000 
 12506112.000000, -13.471591 , 5.632704, 5.154140, 1025751296.000000, -37.939999,  74.269997,  -38.920002, 0.000000,  0.000000 
 12526080.000000, -13.418950 , 5.022535, 4.792823, 1025771264.000000, -91.840004,  48.439999,  -32.830002, 0.000000,  0.000000 
 12546304.000000, -14.294723 , 3.976871, 5.481956, 1025791232.000000, -147.210007,  29.610001,  -26.670000, 0.000000,  0.000000 
 12566784.000000, -14.404793 , 2.593820, 5.618347, 1025811712.000000, -189.490005,  17.639999,  -23.309999, 0.000000,  0.000000 
 12585984.000000, -12.366108 , 1.349552, 4.730610, 1025831936.000000, -200.270004,  -3.570000,  -14.420000, 0.000000,  0.000000 
 12606208.000000, -9.791430 , 0.533599, 4.476971, 1025851392.000000, -182.559998,  -43.189999,  -3.010000, 0.000000,  0.000000 
 12626176.000000, -8.133204 , 0.337388, 4.711468, 1025871360.000000, -148.119995,  -81.970001,  -4.760000, 0.000000,  0.000000 
 12646400.000000, -8.410772 , 0.315853, 4.790431, 1025911552.000000, -61.810001,  -117.389999,  -23.520000, 3287494656.000000,  1005.560242 
 12666624.000000, -11.140982 , 0.562313, 4.601398, 0.000000, 0.000000,  0.000000,  0.000000, 0.000000,  0.000000 
 12686080.000000, -13.914263 , 0.581456, 3.924229, 1025931776.000000, -11.760000,  -119.209999,  -21.280001, 0.000000,  0.000000 
 12706048.000000, -14.907285 , 0.926022, 2.663212, 1025951232.000000, 34.439999,  -132.580002,  -12.880000, 0.000000,  0.000000 
 12726016.000000, -13.835299 , 1.390230, 1.823331, 1025971200.000000, 81.970001,  -161.910004,  3.990000, 0.000000,  0.000000 
 12746240.000000, -11.980864 , 1.684547, 1.397408, 1025991168.000000, 113.750000,  -199.220001,  12.740000, 0.000000,  0.000000 
 12768512.000000, -11.097912 , 1.847259, 1.095913, 1026011392.000000, 115.570000,  -223.649994,  12.110000, 0.000000,  0.000000 
 12785920.000000, -11.021341 , 1.593620, 0.808774, 1026033664.000000, 96.459999,  -232.610001,  -0.910000, 0.000000,  0.000000 
 12805888.000000, -11.461621 , 1.342373, 0.825524, 1026051072.000000, 69.160004,  -233.449997,  -17.710001, 0.000000,  0.000000 
 12825856.000000, -11.586047 , 1.170090, 1.344766, 1026071296.000000, 48.509998,  -228.130005,  -30.240000, 0.000000,  0.000000 
 12846336.000000, -11.102697 , 0.952343, 1.701297, 1026091264.000000, 39.900002,  -224.559998,  -35.349998, 0.000000,  0.000000 
 12866560.000000, -10.612168 , 1.143769, 2.565106, 1026111488.000000, 38.990002,  -220.430008,  -32.689999, 0.000000,  0.000000 
 12886016.000000, -10.061819 , 1.873580, 3.519842, 1026131712.000000, 43.259998,  -208.529999,  -26.600000, 0.000000,  0.000000 
 12906752.000000, -9.006584 , 2.108077, 4.622933, 1026151168.000000, 45.639999,  -198.940002,  -17.150000, 0.000000,  0.000000 
 12925952.000000, -8.238488 , 2.581856, 6.601797, 1026171904.000000, 28.910000,  -187.529999,  -15.820000, 0.000000,  0.000000 
 12946944.000000, -9.631111 , 3.101098, 7.841280, 1026191104.000000, 5.810000,  -171.639999,  -13.720000, 0.000000,  0.000000 
 12967168.000000, -10.502099 , 1.897508, 7.860423, 1026212096.000000, -21.070000,  -146.930008,  -3.990000, 0.000000,  0.000000 
 12986624.000000, -9.765109 , 0.504886, 8.532805, 1026232320.000000, -54.950001,  -138.180008,  9.240000, 0.000000,  0.000000 
 13006592.000000, -10.315458 , 0.160319, 8.705089, 1026251776.000000, -67.830002,  -146.300003,  18.760000, 0.000000,  0.000000 
 13026560.000000, -11.906685 , 0.351745, 7.278966, 1026271744.000000, -52.709999,  -146.720001,  25.760000, 0.000000,  0.000000 
 13047296.000000, -12.114861 , 1.019342, 5.532206, 1026291712.000000, -28.910000,  -146.789993,  33.110001, 0.000000,  0.000000 
 13067520.000000, -11.169697 , 1.402194, 3.653840, 1026312448.000000, -29.049999,  -151.270004,  41.230000, 0.000000,  0.000000 
 13086976.000000, -9.399008 , 1.134198, 0.660419, 1026332672.000000, -61.670002,  -147.419998,  43.959999, 0.000000,  0.000000 
 13106944.000000, -8.391629 , 0.744168, 1.600798, 1026352128.000000, -118.370003,  -130.059998,  34.860001, 0.000000,  0.000000 
 13126912.000000, -9.882358 , 0.634098, 3.519842, 1026372096.000000, -183.680008,  -91.699997,  13.510000, 0.000000,  0.000000 
 13147648.000000, -9.841680 , 0.684347, 4.366901, 1026392064.000000, -199.570007,  -40.250000,  0.210000, 0.000000,  0.000000 
 13167872.000000, -8.085347 , 1.091127, 2.237289, 1026412800.000000, -130.339996,  -18.129999,  13.300000, 0.000000,  0.000000 
 13187328.000000, -6.824330 , 1.258625, 0.184247, 1026433024.000000, -10.430000,  -16.940001,  37.099998, 0.000000,  0.000000 
 13207296.000000, -7.075576 , 3.266203, -0.358923, 1026452480.000000, 75.809998,  -10.290000,  44.799999, 0.000000,  0.000000 
 13227264.000000, -6.611369 , 5.661418, -1.428515, 1026472448.000000, 112.489998,  -2.170000,  24.500000, 0.000000,  0.000000 
 13247232.000000, -4.642076 , 6.719046, -2.234896, 1026492416.000000, 124.320000,  -5.320000,  8.050000, 0.000000,  0.000000 
 13268992.000000, -2.541178 , 6.379266, -2.019542, 1026512384.000000, 104.300003,  -7.910000,  2.240000, 0.000000,  0.000000 
 13288192.000000, -2.050649 , 4.756931, -0.878166, 1026534144.000000, -10.710000,  14.420000,  -0.490000, 0.000000,  0.000000 
 13308416.000000, -2.880959 , 3.115455, -0.057428, 1026553344.000000, -62.160000,  47.950001,  6.580000, 0.000000,  0.000000 
 13328384.000000, -3.979264 , 2.129612, 0.122034, 1026573568.000000, -63.980000,  81.129997,  27.230000, 0.000000,  0.000000 
 13348608.000000, -5.374279 , 1.739582, -0.004786, 1026593536.000000, -18.549999,  103.949997,  46.970001, 0.000000,  0.000000 
 13368832.000000, -7.094719 , 1.574477, 0.035892, 1026613760.000000, 34.650002,  121.940002,  59.639999, 0.000000,  0.000000 
 13388288.000000, -9.255438 , 1.624727, 0.521635, 1026633984.000000, 72.519997,  140.210007,  65.590004, 0.000000,  0.000000 
 13408256.000000, -10.846665 , 1.660619, 0.404387, 1026653440.000000, 95.830002,  159.949997,  64.610001, 0.000000,  0.000000 
 13428224.000000, -10.660025 , 1.605584, 0.526421, 1026673408.000000, 109.199997,  172.690002,  59.290001, 0.000000,  0.000000 
 13448448.000000, -10.176675 , 1.483550, 0.942772, 1026693376.000000, 112.000000,  164.570007,  44.029999, 0.000000,  0.000000 
 13468672.000000, -10.748559 , 1.179662, 0.870987, 1026713856.000000, 100.449997,  165.059998,  19.389999, 0.000000,  0.000000 
 13488128.000000, -12.222539 , 0.940379, 0.904487, 1026734080.000000, 81.690002,  175.699997,  -6.580000, 0.000000,  0.000000 
 13508352.000000, -14.333008 , 1.308874, 1.636691, 1026753280.000000, 72.870003,  187.949997,  -32.619999, 0.000000,  0.000000 
 13528064.000000, -16.158731 , 1.249053, 2.297110, 1026773504.000000, 58.869999,  195.089996,  -43.400002, 0.000000,  0.000000 
 13548544.000000, -16.651653 , 1.873580, 2.983850, 1026793216.000000, 57.680000,  207.199997,  -56.700001, 0.000000,  0.000000 
 13568768.000000, -16.211372 , 2.349752, 2.364109, 1026813696.000000, 66.639999,  211.750000,  -63.070000, 0.000000,  0.000000 
 13588224.000000, -15.960127 , 2.852244, 2.256432, 1026833920.000000, 80.150002,  206.220001,  -57.540001, 0.000000,  0.000000 
 13608192.000000, -18.795622 , 3.440879, 4.321437, 1026853376.000000, 88.690002,  206.710007,  -46.689999, 0.000000,  0.000000 
 13628160.000000, -21.817757 , 6.008378, 6.716653, 1026873344.000000, 87.430000,  231.210007,  -38.290001, 0.000000,  0.000000 
 13648384.000000, -22.834705 , 6.664011, 6.046663, 1026913792.000000, 133.839996,  212.309998,  9.240000, 3288496640.000000,  1005.563232 
 13668608.000000, -19.846071 , 7.841280, 4.981857, 0.000000, 0.000000,  0.000000,  0.000000, 0.000000,  0.000000 
 13688064.000000, -13.653446 , 8.779266, 4.218546, 1026933760.000000, 117.320000,  170.309998,  22.120001, 0.000000,  0.000000 
 13708032.000000, -8.542377 , 7.726424, 4.273581, 1026953216.000000, 29.120001,  110.459999,  28.910000, 0.000000,  0.000000 
 13728000.000000, -7.860423 , 5.515456, 4.594220, 1026973440.000000, -106.889999,  70.980003,  -1.750000, 0.000000,  0.000000 
 13748480.000000, -10.066606 , 3.220739, 4.737789, 1026993152.000000, -209.020004,  67.129997,  -35.490002, 0.000000,  0.000000 
 13770496.000000, -12.598210 , 1.225125, 3.677768, 1027013632.000000, -234.360001,  71.120003,  -28.210001, 0.000000,  0.000000 
 13787904.000000, -13.406984 , 0.296710, 2.426322, 1027035904.000000, -197.680008,  63.560001,  -12.600000, 0.000000,  0.000000 
 13808128.000000, -10.887343 , 0.832702, 1.330409, 1027053312.000000, -149.309998,  33.529999,  4.830000, 0.000000,  0.000000 
 13827840.000000, -6.977471 , 1.186840, -0.246461, 1027073280.000000, -117.949997,  -10.570000,  24.639999, 0.000000,  0.000000 
 13848320.000000, -4.342973 , 1.423729, 0.801596, 1027093248.000000, -113.260002,  -44.029999,  24.080000, 0.000000,  0.000000 
 13868544.000000, -4.242475 , 1.402194, 1.383051, 1027113472.000000, -133.210007,  -46.130001,  1.960000, 0.000000,  0.000000 
 13888000.000000, -5.345565 , 1.330409, 0.531207, 1027133696.000000, -141.539993,  -26.180000,  -13.160000, 0.000000,  0.000000 
 13907968.000000, -5.809773 , 1.423729, -0.265603, 1027153152.000000, -134.610001,  -13.020000,  -15.610000, 0.000000,  0.000000 
 13927936.000000, -6.101698 , 1.545763, -0.981057, 1027173120.000000, -118.370003,  -15.540000,  -6.020000, 0.000000,  0.000000 
 13948160.000000, -7.111469 , 1.433301, -1.210768, 1027193088.000000, -109.129997,  -16.660000,  6.510000, 0.000000,  0.000000 
 13968384.000000, -7.934600 , 1.323231, -1.232304, 1027213312.000000, -115.709999,  -7.280000,  13.230000, 0.000000,  0.000000 
 13987840.000000, -8.161918 , 0.897308, -0.751346, 1027233536.000000, -126.139999,  -1.820000,  14.210000, 0.000000,  0.000000 
 14007808.000000, -8.559127 , 0.667598, 0.480957, 1027252992.000000, -135.309998,  0.490000,  8.470000, 0.000000,  0.000000 
 14027776.000000, -9.284152 , 1.098306, 0.665205, 1027272960.000000, -137.970001,  10.850000,  -0.840000, 0.000000,  0.000000 
 14048000.000000, -9.590433 , 1.021735, 0.574277, 1027292928.000000, -115.150002,  22.049999,  -6.720000, 0.000000,  0.000000 
 14068480.000000, -10.497313 , 0.468993, 1.545763, 1027313408.000000, -76.230003,  31.430000,  -9.380000, 0.000000,  0.000000 
 14087680.000000, -12.169895 , 0.600598, 1.921437, 1027333632.000000, -38.920002,  45.500000,  -11.830000, 0.000000,  0.000000 
 14107648.000000, -12.918849 , 1.253839, 1.538585, 1027353088.000000, 9.590000,  58.310001,  -6.370000, 0.000000,  0.000000 
 14127872.000000, -11.411370 , 1.768296, 1.308874, 1027373056.000000, 68.739998,  52.080002,  -6.370000, 0.000000,  0.000000 
 14148096.000000, -11.631511 , 2.706282, 0.770489, 1027393024.000000, 115.430000,  23.799999,  0.770000, 0.000000,  0.000000 
 14168320.000000, -14.572289 , 3.558127, -0.234497, 1027413248.000000, 137.270004,  22.049999,  -2.310000, 0.000000,  0.000000 
 14187776.000000, -16.424334 , 4.376472, -0.263210, 1027433472.000000, 129.080002,  38.779999,  -13.720000, 0.000000,  0.000000 
 14207744.000000, -14.500504 , 4.366901, 1.222732, 1027452928.000000, 105.000000,  34.509998,  -25.900000, 0.000000,  0.000000 
 14227712.000000, -12.052648 , 3.670590, 2.017149, 1027472896.000000, 81.480003,  1.470000,  -33.670002, 0.000000,  0.000000 
 14247936.000000, -10.478169 , 3.400201, 1.442872, 1027492864.000000, 77.769997,  -13.930000,  -46.200001, 0.000000,  0.000000 
 14268160.000000, -8.712267 , 4.043870, -0.086142, 1027513088.000000, 106.820000,  -23.100000,  -60.830002, 0.000000,  0.000000 
 14287616.000000, -8.238488 , 5.513064, -1.785046, 1027533568.000000, 151.899994,  -47.529999,  -68.110001, 0.000000,  0.000000 
 14307584.000000, -8.906086 , 6.786045, -3.213561, 1027552768.000000, 172.339996,  -59.080002,  -67.690002, 0.000000,  0.000000 
 14327552.000000, -8.779266 , 6.977471, -4.163511, 1027572736.000000, 143.149994,  -59.150002,  -49.279999, 0.000000,  0.000000 
 14348032.000000, -7.197611 , 5.915058, -4.027121, 1027592960.000000, 71.540001,  -63.910000,  -24.850000, 0.000000,  0.000000 
 14368256.000000, -5.924629 , 4.247260, -2.742175, 1027633408.000000, -123.550003,  -59.849998,  4.830000, 0.000000,  0.000000 
 14387712.000000, -6.230910 , 2.567499, -2.194218, 0.000000, 0.000000,  0.000000,  0.000000, 0.000000,  0.000000 
 14407680.000000, -5.962914 , 2.170290, -2.407180, 1027652864.000000, -202.789993,  -40.250000,  3.080000, 0.000000,  0.000000 
 14427648.000000, -4.943572 , 2.167897, -1.952543, 1027672832.000000, -209.580002,  -32.970001,  8.960000, 0.000000,  0.000000 
 14447872.000000, -4.443472 , 1.519442, -1.031307, 1027692800.000000, -157.570007,  -33.389999,  10.640000, 0.000000,  0.000000 
 14468096.000000, -5.065606 , 1.430908, -0.564706, 1027713024.000000, -98.840004,  -19.670000,  10.220000, 0.000000,  0.000000 
 14487552.000000, -5.989235 , 1.916651, 0.098106, 1027733248.000000, -42.560001,  2.310000,  23.240000, 0.000000,  0.000000 
 14507520.000000, -7.295716 , 2.167897, 1.067199, 1027752704.000000, -1.190000,  19.180000,  38.290001, 0.000000,  0.000000 
 14527488.000000, -9.207582 , 1.732404, 2.081756, 1027772672.000000, 7.350000,  33.880001,  44.799999, 0.000000,  0.000000 
 14547712.000000, -11.016556 , 0.579063, 3.701697, 1027792640.000000, -1.680000,  46.619999,  46.410000, 0.000000,  0.000000 
 14568192.000000, -11.787045 , -0.356531, 5.259424, 1027813120.000000, -14.560000,  51.730000,  40.740002, 0.000000,  0.000000 
 14587392.000000, -11.126624 , -0.552742, 6.472585, 1027833344.000000, -6.300000,  39.970001,  33.740002, 0.000000,  0.000000 
 14607360.000000, -11.109876 , -0.533599, 7.077969, 1027852800.000000, 20.230000,  15.050000,  24.290001, 0.000000,  0.000000 
 14627584.000000, -12.306287 , -0.337388, 7.125826, 1027872768.000000, 41.160000,  -2.870000,  9.240000, 0.000000,  0.000000 
 14647808.000000, -12.526425 , 0.086142, 6.979864, 1027912960.000000, 53.200001,  -47.529999,  -19.670000, 3289496064.000000,  1005.565857 
 14668032.000000, -11.464014 , 0.641276, 7.345965, 0.000000, 0.000000,  0.000000,  0.000000, 0.000000,  0.000000 
 14687488.000000, -11.949757 , 0.583849, 7.585248, 1027933184.000000, 37.939999,  -79.940002,  -29.750000, 0.000000,  0.000000 
 14707456.000000, -14.914464 , -0.526421, 7.322037, 1027952640.000000, 8.960000,  -94.779999,  -40.459999, 0.000000,  0.000000 
 14727424.000000, -18.826727 , -1.447658, 6.912865, 1027972608.000000, -16.660000,  -94.360001,  -47.950001, 0.000000,  0.000000 
 14747648.000000, -20.784058 , -1.579263, 5.704489, 1027992576.000000, -20.650000,  -94.709999,  -45.779999, 0.000000,  0.000000 
 14769920.000000, -17.472391 , -0.650848, 4.910072, 1028012800.000000, 2.870000,  -117.320000,  -39.759998, 0.000000,  0.000000 
 14787328.000000, -14.127225 , -0.279960, 4.192225, 1028035072.000000, 28.770000,  -170.100006,  -41.439999, 0.000000,  0.000000 
 14807296.000000, -14.349757 , -0.787239, 3.680161, 1028052480.000000, 23.520000,  -195.580002,  -55.860001, 0.000000,  0.000000 
 14827264.000000, -18.458235 , -1.517050, 3.701697, 1028072448.000000, 8.820000,  -191.100006,  -76.720001, 0.000000,  0.000000 
 14847744.000000, -20.664417 , -1.414158, 2.648855, 1028092672.000000, 5.880000,  -168.630005,  -82.739998, 0.000000,  0.000000 
 14867968.000000, -16.376478 , -0.418744, 2.378466, 1028112896.000000, 28.210001,  -174.440002,  -70.279999, 0.000000,  0.000000 
 14887424.000000, -11.873186 , 0.191426, 2.861816, 1028133120.000000, 48.860001,  -214.970001,  -53.830002, 0.000000,  0.000000 
 14907392.000000, -9.951750 , 0.299103, 3.323631, 1028152576.000000, 38.849998,  -230.020004,  -56.209999, 0.000000,  0.000000 
 14928128.000000, -10.370493 , 0.758525, 3.751946, 1028172544.000000, 7.210000,  -219.240005,  -76.370003, 0.000000,  0.000000 
 14947840.000000, -10.918450 , 0.990629, 3.763910, 1028193280.000000, -23.799999,  -203.839996,  -96.180000, 0.000000,  0.000000 
 14968320.000000, -10.073784 , 0.600598, 4.211368, 1028212992.000000, -48.090000,  -201.110001,  -109.690002, 0.000000,  0.000000 
 14987776.000000, -9.966106 , 0.495314, 3.897908, 1028233728.000000, -63.910000,  -209.440002,  -118.930000, 0.000000,  0.000000 
 15007744.000000, -9.753145 , 0.753739, 2.902494, 1028252928.000000, -58.939999,  -207.550003,  -122.080002, 0.000000,  0.000000 
 15027712.000000, -8.695518 , 1.378266, 2.115255, 1028272896.000000, -43.680000,  -202.300003,  -115.010002, 0.000000,  0.000000 
 15047936.000000, -7.106683 , 2.065006, 0.933201, 1028292864.000000, -26.950001,  -197.050003,  -102.620003, 0.000000,  0.000000 
 15068672.000000, -5.481956 , 2.799603, 0.021535, 1028313088.000000, -6.440000,  -187.250000,  -83.930000, 0.000000,  0.000000 
 15088128.000000, -4.125226 , 3.215954, -0.363709, 1028333824.000000, 7.770000,  -170.520004,  -62.720001, 0.000000,  0.000000 
 15108096.000000, -3.790231 , 3.471986, -0.593420, 1028353280.000000, 9.660000,  -146.089996,  -45.920002, 0.000000,  0.000000 
 15128064.000000, -3.381058 , 3.316452, -0.571885, 1028373248.000000, 2.870000,  -111.020004,  -34.439999, 0.000000,  0.000000 
 15148288.000000, -2.354537 , 2.770889, -0.445065, 1028393216.000000, 0.700000,  -77.070000,  -20.230000, 0.000000,  0.000000 
 15168768.000000, -2.447858 , 2.557927, -1.021735, 1028413440.000000, 16.030001,  -51.029999,  -7.210000, 0.000000,  0.000000 
 15189248.000000, -4.831109 , 3.632305, -3.316452, 1028433920.000000, 45.990002,  -17.920000,  3.990000, 0.000000,  0.000000 
 15209472.000000, -6.738188 , 4.398008, -4.560720, 1028454656.000000, 67.970001,  24.990000,  18.480000, 0.000000,  0.000000 
 15229440.000000, -8.968300 , 3.335595, -2.653640, 1028474624.000000, 45.150002,  72.519997,  31.290001, 0.000000,  0.000000 
 15249664.000000, -12.698709 , 1.785046, -0.354138, 1028494592.000000, -10.780000,  136.080002,  39.130001, 0.000000,  0.000000 
 15269888.000000, -15.096318 , 0.555135, 0.954736, 1028514816.000000, -37.170002,  209.020004,  56.349998, 0.000000,  0.000000 
 15289344.000000, -13.316057 , -0.007178, 2.201397, 1028535296.000000, -5.040000,  249.130005,  81.059998, 0.000000,  0.000000 
 15309312.000000, -12.471392 , -0.765703, 2.153540, 1028554496.000000, 57.470001,  247.029999,  95.760002, 0.000000,  0.000000 
 15329280.000000, -15.311671 , -1.222732, 1.517050, 1028574464.000000, 116.900002,  268.519989,  94.010002, 0.000000,  0.000000 
 15349504.000000, -18.673588 , -0.902094, 0.918844, 1028594432.000000, 168.839996,  310.450012,  82.599998, 0.000000,  0.000000 
 15369984.000000, -19.518253 , 0.595813, 1.261017, 1028614656.000000, 215.809998,  327.529999,  71.540001, 0.000000,  0.000000 
 15389184.000000, -17.529818 , 2.409572, 0.787239, 1028635136.000000, 250.880005,  303.450012,  45.849998, 0.000000,  0.000000 
 15409152.000000, -16.443478 , 2.967100, 0.191426, 1028654592.000000, 236.880005,  264.529999,  5.320000, 0.000000,  0.000000 
 15429376.000000, -15.785451 , 2.538785, 0.713061, 1028674304.000000, 152.110001,  251.860001,  -39.830002, 0.000000,  0.000000 
 15449600.000000, -15.598811 , 1.981257, 1.356731, 1028694528.000000, 41.369999,  251.160004,  -69.160004, 0.000000,  0.000000 
 15469824.000000, -16.118053 , 1.064806, 1.775474, 1028714752.000000, -44.310001,  254.800003,  -77.489998, 0.000000,  0.000000 
 15489280.000000, -16.524832 , -0.052642, 2.050649, 1028734976.000000, -94.639999,  265.299988,  -70.769997, 0.000000,  0.000000 
 15509248.000000, -16.618155 , -0.550349, 2.177469, 1028754432.000000, -110.040001,  271.179993,  -46.900002, 0.000000,  0.000000 
 15529216.000000, -16.981861 , -0.256032, 2.309074, 1028774400.000000, -87.290001,  271.600006,  -8.750000, 0.000000,  0.000000 
 15549440.000000, -17.099110 , -0.083749, 3.467200, 1028794368.000000, -48.090000,  274.959991,  28.420000, 0.000000,  0.000000 
 15569920.000000, -18.003597 , 0.595813, 4.493721, 1028814592.000000, -11.060000,  278.529999,  58.240002, 0.000000,  0.000000 
 15589120.000000, -18.771694 , 1.607977, 5.802595, 1028835072.000000, 26.880001,  287.630005,  81.129997, 0.000000,  0.000000 
 15609088.000000, -17.766708 , 2.892922, 6.819544, 1028854272.000000, 40.950001,  284.899994,  78.120003, 0.000000,  0.000000 
 15629312.000000, -16.725830 , 3.854837, 8.236095, 1028874240.000000, 36.400002,  258.160004,  66.290001, 0.000000,  0.000000 
 15649536.000000, -15.347565 , 4.307081, 9.305687, 1028914688.000000, -41.930000,  171.149994,  2.100000, 3290497792.000000,  1005.568237 
 15669760.000000, -13.134203 , 4.838287, 9.434900, 0.000000, 0.000000,  0.000000,  0.000000, 0.000000,  0.000000 
 15689216.000000, -12.500106 , 4.850252, 9.461221, 1028934912.000000, -74.480003,  98.769997,  -30.730000, 0.000000,  0.000000 
 15709184.000000, -13.777873 , 3.515057, 9.092726, 1028954368.000000, -102.620003,  48.299999,  -58.520000, 0.000000,  0.000000 
 15729152.000000, -14.117653 , 1.083949, 8.544770, 1028974336.000000, -124.320000,  16.170000,  -71.260002, 0.000000,  0.000000 
 15749376.000000, -13.777873 , 0.330210, 7.233503, 1028994304.000000, -101.500000,  -27.370001,  -64.889999, 0.000000,  0.000000 
 15771648.000000, -12.736995 , 1.808974, 5.828916, 1029014528.000000, -26.809999,  -80.290001,  -48.090000, 0.000000,  0.000000 
 15789056.000000, -11.243874 , 3.148954, 4.486543, 1029036800.000000, 49.420002,  -134.190002,  -29.889999, 0.000000,  0.000000 
 15809024.000000, -11.023734 , 3.589234, 3.785445, 1029054208.000000, 83.860001,  -183.190002,  -20.090000, 0.000000,  0.000000 
 15828992.000000, -12.859028 , 2.909672, 3.364309, 1029074176.000000, 82.389999,  -197.610001,  -19.670000, 0.000000,  0.000000 
 15849216.000000, -16.065411 , 2.026721, 3.163311, 1029094400.000000, 59.709999,  -206.149994,  -22.049999, 0.000000,  0.000000 
 15869696.000000, -19.185652 , 1.454836, 2.498107, 1029114368.000000, 43.189999,  -202.930008,  -28.840000, 0.000000,  0.000000 
 15888896.000000, -19.762323 , 1.359123, 2.108077, 1029134848.000000, 57.959999,  -207.339996,  -27.930000, 0.000000,  0.000000 
 15908864.000000, -18.314665 , 1.430908, 0.832702, 1029154304.000000, 103.599998,  -235.690002,  -10.710000, 0.000000,  0.000000 
 15928832.000000, -16.122839 , 1.670190, 0.196211, 1029174272.000000, 149.380005,  -274.260010,  15.680000, 0.000000,  0.000000 
 15949312.000000, -14.955141 , 1.603191, -0.373280, 1029193984.000000, 169.820007,  -290.989990,  35.910000, 0.000000,  0.000000 
 15969536.000000, -14.309079 , 1.069592, -0.567099, 1029214464.000000, 162.399994,  -285.809998,  46.340000, 0.000000,  0.000000 
 15988992.000000, -14.163116 , 0.978664, -0.265603, 1029234688.000000, 137.479996,  -274.820007,  48.509998, 0.000000,  0.000000 
 16008960.000000, -14.287544 , 0.842274, -0.107677, 1029254144.000000, 117.250000,  -260.679993,  52.290001, 0.000000,  0.000000 
 16028928.000000, -14.112868 , 0.483350, 0.047856, 1029274112.000000, 104.300003,  -244.160004,  61.880001, 0.000000,  0.000000 
 16049152.000000, -13.634303 , 0.179462, 0.409173, 1029294080.000000, 96.320000,  -224.699997,  79.519997, 0.000000,  0.000000 
 16069376.000000, -13.397413 , -0.148355, 0.863809, 1029314304.000000, 96.180000,  -202.300003,  100.730003, 0.000000,  0.000000 
 16088832.000000, -12.997812 , 0.413958, 0.985843, 1029334528.000000, 86.730003,  -175.910004,  116.690002, 0.000000,  0.000000 
 16108800.000000, -12.418750 , 0.882952, 0.040678, 1029353984.000000, 68.110001,  -156.729996,  130.199997, 0.000000,  0.000000 
 16128768.000000, -12.282358 , 0.820738, -0.971486, 1029373952.000000, 40.040001,  -144.970001,  137.410004, 0.000000,  0.000000 
 16148992.000000, -11.976077 , 1.091127, -2.299503, 1029393920.000000, -17.850000,  -136.360001,  124.389999, 0.000000,  0.000000 
 16169472.000000, -10.557133 , 1.213161, -3.462414, 1029414400.000000, -91.699997,  -133.559998,  104.440002, 0.000000,  0.000000 
 16188672.000000, -8.494520 , 0.782453, -4.244867, 1029434624.000000, -166.949997,  -137.830002,  83.370003, 0.000000,  0.000000 
 16208640.000000, -6.687939 , 0.782453, -3.299703, 1029453824.000000, -249.619995,  -135.940002,  50.189999, 0.000000,  0.000000 
 16228608.000000, -6.788438 , -0.425922, -1.033699, 1029474048.000000, -319.619995,  -119.419998,  6.440000, 0.000000,  0.000000 
 16249088.000000, -7.690532 , -0.468993, 0.122034, 1029494016.000000, -347.549988,  -81.269997,  -36.959999, 0.000000,  0.000000 
 16269312.000000, -7.834101 , 0.725025, -0.516850, 1029514240.000000, -306.809998,  -47.320000,  -59.080002, 0.000000,  0.000000 
 16288768.000000, -7.556533 , 2.615355, -1.983650, 1029534464.000000, -211.330002,  -24.500000,  -54.180000, 0.000000,  0.000000 
 16308736.000000, -8.116454 , 2.718246, -1.607977, 1029553920.000000, -112.699997,  5.600000,  -41.090000, 0.000000,  0.000000 
 16328704.000000, -10.217353 , 1.471586, -0.208176, 1029573888.000000, -56.420002,  51.240002,  -29.330000, 0.000000,  0.000000 
 16348928.000000, -12.000006 , 0.397209, 1.057628, 1029593856.000000, -37.799999,  105.629997,  -20.719999, 0.000000,  0.000000 
 16369152.000000, -11.334801 , 1.213161, 0.306281, 1029614080.000000, -22.120001,  138.389999,  -13.020000, 0.000000,  0.000000 
 16388608.000000, -10.119246 , 2.065006, -0.942772, 1029634560.000000, 8.260000,  147.979996,  6.300000, 0.000000,  0.000000 
 16408576.000000, -10.777272 , 1.330409, -0.729811, 1029653760.000000, 32.830002,  159.039993,  24.430000, 0.000000,  0.000000 
 16428544.000000, -12.095718 , 0.502493, 0.409173, 1029673728.000000, 25.969999,  186.199997,  24.150000, 0.000000,  0.000000 
 16449024.000000, -12.385249 , 0.538385, 1.296910, 1029693696.000000, 19.040001,  204.399994,  25.830000, 0.000000,  0.000000 
 16469248.000000, -11.531013 , 1.124627, 1.660619, 1029714176.000000, 29.820000,  206.779999,  25.830000, 0.000000,  0.000000 
 16488704.000000, -11.002198 , 1.222732, 1.828116, 1029734400.000000, 51.240002,  205.940002,  23.940001, 0.000000,  0.000000 
 16508672.000000, -11.231910 , 1.179662, 1.696511, 1029753856.000000, 68.809998,  212.380005,  18.690001, 0.000000,  0.000000 
 16528640.000000, -12.122040 , 0.935594, 1.335195, 1029773824.000000, 76.230003,  221.479996,  12.740000, 0.000000,  0.000000 
 16548864.000000, -13.397413 , 0.612563, 1.275374, 1029793792.000000, 69.790001,  232.960007,  12.810000, 0.000000,  0.000000 
 16569088.000000, -14.804394 , 0.428315, 1.512264, 1029814016.000000, 45.990002,  244.860001,  15.330000, 0.000000,  0.000000 
 16588544.000000, -15.991233 , 0.552742, 1.895115, 1029834240.000000, 15.820000,  253.470001,  20.230000, 0.000000,  0.000000 
 16608512.000000, -16.328621 , 0.813560, 2.780460, 1029853696.000000, -3.080000,  256.549988,  29.120001, 0.000000,  0.000000 
 16628480.000000, -16.141981 , 0.665205, 3.189633, 1029873664.000000, -8.610000,  251.300003,  39.549999, 0.000000,  0.000000 
 16648960.000000, -16.113268 , 0.519243, 4.180261, 1029914112.000000, -14.560000,  238.490005,  46.410000, 3291497216.000000,  1005.568115 
 16669184.000000, -15.974483 , 0.954736, 5.850451, 0.000000, 0.000000,  0.000000,  0.000000, 0.000000,  0.000000 
 16688384.000000, -15.802199 , 1.328017, 7.606783, 1029934336.000000, -9.310000,  225.330002,  44.730000, 0.000000,  0.000000 
 16708352.000000, -15.608383 , 1.773082, 8.583055, 1029953792.000000, 9.310000,  203.070007,  36.119999, 0.000000,  0.000000 
 16728576.000000, -14.708681 , 2.383251, 7.944171, 1029973760.000000, 39.340000,  174.089996,  23.030001, 0.000000,  0.000000 
 16748800.000000, -13.170096 , 3.065206, 6.750153, 1029993728.000000, 62.580002,  129.360001,  10.850000, 0.000000,  0.000000 
 16771072.000000, -12.717852 , 4.273581, 6.553941, 1030013952.000000, 54.040001,  77.000000,  -2.730000, 0.000000,  0.000000 
 16788480.000000, -12.208181 , 4.350152, 6.178268, 1030036224.000000, 8.750000,  41.020000,  -17.150000, 0.000000,  0.000000 
 16808448.000000, -12.263215 , 2.914458, 6.783652, 1030053632.000000, -48.720001,  8.820000,  -24.710001, 0.000000,  0.000000 
 16828416.000000, -12.751352 , 1.198804, 6.987042, 1030073600.000000, -94.430000,  -14.000000,  -30.660000, 0.000000,  0.000000 
 16848896.000000, -12.050256 , 0.849452, 6.288338, 1030093568.000000, -100.519997,  -36.049999,  -28.700001, 0.000000,  0.000000 
 16868864.000000, -10.861022 , 0.880559, 5.247460, 1030114048.000000, -65.940002,  -71.050003,  -17.570000, 0.000000,  0.000000 
 16888320.000000, -10.827522 , 0.610170, 5.008178, 1030134272.000000, -16.660000,  -106.889999,  -10.710000, 0.000000,  0.000000 
 16908288.000000, -11.968900 , 0.279960, 4.871787, 1030153472.000000, 19.530001,  -126.629997,  -13.300000, 0.000000,  0.000000 
 16928256.000000, -13.753943 , 0.411566, 4.328616, 1030173440.000000, 54.529999,  -143.779999,  -13.090000, 0.000000,  0.000000 
 16949504.000000, -15.689737 , 0.937986, 3.512664, 1030193664.000000, 90.370003,  -162.889999,  -9.100000, 0.000000,  0.000000 
 16968960.000000, -16.120445 , 1.438086, 2.581856, 1030214656.000000, 124.180000,  -181.369995,  -0.280000, 0.000000,  0.000000 
 16988928.000000, -14.340185 , 1.986043, 2.124826, 1030234112.000000, 147.210007,  -207.619995,  8.330000, 0.000000,  0.000000 
 17008640.000000, -12.985848 , 2.376073, 1.421337, 1030254080.000000, 148.750000,  -240.800003,  12.250000, 0.000000,  0.000000 
 17028864.000000, -12.535997 , 1.990828, 1.435694, 1030274048.000000, 120.190002,  -252.419998,  9.800000, 0.000000,  0.000000 
 17049088.000000, -12.315859 , 1.636691, 1.935793, 1030294016.000000, 62.510002,  -252.070007,  -0.490000, 0.000000,  0.000000 
 17069312.000000, -12.102897 , 1.517050, 2.120041, 1030314240.000000, 20.930000,  -250.460007,  -4.760000, 0.000000,  0.000000 
 17089280.000000, -12.160326 , 0.961915, 2.423929, 1030334464.000000, 8.540000,  -248.430008,  3.360000, 0.000000,  0.000000 
 17108992.000000, -12.447463 , 0.433101, 1.804188, 1030354432.000000, 4.340000,  -241.990005,  13.860000, 0.000000,  0.000000 
 17128960.000000, -12.466606 , 0.294317, 1.701297, 1030374400.000000, 9.240000,  -226.100006,  33.110001, 0.000000,  0.000000 
 17149440.000000, -11.837293 , 1.172483, 2.330609, 1030394368.000000, 15.050000,  -210.630005,  56.700001, 0.000000,  0.000000 
 17169664.000000, -11.531013 , 1.481157, 1.976472, 1030414592.000000, 14.770000,  -198.169998,  73.220001, 0.000000,  0.000000 
 17189376.000000, -11.447264 , 1.098306, 0.591027, 1030434816.000000, 2.520000,  -185.850006,  78.889999, 0.000000,  0.000000 
 17209088.000000, -10.884951 , 1.270589, -1.146162, 1030454528.000000, -37.450001,  -175.630005,  72.660004, 0.000000,  0.000000 
 17229056.000000, -9.473185 , 1.473979, -1.797010, 1030474240.000000, -89.180000,  -168.279999,  63.000000, 0.000000,  0.000000 
 17249536.000000, -8.286345 , 0.679562, -1.383051, 1030494464.000000, -138.949997,  -161.490005,  54.110001, 0.000000,  0.000000 
 17269760.000000, -7.319644 , -0.040678, -0.442672, 1030514688.000000, -188.020004,  -139.580002,  33.110001, 0.000000,  0.000000 
 17288960.000000, -6.891330 , -0.066999, 0.964308, 1030534912.000000, -202.509995,  -109.410004,  16.030001, 0.000000,  0.000000 
 17310208.000000, -8.152347 , -0.026321, 0.849452, 1030554112.000000, -165.339996,  -79.169998,  9.590000, 0.000000,  0.000000 
 17330176.000000, -9.801002 , 0.043071, -0.270389, 1030575360.000000, -98.000000,  -42.209999,  8.050000, 0.000000,  0.000000 
 17350656.000000, -10.540384 , 0.016750, -1.919044, 1030595328.000000, -31.780001,  -8.820000,  5.180000, 0.000000,  0.000000 
 17370880.000000, -10.686346 , 0.126820, -1.677369, 1030615808.000000, 21.700001,  17.360001,  2.310000, 0.000000,  0.000000 
 17390336.000000, -11.315658 , 0.375673, -0.631705, 1030636032.000000, 36.470001,  42.279999,  -9.030000, 0.000000,  0.000000 
 17410048.000000, -11.282159 , 0.906880, 0.358923, 1030655488.000000, 24.710001,  79.590004,  -27.299999, 0.000000,  0.000000 
 17430272.000000, -10.683953 , 1.148555, 1.026521, 1030675456.000000, 32.689999,  101.360001,  -34.509998, 0.000000,  0.000000 
 17450496.000000, -10.267602 , 1.512264, -0.449851, 1030695424.000000, 56.209999,  114.660004,  -31.430000, 0.000000,  0.000000 
 17470720.000000, -10.241282 , 1.933401, -1.519442, 1030715648.000000, 84.489998,  128.309998,  -20.020000, 0.000000,  0.000000 
 17490176.000000, -10.825130 , 2.378466, -1.143769, 1030735872.000000, 89.110001,  142.520004,  -9.520000, 0.000000,  0.000000 
 17510144.000000, -11.172089 , 2.562713, -0.643669, 1030755328.000000, 72.309998,  159.039993,  -7.420000, 0.000000,  0.000000 
 17530112.000000, -10.973484 , 2.959922, -0.198604, 1030775296.000000, 61.320000,  169.680008,  -8.750000, 0.000000,  0.000000 
 17550336.000000, -10.131211 , 2.835495, 0.416351, 1030795264.000000, 67.970001,  178.220001,  -11.340000, 0.000000,  0.000000 
 17570560.000000, -9.755538 , 2.928815, 0.904487, 1030815744.000000, 75.529999,  185.850006,  -12.810000, 0.000000,  0.000000 
 17590272.000000, -10.573883 , 3.560520, 0.842274, 1030835968.000000, 78.540001,  199.009995,  -13.160000, 0.000000,  0.000000 
 17609984.000000, -11.789437 , 3.352344, 0.516850, 1030855424.000000, 70.070000,  212.380005,  -14.700000, 0.000000,  0.000000 
 17629952.000000, -12.995420 , 2.667997, -0.191426, 1030895360.000000, -3.640000,  222.460007,  -25.620001, 0.000000,  0.000000 
 17650432.000000, -14.380865 , 2.411965, -1.019342, 1030915584.000000, -49.490002,  228.270004,  -23.450001, 3292498688.000000,  1005.569214 
 17670656.000000, -15.893128 , 2.277967, -1.342373, 0.000000, 0.000000,  0.000000,  0.000000, 0.000000,  0.000000 
 17690112.000000, -17.254644 , 1.655833, -1.375873, 1030935808.000000, -87.639999,  236.740005,  -18.200001, 0.000000,  0.000000 
 17710080.000000, -18.092133 , 0.198604, -0.267996, 1030955264.000000, -126.910004,  248.710007,  -7.560000, 0.000000,  0.000000 
 17730048.000000, -18.214167 , -0.411566, 1.215554, 1030975232.000000, -174.300003,  267.329987,  7.980000, 0.000000,  0.000000 
 17750272.000000, -18.199810 , -0.610170, 3.390630, 1030995200.000000, -194.180008,  282.029999,  40.950001, 0.000000,  0.000000 
 17772544.000000, -18.879372 , -0.789631, 6.661618, 1031015424.000000, -178.220001,  291.130005,  70.209999, 0.000000,  0.000000 
 17789952.000000, -19.300507 , -0.270389, 8.841480, 1031037696.000000, -126.279999,  293.720001,  93.309998, 0.000000,  0.000000 
 17809920.000000, -18.594624 , -0.844666, 9.724431, 1031055360.000000, -38.500000,  276.500000,  115.290001, 0.000000,  0.000000 
 17829888.000000, -16.173088 , 0.995414, 7.855636, 1031095040.000000, 10.150000,  130.130005,  68.389999, 0.000000,  0.000000 
 17850368.000000, -13.127025 , 3.658626, 7.980063, 0.000000, 0.000000,  0.000000,  0.000000, 0.000000,  0.000000 
 17870592.000000, -12.708281 , 2.857030, 8.504091, 1031115520.000000, -62.090000,  48.090000,  24.219999, 0.000000,  0.000000 
 17890048.000000, -12.667603 , -0.535992, 8.231310, 1031135744.000000, -178.009995,  9.590000,  -40.389999, 0.000000,  0.000000 
 17909760.000000, -10.547562 , -2.304288, 7.539784, 1031155200.000000, -260.329987,  -19.040001,  -72.169998, 0.000000,  0.000000 
 17929984.000000, -7.838887 , -2.053042, 7.082755, 1031175168.000000, -235.619995,  -69.510002,  -72.379997, 0.000000,  0.000000 
 17950208.000000, -6.994221 , -1.588834, 6.594619, 1031195136.000000, -157.149994,  -114.590004,  -69.650002, 0.000000,  0.000000 
 17970432.000000, -8.673983 , -1.677369, 6.345766, 1031215360.000000, -89.879997,  -130.199997,  -80.150002, 0.000000,  0.000000 
 17989888.000000, -11.626726 , -2.060220, 6.151947, 1031235584.000000, -37.099998,  -123.270004,  -92.610001, 0.000000,  0.000000 
 18009856.000000, -15.046068 , -2.569891, 5.316852, 1031255040.000000, 20.790001,  -115.849998,  -98.980003, 0.000000,  0.000000 
 18029824.000000, -17.515463 , -2.344966, 3.646662, 1031275008.000000, 90.440002,  -120.120003,  -96.809998, 0.000000,  0.000000 
 18050048.000000, -17.020147 , -0.870987, 2.311467, 1031294976.000000, 163.660004,  -144.899994,  -83.300003, 0.000000,  0.000000 
 18070272.000000, -14.967105 , 0.516850, 1.663012, 1031315200.000000, 208.320007,  -189.630005,  -67.550003, 0.000000,  0.000000 
 18089728.000000, -14.483756 , 1.447658, 1.012164, 1031335424.000000, 204.820007,  -228.410004,  -60.619999, 0.000000,  0.000000 
 18109696.000000, -14.900107 , 1.299303, 1.808974, 1031354880.000000, 186.130005,  -238.419998,  -70.980003, 0.000000,  0.000000 
 18129664.000000, -15.629916 , 1.765903, 2.285146, 1031374848.000000, 119.279999,  -246.470001,  -81.690002, 0.000000,  0.000000 
 18149888.000000, -16.051056 , 0.763310, 1.674976, 1031394816.000000, 48.020000,  -254.100006,  -98.209999, 0.000000,  0.000000 
 18170368.000000, -16.039089 , 0.107677, 1.952543, 1031415296.000000, -4.270000,  -265.720001,  -111.370003, 0.000000,  0.000000 
 18189568.000000, -15.505490 , -0.811167, 2.364109, 1031435520.000000, -53.900002,  -269.850006,  -125.020004, 0.000000,  0.000000 
 18209536.000000, -14.653646 , -0.725025, 3.802195, 1031454976.000000, -69.580002,  -268.309998,  -125.510002, 0.000000,  0.000000 
 18229760.000000, -13.854443 , -0.753739, 2.864209, 1031474944.000000, -50.049999,  -264.670013,  -115.010002, 0.000000,  0.000000 
 18249984.000000, -12.928421 , -1.131805, 1.600798, 1031494912.000000, -17.150000,  -260.959991,  -100.309998, 0.000000,  0.000000 
 18270208.000000, -11.916256 , -0.875773, 1.122234, 1031515136.000000, 0.770000,  -253.960007,  -85.050003, 0.000000,  0.000000 
 18289664.000000, -11.736795 , 1.304088, -0.155533, 1031535360.000000, 0.280000,  -247.169998,  -64.400002, 0.000000,  0.000000 
 18309632.000000, -10.030712 , 1.773082, -1.074377, 1031554816.000000, -14.770000,  -229.809998,  -44.380001, 0.000000,  0.000000 
 18329600.000000, -7.917850 , 0.619741, -1.275374, 1031574784.000000, -40.389999,  -218.750000,  -19.600000, 0.000000,  0.000000 
 18349824.000000, -6.967900 , -0.634098, -0.203390, 1031594752.000000, -82.739998,  -194.389999,  -10.290000, 0.000000,  0.000000 
 18370048.000000, -8.472985 , -0.768096, 0.993021, 1031614976.000000, -116.620003,  -145.320007,  -8.890000, 0.000000,  0.000000 
 18389504.000000, -10.435099 , -0.555135, 0.222532, 1031635456.000000, -108.570000,  -84.209999,  -8.610000, 0.000000,  0.000000 
 18409472.000000, -10.494920 , -0.256032, -1.064806, 1031654656.000000, -56.000000,  -43.680000,  -0.420000, 0.000000,  0.000000 
 18429440.000000, -9.250652 , 0.145962, -1.081556, 1031674624.000000, 5.600000,  -20.370001,  6.090000, 0.000000,  0.000000 
 18449920.000000, -8.915657 , 0.318245, -0.050249, 1031694848.000000, 58.730000,  4.060000,  7.630000, 0.000000,  0.000000 
 18470144.000000, -10.382458 , 1.069592, 0.866202, 1031715072.000000, 95.970001,  47.880001,  4.480000, 0.000000,  0.000000 
 18489600.000000, -10.691131 , 2.076970, -0.153141, 1031735296.000000, 122.500000,  94.290001,  -4.200000, 0.000000,  0.000000 
 18509568.000000, -9.516255 , 2.136791, -0.622134, 1031754752.000000, 159.740005,  112.279999,  0.910000, 0.000000,  0.000000 
 18529536.000000, -9.631111 , 1.679761, -1.548156, 1031774720.000000, 167.789993,  110.389999,  6.650000, 0.000000,  0.000000 
 18549760.000000, -11.308479 , 1.586441, -2.270789, 1031794688.000000, 138.600006,  127.400002,  6.370000, 0.000000,  0.000000 
 18569984.000000, -12.638889 , 1.495514, -2.225325, 1031814912.000000, 84.139999,  157.500000,  11.270000, 0.000000,  0.000000 
 18589440.000000, -12.000006 , 1.174876, -1.430908, 1031854592.000000, -26.600000,  158.899994,  27.650000, 0.000000,  0.000000 
 18609408.000000, -10.219746 , 0.641276, -0.504886, 0.000000, 0.000000,  0.000000,  0.000000, 0.000000,  0.000000 
 18629376.000000, -9.504292 , 0.196211, 0.124427, 1031874560.000000, -61.040001,  152.740005,  30.380001, 0.000000,  0.000000 
 18649856.000000, -9.973285 , -0.129212, 0.473779, 1031915008.000000, -79.660004,  198.940002,  29.750000, 3293498112.000000,  1005.570251 
 18670080.000000, -10.870593 , -0.622134, 1.186840, 0.000000, 0.000000,  0.000000,  0.000000, 0.000000,  0.000000 
 18689280.000000, -12.437892 , 0.129212, 2.411965, 1031935232.000000, -77.139999,  226.940002,  36.680000, 0.000000,  0.000000 
 18709504.000000, -13.995619 , 0.703490, 2.297110, 1031954688.000000, -63.349998,  249.830002,  53.480000, 0.000000,  0.000000 
 18729472.000000, -15.127424 , 0.507278, 1.122234, 1031974656.000000, -44.939999,  264.880005,  80.779999, 0.000000,  0.000000 
