time,seconds_elapsed,z,y,x
1633780331789834000,0.025833984375,0.40693654081523417,0.04887596684992313,-0.0500699989400804
1633780331809713000,0.045712890625,0.30343992598354813,0.10809563305974006,0.033318770625442265
1633780331829592000,0.065592041015625,0.11530863317847251,0.10619418335258961,0.11812412899062037
1633780331849471000,0.085470947265625,0.11104513051509857,0.09050561583340168,0.044065790089219806
1633780331869351000,0.105350830078125,0.056899698829650874,0.050098202121257776,-0.03111950701549649
1633780331889229800,0.125229736328125,0.02254033311009407,0.005866261684894561,-0.07509498847275972
1633780331909108700,0.145108642578125,-0.031661212676763535,-0.04136193795800209,-0.032338673546910286
1633780331928987600,0.164987548828125,0.0004909983873367309,-0.031954058143496514,0.01727086827456951
1633780331948867800,0.184867919921875,-0.0400064316958189,-0.014344751694798468,0.007638532054424285
1633780331968746800,0.204746826171875,-0.019823475366830826,-0.05886895307600498,-0.015612287412583827
1633780331988625700,0.224625732421875,-0.028265725019574164,-0.09754676651656627,-0.07713803860768675
1633780332008505900,0.244505859375,0.02191372564435005,-0.0705927086174488,-0.07708645455092192
1633780332028384800,0.264384765625,0.03799859900474548,-0.04739245029389858,-0.10141542464345693
1633780332048263700,0.284263671875,-0.0046212300598621366,-0.004637012150883675,-0.08301116842478513
1633780332068142600,0.304142578125,-0.005621347013115882,0.08394786475300789,-0.029468671068549154
1633780332088022800,0.324022705078125,-0.03713467565178871,0.07135200255215167,0.021691315065324304
1633780332107901700,0.343901611328125,-0.022010171756148337,0.07605565019845963,0.038515170224756
1633780332127780600,0.363780517578125,0.10195230799913406,0.028072248274087903,0.0349500250890851
1633780332147660800,0.383660888671875,0.08544774792194366,0.031252047353982924,0.04427490279525518
1633780332167539700,0.403539794921875,0.03863455882072449,-0.0034451720178127285,-0.011897504673153161
1633780332187418600,0.423418701171875,0.05765373206734657,-0.030222119784355163,-0.03993044385015964
1633780332207297800,0.4432978515625,0.043726913523674006,-0.00265431390106678,-0.024822014306485653
1633780332227177700,0.463177734375,0.00973930372595787,0.0255278244882822,0.00698021427616477
1633780332247056600,0.483056640625,0.02260170790851116,0.010469371566176415,0.019302374102175234
1633780332266935800,0.502935791015625,-0.027279636591672894,-0.01418050104379654,0.009340805927664042
1633780332286814700,0.522814697265625,0.010897241589426994,0.011999065351486206,0.01871872899532318
1633780332306694700,0.542694580078125,0.022188450932502744,-0.018592472267150877,0.012370090620964764
1633780332326573800,0.56257373046875,0.04298106359243393,0.0003489595681428909,0.011291355473548174
1633780332346452700,0.58245263671875,0.03582943827211857,0.018632219755649566,0.002324351294338703
1633780332366332700,0.602332763671875,0.023407179072499274,0.05170446827411651,-0.018598609746992588
1633780332386211600,0.622211669921875,0.0671808543473482,0.04155658374726772,-0.04191474953517318
1633780332406090800,0.6420908203125,0.07281973701715469,0.025992519390583037,-0.055963002501428126
1633780332425970700,0.661970703125,0.05740297217667102,-0.006239186650514602,-0.07676818238198757
1633780332445849600,0.681849609375,0.011909633502364158,0.031299393627047534,-0.06781053055301309
1633780332465728800,0.701728759765625,0.006268412744998932,0.02742927419543266,-0.057931964486837385
1633780332485607700,0.721607666015625,-0.041186581391096114,0.044698388904333114,-0.022758359774947164
1633780332505487600,0.741487548828125,-0.051774026378989216,0.05094575886130333,-0.0016278934627771376
1633780332525366800,0.76136669921875,-0.015325579425692558,0.018901099824905395,-0.003250526228547096
1633780332545245700,0.78124560546875,0.03895838394761085,0.025457681861519813,0.02531476625949144
1633780332565124900,0.801124755859375,0.047125908312201495,0.008781272348761558,-0.012349632354825734
1633780332585004800,0.8210048828125,-0.016326865422725677,0.026800328642129896,-0.08346475741118192
1633780332604883700,0.8408837890625,-0.023845570489764212,0.008418868777155876,-0.1385878019571304
1633780332624763000,0.860762939453125,0.07491817060112953,0.03574351355433464,-0.021464958963543175
1633780332644642800,0.880642822265625,0.06787351278662682,0.05667933407723903,0.06471095710247754
1633780332664521700,0.900521728515625,0.7135375611782073,0.11743921546638011,0.21616657006964085
1633780332684401000,0.92040087890625,1.3779314444810151,-0.15522972467839716,0.0035290509089827534
1633780332704279600,0.940279541015625,1.193499590715766,-0.4461562060475349,-0.6785293761610984
1633780332724159700,0.96015966796875,-0.23129764983654022,-0.5456307257562876,-1.1947270866841078
1633780332744039000,0.980038818359375,-1.4854291116476057,0.36177228796482086,-0.4890579207934439
1633780332763917600,0.99991748046875,-0.8709551512897014,0.06675649145543575,0.673818275860697
1633780332783797800,1.0197978515625,-2.430536709862947,0.06955868939459324,-0.6177145497143268
1633780332803677000,1.039677001953125,1.899711923572421,-0.29267069468796253,1.5635625910334288
1633780332823555600,1.0595556640625,0.4287199180781841,0.011376549538969993,0.3680744568489492
1633780332843434800,1.079434814453125,-1.1154027900785206,0.08826105177700519,1.286156539364159
1633780332863314700,1.099314697265625,-1.5645634386390446,0.8110282135933637,-0.558562834174186
1633780332883193900,1.11919384765625,-1.4143424820333719,-0.4154699758827686,-0.8947522064626217
1633780332903072800,1.13907275390625,0.5593932936489582,-1.092561428195238,0.704421942308545
1633780332922952700,1.15895263671875,-0.056849429947137826,-0.1830833617657423,-0.17075535672083497
1633780332942831900,1.178831787109375,3.0492110445201397,-1.6983792038887737,-1.268789517238736
1633780332962710500,1.19871044921875,1.6233593264788388,0.5744757119685411,-0.31510902872830626
1633780332982589700,1.218589599609375,0.8456576284259557,0.9616863925725221,-0.0034086393997073174
1633780333002470000,1.238469970703125,0.7529413508057594,0.22191607350707052,0.5014486158110201
1633780333022348500,1.2583486328125,-0.44891281127929683,0.18877192879617213,1.169713787589222
1633780333042227700,1.278227783203125,-0.28116788842082024,0.06718611504435539,1.009943643002212
1633780333062108000,1.29810791015625,0.16334347302913665,0.16460457900613545,0.4397834561452269
1633780333081986600,1.317986572265625,0.13382862473130225,0.08160042484402656,0.12582681232243775
1633780333101865700,1.33786572265625,0.2744283510327339,0.04541033656597137,-0.3101538905389607
1633780333121744600,1.35774462890625,0.1773568008124828,0.07687164275646209,-0.4065384814083576
1633780333141624600,1.37762451171875,0.12309212666153907,-0.08137421487271786,-0.3878755742534995
1633780333161503700,1.397503662109375,0.11064414849877356,-0.1434504395574331,-0.2122938202895224
1633780333181382700,1.417382568359375,0.050642976522445676,-0.2492266897588968,-0.02127250513136387
1633780333201262600,1.4372626953125,-0.17339549596607684,-0.15129939949214458,0.05384118804186582
1633780333221141800,1.457141845703125,0.38594343714714047,-0.28306115482151506,-0.15840163271278143
1633780333241020700,1.477020751953125,0.18955869525969027,-0.30090485454797744,-0.09756883221790194
1633780333260899800,1.49689990234375,-0.23109072908759115,-0.357473129466176,-0.041274551935493946
1633780333280779800,1.51677978515625,-0.12808160551190376,-0.3058119158118963,0.12003025487288832
1633780333300658700,1.53665869140625,-0.1855313394397497,-0.22949089267551898,-0.02029460000991821
1633780333320537900,1.556537841796875,-0.11639116771817207,-0.11980185294449329,0.011546645408868789
1633780333340417500,1.57641748046875,0.15734043322205543,-0.15875293036848306,0.17798764606192707
1633780333360296700,1.596296630859375,0.1364408530563116,-0.13902064041644335,0.32146599653959274
1633780333380176000,1.61617578125,-0.10285597884058952,-0.05693973857909441,0.643537996148318
1633780333400054800,1.6360546875,-0.37587563211917874,0.030613164928555488,0.8850703320123254
1633780333419934700,1.655934814453125,-0.40803894909918303,0.22968524620383976,0.9310738121658563
1633780333439814000,1.67581396484375,-0.39819618499875065,0.37843963738828895,0.7544402110613883
1633780333459692800,1.69569287109375,-0.2710287717223167,0.46031157265007494,0.6156035489097237
1633780333479571700,1.71557177734375,-0.07563128730654715,0.47762569554448125,0.5626745072767139
1633780333499451600,1.73545166015625,-0.06389642584919929,0.4771224221974611,0.4341656162634492
1633780333519330800,1.755330810546875,-0.09463350941836833,0.4792503741368651,0.3105501963801682
1633780333539209700,1.775209716796875,-0.05999766484498977,0.4519996713787317,0.19208821373730897
1633780333559089700,1.795089599609375,0.06774374892711639,0.35049978332221504,0.21128888103067875
1633780333578968800,1.81496875,0.15225743086934088,0.07871113314330577,0.18130422326400875
1633780333598847700,1.83484765625,0.037624504995346066,0.061471244528889656,-0.01925298200249672
1633780333618726700,1.8547265625,-0.23852935465574263,0.1205532558336854,-0.269322698456794
1633780333638606800,1.87460693359375,-0.34009587820768356,0.09806991360783576,-0.32550401988402006
1633780333658485800,1.89448583984375,-0.09343874667584895,-0.02378478021323681,-0.39734745921492576
1633780333678364700,1.91436474609375,-0.01644435432255268,-0.0718058837994933,-0.272231133249402
1633780333698244900,1.934244873046875,-0.24457506456077097,-0.03974631945490837,-0.12111907302290201
1633780333718123800,1.954123779296875,-0.34874855574071406,0.032630642230808735,0.10089520016163588
1633780333738002700,1.974002685546875,-0.3625660686910152,0.14039923529326914,0.19679361494928596
1633780333757881600,1.993881591796875,-0.23477789316773412,0.19899960056096314,0.21084975896105168
1633780333777761800,2.01376171875,-0.17612755127847193,0.2518979547947645,0.2351651389196515
1633780333797640700,2.033640625,-0.027638533031940457,0.2785077293008566,0.20969109044522047
1633780333817519600,2.05351953125,0.07214636780023574,0.17477672119140625,0.09068360274881124
1633780333837399800,2.07339990234375,0.17852876720130442,0.04251753773391247,-0.0495940519914031
1633780333857278700,2.09327880859375,0.18847849880754947,-0.1661380721837282,-0.12224267022535204
1633780333877157600,2.11315771484375,0.12135609664916991,-0.31076866143643855,-0.2082426452025771
1633780333897037600,2.13303759765625,0.016890344524383545,-0.4076052338570356,-0.33888197237327694
1633780333916917200,2.152917236328125,-0.03733516665995121,-0.30064240421950816,-0.5862360001280903
1633780333936796400,2.17279638671875,0.02631342190802097,-0.15021218877732753,-0.8319767474673688
1633780333956675300,2.19267529296875,0.12363573201894759,0.023136545437574384,-1.0281247579894959
1633780333976555300,2.21255517578125,0.26717092725038527,0.06957856313884257,-0.8971475771665572
1633780333996434400,2.232434326171875,0.18494915563762188,0.18977029218375682,-0.5719252968333661
1633780334016313300,2.252313232421875,0.058522331595420835,0.2585124044984579,-0.30347295147031544
1633780334036192500,2.272192626953125,-0.07621814728379249,0.18372458227872848,-0.31679931990280746
1633780334056072400,2.292072509765625,-0.10565233156085013,0.08747077818214893,-0.4143205135866999
1633780334075951400,2.311951416015625,-0.09523790505230426,0.02539455349743366,-0.4656947269931435
1633780334095830500,2.33183056640625,0.05071195010542869,-0.05186871892511844,-0.24478563857153057
1633780334115710500,2.35171044921875,0.20177578727602957,-0.1291857673615217,0.03393317619673908
1633780334135589400,2.37158935546875,0.3317968364179134,-0.18660159901976583,0.2104968538701534
1633780334155468500,2.391468505859375,0.4281833269834518,-0.2220616194576025,0.32527722539082166
1633780334175347500,2.411347412109375,0.43178456634581086,-0.2272597726225853,0.4922619044665247
1633780334195227400,2.431227294921875,0.36722763076126574,-0.15902502530813217,0.6125548288635909
1633780334215106600,2.4511064453125,0.2601940739750862,-0.09436112221777439,0.6160011699251831
1633780334234985500,2.4709853515625,0.10863105511069297,0.030911271092295644,0.6215697638377546
1633780334254865400,2.490865478515625,-0.04676818091571331,0.12937398341000078,0.5395661650203168
1633780334274744600,2.51074462890625,-0.1329945119947195,0.27939970970451833,0.4454296453386545
1633780334294623500,2.53062353515625,-0.11270400363802908,0.3701350426405668,0.2871725356630981
1633780334314502400,2.55050244140625,-0.0037438627034425734,0.46019817540347574,0.04988149063065648
1633780334334382300,2.57038232421875,0.19077157818078994,0.4853349547475576,-0.10934168759807944
1633780334354261500,2.590261474609375,0.3782131351560354,0.4459311651200056,-0.07828180181533098
1633780334374140400,2.610140380859375,0.4832581484735012,0.3585276069551706,-0.05564852972477674
1633780334394020400,2.630020263671875,0.49719256580173965,0.22565409099161624,-0.07599997448846697
1633780334413899500,2.6498994140625,0.46656186521649357,0.07432838801443577,-0.07359773565232754
1633780334433778200,2.669778076171875,0.3721691788166761,-0.07955752083957195,-0.09436170673966407
1633780334453657300,2.6896572265625,0.24738719937205314,-0.1779857463657856,-0.09518661325648427
1633780334473537500,2.70953759765625,0.13871698129475116,-0.2290922487467527,-0.14886033577695487
1633780334493416200,2.729416259765625,0.05936170502901077,-0.21242577610611915,-0.32418226976096626
1633780334513295400,2.74929541015625,-0.07870587244629859,-0.14686580095887183,-0.49969797275140876
1633780334533175600,2.769175537109375,-0.05405015461742878,-0.17461890028119087,-0.47441345549970865
1633780334553054200,2.78905419921875,-0.08519698803126811,-0.1626139897108078,-0.3866967397324741
1633780334572933400,2.808933349609375,-0.2385433831810951,-0.038297289690375325,-0.4997019913394004
1633780334592812300,2.828812255859375,-0.39269934114813804,-0.020959785920381543,-0.6127726363327354
1633780334612692500,2.8486923828125,-0.4586749113589525,0.06394961734116077,-0.6350891706243157
1633780334632571400,2.8685712890625,-0.3730564830452204,0.10231003539562225,-0.5665899271547794
1633780334652450300,2.8884501953125,-0.20651859788894653,0.11633972979187965,-0.4662586444862187
1633780334672330500,2.90833056640625,-0.07058335626721382,0.17922201016247272,-0.34920945125073194
1633780334692209400,2.92820947265625,0.11305296320617199,0.10891571727097034,-0.19315956929586828
1633780334712088300,2.94808837890625,0.2685585822165012,0.11457038203179835,-0.04502119111791253
1633780334731967500,2.967967529296875,0.3288391556560993,0.09528057515025139,0.08514525784403085
1633780334751847400,2.987847412109375,0.2456061611741781,-0.012996259695291518,0.20202683942764996
1633780334771726300,3.007726318359375,0.09307342049479483,-0.08033201234340667,0.2244344860687852
1633780334791605500,3.02760546875,-0.07371347098648548,-0.1168997017621994,0.2634608937513083
1633780334811485200,3.047485107421875,-0.22043489503860472,-0.10582885717153549,0.20172588371969757
1633780334831364400,3.0673642578125,-0.3255202403664589,-0.05531973616182804,0.12705284698605537
1633780334851243500,3.087243408203125,-0.3775625622928142,-0.02018880154788494,0.13527509721256792
1633780334871122400,3.107122314453125,-0.36678631673455236,0.02990764700770378,0.08999233254902064
1633780334891002000,3.127002197265625,-0.2957417726963758,0.11063479614853858,0.10721008239686489
1633780334910881000,3.146881103515625,-0.19817337886989114,0.15137947899103163,0.23755736781843007
1633780334930760200,3.16676025390625,-0.08331891919970512,0.16723171263933181,0.4048704020656645
1633780334950639000,3.18663916015625,-0.04169511543512344,0.18262392756044862,0.5103927505712956
1633780334970519000,3.20651904296875,-0.05955693534016609,0.20918401770591735,0.5831628762930632
1633780334990398200,3.226398193359375,-0.05238076010048389,0.2054740572720766,0.6373552158601582
1633780335010277000,3.246277099609375,-0.05461304919719696,0.23833295530080795,0.6270860430411994
1633780335030157000,3.266156982421875,-0.043103228667378424,0.21594109075069426,0.6168241767458618
1633780335050036200,3.2860361328125,-0.07270692429244519,0.16303309190571308,0.593968932467699
1633780335069915100,3.3059150390625,-0.1383148302346468,0.08717851723730563,0.5200742596954107
1633780335089794000,3.3257939453125,-0.24302549703121185,-0.006492284628748893,0.45519320672303437
1633780335109674200,3.34567431640625,-0.28352351163625716,-0.020495675539970396,0.23792817389219997
1633780335129553200,3.36555322265625,-0.28579028752446173,0.0633557431012392,-0.007552022814750671
1633780335149432000,3.38543212890625,-0.2071206554353237,0.10772855331301688,-0.21832564779967067
1633780335169312000,3.40531201171875,-0.0805184748262167,0.12165244924724102,-0.3556469369523227
1633780335189191200,3.425191162109375,0.07967968591451645,0.06261924552023411,-0.3930063612706959
1633780335209070000,3.445070068359375,0.18986732281744478,-0.0071270754009485245,-0.4359997728880495
1633780335228949000,3.464948974609375,0.28794132807850836,-0.04168167143166065,-0.4756391979023814
1633780335248829200,3.4848291015625,0.3798264155715704,-0.0761263773471117,-0.481322504235804
1633780335268708400,3.504708251953125,0.4028478101968765,-0.157572488412261,-0.464970212110877
1633780335288587000,3.5245869140625,0.3848223241627216,-0.1847428194105625,-0.4103129584457725
1633780335308467200,3.54446728515625,0.38650165555179117,-0.17355507044196128,-0.41607656347379085
1633780335328346000,3.56434619140625,0.4328402128785848,-0.1728174038171768,-0.40694750060066576
1633780335348225000,3.58422509765625,0.4076929121404886,-0.21264321824908256,-0.2977410567548126
1633780335368104200,3.604104248046875,0.36985447213351724,-0.21520283960402012,-0.1704823119331151
1633780335387984100,3.623984130859375,0.23032032923698423,-0.15755261466801165,-0.11360972030609845
1633780335407863000,3.643863037109375,0.08754384341835975,-0.07289046416580676,-0.1375972565498203
1633780335427742000,3.663741943359375,-0.009539981761574745,-0.019909400084614753,-0.13725786852762104
1633780335447622100,3.6836220703125,-0.10073533342480659,0.04627659800648689,-0.10996953717283904
1633780335467501000,3.7035009765625,-0.07160685409605502,0.13073533489108086,-0.062004839948937296
1633780335487380000,3.7233798828125,-0.02642857272028923,0.22545710711479186,-0.06660546561218798
1633780335507259100,3.743259033203125,0.021041618984937668,0.25652853720486163,-0.02380290039181709
1633780335527139000,3.76313916015625,0.013323591953516005,0.2793792514383793,0.04382628224492073
1633780335547018000,3.78301806640625,0.04174772240519523,0.25919863319694997,0.09164631030112505
1633780335566897200,3.802897216796875,0.07445289117693901,0.2186404128372669,0.08227437858283519
1633780335586776000,3.822776123046875,0.0735030431061983,0.1853355246067047,0.11664046630412339
1633780335606656000,3.842656005859375,0.04924947633743286,0.1364104579180479,0.1456739608258009
1633780335626535200,3.86253515625,0.011519172880053519,0.09733224698305129,0.08295797693282365
1633780335646414000,3.8824140625,-0.03367196797728538,0.06526362254917621,0.011641264889761804
1633780335666294000,3.9022939453125,-0.044917584612965585,0.049070612639188764,-0.052328810717538
1633780335686173200,3.922173095703125,-0.07939736184179783,-0.013066986843943595,-0.08077822174094616
1633780335706052000,3.942052001953125,-0.11671733093261719,-0.030468203499913214,-0.12027144321762025
1633780335725931300,3.96193115234375,-0.146078449973464,-0.052669513913989066,-0.16727343288920818
1633780335745811200,3.981811279296875,-0.12498071688711643,-0.051048634713888166,-0.21263393896408378
1633780335765690000,4.001690185546875,-0.07921674457788468,-0.049918753901124,-0.2026400759551674
1633780335785569300,4.0215693359375,-0.02985094838440418,-0.06884791077673434,-0.18072269704900681
1633780335805449000,4.041448974609375,-0.027770634979009626,-0.06043138008713722,-0.14951923807710407
1633780335825328000,4.061328125,-0.03849836522042751,-0.03563596152663231,-0.1420535783715546
1633780335845207300,4.081207275390625,-0.020425532913208005,-0.03397007414102554,-0.13001973396763206
1633780335865086000,4.1010859375,-0.0352396556854248,0.017528642427921293,-0.11750431659184396
1633780335884966100,4.120966064453125,-0.029579730227589605,0.043515316599607466,-0.1021199927162379
1633780335904845300,4.14084521484375,0.024957331123948094,0.08846914156973361,-0.10205825259163975
1633780335924724200,4.16072412109375,0.041351416563987727,0.07825286798179149,-0.0551601616859436
1633780335944604200,4.180604248046875,0.10680910038053988,0.10135901828110218,-0.004026259841397405
1633780335964483300,4.2004833984375,0.1197925005942583,0.1408148303568363,-0.0024435937598347663
1633780335984362200,4.2203623046875,0.10613339307606219,0.08151859177947043,0.03589366261474788
1633780336004241200,4.2402412109375,0.10834814651608467,0.06352934610247611,0.07894633013866842
1633780336024121000,4.26012109375,0.11309329521656036,0.04011749085485935,0.10712043135203421
1633780336044000300,4.280000244140625,0.09259411254525184,0.017983400458097456,0.15138561647087334
1633780336063879200,4.299879150390625,0.03963292220830917,0.023164017966389654,0.16793766895160078
1633780336083759000,4.319759033203125,-0.03464753501117229,0.04405599934756756,0.1147806637816131
1633780336103638300,4.33963818359375,-0.09051379913985728,0.058172787505388256,0.09662526775747537
1633780336123517000,4.359516845703125,-0.1541910292804241,0.07877309246361255,0.0907265651077032
1633780336143396000,4.37939599609375,-0.17843232108950613,0.08796236109137534,0.09274762260653079
1633780336163276300,4.3992763671875,-0.21598025371730326,0.13981120627224444,0.022084040709957477
1633780336183155000,4.419155029296875,-0.1390764622569084,0.12293372122943401,-0.021172917214408515
1633780336203034000,4.4390341796875,-0.058446928271651266,0.09491115731596945,-0.03276698196157813
1633780336222914300,4.458914306640625,-0.016720248654484748,0.0895329714089632,-0.014925766453146933
1633780336242793000,4.47879296875,0.049722354546189305,0.02292494851350784,0.01951155987344682
1633780336262672100,4.498672119140625,0.1141629702746868,0.017111878320574758,-0.07424567816704511
1633780336282551000,4.518551025390625,0.1190910743266344,-0.02440729602575302,-0.11403751726411282
1633780336302431200,4.53843115234375,0.08287234447598457,-0.06944120049476624,-0.13429185832887888
1633780336322310100,4.55831005859375,0.06362462317049503,-0.07569383114874363,-0.10726583117209375
1633780336342189000,4.57818896484375,0.08848433913886547,-0.09495675002336501,-0.08600355517379939
1633780336362069200,4.5980693359375,0.05800795233249664,-0.08755378029048443,-0.09173033532276749
1633780336381948200,4.6179482421875,0.013874211573600768,-0.07954173874855042,-0.06414148665145039
1633780336401827000,4.6378271484375,-0.015629530808329583,-0.055370005044341086,-0.051919426199048754
1633780336421706200,4.657706298828125,-0.029386253482103344,-0.02836041756570339,-0.01526288945302367
1633780336441586200,4.677586181640625,-0.01267243456840515,-0.010647066220641136,0.018867928207665682
1633780336461465000,4.697465087890625,-0.030702596777677536,-0.01421440331339836,0.07812675738409161
1633780336481344300,4.71734423828125,-0.022799276307225225,0.013550386446714401,0.12437778255790471
1633780336501224000,4.737223876953125,0.018950199663639068,0.06198913092315197,0.12364515743441878
1633780336521103000,4.75710302734375,0.0828448719471693,0.1041331591695547,0.12319704834073782
1633780336540982300,4.776982177734375,0.09323124140501021,0.13295476450622082,0.177055698974058
1633780336560861200,4.796861083984375,0.0910796163290739,0.14834931751489638,0.14029387522265313
1633780336580741000,4.8167412109375,0.10848726272583008,0.16821604750156402,0.10207396161742507
1633780336600620300,4.836620361328125,0.0867401258200407,0.14495266081392763,0.010375263541936873
1633780336620499200,4.856499267578125,0.05623860457241535,0.10078735587298869,-0.056227498656511304
1633780336640379100,4.876379150390625,0.06017652854323387,-0.005899579432606696,-0.05876271622255444
1633780336660258000,4.896258056640625,0.04358604374825954,-0.036731940069794654,-0.08925408140234649
1633780336680137200,4.91613720703125,-0.0001578209102153778,-0.07090367426276206,-0.16602138700149952
1633780336700016400,4.936016357421875,-0.005465864190459251,-0.13711480679512023,-0.14936192862354217
1633780336719896000,4.95589599609375,-0.031005379116535184,-0.1520832433462143,-0.15379640393964944
1633780336739775200,4.975775146484375,-0.06676467476189137,-0.1383282742381096,-0.1522481515843421
1633780336759654100,4.995654052734375,-0.056496378725767134,-0.10576923593878745,-0.14572013805508613
1633780336779534000,5.0155341796875,-0.03550678218901157,-0.04991641581356525,-0.16035444728098808
1633780336799413200,5.035413330078125,0.01270341422855854,-0.008514145845174789,-0.14178265247568486
1633780336819292200,5.055292236328125,0.015637129592895507,0.016177812340855597,-0.10319463621042668
1633780336839171000,5.075171142578125,0.014919921234250068,0.062090837731957435,-0.07057203115560114
1633780336859051300,5.09505126953125,0.04084931226074695,0.09612170214951038,-0.09808986041732132
1633780336878930200,5.11493017578125,0.06458966881036758,0.09080196843147277,-0.07994505885243415
1633780336898808800,5.134808837890625,0.10339315445721149,0.09615735798478126,-0.02781286668553948
1633780336918688800,5.154688720703125,0.07493979791104793,0.1048737484037876,-0.004415843680873513
1633780336938567700,5.174567626953125,0.05791968952715396,0.10463350990712642,0.010284735714271664
1633780336958446800,5.19444677734375,0.034630583876371385,0.11051672272682189,0.003184767515957355
1633780336978325800,5.21432568359375,0.014134908336400985,0.09285422478616237,-0.03325988004505634
1633780336998205700,5.234205810546875,-0.033195582637190815,0.05518295803964138,-0.009301350700110197
1633780337018084900,5.2540849609375,-0.04974515089988708,0.04759586391150951,-0.020202976203709838
1633780337037963500,5.273963623046875,-0.049879590934514995,0.028650340422987936,-0.0740559277486056
1633780337057843700,5.29384375,-0.00300853416621685,0.01745908432304859,-0.07849493310935794
1633780337077723000,5.313722900390625,-0.029866730475425717,0.0204302090883255,-0.08125131914541125
1633780337097601500,5.3336015625,-0.031608021184802056,-0.009055997636914252,-0.0744954151444137
1633780337117480700,5.353480712890625,-0.004967851540446281,-0.021148586490750312,-0.051062297913059586
1633780337137361000,5.37336083984375,0.02941314148902893,-0.023660277050733564,-0.05201682215891778
1633780337157239600,5.393239501953125,0.01270867492556572,-0.015675123515725135,-0.050192748536914585
1633780337177118700,5.41311865234375,-0.003929740664362907,-0.011054477977752684,-0.06130158705040812
1633780337196999000,5.4329990234375,-0.03648234922289848,-0.028173370561003684,-0.0595205488525331
1633780337216877800,5.4528779296875,-0.025240239718556403,-0.00798339996933937,-0.0184765177372843
1633780337236756700,5.4727568359375,-0.017380173867940902,0.013145897299051284,-0.0008104396000504494
1633780337256635600,5.4926357421875,-0.010578677159547805,0.05421791239976883,-0.0004535159211605787
1633780337276515800,5.512515869140625,-0.018288520884513854,0.1026736080110073,-0.013456278422474861
1633780337296394800,5.532394775390625,0.0012549684971570967,0.06112637661397457,0.009712927175685762
1633780337316273700,5.552273681640625,0.016854104167222977,0.05065115982890129,0.0564624033909291
1633780337336153900,5.57215380859375,0.054746904709935186,0.03839665841162204,0.03124846715740859
1633780337356032800,5.59203271484375,0.09532090716063976,0.03603752806484699,0.052973026905208824
1633780337375911700,5.61191162109375,0.08415653906762599,0.049321957051753997,0.004915902157500386
1633780337395790800,5.631790771484375,0.0252098445802927,0.07038754143416881,-0.02417655600979924
1633780337415670500,5.65167041015625,0.038428807115554804,0.08449789985120296,-0.054385012594982976
1633780337435549700,5.6715498046875,0.03073240739405155,0.11298165153563022,-0.10246654113158583
1633780337455428900,5.691428955078125,0.04023322618901729,0.11425824734270572,-0.13335486973971128
1633780337475308500,5.71130859375,0.03402618824243545,0.09625205053091049,-0.12007774727642535
1633780337495187700,5.731187744140625,0.016848843470215796,0.07256371642947197,-0.12070640056878328
1633780337515066600,5.751066650390625,-0.0009767360776662827,0.014848025041818617,-0.0840768979601562
1633780337534945800,5.77094580078125,-0.021370120286941525,-0.01796586480140686,-0.09922617097087204
1633780337554825700,5.79082568359375,-0.03814706756472588,-0.018842647635936734,-0.12072992757484316
1633780337574704600,5.81070458984375,-0.04377425979673862,-0.031548399952054024,-0.14456632837746292
1633780337594583800,5.830583740234375,-0.02093874313235283,-0.029892449438571927,-0.12848485255055128
1633780337614463700,5.850463623046875,-0.009755670338869094,-0.05770984616875648,-0.08768646675944328
1633780337634342700,5.8703427734375,-0.027945407024025915,-0.052441550377011294,-0.04052877506949007
1633780337654221800,5.890221923828125,0.021103578305244446,-0.05213876803815364,-0.04551635422371328
1633780337674100700,5.910100830078125,0.024725275933742522,-0.020545944422483444,-0.010058671873435378
1633780337693980700,5.929980712890625,0.01134790796637535,-0.011386486411094665,0.02339892270080745
1633780337713859800,5.94985986328125,0.018190321207046507,-0.02839431983530521,0.05651069951206445
1633780337733738800,5.96973876953125,0.02439209845662117,-0.027084990802407262,0.02095664411522448
1633780337753618700,5.98961865234375,-0.03448211531639099,0.03206394825875759,0.015332301427423953
1633780337773497900,6.009497802734375,0.008304887008666991,0.0414747506827116,0.038038127297535536
1633780337793376800,6.029376708984375,-0.011017068576812743,0.09282149156033992,-0.022033114240318535
1633780337813255700,6.049255615234375,-0.009684358668327332,0.10034428828060626,0.025832323860190808
1633780337833135900,6.069135986328125,0.007114215919375419,0.14946926145553588,0.04606595093049109
1633780337853014800,6.089014892578125,0.04017009782493114,0.1952566146403551,0.017794088431075213
1633780337872893700,6.108893798828125,0.055552960395812985,0.20690496685802937,0.02900594892762601
1633780337892774100,6.128774169921875,0.0678173986852169,0.16754267828464506,0.04328216543085873
1633780337912653000,6.148653076171875,0.06840016700923443,0.13635200572907924,0.06304675021730363
1633780337932532000,6.168531982421875,0.06511223137974739,0.11289689586162567,0.035124577938392756
1633780337952411000,6.188410888671875,0.09287819018363952,0.0385860435038805,0.03558540038317442
1633780337972291000,6.208291015625,0.10131985531449317,0.023268062862753867,0.0017258739445358514
1633780337992170000,6.228169921875,0.06725450410544873,0.003493687334656715,-0.016120492663048207
1633780338012049000,6.248048828125,0.035929391515254976,-0.02536708096861839,-0.017197729973122477
1633780338031928000,6.267927978515625,-0.0017208324432373045,-0.0034942718565464017,-0.06930303413309157
1633780338051808000,6.28780810546875,0.008661445361375808,-0.0007762450695037841,-0.04763531913906335
1633780338071687000,6.30768701171875,0.014440613284707068,0.03226093213558197,-0.034190658089146016
1633780338091566000,6.327566162109375,-0.037300679868459696,0.0649503188163042,-0.057292862865701316
1633780338111446000,6.347446044921875,-0.014717092138528823,0.06488777497410773,-0.04345642601922154
1633780338131325000,6.367324951171875,0.004236614656448364,0.053207274052500725,-0.025472806365415452
1633780338151203800,6.387203857421875,-0.0207394211679697,0.08176233740746974,-0.01798106237053871
1633780338171083000,6.4070830078125,-0.015021043521165846,0.048726329246163366,-0.03938552331849932
1633780338190963000,6.426962890625,-0.00997018987238407,0.030209260302782058,-0.04253317369446158
1633780338210841900,6.446841796875,-0.0011748889982700348,0.02804360670149326,-0.034694662088528276
1633780338230721000,6.466720947265625,0.002683539995551109,0.02527648007571697,-0.05825155183002352
1633780338250601000,6.48660107421875,0.014781389546394347,0.010889642804861068,-0.07682363889627158
1633780338270480000,6.50647998046875,0.042720951351523394,-0.03066401833295822,-0.02731120077371597
1633780338290359000,6.526359130859375,0.013133037817478179,-0.012594108635187149,-0.030091552207246422
1633780338310238000,6.546238037109375,-0.014991232904791832,-0.0008826280534267425,-0.045005993548780675
1633780338330118000,6.566117919921875,-0.01871522186398506,0.021214052942395208,-0.06067578330226242
1633780338349997000,6.5859970703125,-0.03375263199806213,0.0396709161311388,-0.0803760706808418
1633780338369876000,6.6058759765625,-0.05850538046061992,-0.0035737668335437773,-0.10844525021500885
1633780338389756000,6.625755859375,-0.027498832300305365,-0.06427344246804714,-0.060877735615149135
1633780338409635000,6.645635009765625,-0.05391746814846992,-0.053311318948864934,-0.05053761645182967
1633780338429514000,6.665513916015625,-0.03900514569878578,-0.008484335228800773,-0.06395173623301088
1633780338449393200,6.68539306640625,-0.03734159640073776,0.03212999923229217,-0.08334288459718227
1633780338469273000,6.705273193359375,0.03089665804505348,0.033899346992373465,-0.03246602625362575
1633780338489152000,6.725152099609375,0.058148822107911106,0.04760404721796512,0.03342734556645155
1633780338509031200,6.74503125,0.12354220851659774,0.07334872932732105,0.056747723138332366
1633780338528909800,6.764909912109375,0.1437257493674755,0.055039165654778476,0.126145742078498
1633780338548790000,6.7847900390625,0.14762451037168503,0.09479016128480434,0.1089971119441092
1633780338568669200,6.804669189453125,0.04436813403666019,0.10016951623558998,0.0640058045078069
1633780338588547800,6.8245478515625,0.011481178957223892,0.06652209817767143,0.09953925550803541
1633780338608428000,6.844427978515625,0.006705635118484497,0.06804477770030498,0.1293309479858726
1633780338628307200,6.86430712890625,-0.06958090122640133,0.14015958131849765,0.05680420256592333
1633780338648185900,6.884185791015625,-0.047080315604805946,0.02160042191147804,0.09513239885121583
1633780338668065000,6.90406494140625,-0.1151432134836912,0.013186813831329344,0.05543941701874137
1633780338687945000,6.923945068359375,-0.03440612747073173,-0.04232698359787464,0.10935074768736958
1633780338707823900,6.943823974609375,0.020179449197649954,-0.014800678768754004,0.06455715478025377
1633780338727703000,6.963703125,0.07374094351530075,-0.05256839162707329,0.006673705610260367
1633780338747583000,6.9835830078125,0.03353051367998123,-0.06174830790460109,-0.030741759744286536
1633780338767462000,7.0034619140625,0.07081950311064719,-0.04277648093104362,-0.10238909198120236
1633780338787340800,7.0233408203125,0.10068740262985229,-0.04426058200895786,-0.10288067489042878
1633780338807220000,7.043219970703125,0.1216489421159029,-0.020749358040094375,-0.0434642439994961
1633780338827100200,7.06310009765625,0.1736708057761192,-0.0107663086861372,-0.013777034809440373
1633780338846978800,7.082978759765625,0.14266191952824592,0.020019874721765515,-0.013082330543547868
1633780338866858000,7.10285791015625,0.0727449182152748,0.04797463409602642,-0.008060776054486633
1633780338886737000,7.12273681640625,0.03909516206979751,0.08317863394618034,-0.04982501120306551
1633780338906616800,7.142616943359375,-0.003348725906014442,0.07070785942971707,-0.03698825291842222
1633780338926495700,7.162495849609375,-0.031816110977530475,0.024091654205322263,0.040982729382067914
1633780338946375000,7.182375,-0.055148471248149866,0.0033183307677507397,0.05559606888517737
1633780338966254800,7.2022548828125,-0.06557108106315136,0.0076864628493785855,0.05695004077740013
1633780338986133800,7.2221337890625,-0.05722586204409599,-0.011755904245376586,0.06552417318150401
1633780339006013000,7.242012939453125,-0.03331307153701782,-0.0171492877215147,0.03290565977990627
1633780339025891800,7.261891845703125,-0.009323124140501023,0.009939794734120369,0.04539579658396542
1633780339045771800,7.281771728515625,-0.020268881046772002,0.037381343889236446,0.05008541570492089
1633780339065651000,7.30165087890625,0.005880874732136726,0.040599721413850785,0.06224420166276395
1633780339085529900,7.32152978515625,0.019461071795225143,0.04282616529166698,0.059963324183970684
1633780339105409800,7.341409912109375,0.03542904077768325,0.08206278165876865,0.060685939370095726
1633780339125289000,7.3612890625,0.0634562808662653,0.08046820594370364,0.06713767279274761
1633780339145168000,7.38116796875,0.03896890534162521,0.07404957107305526,0.058364583750441665
1633780339165047000,7.401047119140625,0.018487842848896978,0.08528174370527267,0.05518339643105864
1633780339184926700,7.4209267578125,0.04104980326890945,0.027951252242922782,0.018710764884576202
1633780339204806000,7.440805908203125,0.06050678341090679,0.020797288835048673,-0.001778480914607644
1633780339224685000,7.46068505859375,0.015077157622575759,0.045156069543957705,-0.02535721716172993
1633780339244563700,7.480563720703125,0.026724925318360328,-0.015125672939419745,-0.032747035152092575
1633780339264444000,7.50044384765625,0.07994798146188259,-0.022091420298814772,-0.03850903274491429
1633780339284323000,7.520322998046875,0.03237432938218117,0.003692424777150154,-0.05696567673794925
1633780339304201700,7.54020166015625,0.04552548737823963,-0.01718377451300621,-0.04942264094725251
1633780339324082000,7.56008203125,0.01898410193324089,-0.0026940613895654678,-0.0629384675372392
1633780339343960800,7.5799609375,0.007999182060360908,0.01112520512640476,-0.059894715927168725
1633780339363839700,7.59983984375,-0.018526421293616292,0.021463059267401694,-0.041790465568378565
1633780339383719000,7.619718994140625,-0.011675824746489524,0.028752047231793403,-0.03478029454536736
1633780339403598800,7.639598876953125,-0.022681202885508536,0.032472529059648515,-0.02854388437382877
1633780339423478000,7.65947802734375,-0.031171383333206175,0.018717559951543807,-0.016427841579169034
1633780339443356700,7.679356689453125,0.011590484550595283,0.021975100442767143,-0.04141359508000314
1633780339463235800,7.69923583984375,0.04862403791546821,0.03550210601389408,-0.04490589417517185
1633780339483116000,7.719115966796875,0.13716449115574358,0.02666296599805355,-0.0006287994228303432
1633780339502994700,7.73899462890625,0.15307926864624022,0.024888357540965078,0.05747749871760607
1633780339522873900,7.758873779296875,0.1062725092858076,0.03653028001785278,0.056950113842636346
1633780339542754000,7.778754150390625,0.05060556712150573,0.04680149866342544,0.04848397185765207
1633780339562632700,7.7986328125,0.045160161197185515,0.02210720238983631,0.050324265962094064
1633780339582511900,7.818511962890625,-0.02956394813656807,0.05828501570820808,0.03939714069105685
1633780339602390800,7.838390869140625,-0.07606500254869461,0.05060030642449855,0.016066095594689248
1633780339622270700,7.858270751953125,-0.1510544848203659,0.05894903257489204,-0.0029991818159818646
1633780339642150000,7.87814990234375,-0.16699439675211905,0.05294833085536956,-0.04074409832060337
1633780339662028800,7.89802880859375,-0.16333002902567387,0.06024141047298908,-0.03670278704054653
1633780339681908700,7.91790869140625,-0.1145294654995203,0.04029518550932407,-0.021898747270926833
1633780339701788000,7.937787841796875,-0.04543137935400009,0.05177987159788608,-0.0025567718107253313
1633780339721666800,7.957666748046875,-0.011584639331698418,0.03051321168541908,0.005597308550402522
1633780339741546000,7.9775458984375,0.01055588080585003,0.011827800437808036,-0.02395721417069435
1633780339761426000,7.997426025390625,0.050769233250617975,0.012377835536003112,-0.031872882666066284
1633780339781304800,8.017304931640625,0.09703881699442862,0.024241876330971718,-0.051166854266077276
1633780339801184000,8.03718408203125,0.13087562014460563,0.020122166052460668,-0.04529547801464796
1633780339821063000,8.05706298828125,0.13144494446516036,-0.0034890111595392223,-0.022803806351870296
1633780339840942800,8.07694287109375,0.16806582537591455,-0.046342064458131785,-0.016663842292129992
1633780339860822000,8.096822021484375,0.10247253248095511,-0.029686113211512564,-0.012671776981279253
1633780339880701000,8.116700927734374,0.06556114419102668,-0.05470189652442932,-0.0005459434449672699
1633780339900580900,8.136580810546874,0.035332010143995285,-0.06340075128674506,0.03672857906892896
1633780339920460000,8.1564599609375,-0.026227497190237044,-0.03613689678609371,0.011162979853525757
1633780339940339200,8.176339111328126,-0.1377168643414974,-0.04538754021227359,0.03155329532288015
1633780339960217900,8.1962177734375,-0.1903384474605322,-0.07137246081829071,0.06433284450508654
1633780339980098000,8.21609814453125,-0.2290542548239231,-0.04702303245961666,0.030663433811068532
1633780339999977000,8.23597705078125,-0.2536713942080736,0.02346563126146793,0.0023977087914943693
1633780340019856000,8.25585595703125,-0.19736732318401334,0.09438391857147216,-0.019777663463726638
1633780340039735000,8.275735107421875,-0.13443360488712786,0.16540215912461279,-0.05089782806634903
1633780340059615000,8.295614990234375,-0.04130816194415092,0.16786591888964175,-0.04414090115204453
1633780340079494000,8.315493896484375,0.02909457705914974,0.1484802504181862,-0.005169073200970888
1633780340099373000,8.335373046875,0.08057283536195754,0.08676116860806941,-0.013403671452403067
1633780340119253000,8.3552529296875,0.10931494572162627,0.03270692233741283,-0.008433920215815306
1633780340139132000,8.3751318359375,0.08563596397042274,0.01070610293149948,-0.015307459247112274
1633780340159010800,8.3950107421875,0.08959259264171122,0.013490765213966369,-0.09342332991100848
1633780340178890000,8.414889892578126,0.0738040718793869,0.01969721863865852,-0.11938194703198969
1633780340198770000,8.43477001953125,0.0853852040797472,0.008992869272828101,-0.09916413858532905
1633780340218648800,8.45464892578125,0.1059586210310459,0.0070136781543493265,-0.05408829467073083
1633780340238528000,8.474528076171875,0.09821896668970584,-0.011029928058385848,0.024334303854778406
1633780340258407000,8.494406982421875,0.08812018200159072,-0.003214285871386528,0.0663976680804044
1633780340278286800,8.514286865234375,0.08525076404511928,0.031130466800928114,0.07859963559284806
1633780340298166000,8.534166015625,0.06425590681135654,0.07416822901666165,0.06491502830721438
1633780340318045000,8.554044921875,0.031246202135086058,0.12474749265313148,0.06223053846359253
1633780340337924900,8.5739248046875,0.023849662142992018,0.1372474932640791,0.06783668790757656
1633780340357804000,8.593803955078124,-0.009476268875598907,0.17123218045234678,0.022180632952228187
1633780340377683000,8.613682861328124,0.04344342040717602,0.1365156718581915,-0.017923852290585636
1633780340397562000,8.63356201171875,0.13933482093214988,0.10506196445226669,-0.014634820682555436
1633780340417442000,8.653442138671876,0.1465928292363882,0.05394786328673362,-0.0291219765227288
1633780340437321000,8.673321044921876,0.13463526493906974,0.006873392900824547,-0.03276822407059371
1633780340457200000,8.6932001953125,0.15333645827770231,-0.058933250483870506,-0.03558101646900177
1633780340477079000,8.7130791015625,0.1864519614160061,-0.06468377683460712,-0.048447731500491496
1633780340496959000,8.732958984375,0.19037410329580307,-0.0534825838625431,-0.014340367780625819
1633780340516838100,8.752838134765625,0.19438684606850146,-0.04185761252045631,0.032698592900484796
1633780340536717000,8.772717041015625,0.1582604706764221,-0.05389467179477214,0.07081504613123833
1633780340556597000,8.792596923828125,0.069189856082201,0.02291150451004505,0.032436507898196576
1633780340576476200,8.81247607421875,0.007198387071490287,0.04858136781752109,0.01517046192921698
1633780340596355000,8.83235498046875,-0.0029623569369316097,0.06842705501616,0.007643427425250411
1633780340616234000,8.85223388671875,-0.08624386673569678,0.060088850259780884,0.0002401654314249754
1633780340636114000,8.872114013671874,-0.0794248343706131,0.05481061759591102,-0.0007835515931248664
1633780340655993000,8.8919931640625,-0.092813892775774,0.056170215511322015,-0.024305589216947553
1633780340675872000,8.9118720703125,-0.12139525961577892,0.05361643937528133,-0.1001318145737052
1633780340695751000,8.9317509765625,-0.10706161383688449,0.0010918868899345397,-0.13162833820804953
1633780340715631000,8.951631103515625,-0.10214578474462031,-0.03503974919915199,-0.18721205906830726
1633780340735509800,8.971509765625,-0.08787000663280486,-0.07509002003669739,-0.27050262895636257
1633780340755389000,8.991388916015625,-0.007442717221379279,-0.15342998178005218,-0.3660988459270447
1633780340775269000,9.01126904296875,-0.015887304961681364,-0.21656068395376205,-0.427389034800604
1633780340795147800,9.031147705078125,0.01382277364730835,-0.2799573435872793,-0.4834186727974564
1633780340815027000,9.05102685546875,-0.0353401934504509,-0.293731017395854,-0.5263600619666278
1633780340834906000,9.070906005859374,-0.04272328943908214,-0.36009003396630285,-0.4007178854960948
1633780340854785800,9.090785888671874,-0.15848492708206177,-0.35119302628338334,-0.5094345730636268
1633780340874665000,9.1106650390625,-0.35023967108130455,-0.2761269716441631,-0.5764505191728473
1633780340894544100,9.130544189453126,-0.3282119636684656,-0.2091425166517496,-0.31732166327647865
1633780340914423300,9.15042333984375,-0.10810381636619568,-0.1295177757948637,0.014738719448447226
1633780340934303200,9.17030322265625,0.021298224094510078,0.007736731731891632,0.16184651246964932
1633780340954182100,9.19018212890625,0.06263911926448344,0.1737117223083973,0.21904139485359192
1633780340974061300,9.210061279296875,0.07910977707207202,0.3070195380359888,0.2858151297047734
1633780340993941200,9.229941162109375,0.10920973178148269,0.36785306918323035,0.3428095210805535
1633780341013820200,9.249820068359375,0.15609773968458174,0.46611470597088334,0.4422755652219057
1633780341033699300,9.26969921875,0.26410335637331006,0.5126940863162279,0.4869052728042006
1633780341053578200,9.289578125,0.36950492804348467,0.5386556260466575,0.528028871961683
1633780341073458200,9.309458251953124,0.40203064859509463,0.520592146089673,0.5520044985719025
1633780341093337300,9.32933740234375,0.3758656952470541,0.4510118293851614,0.5800362687051296
1633780341113216300,9.34921630859375,0.2949485764920711,0.388991718801856,0.5064474470116198
1633780341133095200,9.36909521484375,0.21960487395524977,0.33770401463508604,0.43089872342199087
1633780341152975400,9.388975341796876,0.1281049863874912,0.2736211263030767,0.37232115450799463
1633780341172854300,9.408854248046875,0.05029635504186153,0.1543009193956852,0.28131255758851764
1633780341192733200,9.428733154296875,-0.06319266149401664,0.09426759871542453,0.2116058380253613
1633780341212613400,9.44861328125,-0.11783259869813918,0.0033709377378225323,0.11688435806259512
1633780341232492300,9.4684921875,-0.17983517362475393,-0.03766892865896225,0.028665976383537052
1633780341252371200,9.48837109375,-0.16692366960346697,-0.07448854701220989,-0.031576749263703824
1633780341272250000,9.50825,-0.17419687547683715,-0.1150567042440176,-0.13757453326135874
1633780341292130300,9.52813037109375,-0.204537068682909,-0.09409341119229793,-0.22012100678384303
1633780341312009200,9.54800927734375,-0.15578911212682722,-0.13893968413472174,-0.2609980838343501
1633780341331888000,9.56788818359375,-0.08122749987840652,-0.1862760203272104,-0.2396437456384301
1633780341351767300,9.587767333984376,0.024210896670818327,-0.20054478417634963,-0.13465426190048455
1633780341371647200,9.607647216796876,0.1044300962895155,-0.18632336660027504,-0.11766717900335788
1633780341391526100,9.627526123046875,0.14881635050475597,-0.1625093602925539,-0.07990238875448703
1633780341411405300,9.6474052734375,0.17715806336998938,-0.15577040742635725,0.01986819129139185
1633780341431284200,9.6672841796875,0.12621990329325197,-0.09805179342925548,0.07160217792093754
1633780341451164200,9.6871640625,0.09474398405551909,-0.009227262550592422,0.10134674332141876
1633780341471043300,9.707043212890625,0.06546703616678715,0.08406710721850395,0.10180106296017766
1633780341490922200,9.726922119140625,0.024659224960207938,0.12786474789083002,0.08412658232077956
1633780341510802200,9.74680224609375,-0.021786884394288063,0.1597556776702404,0.1339998896449804
1633780341530681000,9.76668115234375,-0.07839841393232345,0.1607540410578251,0.1541816769301891
1633780341550560300,9.786560302734374,-0.08384498890042305,0.1634159537434578,0.11002455529570579
1633780341570439400,9.806439453125,-0.05250058708786964,0.14465280108451842,0.07205956629961728
1633780341590319000,9.826319091796876,-0.027581249886751175,0.09808803378641605,0.07475947290807962
1633780341610198300,9.8461982421875,0.009227262550592422,0.051288873210549354,0.031095103226602076
1633780341630077200,9.8660771484375,-0.00005786766707897186,0.00343465062379837,0.042652270029485226
1633780341649956400,9.885956298828125,0.01702127742767334,-0.05158347224295139,0.025887597711384294
1633780341669836300,9.905836181640625,-0.013249942195415495,-0.055640638679265976,-0.032521921159327026
1633780341689715200,9.925715087890625,0.011471242085099219,-0.06479717408120632,-0.06163257257044315
1633780341709594400,9.945594482421875,0.055420858448743816,-0.045643560799956316,-0.07697744121849537
1633780341729474300,9.965474365234375,0.029736966615915298,-0.03288753960132599,-0.05614639624431729
1633780341749353200,9.985353271484374,0.07016834572553635,-0.02100654767155647,-0.0451695135474205
1633780341769232400,10.005232421875,0.0849532424032688,0.031166122636198997,-0.06537672753483056
1633780341789111000,10.025111083984376,0.0993015012294054,0.06250584827363491,-0.03862359903529286
1633780341808991200,10.0449912109375,0.10678045880794525,0.01822246991097927,0.02674377614930272
1633780341828870400,10.064870361328126,0.11154665029644965,0.04467851516008377,0.03263546453639865
1633780341848749000,10.0847490234375,0.03947451677620411,0.04682721762657165,0.0519251252874732
1633780341868628200,10.104628173828125,0.0023994623571634292,0.03778174138367176,0.08226327266693115
1633780341888508400,10.12450830078125,0.0027197803527116773,0.028690087911486625,0.05524754770845174
1633780341908386800,10.14438671875,-0.015787936240434647,0.04259703271090984,0.07109305935502051
1633780341928265500,10.164265380859375,-0.024793664994835853,0.02990764700770378,0.09822422738671302
1633780341948145700,10.184145751953125,-0.04109831858575344,0.05238368270993232,0.0670639499694109
1633780341968024800,10.20402490234375,-0.012099018594622611,0.04963584530651569,0.06100216571241617
1633780341987903500,10.223903564453124,0.00192015440762043,0.03160743666291237,0.0654370794199407
1633780342007782700,10.24378271484375,-0.007867080113291739,0.0396796839594841,0.06677665746062994
1633780342027662800,10.263662841796876,-0.0002513444125652313,0.030127427238225934,0.14561054020076988
1633780342047541500,10.28354150390625,0.0030687399208545684,0.018656185153126715,0.13741057487130165
1633780342067420700,10.303420654296875,-0.01838321343064308,0.05084580561816692,0.07346855631470679
1633780342087299600,10.323299560546875,-0.014229016360640525,0.05245674794614315,0.10047639022767543
1633780342107179500,10.343179443359375,0.010964461606740951,0.06959726783931255,0.05607099292054772
1633780342127058700,10.36305859375,-0.0019797756403684614,0.07184475450515747,0.00538680760487914
1633780342146937600,10.3829375,0.0018605331748723982,-0.0025040917754173275,0.003541618129611015
1633780342166816800,10.402816650390625,0.017123568758368492,-0.011356091272830963,-0.05286708231270313
1633780342186696700,10.42269677734375,0.037462007910013195,-0.04598901323676109,-0.08868278432041406
1633780342206575600,10.44257568359375,0.04976385560035705,-0.09751286424696445,-0.08468874624818563
1633780342226454800,10.462454833984374,0.08189268578886985,-0.10423486597836017,-0.08174655531644821
1633780342246334500,10.48233447265625,0.14716215355694293,-0.08222118709087371,-0.04705255081504583
1633780342266213600,10.502213623046876,0.16228022771179676,-0.08502221598625183,-0.010438830297440289
1633780342286092800,10.5220927734375,0.05713643019497394,-0.056658875811100004,-0.00605170125439763
1633780342305971700,10.5419716796875,0.0033773674786090847,-0.021337387061119078,-0.005707563991844654
1633780342325851600,10.5618515625,-0.02913198646008968,0.04814999066293239,-0.00370718395486474
1633780342345730600,10.58173046875,-0.022333412361145017,0.08921966767609119,0.04242372197061777
1633780342365609700,10.601609619140625,-0.05361936198472976,0.11698328839242457,0.10347893304452299
1633780342385488600,10.621488525390625,-0.07790098580420017,0.10211305151879786,0.13745295270830393
1633780342405368600,10.64136865234375,-0.07787409779727458,0.11382219401299953,0.0803666452653706
1633780342425247700,10.661247802734374,-0.02294891391098499,0.090339027094841,0.04976677820980548
1633780342445126700,10.681126708984374,0.055362406259775156,0.03079436671435833,0.11753449253439903
1633780342465006600,10.701006591796874,0.12181085467934608,-0.017305939587950705,0.12365633641555905
1633780342484885800,10.7208857421875,0.15757833363115786,-0.06559796907007694,0.09830956758260727
1633780342504764700,10.7407646484375,0.2289408575773239,-0.09096154290735721,0.11378478461205958
1633780342524643600,10.7606435546875,0.23253040650188922,-0.04095218811333179,0.03282937967330217
1633780342544523800,10.780523681640625,0.024891280150413513,0.011939444118738174,-0.011501783353835345
1633780342564402700,10.800402587890625,-0.09791676887273788,0.028501287341117856,-0.05533347242623567
1633780342584281600,10.820281494140625,-0.17470307143330574,0.0851145704448223,-0.11439707129150628
1633780342604160500,10.840160400390625,-0.23955402152836322,0.16823182959258556,-0.12256897957026958
1633780342624040700,10.860040771484375,-0.2609434310376644,0.1567231781065464,-0.04825140521079301
1633780342643919600,10.879919677734375,-0.3706231184184551,0.17308043866753578,-0.0587502951323986
1633780342663798500,10.899798583984374,-0.4085299474865198,0.10577917281091212,-0.05181202030181885
1633780342683678700,10.9196787109375,-0.29701661493778225,0.024743980634212494,-0.011382175562158226
1633780342703557600,10.9395576171875,-0.0670072513461113,0.012436872246861456,0.02235854680240154
1633780342723436500,10.9594365234375,0.17679741336405277,0.007364975810050964,0.03496135020069778
1633780342743315700,10.979315673828125,0.3722475047498941,-0.0036520927667617795,-0.009693711018562316
1633780342763195600,10.999195556640625,0.42179976342618464,0.010053776502609251,-0.07329663381390274
1633780342783074600,11.019074462890625,0.46159226011037824,0.010115151301026344,-0.11244542576707899
1633780342802953700,11.03895361328125,0.4425836082577705,0.047135260662436486,-0.18900858709625898
1633780342822832600,11.05883251953125,0.40291093856096266,0.05001403096914291,-0.1716656034335494
1633780342842712600,11.078712646484375,0.32550679636299606,0.060819502621889114,-0.12603957829028367
1633780342862591700,11.098591796875,0.18266250600516795,0.07881283995211123,-0.1335576257701963
1633780342882470700,11.118470703125,0.04620236372649669,0.046643093231320376,-0.12031338266320526
1633780342902351000,11.13835107421875,-0.1048217259556055,0.02367664366364479,-0.08039346020705998
1633780342922231300,11.158231201171875,-0.18684066847264766,-0.038739188238978386,0.02944170999638736
1633780342942110200,11.178110107421874,-0.14479133277237413,-0.04941197342276573,0.08925101266242563
1633780342961989000,11.197989013671876,-0.09850129076242446,-0.022773557344079015,0.13571326943412423
1633780342981869300,11.217869384765624,-0.10430851573646067,0.04711421787440777,0.12143610308282077
1633780343001748200,11.237748291015626,-0.11104629955887795,0.05838263086378574,0.0937873409178108
1633780343021627100,11.257627197265625,-0.09495207384824753,0.06852934634685516,0.0436755486626178
1633780343041506300,11.27750634765625,-0.0777519327223301,0.10569675522446632,0.019712489273026584
1633780343061386200,11.29738623046875,-0.030694413471221923,0.12131401107311247,0.012892214798927307
1633780343081265200,11.31726513671875,-0.0026028759747743603,0.09025427142083645,0.0016159838292747735
1633780343101144300,11.337144287109375,0.01532324133813381,0.08222118709087371,-0.03062478230111301
1633780343121023200,11.357023193359375,-0.025630115818977353,0.06908990283906459,-0.058051060821861025
1633780343140903200,11.376903076171875,-0.052983986690640444,0.040698505613207814,-0.09779416540637612
1633780343160782300,11.3967822265625,-0.04625613974034786,0.010641805523633956,-0.09324570832177996
1633780343180661200,11.4166611328125,0.00649286915063858,-0.015006430473923683,-0.0722047469239682
1633780343200541200,11.436541259765624,0.05574935975074768,-0.034579145950078966,-0.024356150360405445
1633780343220420000,11.456420166015626,0.03310381270051002,-0.05038169523775577,-0.04730111874863505
1633780343240299300,11.47629931640625,-0.006443769311904907,-0.07377133865356444,-0.03930588221102953
1633780343260178400,11.496178466796875,-0.033836803150177,-0.08756254811882973,-0.049979763373360034
1633780343280058000,11.51605810546875,-0.04403144942820072,-0.07683774048686028,-0.04433686211556196
1633780343299937300,11.535937255859375,-0.0311702142894268,-0.05617664525210857,-0.025776830813288687
1633780343319816400,11.55581640625,-0.029276363366842268,-0.03729015847444534,0.03036328182071447
1633780343339695000,11.575695068359375,-0.06077157182693481,-0.02315291205048561,0.040386736250296235
1633780343359575300,11.5955751953125,-0.06262918239235878,-0.03282441123723984,0.0007690846763551234
1633780343379454200,11.6154541015625,-0.04728197565674781,-0.06626666211187839,0.0745757138390094
1633780343399333000,11.6353330078125,-0.11126841787695885,-0.06112345400452614,0.11072305895388125
1633780343419212300,11.65521240234375,-0.13236498191952706,-0.023510054925084112,0.10925108670517801
1633780343439092200,11.67509228515625,-0.07173369534611701,0.06508242076337337,0.0832304371986538
1633780343458971100,11.69497119140625,-0.003429389926791191,0.14906126517653465,0.042810383200645445
1633780343478850000,11.71485009765625,0.059853872460126877,0.2077086844563484,0.0461551635839045
1633780343498730200,11.734730224609375,0.11833236491382121,0.20252046816349029,0.0812193165719509
1633780343518609400,11.754609375,0.1780325081169605,0.22553660209178925,0.08352817803621292
1633780343538488000,11.774488037109375,0.2641325824677944,0.19890520027577877,0.10220072980225085
1633780343558367200,11.7943671875,0.3064952219009399,0.12030512629151344,0.11556056211292744
1633780343578247400,11.814247314453125,0.25546061571240425,0.07689969980716704,0.10276157855540513
1633780343598126000,11.8341259765625,0.19897885003387927,0.0112368488073349,0.04037336531206965
1633780343618005200,11.854005126953124,0.07252864511609076,-0.014633505508303642,-0.03025762948915362
1633780343637884200,11.87388427734375,-0.02954991961121559,-0.06759001967012881,-0.02859028079882264
1633780343657764000,11.89376416015625,-0.09399404247105121,-0.10134849688708782,-0.02983129383586347
1633780343677643300,11.913643310546876,-0.18312427829802036,-0.06959609879553318,-0.0939041722305119
1633780343697522200,11.933522216796876,-0.22537995022535323,-0.00426291814148426,-0.20290230708792806
1633780343717401300,11.9534013671875,-0.25187866557240485,-0.06812427267730235,-0.1431532832417637
1633780343737281300,11.97328125,-0.21175006880164146,-0.012864742270112037,-0.1594257150635123
1633780343757160200,11.99316015625,-0.08648702784180641,-0.02090250277519226,-0.16477445568032562
1633780343777039400,12.013039306640625,-0.0018733926564455032,-0.02967500729560852,-0.1073971294015646
1633780343796919300,12.032919189453125,0.11591712046563625,-0.0455137969404459,-0.07327186469882727
1633780343816798200,12.052798095703125,0.1763426553338766,-0.06499591152369975,-0.060120414441823956
1633780343836677400,12.072677490234375,0.2137877121090889,-0.04429974497556686,-0.03170337131805718
1633780343856556300,12.092556396484374,0.19168869302570818,-0.03510112399756908,0.03362060311622918
1633780343876436200,12.112436279296874,0.17124153280258178,-0.011057985109090805,0.032668197762221095
1633780343896314000,12.132314208984376,0.1377963593184948,0.001146247425675392,0.04802892156653106
1633780343916193300,12.152193359375,0.07256020929813385,0.041188919478654856,0.08670826937705278
1633780343936072200,12.172072265625,0.015935820278525352,0.06088380002975464,0.08733509603850544
1633780343955952000,12.1919521484375,-0.021631986093521117,0.061956982219219206,0.09255341520868242
1633780343975831300,12.211831298828125,-0.05285831448435783,0.06207271755337715,0.11928002102747559
1633780343995710200,12.231710205078125,-0.06355506506562232,0.09112579355835915,0.0634307080335915
1633780344015590100,12.251590087890625,-0.04167290360331535,0.07505728681087494,0.06337853945493697
1633780344035469000,12.271468994140625,-0.02918517795205116,0.07074234622120856,0.06202778243310749
1633780344055348200,12.29134814453125,0.015772738671302796,0.03105097182393074,0.04000876978337765
1633780344075227100,12.31122705078125,0.03883388078510761,0.018134207105636596,0.02293430086374283
1633780344095107000,12.331107177734374,0.09450374555885792,-0.027827333602309226,0.021039500093087554
1633780344114986200,12.350986328125,0.12539689647257327,-0.026669980260729788,0.01856514586880803
1633780344134865200,12.370865234375,0.17789222286343573,-0.030959201887249946,0.007160247018188238
1633780344154744000,12.390744140625,0.18347849856317042,-0.025727146452665328,0.007268456633016467
1633780344174624300,12.410624267578125,0.17150106052160263,-0.017397125002741813,0.01884367054924369
1633780344194503200,12.430503173828125,0.1304196930706501,-0.01194353577196598,0.026369682139903306
1633780344214382000,12.450382080078125,0.08616320271492003,-0.005433130964636802,0.042526524757966394
1633780344234261000,12.470260986328125,0.058254620569944376,-0.006087795481085777,0.042314051051065324
1633780344254141200,12.49014111328125,0.035678631624579425,0.02228723513185978,0.025534546490013597
1633780344274020000,12.51002001953125,-0.033061727124452586,0.024779051947593687,0.006116802379861474
1633780344293899000,12.52989892578125,-0.08366320259273052,0.009026771542429923,0.06568323620073496
1633780344313779200,12.549779296875,-0.0705406861692667,-0.026964579293131827,0.06340243178717792
1633780344333658000,12.569658203125,-0.10476268924474716,0.017215338695049286,0.023356544863805173
1633780344353537000,12.589537109375,-0.07027589775323867,0.04339548961222171,0.03821655260436237
1633780344373416200,12.609416259765625,-0.05146072264611721,0.013903437668085097,0.05443900780454278
1633780344393296100,12.629296142578125,0.01436170282959938,0.06078209322094917,0.018863617358729243
1633780344413175000,12.649175048828125,0.009541150805354118,0.04849602762162685,0.03405928679443895
1633780344433054200,12.66905419921875,0.0697650256216526,0.010818915656208992,0.03847257319204509
1633780344452933000,12.68893310546875,0.10790858605504035,-0.008831541231274604,-0.0056858636166900395
1633780344472813000,12.70881298828125,0.1429074187219143,-0.03602116145193576,0.02138561011701822
1633780344492692200,12.728692138671875,0.12435644750893116,-0.03790507550239563,0.05093954831622541
1633780344512571100,12.748571044921874,0.06411445251405239,-0.0236281283468008,-0.024536475363373753
1633780344532450300,12.7684501953125,0.06874795753359794,-0.02381517535150051,-0.052901569104194635
1633780344552330200,12.788330322265624,0.008300795355439186,-0.026254969719052314,-0.03550933947227895
1633780344572209200,12.808209228515626,-0.00997720413506031,-0.020794950747489927,-0.028326953687518832
1633780344592088300,12.82808837890625,-0.032386604341864585,-0.048370939937233924,-0.0018484043456614017
1633780344611967000,12.847967041015625,-0.0587462034791708,-0.03739244980514049,-0.00380216876193881
1633780344631847200,12.86784716796875,-0.06619301235377788,-0.024440613773465156,-0.011072744286805391
1633780344651726300,12.887726318359375,-0.01861585314273834,-0.005772738182544708,-0.010897168524190783
1633780344671605000,12.90760498046875,0.0013695347875356673,0.014219079488515854,-0.02338482111021876
1633780344691485200,12.927485107421875,-0.004708908343315124,0.015454758763313292,0.024703356362879274
1633780344711364400,12.9473642578125,0.02675181332528591,0.036678164055943485,0.024536767624318598
1633780344731243000,12.967242919921874,0.0471913747638464,0.06174889242649078,0.01740676961392164
1633780344751122200,12.9871220703125,0.07541852133870125,0.0717085609048605,0.04813055531010031
1633780344771002000,13.007002197265624,0.06215104348659515,0.07036416055858134,0.027121742616221307
1633780344790881300,13.02688134765625,0.08540975399911403,0.05737257703840732,0.03417224564962089
1633780344810760200,13.04676025390625,0.10572305870950222,0.05475099636316299,0.0239838829819113
1633780344830639000,13.06663916015625,0.07473053907454014,0.03846446295082569,0.03506035359576344
1633780344850519300,13.086519287109375,0.04030629142522812,-0.02151858884692192,0.044233036414906376
1633780344870398000,13.10639794921875,0.012770634245872497,-0.012945406290888785,0.03464928857684135
1633780344890277000,13.126277099609375,-0.013339374044537543,0.039537645140290255,-0.035991496966034174
1633780344910156800,13.14615673828125,-0.035381694504618644,0.04254501026272774,-0.051908174152672286
1633780344930035700,13.16603564453125,-0.0514566309928894,0.04271569065451622,-0.023742840767651794
1633780344949914600,13.18591455078125,-0.006177811852097511,0.03293956204950809,-0.05437120326533913
1633780344969793500,13.20579345703125,0.026988544690608976,0.05754442647397518,-0.08287292899787425
1633780344989673700,13.225673828125,0.041328620210289956,0.06710895815491676,-0.10365531252473592
1633780345009552600,13.245552734375,0.11308102025687694,0.04047054207623005,-0.0539389493279159
1633780345029431600,13.265431640625,0.17770342229306696,0.039753333717584605,-0.019488252063095568
1633780345049310700,13.285310791015625,0.20191724157333374,0.06475976468026638,-0.0391295027308166
1633780345069190400,13.3051904296875,0.17949790449440478,0.05497019207179546,-0.016737565115466712
1633780345089069600,13.325069580078125,0.1550444312393665,0.04044306954741478,-0.019487083019316197
1633780345108948700,13.34494873046875,0.11233458580374717,0.043780105015635486,-0.01175188565738499
1633780345128827600,13.36482763671875,0.038272155249118804,0.047400633600354194,-0.005831409567221999
1633780345148707600,13.38470751953125,-0.028034254351258277,0.05818447794318199,-0.029465383132919666
1633780345168586500,13.40458642578125,-0.07334522219598293,0.0647983431249857,-0.024893399042263627
1633780345188465700,13.424465576171874,-0.08820610671937465,0.06260229438543319,0.0015086509972810744
1633780345208345600,13.444345703125,-0.10028232896029948,0.03210077313780785,0.0025984189953655004
1633780345228224500,13.464224609375,-0.104024438098073,0.04350362616181373,-0.033480390927940605
1633780345248103700,13.484103759765626,-0.07061784305870533,0.016185411125421524,-0.004013546490296721
1633780345267982800,13.50398291015625,-0.02319382858276367,0.01719546495079994,-0.013636091968789696
1633780345287862500,13.523862548828125,0.03964519716799259,0.013773089286684989,-0.024279431862384078
1633780345307741700,13.54374169921875,0.06440671345889568,0.014796002593636512,-0.034979543444514274
1633780345327620600,13.56362060546875,0.07604805141389369,0.00969838719367981,-0.05761829542778432
1633780345347499500,13.58349951171875,0.08403203590512275,0.008779518783092499,-0.06422704604305327
1633780345367379700,13.603379638671875,0.10748773029446601,-0.02593231363594532,-0.008194923828169703
1633780345387258600,13.623258544921875,0.08761106343567371,-0.024288053560256956,-0.006352072440460324
1633780345407137500,13.643137451171874,0.019248305827379224,-0.0011234510719776152,-0.02066810949742794
1633780345427016400,13.663016357421874,-0.012213000363111496,-0.00018587796092033385,-0.015519056171178817
1633780345446896600,13.682896728515624,-0.02366612226963043,0.03659165481626987,-0.017326690115034578
1633780345466775600,13.702775634765626,-0.04798924714326858,0.06468143874704838,-0.026921105477586388
1633780345486654500,13.722654541015626,-0.07700374470353126,0.05916179854273796,0.018725524062290787
1633780345506534700,13.74253466796875,-0.09214169260263443,0.06926175227463245,-0.004087050117924809
1633780345526413600,13.76241357421875,-0.08171089948117732,0.04576572587490082,0.023020956233888862
1633780345546292500,13.78229248046875,-0.061012394845485686,0.06402092901170253,0.020687106458842752
1633780345566171600,13.802171630859375,-0.024281039297580718,0.0635042116612196,0.002023322521150112
1633780345586051600,13.822051513671875,0.017231120786070822,0.03890928410887718,0.02200936803855002
1633780345605930500,13.841930419921875,0.06808043353557586,0.017233458873629568,-0.00831628518551588
1633780345625809700,13.8618095703125,0.08119768926203251,0.016637831068038938,-0.03668371701389551
1633780345645688600,13.8816884765625,0.09871873290538788,0.020989012014865874,-0.04493577785678208
1633780345665568500,13.901568603515624,0.07999415869116783,-0.025565233889222144,-0.017828940548747778
1633780345685447700,13.92144775390625,0.08499591250121594,-0.010612579429149628,-0.03328084976784885
1633780345705326600,13.94132666015625,0.03470598720014095,-0.0016658873856067657,-0.05749656874425709
1633780345725206500,13.96120654296875,0.019816461104154585,-0.03183189306855202,-0.009332038099318742
1633780345745085700,13.981085693359375,-0.03400456093251705,-0.014473346510529518,-0.026233853865787384
1633780345764964600,14.000964599609375,-0.056551323783397674,0.007310030752420425,-0.06033413025774061
1633780345784843800,14.02084375,-0.04334463620781898,-0.02779226228892803,-0.011365078296884894
1633780345804723500,14.040723388671875,-0.09814180980026721,-0.018391396737098692,0.018541472732275723
1633780345824602600,14.0606025390625,-0.13145955751240251,0.011733692413568496,-0.001774754587560892
1633780345844481800,14.080481689453125,-0.11101005920171737,0.04540799847841263,-0.05327917024493217
1633780345864360400,14.1003603515625,-0.030233225700259207,0.054316112077236176,-0.021337387061119078
1633780345884240600,14.12024072265625,0.017739070308208465,0.06740121909976005,0.009881196414679288
1633780345904120300,14.140120361328124,0.04991349320411682,0.06373626685142517,0.04118541234731674
1633780345923999200,14.159999267578126,0.04744856439530849,0.03863046716749668,0.028196897567063568
1633780345943879200,14.179879150390626,0.09860942731201648,0.01813011545240879,0.018487404457479713
1633780345963758300,14.19975830078125,0.09542845918834209,0.02872808183431625,0.04954400230459868
1633780345983637200,14.21963720703125,0.055013446691632266,0.06150456227660179,0.0033853315893560645
1633780346003516200,14.23951611328125,0.015184125128388404,0.06050327627956867,-0.028721505963057278
1633780346023396400,14.259396240234375,-0.014324293428659438,0.04137129030823707,-0.04346548610851168
1633780346043275000,14.27927490234375,-0.05804594625532627,0.04678396300673485,-0.023220716589689255
1633780346063154200,14.299154296875,-0.038302550387382506,0.023824527701735494,-0.0431476523309946
1633780346083033300,14.319033447265625,-0.0416968690007925,0.004779635491967201,-0.04924260820522904
1633780346102913000,14.3389130859375,0.009357026410102843,-0.027097850283980367,-0.0013413316063582896
1633780346122792200,14.358792236328124,0.04979425073862075,-0.018984686455130576,0.011421119333058595
1633780346142671400,14.37867138671875,0.024912907460331916,-0.014137830945849418,-0.0032675504285842177
1633780346162550300,14.39855029296875,0.028445173239707945,-0.018394903868436813,0.001242912733182311
1633780346182430200,14.41843017578125,0.0416968690007925,0.007550853770971298,0.0058729836866259575
1633780346202309000,14.43830908203125,0.06928396410644054,0.04633797280490398,-0.02109634484685957
1633780346222188300,14.458188232421875,0.06955927391648292,0.04864332713782787,-0.0013400164321064948
1633780346242068200,14.478068115234375,0.0605669891655445,0.03799275378584861,0.029922698446363208
1633780346261947100,14.497947021484375,0.12645137396156786,0.03449789740741253,0.030365619908273217
1633780346281826300,14.517826416015625,0.06535363892018795,0.06207447111904621,-0.0032004034765064715
1633780346301705200,14.537705322265625,0.07677402760088443,0.045749943783879275,-0.014007190303504466
1633780346321585200,14.557585205078125,0.04298164811432361,-0.01414426068663597,0.02810826943553984
1633780346341464300,14.57746435546875,0.049041386544704434,-0.013723989447951316,0.018126973647251726
1633780346361343200,14.59734326171875,0.019729951864480972,-0.035225627160072326,0.02014781195037067
1633780346381223200,14.61722314453125,-0.04317512485980987,-0.04268120386302471,0.011845555290207267
1633780346401102300,14.637102294921876,-0.03576923251748085,-0.04304536100029945,-0.0014655425079166888
1633780346420981200,14.656981201171876,-0.0026519758135080335,-0.024826982742547986,0.017246026094257832
1633780346440860200,14.676860107421875,-0.026907880669832226,0.01740413926541805,0.028425810952112076
1633780346460740400,14.696740234375,-0.029281624063849446,0.06551496696174144,-0.004054097696393728
1633780346480619300,14.716619384765625,-0.019675006806850432,0.06868073751628398,-0.006754661891981959
1633780346500498200,14.736498291015625,0.014659224471449852,0.05362345363795757,0.03229366536140442
1633780346520377000,14.756377197265625,0.06221300280690193,0.05782850411236286,0.059357832571491596
1633780346540257300,14.77625732421875,0.09025953211784363,0.054199207699298854,0.030510800532624123
1633780346560136200,14.79613623046875,0.08447218088805675,0.03536298980414867,0.03913315599262714
1633780346580015000,14.81601513671875,0.10467267287373543,0.022373744371533392,0.04999751822575926
1633780346599894300,14.835894287109374,0.10542845967710017,0.037842531660199165,0.011055573956295847
1633780346619774500,14.8557744140625,0.08272212235033512,0.04387830469310283,-0.02168108593225479
1633780346639653000,14.875653076171876,0.07318272511065006,-0.014790157374739646,-0.0038034108709543942
1633780346659532300,14.8955322265625,0.02954816604554653,-0.03105389443337917,0.032414003805443646
1633780346679412200,14.915412109375,0.038004444223642346,-0.0035211598634719847,-0.02046915285922587
1633780346699291100,14.935291015625,0.041401685446500774,-0.003889408653974533,-0.05244432685598731
1633780346719170300,14.95517041015625,0.08478840723037719,-0.0007779986351728439,-0.08376885492429137
1633780346739049200,14.97504931640625,0.15951310108602046,-0.005391045388579368,-0.05248721614964306
1633780346758929200,14.99492919921875,0.21337854678630827,-0.07106091065108776,-0.007324278473481535
1633780346778808300,15.014808349609375,0.21842413973808286,-0.1123901153832674,0.05638130097873509
1633780346798687200,15.034687255859374,0.18713643654882905,-0.1262017831146717,0.1118731057718396
1633780346818566400,15.05456640625,0.15175357300043105,-0.08991057254970074,0.09806516436748206
1633780346838446000,15.074446044921874,0.07820084553360938,-0.014372224223613738,0.10795775895901023
1633780346858325200,15.0943251953125,-0.029687866777181625,0.03628945699930191,0.13254450320489705
1633780346878204400,15.114204345703126,-0.08532733641266822,0.08865209692120551,0.15099676328375936
1633780346898083600,15.13408349609375,-0.113640407705307,0.139660984146595,0.14365641045831143
1633780346917963500,15.153963623046875,-0.1819546499967575,0.13564239615499973,0.20469211311414837
1633780346937842700,15.1738427734375,-0.17547464032769203,0.20090543418228626,0.1663572678923607
1633780346957721600,15.1937216796875,-0.1765817247867584,0.20579379074573514,0.11654781958460807
1633780346977601500,15.2136015625,-0.17817630050182343,0.16256839700341225,0.10574585506319999
1633780346997480700,15.233480712890625,-0.10308043524622916,0.1170779809385538,0.09552066751644014
1633780347017359600,15.253359619140625,-0.09074526980817317,0.06594985124766826,0.015347425931319594
1633780347037238500,15.273238525390624,-0.08331190493702888,0.011069675546884535,-0.060233300231769676
1633780347057118700,15.29311865234375,-0.03918985461592674,-0.0718044224947691,-0.15206052005775272
1633780347076997600,15.31299755859375,0.004021510601043701,-0.09900748671889305,-0.20338775251731275
1633780347096876500,15.33287646484375,0.021465981876850126,-0.1106511627614498,-0.24216098915636539
1633780347116755700,15.352755615234376,0.05549158559739589,-0.11693477307558059,-0.31481311452165245
1633780347136635600,15.3726357421875,0.05290273814797401,-0.14510755911469458,-0.28903745275214315
1633780347156514600,15.3925146484375,0.06469137561917304,-0.16358780317902563,-0.21545608371272681
1633780347176393500,15.4123935546875,0.11227438004910945,-0.147730893355608,-0.18680698539875445
1633780347196272600,15.432272705078125,0.11404665041863918,-0.11062135214507579,-0.1530256387628615
1633780347216152600,15.452152587890625,0.09632394672334194,-0.07750526448488235,-0.08066526288576424
1633780347236031500,15.472031494140625,0.07092296348512173,0.009867898541688918,-0.038274201075732706
1633780347255910700,15.49191064453125,0.02354454171657562,0.0743137749671936,-0.00800035110414028
1633780347275790600,15.51179052734375,0.0000011690437793731689,0.12283201442062854,0.025493629957735537
1633780347295669500,15.53166943359375,-0.023814590829610825,0.11882979304194449,0.09001023353189229
1633780347315548700,15.551548583984374,-0.033389059382677076,0.11946049216091632,0.16712985970005392
1633780347335427600,15.571427490234376,-0.0852110165566206,0.14152677801847457,0.15499576979205013
1633780347355307500,15.5913076171875,-0.08128244493603706,0.13552432273328305,0.15128639388009904
1633780347375186700,15.611186767578126,-0.09650573303103446,0.12758067025244235,0.15478117719329892
1633780347395065600,15.631065673828125,-0.06643500441610813,0.12149404381513595,0.10949980076923965
1633780347414944800,15.65094482421875,-0.02094166574180126,0.08631517840623855,0.10628361520171165
1633780347434824700,15.67082470703125,0.022669512447714806,0.06378361312448978,0.11236008557118475
1633780347454703600,15.69070361328125,0.05067220261693001,0.04921615858972073,0.03564838261678815
1633780347474582800,15.710582763671875,0.09005261136889457,0.01675590448975563,0.005308408606424927
1633780347494461400,15.73046142578125,0.17242285154163836,0.010009352838993072,0.0008187690369784831
1633780347514341600,15.750341552734374,0.17489011843800545,-0.0031008886247873304,-0.02818535325974226
1633780347534220800,15.770220703125,0.14082710531651974,-0.01495031637251377,-0.07043013846687972
1633780347554099500,15.790099365234376,0.10903846686780452,-0.01771218230128288,-0.07996909731514751
1633780347573979600,15.809979736328126,0.07318857032954693,-0.04873275898694992,-0.057636269475892184
1633780347593858800,15.82985888671875,0.07637538367211819,-0.041054479444026945,-0.019946078833192587
1633780347613737500,15.849737548828125,0.03417465680241585,0.0009182838886976242,-0.04040967873446643
1633780347633616600,15.86961669921875,0.04422960234880447,0.000007014262676239014,-0.006656681410223245
1633780347653496600,15.88949658203125,0.025168343526124952,0.03080897976160049,-0.010583353334665297
1633780347673375500,15.90937548828125,0.08438391808271407,-0.0016103578060865402,0.040376360986754296
1633780347693254700,15.929254638671875,0.0707891079723835,-0.005706102687120437,0.17420717767514288
1633780347713133600,15.949133544921875,0.03301964154839516,0.11446925974488258,0.21529161386601625
1633780347733013500,15.969013427734374,0.17935586567521095,0.018749124133586884,0.31761969637498255
1633780347752892400,15.988892333984374,0.09917758258879183,0.01415478208065033,0.32905287147201595
1633780347772771600,16.008771484375,-0.3031727994799614,0.09995441218018532,0.5841945574283599
1633780347792650800,16.028650634765626,-0.3349403951406479,0.29204642530977726,0.28471447498649355
1633780347812530400,16.048530517578126,-0.45102585791051386,0.08831658135652541,0.3268127643950283
1633780347832409600,16.06840966796875,-0.12930910148024558,0.2760048065692186,0.047227761251479386
1633780347852288800,16.088288818359374,-0.20336510229408739,0.14082973566502333,-0.17487272891178726
1633780347872167700,16.108167724609373,0.3641325873553753,0.07650690109729766,-0.49380613823384045
1633780347892047600,16.128047607421873,0.20636311506628988,0.07607143228948116,-0.7984580703556537
1633780347911926800,16.1479267578125,-0.22462883959710597,0.29918577567040916,-0.5290870027124881
1633780347931806000,16.167805908203125,-0.13617197298705577,0.15617723466157912,-0.3202519445747137
1633780347951685600,16.187685546875,-0.003630465456843376,0.09173223501890897,-0.26998861501961946
1633780347971564800,16.207564697265624,0.04235796325802803,-0.03171966486573219,-0.31914456785470247
1633780347991443700,16.227443603515624,0.14921850156486033,-0.1818243016153574,-0.18215674844011664
1633780348011322600,16.247322509765624,0.07992167797684668,-0.24124562787711618,0.20521979025006293
1633780348031202800,16.267202880859376,0.14235913718938828,-0.25762626931369303,0.3694632808588445
1633780348051081700,16.287081787109376,0.2868821744143963,-0.3400450248032808,0.28019465947449207
1633780348070960600,16.306960693359375,0.33465456393659115,-0.3008189298301935,0.12385419707521796
1633780348090839600,16.326839599609375,0.2930383589565754,-0.20627426773905752,0.018180530465394258
1633780348110719700,16.3467197265625,0.2076215906947851,-0.09403320543766021,-0.048866760630160565
1633780348130598700,16.3665986328125,0.21241642375588415,0.010631284129619598,-0.0981841876372695
1633780348150477600,16.3864775390625,0.170299283516407,0.054659810948371884,-0.20136516064852475
1633780348170356700,16.406356689453126,0.06121347037553787,0.13651216472685337,-0.23438363315314054
1633780348190237000,16.42623681640625,0.06813245598375797,0.12817863614559172,-0.13620602138713
1633780348210115600,16.446115478515626,0.06065700553655624,0.11000585059523582,-0.04861483169570565
1633780348229994800,16.465994873046874,0.1046650740891695,0.059085226175189014,-0.020914485473930836
1633780348249873700,16.485873779296874,0.07704875288903713,0.06220423497855663,-0.02750087812691927
1633780348269753600,16.505753662109374,-0.036032851889729496,0.0830061999887228,0.06136062376126647
1633780348289632800,16.5256328125,-0.14699088864326476,0.05760580127239227,0.06588000088185071
1633780348309511700,16.54551171875,-0.22663316515684126,0.04305062169730663,-0.024295944605767724
1633780348329390800,16.565390869140625,-0.09139525814950465,0.006549567773938178,-0.13264920568838715
1633780348349270800,16.585270751953125,-0.056740708875656125,-0.06521569175422191,-0.1662318879470229
1633780348369149700,16.605149658203125,0.033412440258264536,-0.09943594126403331,-0.16334288850724696
1633780348389028900,16.62502880859375,0.028829204121232032,-0.16505612216591833,-0.08644932617992163
1633780348408907800,16.64490771484375,0.09384557391107082,-0.13328034319877624,0.01324497375935316
1633780348428787700,16.66478759765625,0.10403671305775641,-0.061195350196957585,0.04688844629451632
1633780348448667000,16.6846669921875,0.04595569548904895,-0.02570259653329849,0.07555003876388072
1633780348468545800,16.7045458984375,-0.038272155249118804,0.025262451550364492,0.09806757552027702
1633780348488425700,16.72442578125,-0.05837503207921981,0.039869069051742555,0.10406550076082348
1633780348508305000,16.744304931640624,-0.034440029740333555,0.06145429339408874,0.1867092971779406
1633780348528183800,16.764183837890624,-0.013451017725467682,0.05162205068767071,0.19590368037223815
1633780348548062700,16.784062744140623,-0.14929215132296084,0.09369944343864917,0.18699468999058008
1633780348567942700,16.803942626953123,-0.17866612984538077,0.17464169663488863,0.16237550477981566
1633780348587821800,16.82382177734375,-0.14830606289505957,0.2638362298697233,0.0028007366344332692
1633780348607700700,16.84370068359375,-0.09606792613565922,0.26801731494665143,-0.12159589675441383
1633780348627579600,16.86357958984375,-0.1306856505304575,0.24467677136957644,-0.1594824136868119
1633780348647459800,16.8834599609375,-0.0734030898630619,0.18388298771083353,-0.1630813149616122
1633780348667338800,16.9033388671875,0.02157353390455246,0.10870236678123474,-0.10500278161093592
1633780348687217700,16.9232177734375,0.11284195080399513,-0.010436638340353965,-0.03359393430501222
1633780348707096800,16.943096923828126,0.06735387282669544,-0.08104922070205212,0.013853899437934159
1633780348726976500,16.9629765625,0.04363397454321384,-0.10484569135308265,-0.04752338319718837
1633780348746855700,16.982855712890625,0.006507482197880745,-0.07146656884253025,-0.1359596454106271
1633780348766734800,17.00273486328125,-0.02062368583381176,-0.09093523942232132,-0.17421587243825196
1633780348786614800,17.02261474609375,-0.04738602055311203,-0.06924713922739029,-0.11511106477975845
1633780348806493700,17.04249365234375,-0.03891746741533279,-0.03585632627904415,-0.06315934374630451
1633780348826372600,17.06237255859375,-0.081319854336977,-0.012527473139762877,-0.033243513432145114
1633780348846251800,17.082251708984376,-0.07154547929763794,0.00514087001979351,-0.00968611223399639
1633780348866131700,17.102131591796876,0.007106617134809493,0.002159223860502243,-0.0222056943282485
1633780348886010600,17.1220107421875,0.07561375164985656,0.047754853865504265,0.060955403961241245
1633780348905889500,17.1418896484375,0.03990764749646187,0.016306407156586645,0.10960969088450073
1633780348925768400,17.1617685546875,0.057246904832124704,0.045747021174430844,0.031438802097737785
1633780348945648400,17.1816484375,0.052691141223907466,0.08869125988781451,0.058159197371453045
1633780348965527300,17.20152734375,0.030900749698281285,0.11861001281142235,0.10522095440626143
1633780348985406500,17.221406494140624,0.05595277336835861,0.11830956856012344,0.0887269157230854
1633780349005285400,17.241285400390623,0.04317278677225113,0.13987199654877186,0.010059913982450961
1633780349025165300,17.261165283203123,-0.035976737788319585,0.12194997088909149,0.04779810848534107
1633780349045044500,17.28104443359375,-0.08228548449873924,0.08978431582152843,-0.00400455946624279
1633780349064923400,17.30092333984375,-0.022532149803638456,0.04823065468370914,-0.05199073786959052
1633780349084802300,17.32080224609375,0.0010322656571865082,-0.009721768069267273,-0.1088512737326324
1633780349104682500,17.3406826171875,0.005813070192933082,-0.02829728920161724,-0.10715440668687223
1633780349124561400,17.3605615234375,0.021588146951794625,-0.07184709259271621,-0.11670973214805125
1633780349144440300,17.3804404296875,-0.024758593681454655,-0.08637538416087627,-0.05303907787874341
1633780349164319500,17.400319580078126,-0.01625263114273548,-0.10262626173794269,0.05353022239655256
1633780349184199400,17.420199462890626,0.027213585618138313,-0.1209644669830799,-0.09977145682871341
1633780349204078300,17.440078369140625,0.10750643499493598,-0.050665772876143454,-0.02714490429610014
1633780349223957200,17.459957275390625,0.14718845704197883,-0.020498013627529142,0.05455269731208682
1633780349243837400,17.47983740234375,0.02442950785756111,0.10085399136841297,0.0551405802026391
1633780349263716400,17.49971630859375,0.04044482311308384,0.1332429337978363,0.1434841956965625
1633780349283595300,17.51959521484375,-0.014582652103900908,0.15154314512014389,0.07750497222393751
1633780349303474400,17.539474365234376,-0.03893149594068527,0.12373860787153243,0.05677402662336826
1633780349323354400,17.559354248046876,0.04072480909824371,0.06771101570129394,-0.004875497081875801
1633780349343233300,17.5792333984375,-0.011667056918144226,0.04141571397185325,-0.015641513507068158
1633780349363112400,17.599112548828124,-0.0018652093499898909,-0.021863456761837003,0.0670214260019362
1633780349382991400,17.618991455078124,0.04198912994563579,-0.025507950744032858,-0.0523990264095366
1633780349402871300,17.638871337890624,0.027678865042328832,-0.038459786775708195,-0.13883213210701942
1633780349422750500,17.65875048828125,0.11200374641418456,0.020851649370789527,-0.17648966258913276
1633780349442629400,17.67862939453125,0.34048166265487667,-0.004748071309924125,0.4713509991891682
1633780349462508500,17.698508544921875,0.006361936247348785,0.01811959405839443,-0.05200286669880151
1633780349482388500,17.718388427734375,-0.4479951119124889,0.21115853264927864,-0.15672405488938093
1633780349502267400,17.738267333984375,-0.3975362597852945,-0.01957739165127277,-0.12261924845278262
1633780349522146600,17.758146484375,-0.46213937259912485,0.02891980501413345,0.0353422392770648
