time,seconds_elapsed,z,y,x
1633782463230655700,0.01465576171875,-9.030546384793519,-3.815868201467395,0.2424264716921374
1633782463250534700,0.03453466796875,-9.038125295615195,-3.7984140855804083,0.2339351587332785
1633782463270413600,0.05441357421875,-9.031509676867723,-3.8131288396313785,0.2495280290593393
1633782463290291700,0.074291748046875,-9.019216012483835,-3.8399440735816954,0.2810008612908423
1633782463310170600,0.094170654296875,-9.007181291297078,-3.8659608506307004,0.30889859324824065
1633782463330049800,0.1140498046875,-8.995530016469955,-3.891757555188238,0.32411581692863256
1633782463349929000,0.133928955078125,-8.986835253360868,-3.911525208714604,0.3273343040511012
1633782463369807600,0.1538076171875,-8.98246536771357,-3.9222333574727175,0.31903511613085866
1633782463389685500,0.173685546875,-8.980365180563926,-3.9278444753527637,0.3089718776801601
1633782463409564700,0.193564697265625,-8.979735650488733,-3.930373117047548,0.29478039858462285
1633782463429443800,0.21344384765625,-8.985786621090769,-3.9188872619152066,0.2614200721060857
1633782463449322800,0.23332275390625,-8.999413579905033,-3.8906925563052295,0.20843829563884064
1633782463469202000,0.253201904296875,-9.013439182648062,-3.8608725875809786,0.1482024746564217
1633782463489080600,0.27308056640625,-9.02168737103343,-3.84301222898066,0.10388824449777602
1633782463508958700,0.292958740234375,-9.025981853356956,-3.8334745853066443,0.08068807750577106
1633782463528837600,0.312837646484375,-9.030418959021567,-3.8234143790632484,0.05849235201568808
1633782463548716800,0.332716796875,-9.04414177942574,-3.791177996847033,0.02928680027917726
1633782463568595700,0.352595703125,-9.071292236679792,-3.7258331257551904,-0.014275773545238188
1633782463588474600,0.372474609375,-9.103009563457965,-3.64697206274718,-0.07209949188462923
1633782463608353800,0.392353759765625,-9.13289499863386,-3.569334404054284,-0.1430779712495394
1633782463628231700,0.412231689453125,-9.160827546176314,-3.492408400762081,-0.22956772077139465
1633782463648109800,0.43210986328125,-9.188770030590891,-3.4108471388846633,-0.32095998324621466
1633782463667989000,0.451989013671875,-9.22056977495551,-3.3156293998375532,-0.3975988401601091
1633782463687868000,0.471867919921875,-9.256292245721816,-3.2061294529378412,-0.460625241709128
1633782463707747000,0.4917470703125,-9.288801599660514,-3.1015581946119664,-0.5185364556688815
1633782463727625000,0.511625,-9.30910321393311,-3.0324226990655063,-0.5616031517181546
1633782463747503900,0.53150390625,-9.314591289955377,-3.0110476103425023,-0.5851179193509742
1633782463767382800,0.5513828125,-9.310136064112186,-3.023341274726391,-0.5925867208616807
1633782463787262000,0.571261962890625,-9.304845556488633,-3.040717064680159,-0.586745009096153
1633782463807141000,0.59114111328125,-9.306727716973423,-3.037214609517157,-0.5749149071034043
1633782463827020000,0.61102001953125,-9.320735784059762,-2.9953260173365472,-0.567706473561935
1633782463846898000,0.63089794921875,-9.347617945766448,-2.908402351643145,-0.5775958167504519
1633782463866776800,0.65077685546875,-9.38161607695818,-2.793530356316268,-0.5931721195342019
1633782463886656000,0.670656005859375,-9.413907404232024,-2.6727935606092212,-0.6363198083978145
1633782463906535000,0.690534912109375,-9.437945282423495,-2.568159466180205,-0.7071979098279029
1633782463926414000,0.7104140625,-9.451288163599372,-2.499044428899884,-0.7735107491690665
1633782463946292000,0.7302919921875,-9.456483978676795,-2.471395666734874,-0.7984347625453024
1633782463966171100,0.750171142578125,-9.457622042796014,-2.47343623265177,-0.7783882920775562
1633782463986049800,0.7700498046875,-9.453459662419556,-2.5091429213270544,-0.7118192860182374
1633782464005929000,0.789928955078125,-9.438501162740588,-2.5934017517253753,-0.5994570450225845
1633782464025808000,0.809807861328125,-9.407041610115765,-2.730741599448025,-0.4701097304238006
1633782464045687000,0.82968701171875,-9.359165760219097,-2.9068618442028757,-0.3557426524117589
1633782464065565000,0.84956494140625,-9.303779973083733,-3.086665161384642,-0.28733631139006466
1633782464085444000,0.869444091796875,-9.253667157915235,-3.233456143541634,-0.2911780449774116
1633782464105322800,0.88932275390625,-9.218642606285213,-3.324175402125716,-0.36995435231141743
1633782464125202000,0.909201904296875,-9.199777162295579,-3.356566390381753,-0.5176375340677798
1633782464145081000,0.9290810546875,-9.186326729092002,-3.3601673374831673,-0.7007534829288721
1633782464164959000,0.948958984375,-9.166308023414015,-3.3712396433785554,-0.8853925497040152
1633782464184838100,0.968838134765625,-9.131669256231188,-3.4191698538109656,-1.045120316454023
1633782464204716800,0.988716796875,-9.085462800851463,-3.502305525398254,-1.1655950271587818
1633782464224596000,1.008595947265625,-9.03970292019546,-3.5890336685195563,-1.254189767869562
1633782464244475000,1.028474853515625,-9.00477072302401,-3.6559497344508767,-1.310922877960652
1633782464264354000,1.04835400390625,-8.98742912760079,-3.690284257990122,-1.3335291159138083
1633782464284232000,1.06823193359375,-8.993266747713088,-3.680236911228299,-1.3218893853940068
1633782464304111000,1.088111083984375,-9.01879457220137,-3.6330925904765725,-1.2776425396494566
1633782464323989800,1.10798974609375,-9.054514704880118,-3.5671176047876476,-1.2090563485488295
1633782464343869000,1.127868896484375,-9.09714505533874,-3.485392676781118,-1.1244411789935083
1633782464363747800,1.147747802734375,-9.146759273335338,-3.3853634457990527,-1.0229808922950179
1633782464383626000,1.1676259765625,-9.196096427956222,-3.2772242658585307,-0.9284350611601024
1633782464403505000,1.1875048828125,-9.23021146352589,-3.1909684164240955,-0.8895522266667336
1633782464423384000,1.207384033203125,-9.24365897412002,-3.1461262351348993,-0.9094224637847393
1633782464443263000,1.227262939453125,-9.245465731281042,-3.1299934309795496,-0.9459829197451471
1633782464463142000,1.247141845703125,-9.249892900073528,-3.1107264204517007,-0.9660475103914737
1633782464483021000,1.26702099609375,-9.257450768107175,-3.0851065337657926,-0.9757620450023561
1633782464502899000,1.28689892578125,-9.262503375321627,-3.066406801731884,-0.9866948693618178
1633782464522778000,1.306778076171875,-9.271078311443329,-3.044438131029904,-0.9741107706639915
1633782464542657000,1.326656982421875,-9.26641382676363,-3.0590660835802552,-0.9726615947689861
1633782464562536000,1.346535888671875,-9.277169614055753,-3.068542352455854,-0.8297955309707671
1633782464582414800,1.366414794921875,-9.295979528465866,-3.0412752830848095,-0.7111932630743831
1633782464602293000,1.38629296875,-9.334414765322208,-2.9769290676414966,-0.420692240575701
1633782464622172000,1.406171875,-9.401727721616625,-2.781939871765673,-0.19674931914983315
1633782464642051000,1.426051025390625,-9.477777526596189,-2.516608727163076,-0.09376558574372902
1633782464661930800,1.4459306640625,-9.540433012473583,-2.2655580368474126,-0.13331914083920418
1633782464681809700,1.4658095703125,-9.58624374653399,-2.0531763921439645,-0.24244145006556062
1633782464701688800,1.485688720703125,-9.621949266165494,-1.8638579353809355,-0.33839206996448334
1633782464721566700,1.505566650390625,-9.65206149583459,-1.6878018419034777,-0.3992740433633327
1633782464741446000,1.52544580078125,-9.660832246789335,-1.6196993426665662,-0.46398536579199134
1633782464761324500,1.545324462890625,-9.647346157750487,-1.6859375093363225,-0.5066693461339921
1633782464781203700,1.56520361328125,-9.625255321973562,-1.821323008120805,-0.4556615914197638
1633782464801082600,1.58508251953125,-9.608447979557514,-1.9337017253272235,-0.3300094050118699
1633782464820960800,1.604960693359375,-9.595010990357398,-2.020429430057108,-0.15495050587821751
1633782464840839700,1.624839599609375,-9.580010989624261,-2.0958568653546275,0.034038668698095714
1633782464860718800,1.64471875,-9.566001168972253,-2.1478294830456375,0.2209967119061388
1633782464880597500,1.664597412109375,-9.555092821466923,-2.188581180150807,0.2840787708988413
1633782464900476700,1.6844765625,-9.540486203965544,-2.247738302518427,0.3117321361737326
1633782464920355800,1.70435595703125,-9.519891744226216,-2.341357958719134,0.2451318399270065
1633782464940233700,1.724233642578125,-9.492519753175973,-2.459883800378442,0.10690785718043334
1633782464960113000,1.74411279296875,-9.470041379386187,-2.5467779477164147,-0.05120033184399363
1633782464979991600,1.763991455078125,-9.452435580068826,-2.605679926279187,-0.17965499475225805
1633782464999870700,1.78387060546875,-9.4269498411566,-2.690105637677014,-0.2575453312982805
1633782465019749600,1.80374951171875,-9.383147524309157,-2.8376538679420946,-0.27322443686937914
1633782465039628800,1.82362890625,-9.320309083080291,-3.0381232487946748,-0.26838585599809883
1633782465059506700,1.843506591796875,-9.245424814748764,-3.2558328105226155,-0.3034051834637299
1633782465079385900,1.8633857421875,-9.160578539851308,-3.482190081347525,-0.3585272416289896
1633782465099264500,1.883264404296875,-9.071217417877913,-3.703176472789049,-0.41217312629446384
1633782465119143700,1.903143798828125,-8.987606237733363,-3.899020531928539,-0.43699188919793813
1633782465139022600,1.923022705078125,-8.917515048897267,-4.060517500308156,-0.4006301341474056
1633782465158900700,1.942900634765625,-8.87125832463503,-4.169693329820037,-0.29122657856056466
1633782465178779600,1.962779541015625,-8.901985471332072,-4.113749908801913,-0.045854870029655284
1633782465198658800,1.982658935546875,-8.998007804760336,-3.8844519083499907,0.342454460565187
1633782465218537700,2.002537841796875,-9.136147278428076,-3.485694290076196,0.7423857622608542
1633782465238416600,2.022416748046875,-9.29975963152647,-2.9652766237705945,0.9444535912860185
1633782465258295800,2.0422958984375,-9.425223748016357,-2.447042146722972,1.1608294201921672
1633782465278173700,2.062173583984375,-9.509579609048366,-2.0873687307335436,1.1752314550321548
1633782465298052900,2.082052978515625,-9.554057633200287,-1.940216075657308,1.0610988798957317
1633782465317931800,2.101931884765625,-9.565384498378634,-1.953063866792619,0.9270085354883223
1633782465337810700,2.121810791015625,-9.547530277258158,-2.087028100602329,0.8120140828255563
1633782465357689600,2.141689697265625,-9.506585687929391,-2.293959663206339,0.7300421212553978
1633782465377567700,2.161567626953125,-9.44962987499833,-2.5467715179756283,0.6235622528292238
1633782465397446700,2.18144677734375,-9.386832350301741,-2.7981170995846387,0.47781055059209465
1633782465417325800,2.201325927734375,-9.325609527575969,-3.018370500576496,0.3046834963038564
1633782465437204500,2.22120458984375,-9.263378989112377,-3.2166812420904636,0.11471368122631684
1633782465457083600,2.241083740234375,-9.195799490836261,-3.406569607695937,-0.05418079525977373
1633782465476962800,2.260962890625,-9.127948189881444,-3.5816762914940714,-0.15013337878691962
1633782465496840700,2.2808408203125,-9.07416983794272,-3.7144162442058324,-0.18148533371826633
1633782465516719600,2.3007197265625,-9.045527096304298,-3.783283736465871,-0.18864094109395518
1633782465536598800,2.320598876953125,-9.036824734410644,-3.8037975321844217,-0.1931466915479861
1633782465556477700,2.340477783203125,-9.031239043232798,-3.8159684469714756,-0.21327504987921564
1633782465576356600,2.360356689453125,-9.016196956923604,-3.84909301019907,-0.25111909764306617
1633782465596234800,2.38023486328125,-8.993440935236215,-3.898743176291883,-0.2970027873418294
1633782465616113700,2.40011376953125,-8.971712503030895,-3.944927712100744,-0.3410299441874027
1633782465635992800,2.419992919921875,-8.95989580850899,-3.9684187700644133,-0.37722602381482717
1633782465655872500,2.43987255859375,-8.960006283146143,-3.9644498664334415,-0.414494518446736
1633782465675751400,2.45975146484375,-8.969476122280955,-3.939345820315182,-0.4476978094663471
1633782465695630600,2.479630615234375,-8.97925926514864,-3.9137423002421854,-0.47530192877203226
1633782465715508500,2.499508544921875,-8.97964914124906,-3.910276085436344,-0.496014352335222
1633782465735387600,2.5193876953125,-8.970030833554267,-3.9314533134996887,-0.5026015852384269
1633782465755266300,2.539266357421875,-8.959310702097415,-3.957632003112137,-0.488148222070001
1633782465775145500,2.5591455078125,-8.957318651497364,-3.964525269757211,-0.46836847624704236
1633782465795024400,2.5790244140625,-8.967419774273038,-3.943611076544225,-0.45132747120559213
1633782465814902500,2.598902587890625,-8.98404883751273,-3.9074829475864767,-0.43454029479473827
1633782465834781400,2.618781494140625,-8.995236001959443,-3.8842467411667108,-0.41078419268671423
1633782465854660600,2.63866064453125,-8.997541356292366,-3.8854324438199397,-0.34358598534576595
1633782465874539300,2.658539306640625,-8.991095833414793,-3.9095775817781684,-0.21396310520861297
1633782465894418400,2.67841845703125,-8.965334200170636,-3.97319957460016,-0.08275484644300304
1633782465914297600,2.698297607421875,-8.91935453928411,-4.076210744002461,0.0018390487131990083
1633782465934175500,2.718175537109375,-8.87216959426105,-4.177740150414407,0.03848815435366705
1633782465954054700,2.7380546875,-8.835069405400752,-4.255724138326943,0.027362889861757864
1633782465973933600,2.75793359375,-8.804278545817732,-4.319068483251333,-0.026668904831784312
1633782465993812500,2.7778125,-8.778390655845403,-4.370486535799503,-0.09534079917119816
1633782466013691400,2.79769140625,-8.768022406566143,-4.389883017925918,-0.14523696678117848
1633782466033569500,2.817569580078125,-8.778950043293833,-4.36748910754919,-0.1595491953127086
1633782466053448400,2.837448486328125,-8.794090913802386,-4.3373692790955305,-0.14690173992193303
1633782466073327600,2.85732763671875,-8.788919064122437,-4.348215959541499,-0.1352925598040223
1633782466093206500,2.87720654296875,-8.75062645060718,-4.423787625615298,-0.16440072699710725
1633782466113085400,2.89708544921875,-8.684256328120828,-4.548704045094549,-0.2517239316684194
1633782466132964400,2.91696435546875,-8.609657306471467,-4.679625550207495,-0.3811707428526133
1633782466152842500,2.936842529296875,-8.55077023321688,-4.771653553302586,-0.5348171803949401
1633782466172721400,2.956721435546875,-8.525235394465923,-4.797785481163859,-0.6870207256525754
1633782466192600600,2.9766005859375,-8.538429222559929,-4.754005376148224,-0.8155024363979697
1633782466212479500,2.9964794921875,-8.584591254276036,-4.649799736264348,-0.9244131852328776
1633782466232358400,3.0163583984375,-8.646287539732455,-4.515211817598343,-1.0124027265921234
1633782466252237600,3.036237548828125,-8.710904096549749,-4.380027394343912,-1.051612601082772
1633782466272115500,3.056115478515625,-8.767221027055383,-4.273234952837228,-1.022586559215188
1633782466291994600,3.07599462890625,-8.804181515184045,-4.215677959142625,-0.9406541990030557
1633782466311873500,3.09587353515625,-8.818736110237241,-4.204892653495073,-0.8480266225796192
1633782466331752400,3.11575244140625,-8.817525565403699,-4.222035511475801,-0.7720398728989064
1633782466351631400,3.13563134765625,-8.81144361514151,-4.245627399465442,-0.7095761102013289
1633782466371509500,3.155509521484375,-8.807032812961936,-4.264240037737786,-0.6502406355921179
1633782466391388400,3.175388427734375,-8.804725705063342,-4.279193568980694,-0.5793908834736794
1633782466411267600,3.195267578125,-8.806343077132105,-4.2875408338263625,-0.4854843366229906
1633782466431146500,3.215146484375,-8.8085706900537,-4.2935137707561255,-0.3810613276613876
1633782466451025400,3.235025390625,-8.804801108387112,-4.308673638226091,-0.2849394793814048
1633782466470903300,3.2549033203125,-8.787918362647295,-4.347189539103209,-0.21169046583520248
1633782466490782500,3.274782470703125,-8.761059581816196,-4.403360339136421,-0.1569609689177945
1633782466510661600,3.29466162109375,-8.73952930253148,-4.447226076608896,-0.11485276090344414
1633782466530540500,3.31454052734375,-8.735299702137707,-4.456386703664064,-0.07443160636031534
1633782466550419500,3.33441943359375,-8.744354530730844,-4.439137462699413,-0.026630184823169836
1633782466570298400,3.35429833984375,-8.750372183585167,-4.4273374270513655,0.007614409680853714
1633782466590176500,3.374176513671875,-8.741948054111003,-4.443938725501298,-0.011756122299440903
1633782466610055400,3.394055419921875,-8.732827759066224,-4.460901550740004,-0.09201142641962505
1633782466629934600,3.4139345703125,-8.742472954767942,-4.438547095590829,-0.19708896290035918
1633782466649813500,3.4338134765625,-8.781478100466728,-4.3557428479149936,-0.2890104734136723
1633782466669691100,3.453691162109375,-8.84969648116827,-4.212753303867578,-0.3255185963986441
1633782466689570300,3.4735703125,-8.920011541888117,-4.0619542551130055,-0.32297022709008305
1633782466709448200,3.4934482421875,-8.95971285315752,-3.9746301919251676,-0.31022812481895085
1633782466729327000,3.5133271484375,-8.952602144369482,-3.9908208637475964,-0.307644136207737
1633782466749206300,3.533206298828125,-8.902190053993463,-4.101068414144217,-0.32035701238438485
1633782466769085200,3.553085205078125,-8.824694726380706,-4.2638837716460225,-0.33829412601534276
1633782466788964400,3.57296435546875,-8.74193461010754,-4.4297576399356124,-0.3552627234077081
1633782466808842200,3.59284228515625,-8.672728387412429,-4.56310198828131,-0.3636833822831511
1633782466828721400,3.612721435546875,-8.630503110623359,-4.643287285630405,-0.3531011614596471
1633782466848600000,3.63260009765625,-8.624420575839281,-4.657115319974721,-0.3178542723158374
1633782466868479200,3.652479248046875,-8.663084360754489,-4.5894157024502755,-0.24210379734272136
1633782466888358100,3.672358154296875,-8.733271995702385,-4.458527515085041,-0.14790068783140742
1633782466908237300,3.6922373046875,-8.807274805024266,-4.31234238986671,-0.07742308436045423
1633782466928115200,3.712115234375,-8.867520307150482,-4.18731987966448,-0.061794110674550755
1633782466947994000,3.731994140625,-8.916329053983091,-4.081076011951268,-0.11948038417147472
1633782466967873000,3.751873046875,-8.96515942812562,-3.9674338506802913,-0.2361527982501313
1633782466987752200,3.771752197265625,-9.019681876429916,-3.8285751228272913,-0.3971567954810336
1633782467007631400,3.79163134765625,-9.073432171317934,-3.675569211678207,-0.5774095369307324
1633782467027509200,3.81150927734375,-9.11674758143127,-3.536537757606804,-0.740405036772415
1633782467047388400,3.831388427734375,-9.144034232285618,-3.4390254778817293,-0.8544700996305793
1633782467067267000,3.85126708984375,-9.155842158979176,-3.397426808558404,-0.8935501371964811
1633782467087146200,3.871146240234375,-9.157938838997483,-3.4023046437278386,-0.8525635353568941
1633782467107025200,3.891025146484375,-9.155241854998469,-3.4320413180828093,-0.7569868268042802
1633782467126903300,3.9109033203125,-9.147419198548793,-3.4755072425827382,-0.6449412140097469
1633782467146782200,3.9307822265625,-9.13446502442956,-3.525063008390367,-0.5530448379376903
1633782467166661400,3.950661376953125,-9.11756357398927,-3.5749496135875583,-0.5100518281791359
1633782467186540000,3.9705400390625,-9.10309373461008,-3.611599136070907,-0.5103150456925853
1633782467206419200,3.990419189453125,-9.098812696290016,-3.6198137144476172,-0.5281488816121592
1633782467226298000,4.010298095703125,-9.1066745157063,-3.6005911275833844,-0.5240276004310697
1633782467246176300,4.03017626953125,-9.115845664155483,-3.582823415702581,-0.4848858958058059
1633782467266055200,4.05005517578125,-9.10783011548221,-3.6108255213499065,-0.42397531736697996
1633782467285934300,4.069934326171875,-9.067590459552406,-3.715037590974569,-0.38429187054783104
1633782467305813200,4.089813232421875,-9.007690994384884,-3.8580709741637107,-0.3836287669965997
1633782467325692200,4.109692138671875,-8.951425501805543,-3.9840968161895867,-0.4115087441015988
1633782467345570000,4.129570068359375,-8.90206555083096,-4.087429472631216,-0.4653279395073652
1633782467365449200,4.14944921875,-8.861660475206374,-4.1674058034047485,-0.5235300627050921
1633782467385328400,4.169328369140625,-8.8427178743273,-4.204863135139644,-0.5439203781744465
1633782467405207000,4.18920703125,-8.846239618712664,-4.201302227787673,-0.5133170770527795
1633782467425086200,4.209086181640625,-8.844271533510089,-4.2106162918388845,-0.46899533944111316
1633782467444965000,4.228965087890625,-8.813247449693083,-4.27765218475759,-0.44581031521931286
1633782467464843300,4.24884326171875,-8.75139158976078,-4.400410257159173,-0.4689479931680485
1633782467484722200,4.26872216796875,-8.675366919222473,-4.540718014776706,-0.5387704115327447
1633782467504601300,4.288601318359375,-8.611140238505602,-4.648640337096154,-0.6393694782920182
1633782467524480000,4.30847998046875,-8.580673788571357,-4.688314468097687,-0.7497549027893692
1633782467544359200,4.328359130859375,-8.59474907567501,-4.647293890923262,-0.838647311272472
1633782467564237000,4.348237060546875,-8.65801304883957,-4.523213922268152,-0.8658731718502938
1633782467584116200,4.3681162109375,-8.754911580580472,-4.3403827816978096,-0.8264281003642827
1633782467603995100,4.3879951171875,-8.853510486498475,-4.150591154465079,-0.7472136208087206
1633782467623874300,4.407874267578125,-8.935575606244802,-3.988076533475518,-0.6489315988201647
1633782467643753200,4.427753173828125,-8.998053397467732,-3.8589109321191906,-0.5605585015034302
1633782467663632100,4.447632080078125,-9.041029784885048,-3.7659219750374553,-0.497997781237401
1633782467683510300,4.46751025390625,-9.065351740714908,-3.711300158011913,-0.4647939056959003
1633782467703389200,4.48738916015625,-9.072503366035223,-3.6954283428803083,-0.45152821794208137
1633782467723268400,4.507268310546875,-9.067086601683497,-3.7092420564383266,-0.44704814991857855
1633782467743147000,4.52714697265625,-9.058256229496001,-3.731668700040877,-0.43934225171636787
1633782467763026200,4.547026123046875,-9.050824618190527,-3.7494410880967974,-0.44119281148649747
1633782467782904000,4.566904052734375,-9.046333736512064,-3.7577176257938145,-0.4623739120073616
1633782467802783200,4.586783203125,-9.047440820971131,-3.751500358714163,-0.4903486547237262
1633782467822662100,4.606662109375,-9.056387513014673,-3.7263948512911793,-0.5159582392113283
1633782467842541300,4.626541259765625,-9.066599110427498,-3.697275139790773,-0.545268029923737
1633782467862420000,4.646419921875,-9.069042411926388,-3.685275782178342,-0.5844616839319468
1633782467882299100,4.666299072265625,-9.061666330200433,-3.6961905594244597,-0.628305501833558
1633782467902177000,4.686177001953125,-9.048177903074025,-3.7210531980022785,-0.6742565211474895
1633782467922056200,4.70605615234375,-9.032049190571904,-3.748895436912775,-0.7336543934684246
1633782467941935400,4.725935302734375,-9.010189240941404,-3.78074924955219,-0.8323504030853509
1633782467961814300,4.745814208984375,-8.987365414714812,-3.8027687736585736,-0.9677803255334496
1633782467981693200,4.765693115234375,-8.965706540614367,-3.8025358416855335,-1.1520478555824607
1633782468001571000,4.785571044921875,-8.939802868551014,-3.7893174636721607,-1.3752730389267205
1633782468021450200,4.8054501953125,-8.910558653888106,-3.7787753191307183,-1.5789833013966679
1633782468041329200,4.8253291015625,-8.8954832498312,-3.7653494358465074,-1.692011714683473
1633782468061208300,4.845208251953125,-8.907446074825526,-3.7399344240829344,-1.6854305827274918
1633782468081087200,4.865087158203125,-8.935415447247028,-3.7186639647781847,-1.5812261118873954
1633782468100966100,4.884966064453125,-8.945209111508726,-3.7600986757114527,-1.419604494214803
1633782468120844000,4.904843994140625,-8.909367398276924,-3.9049540136307477,-1.242936990840733
1633782468140723200,4.92472314453125,-8.836457060366868,-4.116109331409633,-1.0700737020552158
1633782468160602000,4.94460205078125,-8.752644804692268,-4.328320003460347,-0.9095259241592138
1633782468180481300,4.964481201171875,-8.684710501629114,-4.49111168782562,-0.7590187710233032
1633782468200360200,4.984360107421875,-8.652128666976093,-4.577326328466833,-0.5992799348900094
1633782468220238300,5.00423828125,-8.6628569817394,-4.578544764345884,-0.4027630545228719
1633782468240117200,5.0241171875,-8.707367739117146,-4.507898279714584,-0.1760172958370298
1633782468259996200,5.04399609375,-8.760015041199326,-4.408054634432494,0.039728126211091876
1633782468279875300,5.063875244140625,-8.797426195704936,-4.328346014684438,0.2027193700027652
1633782468299754200,5.083754150390625,-8.814570222729444,-4.288164810943603,0.29219295764099806
1633782468319633200,5.103633056640625,-8.823269662013649,-4.269145345436036,0.3077210373688489
1633782468339511000,5.123510986328125,-8.836409714093804,-4.245066842973232,0.26009728080341593
1633782468359390200,5.14339013671875,-8.858858861789107,-4.202962269954383,0.16157814385704694
1633782468379269000,5.16326904296875,-8.88655000179112,-4.147083730866015,0.03622953665574314
1633782468399148300,5.183148193359375,-8.915655684766174,-4.083364122888446,-0.08720847398415207
1633782468419027200,5.203027099609375,-8.941357112255693,-4.023104884497821,-0.19270718588586896
1633782468438905300,5.2229052734375,-8.960524754062295,-3.9771076879546046,-0.2489876933712512
1633782468458784000,5.242783935546875,-8.973187251758574,-3.948616922007501,-0.24641132181091233
1633782468478663200,5.2626630859375,-8.980048369699716,-3.936015214587748,-0.19209221405899152
1633782468498542300,5.282542236328125,-8.979918605840206,-3.9391672488778826,-0.12004735213816166
1633782468518421200,5.302421142578125,-8.972779840001463,-3.9564819562941786,-0.07649625183911994
1633782468538300200,5.322300048828125,-8.96672594678998,-3.9699566471561787,-0.0874611335709691
1633782468558178300,5.34217822265625,-8.971099339568614,-3.9581028354942798,-0.15225807019015775
1633782468578057200,5.36205712890625,-8.988805676651001,-3.913517551575601,-0.23692328943228347
1633782468597936000,5.38193603515625,-9.011621904093026,-3.856251065260172,-0.30062735278084873
1633782468617815300,5.401815185546875,-9.02368059067726,-3.8257559737533327,-0.3273559313610196
1633782468637694200,5.421694091796875,-9.011452977266908,-3.8544238498330112,-0.32790048656649884
1633782468657572000,5.441572021484375,-8.973421645036339,-3.941714303012192,-0.33312169181350615
1633782468677451000,5.461450927734375,-8.929197887906431,-4.039756744091212,-0.34666042435504496
1633782468697330000,5.481329833984375,-8.890552807691693,-4.1223432573631404,-0.3670667776437476
1633782468717209000,5.501208984375,-8.849928536358474,-4.204904928454757,-0.40978064166735856
1633782468737088300,5.521088134765625,-8.805733420801163,-4.289194738513231,-0.4819243060538545
1633782468756967200,5.54096728515625,-8.767832436951995,-4.355772950792312,-0.5681046790992841
1633782468776845300,5.56084521484375,-8.755053619399666,-4.373775640472769,-0.6241000129677355
1633782468796724000,5.580723876953125,-8.76176042356193,-4.358272950914502,-0.6382765684887767
1633782468816603100,5.60060302734375,-8.755092782366276,-4.372277803130448,-0.633972953010723
1633782468836482000,5.62048193359375,-8.713803325122594,-4.453548557628691,-0.637117388516292
1633782468856361200,5.640361328125,-8.643545547547935,-4.583872389109432,-0.6690425858914851
1633782468876239000,5.660239013671875,-8.570546946832538,-4.710431899620592,-0.7265961455199867
1633782468896118300,5.6801181640625,-8.524354519978164,-4.784073766675591,-0.7863827979627996
1633782468915997000,5.699996826171875,-8.518009534865618,-4.788199614433944,-0.8288755665816366
1633782468935876000,5.7198759765625,-8.55576847989559,-4.722006309819221,-0.8196743152551352
1633782468955755000,5.739755126953125,-8.632677532052993,-4.596885599939525,-0.718264662765339
1633782468975634200,5.75963427734375,-8.718274333056806,-4.456654414689541,-0.5480028617151081
1633782468995512000,5.779511962890625,-8.78365778259337,-4.347098353688419,-0.3470908151289448
1633782469015391200,5.79939111328125,-8.819402465191484,-4.286021076913178,-0.1362014730761759
1633782469035270100,5.819270263671875,-8.837993768414854,-4.249299073715508,0.06092501795613207
1633782469055149000,5.839149169921875,-8.85500920062363,-4.207945026803016,0.22890622465535998
1633782469075028200,5.8590283203125,-8.875871371388435,-4.1549326908007265,0.3547216022683307
1633782469094906000,5.878906005859375,-8.894280888304113,-4.108781765000522,0.4243360769707709
1633782469114785300,5.898785400390625,-8.904603544875979,-4.0841321846514935,0.44528358793146905
1633782469134664000,5.918663818359375,-8.907067889162898,-4.0792096335574985,0.44110264898501333
1633782469154543000,5.938543212890625,-8.902430292490124,-4.091994296328723,0.4155658009400591
1633782469174422000,5.958422119140625,-8.894670179882645,-4.111907495805621,0.38398952660039065
1633782469194301200,5.97830126953125,-8.896021009969711,-4.11071507115066,0.3649880351409316
1633782469214179000,5.998178955078125,-8.917800295579433,-4.064954313711822,0.34550332674179224
1633782469234058200,6.018058349609375,-8.965651595556736,-3.9630081431925293,0.2864289324878715
1633782469253937000,6.03793701171875,-9.03545227701366,-3.8078029684334993,0.1778406022740528
1633782469273816000,6.057816162109375,-9.11685864059031,-3.61201326982975,0.08145349978716113
1633782469293695200,6.0776953125,-9.193431008139251,-3.4128616935774683,-0.05990282160181086
1633782469313573000,6.097572998046875,-9.247361920291185,-3.2509932615369554,-0.2961778808250092
1633782469333452300,6.117452392578125,-9.270071764749288,-3.150272833420336,-0.5585151225749403
1633782469353331200,6.137331298828125,-9.281144362905621,-3.0753701526492834,-0.7568615929894149
1633782469373210000,6.157210205078125,-9.287012962678075,-3.0136767898023127,-0.9162534057833254
1633782469393089000,6.177089111328125,-9.292702698752283,-2.9692195161774753,-0.9998973922189325
1633782469412968200,6.19696826171875,-9.298689956468344,-2.9568165462002156,-0.9808093184545635
1633782469432846000,6.21684619140625,-9.282070245578884,-3.027814620748162,-0.9197248082209378
1633782469452725200,6.236725341796875,-9.214347539439796,-3.247089239835739,-0.8500574708200991
1633782469472604200,6.256604248046875,-9.0934122985512,-3.5955867434248328,-0.7429644389316439
1633782469492483000,6.276483154296875,-8.930856761029363,-4.004523225885629,-0.6115373589167371
1633782469512362000,6.296362060546875,-8.75040374776721,-4.399923934946954,-0.49140901396423575
1633782469532240100,6.316240234375,-8.583433316412568,-4.725126779927313,-0.4101614942111075
1633782469552119000,6.336119140625,-8.443716802686453,-4.972002814906835,-0.39144426305312663
1633782469571998200,6.355998291015625,-8.332294071030617,-5.154767612242698,-0.4142810948917642
1633782469591877000,6.375877197265625,-8.24897748991847,-5.284017677012086,-0.45157180135548114
1633782469611756000,6.395756103515625,-8.21091050185263,-5.342388617438077,-0.4584923943988979
1633782469631635200,6.41563525390625,-8.226533602920174,-5.319353194287419,-0.44610980962254104
1633782469651513000,6.43551318359375,-8.273286586266755,-5.2469373618960375,-0.43904999077152457
1633782469671393000,6.45539306640625,-8.318498185390233,-5.175286084136366,-0.4351866664068773
1633782469691272000,6.47527197265625,-8.346302722638844,-5.130550870352983,-0.43250816791262475
1633782469711150800,6.49515087890625,-8.35867588199973,-5.109492884755134,-0.44272772943619637
1633782469731030000,6.515030029296875,-8.360366319304704,-5.103250190973282,-0.4811425810916349
1633782469750908000,6.534907958984375,-8.356919978243113,-5.104273688802123,-0.5278892808279022
1633782469770787000,6.554787109375,-8.3488670201689,-5.115023046353459,-0.550759101620689
1633782469790666000,6.574666015625,-8.331903025886415,-5.1447933307170866,-0.5299796772358939
1633782469810545000,6.594544921875,-8.30576554506719,-5.193355993834138,-0.4622685519367456
1633782469830423800,6.614423828125,-8.280558038574457,-5.242011595931649,-0.3522159030577168
1633782469850302000,6.634302001953125,-8.25826320465803,-5.284908488371968,-0.20301384117100388
1633782469870180900,6.654180908203125,-8.232611461529135,-5.32847115124464,-0.043430396528821434
1633782469890060000,6.67406005859375,-8.197827732917666,-5.381182750734687,0.09425122296935878
1633782469909939000,6.69393896484375,-8.16124835306108,-5.4353661763429635,0.14562127165733835
1633782469929817900,6.71381787109375,-8.143947674170136,-5.461714669564366,0.127197589218989
1633782469949697000,6.733697021484375,-8.159530443227291,-5.439455491483211,0.06908118524306919
1633782469969575000,6.753574951171875,-8.200404889929294,-5.377971387472749,-0.03419379761101445
1633782469989454000,6.7734541015625,-8.246910620516537,-5.304315199631453,-0.15193872030898928
1633782470009333000,6.7933330078125,-8.277989649391174,-5.252606055182218,-0.2353867092484608
1633782470029212000,6.8132119140625,-8.267204636004566,-5.266401356300712,-0.29786787973856554
1633782470049090800,6.8330908203125,-8.210080480769276,-5.349902061808109,-0.37882779645565895
1633782470068969000,6.852968994140625,-8.132178325921297,-5.459770549759268,-0.47850938304383306
1633782470088848000,6.872847900390625,-8.073695157292486,-5.538155519688129,-0.560945199266076
1633782470108727000,6.89272705078125,-8.069200768482684,-5.542843385243415,-0.5790339597947896
1633782470128606000,6.91260595703125,-8.09798671798408,-5.504759446042776,-0.5390947846489027
1633782470148484900,6.93248486328125,-8.104754312422871,-5.499925450015068,-0.4839043008899316
1633782470168362800,6.95236279296875,-8.061455268922447,-5.566795338717102,-0.44058308209031816
1633782470188242000,6.972241943359375,-7.973622087168693,-5.69308012394011,-0.42493641748409716
1633782470208121000,6.99212109375,-7.867650606656074,-5.838196450883149,-0.43118349518012256
1633782470228000000,7.012,-7.7707257714301345,-5.965969428837299,-0.43978568463493134
1633782470247879000,7.03187890625,-7.705857285678386,-6.05067600300312,-0.423629791864939
1633782470267757800,7.0517578125,-7.690396097174286,-6.075204295060038,-0.346532925517857
1633782470287636000,7.071635986328125,-7.72644063950181,-6.036420098635554,-0.1847562634140253
1633782470307515000,7.091514892578125,-7.789432809987664,-5.9577288392364975,0.024230485003988722
1633782470327394000,7.11139404296875,-7.850091569089889,-5.874220534944534,0.19993171204561366
1633782470347273000,7.13127294921875,-7.903632605141401,-5.794893315729499,0.3495619179502129
1633782470367151900,7.15115185546875,-7.952931765839457,-5.7193602281004186,0.45844910324644295
1633782470387029800,7.17102978515625,-8.008899152255058,-5.636300836619735,0.5099374445518479
1633782470406909000,7.190908935546875,-8.080056509017943,-5.5350446941912175,0.4963469087578356
1633782470426787800,7.210787841796875,-8.163944168016315,-5.416788317123055,0.42285157403405754
1633782470446667000,7.2306669921875,-8.267837088689207,-5.264398784306645,0.31522845385689285
1633782470466546200,7.250546142578125,-8.393352643105388,-5.067412569394707,0.20819781968016177
1633782470486424000,7.270424072265625,-8.523577105864883,-4.847336863057315,0.1494583473358769
1633782470506302700,7.290302734375,-8.631170050099492,-4.6534340011134745,0.13725291835786774
1633782470526182000,7.310181884765625,-8.69657980312109,-4.529758521606028,0.14549403768163174
1633782470546061000,7.33006103515625,-8.72578543933928,-4.472355841690302,0.17053922975212335
1633782470565940000,7.34993994140625,-8.737334422835707,-4.448529560422897,0.19988456670194862
1633782470585819000,7.36981884765625,-8.744145271894336,-4.434692758250236,0.20931319704353807
1633782470605697000,7.389697021484375,-8.761634166833758,-4.399850577449798,0.21322315529519692
1633782470625576000,7.409575927734375,-8.787821916535496,-4.346949592867493,0.22046090626269577
1633782470645454800,7.429454833984375,-8.808727341920138,-4.304072574171424,0.22730991364093497
1633782470665333800,7.449333740234375,-8.813631480574607,-4.295067137677967,0.20660273250844327
1633782470685212700,7.469212646484375,-8.804186191359161,-4.316298141755164,0.16205173445185644
1633782470705090800,7.4890908203125,-8.789749085205793,-4.347204736672341,0.11183638135748915
1633782470724969700,7.5089697265625,-8.769992245334386,-4.38794795821011,0.059417631900752894
1633782470744848600,7.5288486328125,-8.751600264075398,-4.4246664542764425,0.04691561286265496
1633782470764727600,7.5487275390625,-8.744383756825327,-4.437965788571536,0.10295858069853857
1633782470784606700,7.568606689453125,-8.749722779765724,-4.423229991732537,0.21856897330256178
1633782470804484600,7.588484619140625,-8.747913684517144,-4.418676566211879,0.3459633820015937
1633782470824363800,7.60836376953125,-8.713080271545053,-4.480132905432582,0.42546763828396794
1633782470844242700,7.62824267578125,-8.635942086806892,-4.626595094026625,0.4307079500902444
1633782470864121600,7.64812158203125,-8.538955876782536,-4.806912205949425,0.3875692482506856
1633782470884000800,7.668000732421875,-8.456942194962501,-4.953585699206591,0.3354240139391273
1633782470903878700,7.687878662109375,-8.407138591873645,-5.039286545106768,0.3098416097193956
1633782470923757800,7.7077578125,-8.380596037384867,-5.081874225467443,0.332493659575656
1633782470943636700,7.72763671875,-8.362123392105103,-5.108412688302994,0.3865215292960405
1633782470963515600,7.747515625,-8.362112870711087,-5.103408011883497,0.44797319234162564
1633782470983394600,7.76739453125,-8.386387480267882,-5.0614095295876265,0.47012956763543184
1633782471003273700,7.787273681640625,-8.43648568238914,-4.98118974544704,0.4287663510357961
1633782471023151600,7.807151611328125,-8.506378133782745,-4.867661858205497,0.3431925655813888
1633782471043030800,7.82703076171875,-8.582474700513481,-4.739220771731436,0.22648369194986298
1633782471062909700,7.84690966796875,-8.648229321449994,-4.622671783103049,0.09705587772708385
1633782471082788600,7.86678857421875,-8.693300635319948,-4.538368236780166,-0.010876805014529964
1633782471102666500,7.88666650390625,-8.715708281961083,-4.494371858665347,-0.08620353472530841
1633782471122545700,7.906545654296875,-8.712015857183932,-4.5003345664620396,-0.1347191255639307
1633782471142424600,7.926424560546875,-8.685110899123549,-4.55128617054224,-0.15820245687887072
1633782471162303700,7.9463037109375,-8.646435423770546,-4.624597198207677,-0.15046638273410498
1633782471182183000,7.966182861328125,-8.609355108654498,-4.694281267547607,-0.11450962828788906
1633782471202061600,7.9860615234375,-8.57714386087954,-4.753577506124973,-0.08054709813250228
1633782471221939700,8.005939697265624,-8.54498989624977,-4.811223639407753,-0.07523424624640028
1633782471241818600,8.025818603515624,-8.504548580268025,-4.881541914997994,-0.11653886909317225
1633782471261697800,8.04569775390625,-8.458914956340193,-4.958119250983,-0.18491359113389624
1633782471281576700,8.06557666015625,-8.419127720353007,-5.0222196749717,-0.25686027164356784
1633782471301455600,8.08545556640625,-8.395352877011895,-5.059012989839911,-0.30793069806415585
1633782471321333800,8.105333740234375,-8.38614782629311,-5.072855637231469,-0.3302229746973142
1633782471341212700,8.125212646484375,-8.37885650024116,-5.084576470163464,-0.335005934657529
1633782471361091600,8.145091552734375,-8.355697742971778,-5.119871655428409,-0.3736471058821305
1633782471380970800,8.164970703125,-8.319464400073885,-5.174344419372082,-0.4278523049307987
1633782471400849700,8.184849609375,-8.292536645659803,-5.214816130492091,-0.4581598014436662
1633782471420727800,8.204727783203126,-8.297403374913335,-5.208460039463639,-0.4420716766802594
1633782471440606700,8.224606689453125,-8.32825794738233,-5.162471026226878,-0.3992564346414059
1633782471460485600,8.244485595703125,-8.35364256400764,-5.123379371288419,-0.3715107879731804
1633782471480364800,8.26436474609375,-8.353478313356637,-5.122556948989629,-0.3862519916396588
1633782471500243700,8.28424365234375,-8.331562249624728,-5.153915379327535,-0.43888161193467673
1633782471520121900,8.304121826171874,-8.305995262169837,-5.189070279338956,-0.5043485019709915
1633782471540000800,8.324000732421876,-8.295074639704824,-5.201203784725069,-0.5564213286334648
1633782471559879700,8.343879638671876,-8.310331830069423,-5.175252766388654,-0.5705506840119138
1633782471579758600,8.363758544921875,-8.358185468134284,-5.1022126646190875,-0.5277819845285266
1633782471599637800,8.3836376953125,-8.434632747998833,-4.984241534233093,-0.42976193794440476
1633782471619515600,8.403515625,-8.518586457970738,-4.849405486024916,-0.2955300113755278
1633782471639394800,8.423394775390625,-8.586415547093749,-4.734389990574122,-0.17148854809990152
1633782471659273700,8.443273681640624,-8.623724994790553,-4.668302484421432,-0.09328872547959909
1633782471679152400,8.46315234375,-8.633445009294151,-4.650552892719209,-0.079828035743488
1633782471699031600,8.483031494140626,-8.627786252880096,-4.6599622338384386,-0.12822518783421255
1633782471718909400,8.502909423828125,-8.61903069949448,-4.672845096287131,-0.21728918089140206
1633782471738788600,8.52278857421875,-8.62089707788825,-4.663808387872576,-0.31529227634072304
1633782471758667500,8.54266748046875,-8.633724410757422,-4.633315342192351,-0.40196178460996596
1633782471778546700,8.562546630859375,-8.647107623943686,-4.602851230345666,-0.4600742932954803
1633782471798425600,8.582425537109375,-8.655618847179412,-4.585689375403523,-0.47127716676797715
1633782471818303500,8.602303466796876,-8.657609144213795,-4.584691888798773,-0.44361393768619745
1633782471838182700,8.6221826171875,-8.650452258196472,-4.602521559999883,-0.3960487246412784
1633782471858061600,8.6420615234375,-8.627429694527388,-4.648846381062269,-0.35507089063003655
1633782471877940700,8.661940673828125,-8.584113115370274,-4.730289277257025,-0.32825331859216095
1633782471897819400,8.6818193359375,-8.52492267525494,-4.837772331376374,-0.3033658013014123
1633782471917697800,8.70169775390625,-8.456191668856144,-4.958308051553368,-0.2799626773495227
1633782471937576400,8.721576416015624,-8.378803893271089,-5.088946940332651,-0.26200453919684513
1633782471957455600,8.74145556640625,-8.299822126492858,-5.218223308587074,-0.23125697076627982
1633782471977334500,8.76133447265625,-8.25179313186109,-5.296475592046976,-0.16011495770299805
1633782471997213700,8.781213623046876,-8.259362690332532,-5.286497218868136,-0.07911132057518698
1633782472017091600,8.801091552734375,-8.32357651156783,-5.185291345322132,-0.03478293631031411
1633782472036970500,8.820970458984375,-8.423585284283757,-5.02130489821434,-0.00966229639192461
1633782472056849400,8.840849365234375,-8.508105395966767,-4.876733053411543,0.000039959553389894606
1633782472076728600,8.860728515625,-8.529342829784751,-4.839430035455525,-0.02464317344112787
1633782472096607700,8.880607666015624,-8.473235742637515,-4.936332951110601,-0.08527760638627223
1633782472116485600,8.900485595703126,-8.366091711214183,-5.113811916998029,-0.16679644476091487
1633782472136364500,8.920364501953125,-8.25435099965036,-5.2895805718362325,-0.23750308034792542
1633782472156243500,8.940243408203125,-8.168806805616617,-5.419448476243018,-0.26561690274141725
1633782472176122600,8.96012255859375,-8.124417044270038,-5.48632537920773,-0.25389122923752294
1633782472196001500,8.98000146484375,-8.128177858108282,-5.4815252854496235,-0.23663060836233196
1633782472215880700,8.999880615234375,-8.183518052536249,-5.399184855893254,-0.2218530182082206
1633782472235758600,9.019758544921874,-8.27783007491529,-5.254565372556447,-0.19350741461915894
1633782472255637800,9.0396376953125,-8.38391027649939,-5.084070858728885,-0.18070583724575115
1633782472275516400,9.059516357421876,-8.47369225423336,-4.931645670077204,-0.21400343721900134
1633782472295395600,9.0793955078125,-8.539425247859954,-4.811873627749085,-0.30737313724663107
1633782472315274500,9.0992744140625,-8.583906779143213,-4.71942535341531,-0.46254901284594085
1633782472335152600,9.119152587890625,-8.61214970780909,-4.646132445928454,-0.6439881510686128
1633782472355031600,9.139031494140625,-8.62867472615242,-4.5917689875781535,-0.7949932437893003
1633782472374910700,9.15891064453125,-8.635773744502663,-4.563930840320885,-0.8742598919235169
1633782472394789400,9.178789306640626,-8.630254688820242,-4.5737768192917105,-0.8772973599232733
1633782472414668500,9.19866845703125,-8.608610427767038,-4.623959192565083,-0.8253560872185974
1633782472434546400,9.21854638671875,-8.572983818590641,-4.703760166771709,-0.740929718233645
1633782472454425600,9.238425537109375,-8.529734459450841,-4.79389636477083,-0.6577005962092429
1633782472474304800,9.2583046875,-8.482087157613039,-4.883660222326219,-0.611916129101254
1633782472494183400,9.278183349609375,-8.440113809758424,-4.956916889455914,-0.6031922494955361
1633782472514061600,9.2980615234375,-8.409601182594894,-5.007386262977123,-0.6124392761925235
1633782472533940500,9.3179404296875,-8.38669201617241,-5.044371301025152,-0.6229741507429629
1633782472553819600,9.337819580078126,-8.360815232115984,-5.086387318977713,-0.6291426102448254
1633782472573698600,9.357698486328125,-8.324629235491155,-5.141884749794006,-0.6572381663292646
1633782472593577700,9.37757763671875,-8.286363509982824,-5.197289241629838,-0.7033844890195876
1633782472613455600,9.39745556640625,-8.259387824773787,-5.231449285385012,-0.7647425554975866
1633782472633334500,9.41733447265625,-8.245486725193262,-5.240532171028852,-0.8480330523204058
1633782472653213400,9.43721337890625,-8.249775362297893,-5.2234693925470115,-0.9093689069665968
1633782472673092400,9.45709228515625,-8.261170032015443,-5.202237803947925,-0.927456206190586
1633782472692971500,9.476971435546876,-8.25865775693357,-5.2072167614042755,-0.9218730722960085
1633782472712849400,9.496849365234375,-8.2265037923038,-5.256610030126572,-0.929015783657506
1633782472732728600,9.516728515625,-8.16805452594459,-5.339553101751208,-0.9707949241142719
1633782472752607200,9.536607177734375,-8.101616598919033,-5.427714784806967,-1.036394646750018
1633782472772486400,9.556486328125,-8.044531606650352,-5.499705669784546,-1.0996060129445047
1633782472792365300,9.576365234375,-8.009112502744793,-5.54511074565351,-1.129708305741474
1633782472812243500,9.596243408203126,-8.01309134324789,-5.546363376063108,-1.094806795969233
1633782472832122400,9.616122314453126,-8.05531662003696,-5.5055292613714935,-0.9855996214710175
1633782472852001500,9.63600146484375,-8.122237946665287,-5.434853550645709,-0.8136337199166417
1633782472871880200,9.655880126953125,-8.20791190455854,-5.33542813077569,-0.5777268957842141
1633782472891759400,9.67575927734375,-8.295037814825772,-5.223354241734743,-0.2816003067550249
1633782472911637200,9.69563720703125,-8.361159515509009,-5.124390009635687,0.044997212020703586
1633782472931516400,9.715516357421874,-8.388896248218417,-5.071109085825086,0.2839965542417951
1633782472951395300,9.735395263671874,-8.380637538439036,-5.079349090903997,0.36811946503445503
1633782472971274500,9.7552744140625,-8.34903594699502,-5.133371188470721,0.3353820379609242
1633782472991153400,9.7751533203125,-8.30791074040234,-5.204745402854681,0.24420352783463894
1633782473011031300,9.79503125,-8.274091472908854,-5.261655038556456,0.15740368945030495
1633782473030910200,9.81491015625,-8.257263672226667,-5.289279543063044,0.10728977830326183
1633782473050789400,9.834789306640625,-8.25418031925857,-5.294318706274033,0.09527873025303706
1633782473070668500,9.85466845703125,-8.256785533320903,-5.290402994135022,0.08669667940395884
1633782473090547200,9.874547119140624,-8.26205032198131,-5.282687305191159,0.046036583272111596
1633782473110425600,9.894425537109376,-8.260772557130455,-5.284777555468678,-0.03385826606331393
1633782473130304300,9.91430419921875,-8.253686982783675,-5.294445547524094,-0.12600824243710376
1633782473150183400,9.934183349609375,-8.251703700011968,-5.295505285710096,-0.19338177894549444
1633782473170062300,9.954062255859375,-8.261637065005303,-5.279639608058333,-0.20283780875066293
1633782473189941500,9.97394140625,-8.267527292087674,-5.271015572097897,-0.18647841103151439
1633782473209819400,9.9938193359375,-8.253335100606083,-5.293499791106582,-0.17806443762518465
1633782473229698300,10.0136982421875,-8.231935754224658,-5.32709109506309,-0.1664888401164673
1633782473249577200,10.0335771484375,-8.224071012198925,-5.339435028329492,-0.15959935459736735
1633782473269456400,10.053456298828126,-8.254006131735444,-5.293811341273784,-0.13165205701035446
1633782473289335300,10.073335205078125,-8.316143731218576,-5.196981198593974,-0.05936017065905034
1633782473309213400,10.09321337890625,-8.36624836308062,-5.1160968130648135,0.042788477329513984
1633782473329092400,10.11309228515625,-8.365535246375202,-5.115603476589918,0.1371289357851725
1633782473348971300,10.13297119140625,-8.298224043646455,-5.2228059602022165,0.17932028290517626
1633782473368850400,10.152850341796874,-8.189191421997547,-5.392233721581101,0.17703082026112824
1633782473388729300,10.172729248046876,-8.082219240009785,-5.551770203542709,0.1611299799644388
1633782473408607500,10.192607421875,-8.011847480666637,-5.6532057941913605,0.14813879830306395
1633782473428486400,10.212486328125,-7.99293176779449,-5.679919029071927,0.1481417939777486
1633782473448365600,10.232365478515625,-8.016050193053484,-5.6470157073795795,0.15661546168206258
1633782473468244200,10.252244140625,-8.063100698041916,-5.579623840630054,0.15683153385184703
1633782473488123400,10.272123291015625,-8.128089595302939,-5.485279085025191,0.12749621597253716
1633782473508001300,10.292001220703124,-8.211313237434625,-5.361010900321602,0.06549384654189926
1633782473527880400,10.31188037109375,-8.303862926316262,-5.21690521172583,-0.012310807314934209
1633782473547759400,10.33175927734375,-8.389127134364843,-5.077641117942333,-0.10240913925538771
1633782473567638300,10.35163818359375,-8.457973291575907,-4.9590655919224025,-0.2018505512789823
1633782473587517200,10.37151708984375,-8.506774439623952,-4.869698332469165,-0.30200622165231034
1633782473607395300,10.391395263671875,-8.539515264230966,-4.80564408570975,-0.39095512782931324
1633782473627274200,10.411274169921874,-8.564977622267604,-4.754126372179389,-0.4580680315069854
1633782473647153400,10.4311533203125,-8.592115220040082,-4.701687744411826,-0.4899735012684017
1633782473667032800,10.45103271484375,-8.614929693916439,-4.658526063555478,-0.5014995422806591
1633782473686911500,10.470911376953126,-8.621732944190502,-4.644676401901245,-0.5129175928737968
1633782473706789600,10.49078955078125,-8.601841664284468,-4.676491051574051,-0.5559986097093671
1633782473726668500,10.51066845703125,-8.559647367155552,-4.741734508118033,-0.6471242571372539
1633782473746547700,10.530547607421875,-8.50983616528213,-4.811263094635308,-0.7777001636829227
1633782473766426600,10.550426513671875,-8.472579909077286,-4.857534431944787,-0.8888928129099309
1633782473786305800,10.570305908203125,-8.457156714496016,-4.874125793522596,-0.943283743789047
1633782473806183700,10.59018359375,-8.45726134391427,-4.874344404709339,-0.9412147554952651
1633782473826062600,10.6100625,-8.451420801192521,-4.8895627243682735,-0.9143574359688907
1633782473845941500,10.62994140625,-8.42607827014327,-4.9383431218892335,-0.8856414098985492
1633782473865820700,10.649820556640625,-8.383038169839978,-5.008201671013236,-0.9016482495866716
1633782473885698600,10.669698486328125,-8.33952168419659,-5.067829333502054,-0.9694655752066522
1633782473905577700,10.68957763671875,-8.312451890963315,-5.098267141863704,-1.0398034322801977
1633782473925456600,10.70945654296875,-8.308644899895787,-5.099830737918615,-1.0623224303413181
1633782473945335600,10.72933544921875,-8.311552896296977,-5.1013364663064475,-1.031909025768563
1633782473965214700,10.749214599609376,-8.292471179208158,-5.140772404637932,-0.9888189488437026
1633782473985092600,10.769092529296875,-8.237367716145515,-5.23223605184853,-0.9694668903809041
1633782474004971500,10.788971435546875,-8.167254315477608,-5.339926026716828,-0.9754669345133006
1633782474024850700,10.8088505859375,-8.109839068341255,-5.421980040547251,-1.0015144720267504
1633782474044729600,10.8287294921875,-8.079869462013244,-5.460220631614327,-1.0354118462577462
1633782474064608500,10.8486083984375,-8.078605141165852,-5.459239219361543,-1.0503509105838835
1633782474084486700,10.868486572265626,-8.107501565304398,-5.4198354297339915,-1.031593603143841
1633782474104365600,10.888365478515626,-8.165739234739542,-5.339409309366345,-0.9908521351717412
1633782474124244700,10.90824462890625,-8.241308562725782,-5.229544328546524,-0.9503041439451276
1633782474144123600,10.92812353515625,-8.31527571621239,-5.117153628641367,-0.9172305802524089
1633782474164002600,10.94800244140625,-8.376308569324015,-5.02080162486732,-0.894085559247434
1633782474183880400,10.96788037109375,-8.416247781002522,-4.9570191807866095,-0.8747133347794414
1633782474203759600,10.987759521484374,-8.435411915677786,-4.928952777731419,-0.8483084351956843
1633782474223638500,11.007638427734374,-8.434877078148721,-4.934403444352745,-0.8215192855346948
1633782474243517700,11.027517578125,-8.427294660195708,-4.95138497429192,-0.7967919637743384
1633782474263396600,11.047396728515626,-8.42102332484126,-4.966238260030746,-0.7702098809927701
1633782474283274800,11.067274658203125,-8.421518414881826,-4.970130591294169,-0.7390646550141274
1633782474303153400,11.0871533203125,-8.43241916360259,-4.958885559180379,-0.6885807415109128
1633782474323032600,11.107032470703125,-8.449570204889774,-4.9386780529320236,-0.6201658883892
1633782474342911700,11.126911865234375,-8.459041213068366,-4.9291567758709185,-0.5642882991489022
1633782474362790700,11.146790771484374,-8.448518650010227,-4.9502726291358465,-0.5363918458331376
1633782474382668800,11.166668701171876,-8.422597442290186,-4.995901576888561,-0.5207697676789015
1633782474402547700,11.186547607421875,-8.396694354748725,-5.041579624480009,-0.4983838214129209
1633782474422426600,11.206426513671875,-8.375514788597823,-5.078037423783541,-0.4844206529142335
1633782474442305500,11.226305419921875,-8.357084228894115,-5.106297888106107,-0.5052140327591449
1633782474462183700,11.24618359375,-8.348805645370483,-5.1145571824073786,-0.5559940065994858
1633782474482062600,11.2660625,-8.355757364204525,-5.094781053313612,-0.6284129807960241
1633782474501941800,11.285941650390624,-8.385507190302015,-5.035595289373398,-0.7045762560874224
1633782474521820700,11.305820556640626,-8.446335460752248,-4.928807231780886,-0.732572516515851
1633782474541699600,11.325699462890626,-8.52425456673503,-4.799388532446325,-0.6879919087722897
1633782474561577500,11.345577392578125,-8.584113699892162,-4.702327795881033,-0.6094999348049983
1633782474581456600,11.36545654296875,-8.590345287758112,-4.696926521359384,-0.5614520528096706
1633782474601335600,11.38533544921875,-8.524141169488429,-4.812167934520542,-0.5936721414782107
1633782474621214700,11.405214599609375,-8.403544951295853,-5.009045136100053,-0.6784393597900867
1633782474641093600,11.42509375,-8.266141975209116,-5.220584192499518,-0.766018055326119
1633782474660971500,11.444971435546876,-8.159198434793948,-5.37921934170723,-0.8135445072632282
1633782474680850400,11.464850341796875,-8.114926746869086,-5.44494006037414,-0.8191307829629629
1633782474700729600,11.4847294921875,-8.122899040922523,-5.434521542212367,-0.809241403241828
1633782474720608500,11.5046083984375,-8.159919734805822,-5.3779193650245665,-0.8149136767245828
1633782474740487700,11.52448779296875,-8.212861051398516,-5.289350854733586,-0.8614280290096997
1633782474760365600,11.544365478515624,-8.281804823765158,-5.1672418938905,-0.9389916726183146
1633782474780244500,11.564244384765624,-8.360777822715043,-5.019129892262816,-1.0373586694765835
1633782474800123600,11.58412353515625,-8.434885845977067,-4.867944766800106,-1.151607783664763
1633782474820002600,11.60400244140625,-8.48780962691307,-4.742413430292904,-1.2794484200276435
1633782474839881700,11.6238818359375,-8.514931442594527,-4.65990378164947,-1.3970033708281815
1633782474859759600,11.643759521484375,-8.520835113680363,-4.621741224254667,-1.4850103017136453
1633782474879638800,11.663638671875,-8.514457395341992,-4.618471993325651,-1.5310506067462264
1633782474899517400,11.683517333984375,-8.502910165411233,-4.64143931967616,-1.525757907165587
1633782474919396600,11.703396728515624,-8.488010117921233,-4.68451244546622,-1.4762811979435384
1633782474939275500,11.723275634765624,-8.469817458626627,-4.736452768322825,-1.4137147055238484
1633782474959153700,11.743153564453126,-8.451100483196972,-4.782225508460402,-1.370987178301066
1633782474979032600,11.763032470703125,-8.422920098373293,-4.829331250767409,-1.3792613779105245
1633782474998911700,11.782911865234375,-8.388073241397738,-4.8785526700541375,-1.4178637880273162
1633782475018790400,11.802790283203125,-8.35899386190772,-4.919996733337641,-1.4461075934760272
1633782475038669600,11.822669677734375,-8.340361057630181,-4.951038937333226,-1.4477476157680154
1633782475058547500,11.84254736328125,-8.327319789749383,-4.979612120866776,-1.4246378122068941
1633782475078426600,11.862426513671876,-8.312507420542836,-5.017659819710254,-1.3768405805043875
1633782475098305500,11.882305419921876,-8.283337440159917,-5.072012172144651,-1.3532910703517496
1633782475118184400,11.902184326171875,-8.246638817837834,-5.127040816405415,-1.3699584197752177
1633782475138063600,11.922063720703125,-8.233751863735915,-5.141943201982975,-1.391451143528521
1633782475157941500,11.94194140625,-8.258629115360975,-5.10556665122211,-1.3779041180826723
1633782475177820700,11.961820556640625,-8.300514784932137,-5.051006793516874,-1.3263371585831045
1633782475197699600,11.981699462890624,-8.318385957187413,-5.03490029284656,-1.274604633258283
1633782475217578800,12.001578857421874,-8.285808214187622,-5.094265505006909,-1.250690527576953
1633782475237457400,12.02145751953125,-8.210285063430666,-5.21013703276515,-1.2712490392200648
1633782475257335600,12.04133544921875,-8.128966962659359,-5.327009846520424,-1.308909638442099
1633782475277214500,12.06121435546875,-8.077047974851727,-5.402286913561821,-1.3217333180494606
1633782475297093600,12.08109375,-8.074552066382765,-5.416029607710242,-1.2800840875826776
1633782475316972500,12.10097265625,-8.114310660797358,-5.377250671982765,-1.1889170852310955
1633782475336851700,12.120851806640625,-8.173416929760576,-5.308958641523122,-1.086553566082567
1633782475356729600,12.1407294921875,-8.240204985398053,-5.221804674205184,-1.0010819988936186
1633782475376608500,12.1606083984375,-8.316648173609375,-5.11185084605813,-0.9342012234713881
1633782475396487400,12.1804873046875,-8.394985797265171,-4.990057527035474,-0.891021130175516
1633782475416366600,12.20036669921875,-8.453434479102492,-4.892144265294075,-0.8813377213552593
1633782475436245800,12.220245849609375,-8.474112525472044,-4.852482993774116,-0.9017822512298822
1633782475456123600,12.24012353515625,-8.459989892095328,-4.871325641410053,-0.9322789501719176
1633782475476002600,12.26000244140625,-8.429830900675057,-4.9182332307964565,-0.9588132482890039
1633782475495881500,12.279881591796874,-8.394811025220156,-4.974747729700804,-0.9743776049066334
1633782475515760600,12.2997607421875,-8.368090776076912,-5.022268774810433,-0.9603400194648652
1633782475535638500,12.319638427734375,-8.356464051169157,-5.050658418470621,-0.9114533850904554
1633782475555517700,12.339517578125,-8.351904780429601,-5.070402983382344,-0.840883692022413
1633782475575396600,12.359396728515625,-8.340246491339803,-5.100627441254258,-0.7708912143204361
1633782475595275500,12.379275634765625,-8.315814645394683,-5.14892648499906,-0.7114548366200178
1633782475615154400,12.399154541015625,-8.279763088804483,-5.212031468209624,-0.6712951140586286
1633782475635033600,12.41903369140625,-8.23532598118484,-5.283336124488711,-0.6604138737559319
1633782475654911500,12.438911376953126,-8.19060479592681,-5.3501943227529525,-0.6780879890691489
1633782475674791200,12.458791259765626,-8.15449654071331,-5.3997267076849935,-0.7193935206647962
1633782475694670000,12.478670166015625,-8.142111106392742,-5.410198417338728,-0.778568105623871
1633782475714549000,12.498549072265625,-8.16796158696413,-5.36165095179081,-0.8411244419757277
1633782475734427000,12.518427001953125,-8.25257872928083,-5.229769369474053,-0.8454864365775138
1633782475754306000,12.53830615234375,-8.376297463408113,-5.038587456926703,-0.787823279094696
1633782475774185200,12.558185302734374,-8.47354320115149,-4.879463355158269,-0.7485285027995705
1633782475794064100,12.578064208984374,-8.490259942674637,-4.843498892329633,-0.7914458535060286
1633782475813943000,12.597943115234376,-8.42380331094861,-4.930892221361399,-0.9466904104273766
1633782475833821200,12.6178212890625,-8.304489533782005,-5.083804316747188,-1.1665216404844074
1633782475853700000,12.6377001953125,-8.179322938933968,-5.236106755802035,-1.3609706650689244
1633782475873579000,12.6575791015625,-8.104573110637068,-5.328794976371526,-1.4457606797344982
1633782475893458200,12.677458251953125,-8.107930604371427,-5.3317473964363336,-1.415739197088778
1633782475913337000,12.697337158203124,-8.17042417768538,-5.2607934532910585,-1.3185602409712969
1633782475933215200,12.71721533203125,-8.248202998414635,-5.164920172944664,-1.2087707365404814
1633782475953094000,12.737093994140626,-8.312634261792898,-5.077032630655169,-1.1376445055682212
1633782475972973000,12.75697314453125,-8.364614039877056,-4.991573192295432,-1.1348162233397363
1633782475992852000,12.77685205078125,-8.409556174409389,-4.900981944005191,-1.1958818096771835
1633782476012731100,12.796731201171875,-8.442649465715885,-4.818077450825274,-1.295445322843641
1633782476032610300,12.8166103515625,-8.462291154775023,-4.756470304957032,-1.3914023359507321
1633782476052488200,12.83648828125,-8.473648415091633,-4.719490235345066,-1.447094558686763
1633782476072367000,12.8563671875,-8.478861765825748,-4.707364328743517,-1.4560248841173946
1633782476092246000,12.87624609375,-8.477785661026834,-4.714171670670807,-1.44018083377555
1633782476112125200,12.896125244140626,-8.477480540600418,-4.721221881443261,-1.4187234735965728
1633782476132004000,12.916004150390625,-8.471940442129968,-4.73969949515909,-1.389911659001559
1633782476151882200,12.93588232421875,-8.443716218164562,-4.795981938873231,-1.3684269724242388
1633782476171761200,12.95576123046875,-8.402405718132853,-4.871192954941094,-1.3569984004370867
1633782476191640000,12.97564013671875,-8.356574525806307,-4.9451241603314875,-1.3725139494769274
1633782476211519000,12.99551904296875,-8.313051025900243,-5.007402045068145,-1.4104948666945099
1633782476231398100,13.015398193359376,-8.261853922626376,-5.075974061512947,-1.4651415259003637
1633782476251276000,13.035276123046875,-8.205439376965165,-5.1555397656589745,-1.5038465196087956
1633782476271155200,13.0551552734375,-8.1592522108078,-5.229170234537125,-1.5009237640298903
1633782476291033900,13.075033935546875,-8.13054867889285,-5.282937480559945,-1.4680388547770677
1633782476310913000,13.0949130859375,-8.153540847423672,-5.2724453126400705,-1.37530679506585
1633782476330792200,13.114792236328125,-8.235514781755208,-5.172793682798743,-1.2605062575399875
1633782476350670000,13.134670166015624,-8.337151447933913,-5.024839502081274,-1.1888149400308727
1633782476370549000,13.154549072265626,-8.404025428289174,-4.911897013512253,-1.1899610413260757
1633782476390428200,13.17442822265625,-8.399391338747739,-4.9092479603081935,-1.2328384984135627
1633782476410307000,13.19430712890625,-8.329840832659603,-5.016553904294967,-1.2721312288820743
1633782476430186000,13.21418603515625,-8.238369002142548,-5.165232892155647,-1.2728022600114344
1633782476450064100,13.234064208984375,-8.168972809833289,-5.28406443876326,-1.2316378904521466
1633782476469943000,13.253943115234375,-8.148990344512463,-5.325200166749954,-1.1859971791964024
1633782476489822200,13.273822265625,-8.180000984326005,-5.286174562785029,-1.1464378336809575
1633782476509701000,13.293701171875,-8.23275116226077,-5.209426838669181,-1.119850782463327
1633782476529580000,13.313580078125,-8.279813942208886,-5.141517085525393,-1.086213228212297
1633782476549458000,13.3334580078125,-8.30817435977459,-5.108702611160278,-1.0226338324230164
1633782476569337000,13.353337158203125,-8.32318312833607,-5.09993419829309,-0.9411096146203577
1633782476589216000,13.373216064453125,-8.336143147674202,-5.088095876461267,-0.8890307600758969
1633782476609095200,13.39309521484375,-8.353536181023717,-5.057822903272509,-0.8984677929196506
1633782476628974000,13.41297412109375,-8.372600362455845,-5.015508194634318,-0.956361982679367
1633782476648852200,13.432852294921876,-8.384074527150393,-4.983199916225671,-1.0224470776792616
1633782476668730600,13.452730712890625,-8.387194704997539,-4.9703100395143025,-1.058945720449835
1633782476688609500,13.472609619140625,-8.388489420983195,-4.9693268736958505,-1.0532908364932982
1633782476708488700,13.49248876953125,-8.394338731533288,-4.968633046212792,-1.0090355882465838
1633782476728367900,13.512367919921875,-8.399451544502377,-4.970726803621649,-0.9547100507538765
1633782476748245800,13.532245849609374,-8.398172026085852,-4.983362413311005,-0.8984402473255991
1633782476768124700,13.552124755859374,-8.385656243383885,-5.013792038366198,-0.844419099606946
1633782476788003600,13.572003662109376,-8.363167348200083,-5.059978035479784,-0.7902179922115057
1633782476807882800,13.5918828125,-8.333483573076128,-5.11787375960946,-0.7285589700255543
1633782476827761700,13.61176171875,-8.298514551025628,-5.182315544381737,-0.6698093324802815
1633782476847639800,13.631639892578125,-8.255984153810143,-5.254566541600227,-0.6313793563209473
1633782476867518700,13.651518798828125,-8.207664067277312,-5.330151067155599,-0.6277948488976806
1633782476887398000,13.67139794921875,-8.18276811095178,-5.365509380784631,-0.6511592117417603
1633782476907276500,13.691276611328124,-8.220462174051999,-5.308380549374222,-0.6445756686329841
1633782476927155700,13.71115576171875,-8.324648524713515,-5.153894921061396,-0.5549558957234024
1633782476947033600,13.73103369140625,-8.440835694292188,-4.975234636434912,-0.41196383092533795
1633782476966912800,13.750912841796875,-8.519469086024165,-4.8485959232077,-0.28310797137161714
1633782476986791700,13.770791748046875,-8.535221366429328,-4.822400282460451,-0.25462440235028044
1633782477006670600,13.790670654296875,-8.474857790881394,-4.923064888736605,-0.33256453285478055
1633782477026549800,13.8105498046875,-8.355211420759558,-5.115421690282226,-0.4396462761642411
1633782477046427600,13.830427734375,-8.223628529128431,-5.317610734534263,-0.5151139338742942
1633782477066306600,13.850306640625,-8.128405237123369,-5.458357175830006,-0.5529389664104208
1633782477086185700,13.870185791015626,-8.092234438067674,-5.511359867221117,-0.5577059981491417
1633782477106065000,13.89006494140625,-8.098492913940548,-5.502760381180048,-0.5517473820056766
1633782477125943600,13.909943603515625,-8.115127822399138,-5.475759561529755,-0.5754444108702242
1633782477145821700,13.92982177734375,-8.135047743877768,-5.4387610794782635,-0.6413009578112513
1633782477165700600,13.94970068359375,-8.17239986167252,-5.369739565700292,-0.7403750069603323
1633782477185579800,13.969579833984374,-8.230416581833362,-5.26235704934597,-0.8592049461327492
1633782477205458700,13.989458740234374,-8.29451992843151,-5.13648785918653,-0.9938936948247253
1633782477225337900,14.009337890625,-8.347199379217624,-5.024944716021419,-1.1156045231956988
1633782477245215700,14.0292158203125,-8.37699129089117,-4.956127200382948,-1.197164250703156
1633782477265094700,14.0490947265625,-8.391201602551341,-4.926797645524144,-1.2185188080947846
1633782477284973600,14.0689736328125,-8.398858254784345,-4.919868723043799,-1.1935040476951748
1633782477304852700,14.088852783203125,-8.407253158164023,-4.915553782454133,-1.1514384184472262
1633782477324731600,14.108731689453125,-8.417244390824436,-4.908347212076187,-1.108380709422007
1633782477344609800,14.12860986328125,-8.417920098128914,-4.9151948860138654,-1.0723170970678328
1633782477364488700,14.14848876953125,-8.396206863492727,-4.956435243418812,-1.0525419908873737
1633782477384367600,14.16836767578125,-8.347645953941345,-5.039024094778299,-1.046624072080478
1633782477404246800,14.188246826171875,-8.283152731242776,-5.144323375117779,-1.046759900354594
1633782477424125700,14.208125732421875,-8.219830890411139,-5.242806545701622,-1.057235409400612
1633782477444003600,14.228003662109375,-8.17544054454267,-5.306162288802862,-1.0849874858096242
1633782477463882800,14.2478828125,-8.150937386927009,-5.333773933827877,-1.1328976763673126
1633782477483761700,14.26776171875,-8.13636817882657,-5.342811226764321,-1.1934255025662481
1633782477503640600,14.287640625,-8.131102221122383,-5.336711156323552,-1.2550197889529169
1633782477523519700,14.307519775390626,-8.160069956931471,-5.289667665597796,-1.2661205902904271
1633782477543397600,14.327397705078125,-8.23627699829936,-5.18622599582374,-1.1988245851308106
1633782477563276800,14.34727685546875,-8.321649342897533,-5.0651674208164215,-1.1245498269997536
1633782477583155700,14.36715576171875,-8.366314414054155,-4.9953965499758715,-1.105068516134098
1633782477603034600,14.38703466796875,-8.340864330977201,-5.025848971384764,-1.1581079593390227
1633782477622913500,14.40691357421875,-8.266053712403775,-5.130477220594883,-1.2332657839149237
1633782477642791700,14.426791748046876,-8.184507648095488,-5.248671053820848,-1.2789334562428294
1633782477662673200,14.446673095703124,-8.125715267387031,-5.341988219943643,-1.2673968938365578
1633782477682552300,14.46655224609375,-8.093530907619,-5.402596710163355,-1.2153580790415406
1633782477702431500,14.486431396484376,-8.08321468078792,-5.433064913663268,-1.1462229488212614
1633782477722310400,14.506310302734375,-8.088736659079789,-5.438391661643982,-1.0801043168779463
1633782477742188300,14.526188232421875,-8.111238413745165,-5.4175037719160315,-1.0143220772821455
1633782477762067200,14.546067138671875,-8.156782605823874,-5.364954084989428,-0.9244188843213021
1633782477781946400,14.5659462890625,-8.213675874912738,-5.294343256193399,-0.822095039596036
1633782477801825300,14.5858251953125,-8.265489064258336,-5.2244256703585386,-0.7466233998306095
1633782477821704400,14.605704345703124,-8.305068794974684,-5.164101257777213,-0.7268290044277906
1633782477841582300,14.625582275390625,-8.3355481043905,-5.109532632243633,-0.7626963635575026
1633782477861461500,14.64546142578125,-8.366068330338598,-5.050526901045441,-0.8194264779739081
1633782477881340200,14.665340087890625,-8.394499475052953,-4.996466809555888,-0.8591204827196895
1633782477901219300,14.68521923828125,-8.41544815505743,-4.961215463432669,-0.8584647952899336
1633782477921098200,14.70509814453125,-8.425908758795261,-4.949548406514525,-0.8224464103169739
1633782477940976400,14.724976318359374,-8.42674871675074,-4.956207864403725,-0.7722014201361685
1633782477960855300,14.744855224609376,-8.413866438823938,-4.985593533363938,-0.7218703591071068
1633782477980734500,14.764734375,-8.3788372110188,-5.051414789795875,-0.6698312520511448
1633782478000613000,14.784613037109375,-8.328201248759031,-5.140883463796973,-0.6186793761584908
1633782478020492300,14.8044921875,-8.285422429740429,-5.214198290854692,-0.5781869510440155
1633782478040370200,14.8243701171875,-8.264304822909832,-5.250460275325179,-0.5516446522835642
1633782478060249300,14.844249267578125,-8.244645598194003,-5.28380432652235,-0.5268835013188421
1633782478080128500,14.86412841796875,-8.199806924036144,-5.355398321136832,-0.5032444497192278
1633782478100007200,14.884007080078124,-8.131658685961366,-5.461033117040992,-0.47290155309941617
1633782478119886300,14.90388623046875,-8.061601399394869,-5.5674967649847265,-0.42888705480601635
1633782478139764200,14.92376416015625,-8.020098007139563,-5.6324488373667,-0.352043724828586
1633782478159643400,14.943643310546875,-8.019743202352524,-5.6385869017302985,-0.24585653747236355
1633782478179522300,14.963522216796875,-8.043664176166057,-5.6077381744801995,-0.15206913262247107
1633782478199401500,14.9834013671875,-8.064884074327349,-5.577907684361934,-0.12235665199384092
1633782478219280100,15.003280029296874,-8.057656461161374,-5.587316733220219,-0.1626424486203119
1633782478239158300,15.023158203125,-8.013570651197433,-5.6484775966256855,-0.218573558146134
1633782478259037200,15.043037109375,-7.953565972089767,-5.731183936884999,-0.25437404431840405
1633782478278916400,15.062916259765625,-7.911797791418433,-5.789701592305303,-0.2306486296095885
1633782478298795300,15.082795166015625,-7.898917267057299,-5.809547279503941,-0.16325787710491566
1633782478318673400,15.10267333984375,-7.906258861991763,-5.800845502132177,-0.10791534458938985
1633782478338552300,15.12255224609375,-7.926084090924262,-5.774007764089107,-0.0917227822039742
1633782478358431200,15.14243115234375,-7.958478878572583,-5.72892534430325,-0.11140462061041034
1633782478378310100,15.16231005859375,-8.005969528543948,-5.661675516372918,-0.1423535659651272
1633782478398189300,15.182189208984376,-8.066524242749809,-5.574139856261015,-0.17475304805487393
1633782478418067200,15.202067138671875,-8.13413121355474,-5.4736108590632675,-0.214195671855472
1633782478437946400,15.2219462890625,-8.194869467633962,-5.379924275106191,-0.26630192586351187
1633782478457825500,15.241825439453125,-8.236879055845737,-5.312776738506555,-0.31404096110537644
1633782478477704200,15.2617041015625,-8.255726964178681,-5.281294974049925,-0.34825868986453856
1633782478497583400,15.281583251953125,-8.260600707694888,-5.272985995388031,-0.3584441664554178
1633782478517461200,15.301461181640626,-8.262849947926401,-5.270377858716249,-0.34469398312028493
1633782478537340400,15.32134033203125,-8.26470054422915,-5.268979682356119,-0.32087058792971074
1633782478557219300,15.34121923828125,-8.25574800696671,-5.283573440375924,-0.31123313714303075
1633782478577098500,15.361098388671875,-8.228249174666404,-5.324648378086089,-0.3382551457118243
1633782478596977200,15.38097705078125,-8.18961578488946,-5.379177840653061,-0.40622294918578117
1633782478616855300,15.400855224609375,-8.156606080213189,-5.423814270237088,-0.4715921875339001
1633782478636734200,15.420734130859374,-8.135468015116453,-5.452350044369697,-0.5063838802561164
1633782478656613400,15.44061328125,-8.121417862454056,-5.471622315594554,-0.5237448014343157
1633782478676489500,15.460489501953125,-8.105704745015501,-5.4907613158285615,-0.5652241917595267
1633782478696368400,15.480368408203125,-8.088869345548748,-5.509957599207759,-0.6172063079312443
1633782478716246300,15.500246337890625,-8.070687207648158,-5.529340345069766,-0.6788176185179501
1633782478736125400,15.52012548828125,-8.061907104343176,-5.536250562849641,-0.7252369129307568
1633782478756004400,15.54000439453125,-8.093692235660553,-5.491719931727648,-0.7096073090571909
1633782478775883500,15.559883544921876,-8.165622914883494,-5.391886515578627,-0.6484927690114826
1633782478795762200,15.57976220703125,-8.232684526765347,-5.293471734055877,-0.6102832306697964
1633782478815640600,15.599640625,-8.24375537135601,-5.273047954708337,-0.6370632471762597
1633782478835519200,15.619519287109375,-8.180849710109829,-5.359283638137579,-0.7226026189044118
1633782478855398400,15.6393984375,-8.075566211861371,-5.504134592142701,-0.8124768049664794
1633782478875277300,15.65927734375,-7.9716329591780895,-5.645320593899488,-0.8682246303472667
1633782478895156500,15.679156494140624,-7.901053694564103,-5.741818143624067,-0.8804865844186395
1633782478915034400,15.699034423828126,-7.868128161039948,-5.789862335824966,-0.8604853413321077
1633782478934913300,15.718913330078125,-7.860964260759949,-5.804218193435669,-0.8286590012215077
1633782478954792200,15.738792236328125,-7.861015114164352,-5.808837669929861,-0.7951299488462508
1633782478974671400,15.75867138671875,-7.866672701534628,-5.806705918598174,-0.753669738145545
1633782478994549200,15.77854931640625,-7.885385000789165,-5.789094274061918,-0.6909971550028771
1633782479014428400,15.798428466796874,-7.917017571893334,-5.754402899909019,-0.6148726773519069
1633782479034307600,15.8183076171875,-7.9544620441466565,-5.708273601418734,-0.5590475489512086
1633782479054186200,15.838186279296876,-7.984667212796211,-5.667215030321478,-0.5460365666108206
1633782479074065400,15.8580654296875,-8.001974905949831,-5.640725082802772,-0.5665684094427154
1633782479093943300,15.877943359375,-8.009915635821223,-5.6251317923516035,-0.6078860333349555
1633782479113822500,15.897822509765625,-8.014271492943168,-5.615127700209618,-0.6420098367329686
1633782479133701400,15.917701416015625,-8.018979232242703,-5.6071600823312995,-0.6527731497444212
1633782479153580500,15.93758056640625,-8.025629922303557,-5.598339647015929,-0.6467170645758509
1633782479173459200,15.957459228515624,-8.037772780039907,-5.581977710279822,-0.6372720676213502
1633782479193337300,15.97733740234375,-8.049668969538807,-5.565828539511561,-0.6282988528970629
1633782479213216300,15.99721630859375,-8.052382320150732,-5.562746940109133,-0.6207827051132917
1633782479233095400,16.017095458984375,-8.049751971647144,-5.568562348389626,-0.6024846492154523
1633782479252974300,16.036974365234375,-8.05218475175202,-5.571563283771276,-0.5388771963754668
1633782479272853200,16.056853271484375,-8.05863611984849,-5.571914581426978,-0.4272313234882429
1633782479292731400,16.0767314453125,-8.048865836462378,-5.594485894197225,-0.2964302116182633
1633782479312610300,16.0966103515625,-8.00637752482295,-5.65898613115847,-0.21019600776005534
1633782479332489200,16.1164892578125,-7.946712452933192,-5.743879167807102,-0.16733122749105095
1633782479352368400,16.136368408203126,-7.887491033157706,-5.825987542173266,-0.12546653677583672
1633782479372247600,16.15624755859375,-7.846589113926887,-5.882087615057825,-0.04964268147267867
1633782479392125400,16.17612548828125,-7.823973377493023,-5.911909921869635,0.07178979574779513
1633782479412004400,16.19600439453125,-7.805301410248875,-5.933428510716557,0.20512436705157158
1633782479431883300,16.21588330078125,-7.773016512715816,-5.973265431064367,0.2658887967516668
1633782479451762400,16.235762451171876,-7.718310524538159,-6.045688277718424,0.21845855346433818
1633782479471640300,16.255640380859376,-7.656977811697125,-6.126501351577043,0.0840357256995514
1633782479491519500,16.27551953125,-7.610256977054476,-6.184506381300092,-0.0790956663483288
1633782479511398400,16.2953984375,-7.599539183685183,-6.194416365417838,-0.2158681168460287
1633782479531277300,16.31527734375,-7.632396328148245,-6.151217859682441,-0.2818141321687959
1633782479551156200,16.33515625,-7.682558243155479,-6.088523210838437,-0.28029269475517793
1633782479571034400,16.355034423828126,-7.712991375342011,-6.050960665163397,-0.25693377527119593
1633782479590913300,16.374913330078126,-7.709562569937109,-6.055734455436467,-0.24720216166134923
1633782479610792400,16.39479248046875,-7.695352258276939,-6.072456457656622,-0.2778583620140329
1633782479630671400,16.41467138671875,-7.699902761188149,-6.063260759288072,-0.3446098119681701
1633782479650550300,16.43455029296875,-7.730773115748167,-6.01928776204884,-0.4167830312427133
1633782479670428400,16.454428466796877,-7.765501899302006,-5.969720305803418,-0.479380978246592
1633782479690307600,16.4743076171875,-7.783800941580534,-5.942261220991611,-0.5218808707259595
1633782479710186500,16.4941865234375,-7.77761553094387,-5.948009409254789,-0.5479651600532234
1633782479730065700,16.514065673828124,-7.756409076786041,-5.97374473901391,-0.5682234831733629
1633782479749944600,16.533944580078124,-7.7335852505594485,-6.000895780789852,-0.5926986568035557
1633782479769822700,16.55382275390625,-7.719761892390251,-6.015891105347872,-0.6202534205421805
1633782479789701400,16.573701416015624,-7.7102891306459895,-6.024370764401555,-0.65481057385616
1633782479809580500,16.59358056640625,-7.690035447168349,-6.044993865713477,-0.7012760454982518
1633782479829459700,16.613459716796875,-7.650917488744854,-6.084736093515158,-0.7809186873380094
1633782479849337600,16.633337646484375,-7.60383541957438,-6.1286810337036846,-0.8895713697586208
1633782479869216800,16.653216796875,-7.573124054968357,-6.153412739378213,-0.9765706579715013
1633782479889095400,16.673095458984374,-7.573215240383147,-6.150759594520926,-0.9924474415391683
1633782479908974600,16.692974609375,-7.593402872887253,-6.133530811822414,-0.943623424072191
1633782479928853500,16.712853515625,-7.61905227792859,-6.112468150049447,-0.8707263109698891
1633782479948731600,16.732731689453125,-7.643903226068615,-6.089790454295278,-0.8096810367681085
1633782479968610600,16.752610595703125,-7.659348047959804,-6.07234832110703,-0.7945806444004178
1633782479988489700,16.77248974609375,-7.676504934465885,-6.048800856781005,-0.8084966492891311
1633782480008368400,16.792368408203124,-7.7108379967004055,-6.005201953551173,-0.8067895531103014
1633782480028247600,16.81224755859375,-7.751517797613143,-5.954157410490512,-0.7952125125631689
1633782480048125400,16.83212548828125,-7.775856704577803,-5.922973752197623,-0.790453408402577
1633782480068004600,16.852004638671875,-7.762236760026216,-5.93817833559215,-0.8100005510460585
1633782480087883500,16.871883544921875,-7.710069934937358,-5.999769991630315,-0.8532108202844858
1633782480107762700,16.8917626953125,-7.641373999851941,-6.079701606479286,-0.9038880644027143
1633782480127640600,16.911640625,-7.5814260193675755,-6.147087043488026,-0.9516739709936082
1633782480147519500,16.93151953125,-7.547702613463997,-6.18243892737627,-0.9899575244195759
1633782480167398700,16.951398681640626,-7.548322791188955,-6.178081901210546,-1.0121788547083734
1633782480187277600,16.971277587890626,-7.5815318178296085,-6.137783793091773,-1.0091413867086172
1633782480207156700,16.99115673828125,-7.635300817418098,-6.07760668002665,-0.9670919048778712
1633782480227034600,17.01103466796875,-7.696131425955891,-6.011765549850463,-0.8936523554619401
1633782480246913800,17.030913818359377,-7.755560935524105,-5.9449003373235465,-0.824508895804733
1633782480266792400,17.05079248046875,-7.808308190849423,-5.881200895351171,-0.7824234658777713
1633782480286671600,17.070671630859376,-7.849725658386945,-5.828186513522267,-0.7644836123004555
1633782480306550500,17.090550537109376,-7.8704452058106655,-5.799810898387432,-0.7672482547082007
1633782480326428700,17.1104287109375,-7.867160192790627,-5.802531263262033,-0.7802589082550258
1633782480346307600,17.1303076171875,-7.845023179784417,-5.83140664461255,-0.787844760274142
1633782480366186500,17.1501865234375,-7.816125002080201,-5.869928975230455,-0.7889941495049745
1633782480386065400,17.1700654296875,-7.7891715287029735,-5.90712677924633,-0.7778410334583371
1633782480405944600,17.189944580078127,-7.768803863456845,-5.938676932764053,-0.7404005797930061
1633782480425822500,17.209822509765626,-7.747325606620311,-5.9734518935471765,-0.6835202432509512
1633782480445701600,17.22970166015625,-7.712615527766943,-6.024051615449785,-0.6298769889339805
1633782480465580500,17.24958056640625,-7.653526794460415,-6.100391343286633,-0.6157395963795482
1633782480485459500,17.26945947265625,-7.578778135207295,-6.19167028158009,-0.6290639920506625
1633782480505337600,17.289337646484373,-7.507385216122866,-6.2775166734308,-0.6342985317032784
1633782480525216500,17.309216552734377,-7.456341257584095,-6.339953548121452,-0.6151019560631364
1633782480545095700,17.329095703125,-7.421286310815811,-6.383695659214258,-0.5859414741609246
1633782480564974600,17.348974609375,-7.381717101493478,-6.429822035095095,-0.5813942957179621
1633782480584853800,17.368853759765624,-7.328306998345256,-6.487969688159227,-0.610367292224057
1633782480604731600,17.388731689453124,-7.266471012157202,-6.551773175027966,-0.6656224752496928
1633782480624610600,17.408610595703124,-7.218941199219226,-6.597229688823223,-0.7306330728858709
1633782480644489500,17.428489501953123,-7.226676761907338,-6.584082622480392,-0.7716145601589233
1633782480664368600,17.44836865234375,-7.300716980630159,-6.5055971147865055,-0.7396697082351893
1633782480684245800,17.468245849609374,-7.392202839672565,-6.411732251653075,-0.6445198467925191
1633782480704125000,17.488125,-7.4569105819046495,-6.340321212390065,-0.6043150795130059
1633782480724003800,17.50800390625,-7.474398307800293,-6.312711905452609,-0.6733668057661503
1633782480743883000,17.527883056640626,-7.44517747401297,-6.333292921188473,-0.793164640122652
1633782480763761700,17.54776171875,-7.402063723951578,-6.368963954028487,-0.9033999155595898
1633782480783639800,17.567639892578125,-7.379090260121226,-6.386765568178892,-0.9636550622969865
1633782480803518700,17.587518798828125,-7.390594819954037,-6.37315439145565,-0.9656018855158239
1633782480823398000,17.60739794921875,-7.428988555756211,-6.332361777818202,-0.9389951066844164
1633782480843277000,17.627277099609376,-7.484153978139162,-6.267515503898262,-0.9359918332152068
1633782480863156000,17.647156005859376,-7.554879957747459,-6.175815125322342,-0.9764663208141923
1633782480883033900,17.667033935546876,-7.640455715963244,-6.058706749245524,-1.0420643629495054
1633782480902912800,17.686912841796875,-7.730371549209952,-5.931981234517693,-1.1060479556255043
1633782480922792000,17.7067919921875,-7.805767858716845,-5.826219012841582,-1.1382193097814917
1633782480942670800,17.7266708984375,-7.8436893008321515,-5.775850761607289,-1.1342247602526099
1633782480962549000,17.746549072265626,-7.837905456733703,-5.788312183773518,-1.110436545973271
1633782480982428000,17.766427978515626,-7.804515228307246,-5.838976203083992,-1.0799487609900533
1633782481002306800,17.786306884765626,-7.766212093397974,-5.894837206515669,-1.0522486339639872
1633782481022185700,17.806185791015626,-7.736445900687575,-5.937832298633456,-1.0295274643942713
1633782481042065000,17.82606494140625,-7.717354831248521,-5.967372865894436,-1.0016382445368914
1633782481061942800,17.84594287109375,-7.693155040493607,-6.0015767487913365,-0.9832738088719546
1633782481081822000,17.865822021484377,-7.650529950731992,-6.052278762024641,-1.0048379173610358
1633782481101700900,17.885700927734376,-7.596659244334697,-6.108196464079618,-1.0728889056064188
1633782481121579800,17.905579833984376,-7.555105583196878,-6.146100370538234,-1.1472623018063604
1633782481141458700,17.925458740234376,-7.538315191915631,-6.158321554207801,-1.1913264844603837
1633782481161336800,17.9453369140625,-7.542042688006163,-6.152409115293621,-1.1982640286386013
1633782481181215700,17.9652158203125,-7.553967519077658,-6.140946641036868,-1.1818353833418338
1633782481201095000,17.985094970703123,-7.564878204670548,-6.135945471748709,-1.1371795914702116
1633782481220974000,18.00497412109375,-7.557893752610683,-6.151708858069777,-1.0977760210383682
1633782481240852700,18.024852783203126,-7.545228916826844,-6.170270350676774,-1.0805853783931583
1633782481260731000,18.04473095703125,-7.553901468104123,-6.159961722630262,-1.0788060206957162
1633782481280609800,18.06460986328125,-7.601407900166511,-6.104048112228512,-1.0628186163604258
1633782481300489000,18.084489013671874,-7.656523053666949,-6.039601651281118,-1.0350119602199643
1633782481320367900,18.104367919921874,-7.6726172793775795,-6.023300504821538,-1.0105353252850473
1633782481340246000,18.12424609375,-7.623800933760404,-6.087419048988819,-0.9956750252835452
1633782481360125000,18.144125,-7.531119727453589,-6.201363408076763,-0.9978582876067608
1633782481380003800,18.16400390625,-7.441010417461395,-6.305739728352427,-1.0195099282488227
1633782481399882800,18.1838828125,-7.3904416752189395,-6.358300521194934,-1.0600802774377167
1633782481419762000,18.203761962890624,-7.3895824280411,-6.3522869599938385,-1.101320269516483
1633782481439639800,18.223639892578124,-7.434696412009,-6.295521116676926,-1.1234291524067521
1633782481459519000,18.24351904296875,-7.5092802360892295,-6.205459152957797,-1.1284375551532952
1633782481479398000,18.26339794921875,-7.595204953873157,-6.104096627545356,-1.1060079889412968
1633782481499276800,18.28327685546875,-7.680312510055303,-6.0064972540587185,-1.0512734322562813
1633782481519156000,18.303156005859375,-7.754730329918861,-5.9232432167887685,-0.9745401750572025
1633782481539033900,18.323033935546874,-7.805541648745536,-5.866617074203491,-0.909230667539686
1633782481558912800,18.342912841796874,-7.829328767046332,-5.837325513267516,-0.8931053891036659
1633782481578792000,18.3627919921875,-7.832216889703274,-5.829558386397362,-0.9181605545789003
1633782481598670800,18.3826708984375,-7.826936318951844,-5.831092756357789,-0.9527903347376734
1633782481618549800,18.4025498046875,-7.82304749481976,-5.832292779797315,-0.9770745889056474
1633782481638428000,18.422427978515625,-7.823795098316669,-5.829425115406513,-0.9881403919950127
1633782481658306800,18.442306884765625,-7.827450113692879,-5.825145246130227,-0.9844270705603062
1633782481678186800,18.462186767578125,-7.828632016953826,-5.829418101143837,-0.9490982752867042
1633782481698065400,18.4820654296875,-7.815759675899147,-5.856963110673427,-0.8833284567810594
1633782481717943600,18.501943603515624,-7.785269845089316,-5.907866199436784,-0.81059924759157
1633782481737822500,18.521822509765624,-7.747201103457808,-5.96482844210863,-0.7563623382303863
1633782481757701600,18.54170166015625,-7.719621022614836,-6.005436346828938,-0.7159431610152125
1633782481777580500,18.56158056640625,-7.7063950458168975,-6.026846799126267,-0.677483958761394
1633782481797459700,18.581459716796875,-7.70061061719656,-6.039135202813148,-0.63231393375732
1633782481817337600,18.601337646484374,-7.687282349067926,-6.060311261832713,-0.5905140062408522
1633782481837216500,18.621216552734374,-7.6544889174908395,-6.10287848392725,-0.5779786420555785
1633782481857095700,18.641095703125,-7.608465417462587,-6.159796887457371,-0.5818451082253828
1633782481876974600,18.660974609375,-7.561232541644573,-6.21811522091329,-0.5772306366998702
1633782481896853800,18.680853759765625,-7.53689889537692,-6.2496589446902275,-0.5543390789993107
1633782481916731600,18.700731689453125,-7.55577369171679,-6.231190975585579,-0.5029289174966514
1633782481936610800,18.72061083984375,-7.5984759383678435,-6.183900232100487,-0.4392296216547489
1633782481956489500,18.740489501953125,-7.633565371927618,-6.142501469263434,-0.41078229299057273
1633782481976368600,18.76036865234375,-7.638975706538558,-6.134034085169434,-0.4359507095819339
1633782481996246500,18.78024658203125,-7.609607573235034,-6.166476219090819,-0.4886948961673304
1633782482016125700,18.800125732421876,-7.559576006609201,-6.225251648664474,-0.5190726814374327
1633782482036004600,18.820004638671875,-7.526741073977947,-6.265714591956138,-0.5092878946019336
1633782482055883500,18.839883544921875,-7.53244250048995,-6.261733413365483,-0.4726322346387431
1633782482075762400,18.859762451171875,-7.574551457422971,-6.213977974978089,-0.42783115254491566
1633782482095640600,18.879640625,-7.635715243437886,-6.141040164539217,-0.3922631782205775
1633782482115519500,18.89951953125,-7.702361260256171,-6.058111121439933,-0.3785507330799475
1633782482135398700,18.919398681640626,-7.766580342188477,-5.9751072595387695,-0.3856137668013572
1633782482155277800,18.93927783203125,-7.827633653566241,-5.893795003986359,-0.40214514182023703
1633782482175156500,18.959156494140625,-7.883333913478255,-5.817021560907364,-0.4309172819919884
1633782482195034600,18.97903466796875,-7.9303025854021305,-5.749043418702483,-0.4787359583413228
1633782482214913500,18.99891357421875,-7.9590411886304615,-5.7048114782661195,-0.528374726257287
1633782482234792700,19.018792724609376,-7.9637249625325195,-5.695626301291584,-0.5561497086178511
1633782482254671600,19.038671630859376,-7.949505298522114,-5.715692937764525,-0.5537184628829359
1633782482274550800,19.05855078125,-7.937351919391751,-5.7351838201761245,-0.5258258089594543
1633782482294428700,19.0784287109375,-7.939299546328186,-5.734751858499646,-0.5005244136381894
1633782482314307600,19.0983076171875,-7.9491008093744515,-5.720958310946822,-0.5028083233242854
1633782482334186500,19.1181865234375,-7.951813575464486,-5.713537221035361,-0.5427100525366142
1633782482354065700,19.138065673828127,-7.937411540624499,-5.7256917692095035,-0.6199526840299368
1633782482373944600,19.157944580078127,-7.915302000147104,-5.746024363142252,-0.708224476396665
1633782482393822700,19.17782275390625,-7.898757692581415,-5.759660089784861,-0.7786739771511405
1633782482413701600,19.19770166015625,-7.890449882963299,-5.7662248551279305,-0.8135369084786623
1633782482433580500,19.21758056640625,-7.881628863126039,-5.777703695997595,-0.8175910061750561
1633782482453459500,19.23745947265625,-7.8686752735286944,-5.7951978516340255,-0.818547503182292
1633782482473337600,19.257337646484373,-7.859628043720126,-5.807132619577646,-0.8208802569787949
1633782482493216500,19.277216552734377,-7.85713973403573,-5.80958644247055,-0.8273094132434576
1633782482513095700,19.297095703125,-7.852268328607082,-5.811531731319427,-0.8592837104573845
1633782482532974800,19.316974853515624,-7.86832982109189,-5.784269045862555,-0.8955435029707849
1633782482552853500,19.336853515625,-7.899905109050869,-5.737676221513748,-0.9170357883326709
1633782482572731600,19.356731689453124,-7.932364778628945,-5.69160654425621,-0.9238951527081429
1633782482592610600,19.376610595703124,-7.950735717099905,-5.663371798896789,-0.9393607981916516
1633782482612489700,19.39648974609375,-7.942540720206499,-5.669181946480274,-0.9730431414324789
1633782482632368600,19.41636865234375,-7.903302350273728,-5.718093569165468,-1.005783746843785
1633782482652247600,19.43624755859375,-7.842813687041401,-5.797042602717876,-1.027107543770969
1633782482672125000,19.456125,-7.777005874612927,-5.882058388963341,-1.0440097979288547
1633782482692003800,19.47600390625,-7.72000622254014,-5.952919393128156,-1.0651941863853485
1633782482711882800,19.4958828125,-7.689062802743911,-5.989513970553874,-1.083711693720147
1633782482731762000,19.515761962890625,-7.692007624024153,-5.986571487361192,-1.079054807825014
1633782482751641000,19.53564111328125,-7.724803978210687,-5.951922198784351,-1.035573612690717
1633782482771519000,19.55551904296875,-7.775698883667588,-5.899658343061804,-0.950222457011044
1633782482791398100,19.575398193359376,-7.828246232506633,-5.844692242643236,-0.8535369834989309
1633782482811276800,19.59527685546875,-7.869520492181182,-5.800134138992428,-0.7742594486445188
1633782482831156000,19.615156005859376,-7.892737701639533,-5.773076036196946,-0.7393688255924731
1633782482851035000,19.635034912109376,-7.899184393560886,-5.76277442241311,-0.7507992972757667
1633782482870913000,19.6549130859375,-7.901056032651662,-5.757387468677758,-0.7721330310750752
1633782482890792000,19.6747919921875,-7.901761550572514,-5.756109703826904,-0.7744346590809523
1633782482910671000,19.694671142578127,-7.904785282307863,-5.7549576111823315,-0.751806574622169
1633782482930549800,19.7145498046875,-7.908937725812196,-5.75292873570323,-0.7231161944497376
1633782482950428000,19.734427978515626,-7.9166908241569995,-5.745439256730675,-0.697370927818492
1633782482970306800,19.754306884765626,-7.925681939864158,-5.735329366126656,-0.6781955410968512
1633782482990186000,19.77418603515625,-7.931876702851056,-5.729551951768994,-0.6541775366496294
1633782483010065000,19.79406494140625,-7.923686966654658,-5.744565396505594,-0.62091656062603
1633782483029944000,19.813944091796873,-7.893551356109977,-5.789245080709457,-0.5889611507756635
1633782483049822000,19.833822021484377,-7.846838704773783,-5.854226379185914,-0.5705623379170894
1633782483069700900,19.853700927734376,-7.801527736929058,-5.915707560586929,-0.5576293527163565
1633782483089580000,19.873580078125,-7.771410831084847,-5.9573658511430025,-0.5341798323394731
1633782483109459000,19.893458984375,-7.757548894470929,-5.978182429200411,-0.5021459504254162
1633782483129338000,19.913338134765624,-7.747108164477348,-5.994098960256577,-0.4727412114385515
1633782483149216000,19.933216064453124,-7.720569701641797,-6.029467795279622,-0.4568442983983084
1633782483169095000,19.953094970703123,-7.674172107604146,-6.088785661166906,-0.4518359687170014
1633782483188973800,19.972973876953127,-7.6234402837544675,-6.150624569964409,-0.47260815964341163
1633782483208853000,19.99285302734375,-7.598280708056688,-6.177831141319871,-0.5204984033916146
1633782483228732000,20.01273193359375,-7.620313091644644,-6.146169344121217,-0.5708019188266247
1633782483248610000,20.032610107421874,-7.6823934079825875,-6.067046707567572,-0.5849466909699141
1633782483268489000,20.052489013671874,-7.74096834654808,-5.992297463792562,-0.5832390102691948
1633782483288367900,20.072367919921874,-7.746314383751153,-5.983333820614218,-0.6039216962812468
1633782483308246800,20.092246826171873,-7.673135750293731,-6.071497841757536,-0.6559652968492359
1633782483328126000,20.1121259765625,-7.543992068508267,-6.224805658462643,-0.7143973928779364
1633782483348003800,20.13200390625,-7.4012962467104195,-6.388033396157622,-0.7643452998083085
1633782483367883000,20.151883056640624,-7.292464116069674,-6.506508384412527,-0.8097564400918781
1633782483387762000,20.171761962890624,-7.250927990588545,-6.549073852941394,-0.8390794190794229
1633782483407640800,20.191640869140624,-7.26362088342309,-6.533517387369275,-0.8505012690648436
1633782483427520000,20.21152001953125,-7.305591308668255,-6.4871858443051575,-0.8456607702311127
1633782483447398000,20.23139794921875,-7.360747378700971,-6.425092668485641,-0.8414062545917927
1633782483467277000,20.251277099609375,-7.427034499078989,-6.346971902450918,-0.8517599638890474
1633782483487156000,20.271156005859375,-7.504200156345963,-6.252202199432253,-0.875971956538409
1633782483507035100,20.29103515625,-7.581737569534778,-6.153769882252812,-0.904849018389359
1633782483526913000,20.3109130859375,-7.641668598884344,-6.0766223451644175,-0.9219273597665131
1633782483546792000,20.3307919921875,-7.669722142457962,-6.04056728144288,-0.9259038621820509
1633782483566670800,20.3506708984375,-7.666706594029068,-6.043965107187629,-0.9286971461623906
1633782483586550000,20.370550048828125,-7.651134346365928,-6.063559449973702,-0.9293957959510385
1633782483606429000,20.390428955078125,-7.6393147292345756,-6.078496906864642,-0.9290528277322649
1633782483626307000,20.41030712890625,-7.640833317103982,-6.077120942336321,-0.9255543911572546
1633782483646186000,20.43018603515625,-7.643994996005296,-6.073567633768916,-0.922765344960615
1633782483666065000,20.45006494140625,-7.628195953848958,-6.092616033110022,-0.9279200243100524
1633782483685944300,20.4699443359375,-7.590916316768527,-6.133993753159046,-0.9604645226273685
1633782483705823500,20.489823486328124,-7.542293447896838,-6.183866914352774,-1.021755515218526
1633782483725701400,20.509701416015623,-7.502783859807252,-6.22257220032215,-1.0762027063295245
1633782483745580500,20.52958056640625,-7.483057999595999,-6.2423418996751305,-1.0988120860878376
1633782483765459200,20.549459228515627,-7.483673501145839,-6.244295956352353,-1.0834086921855806
1633782483785338400,20.56933837890625,-7.4953388044983145,-6.237523101216555,-1.040956986229494
1633782483805217300,20.58921728515625,-7.511627091476321,-6.221636380776762,-1.018369452976808
1633782483825095400,20.609095458984374,-7.512236163285374,-6.21755641798675,-1.0385975636217744
1633782483844974300,20.628974365234374,-7.502488091731071,-6.221555132234096,-1.0841185209553688
1633782483864853500,20.648853515625,-7.484039411848783,-6.232691443276405,-1.1459037268042565
1633782483884732200,20.668732177734373,-7.467759308177232,-6.242001123413443,-1.2001566374521702
1633782483904610300,20.6886103515625,-7.459098447337746,-6.246634043911099,-1.229551731827855
1633782483924489200,20.7084892578125,-7.4455579977631565,-6.261137785559892,-1.2378231549583374
1633782483944368400,20.728368408203124,-7.415964239010214,-6.2940112966358654,-1.2487087061099706
1633782483964247300,20.748247314453124,-7.371661571425199,-6.338579921680688,-1.2850674289532005
1633782483984126200,20.768126220703124,-7.3274606106489895,-6.377066011941433,-1.346003543692082
1633782484004004400,20.78800439453125,-7.29620096451044,-6.396556894353032,-1.4212313647642731
1633782484023883300,20.80788330078125,-7.286302670830488,-6.393042748752236,-1.486332636358589
1633782484043762200,20.82776220703125,-7.297641810968518,-6.371372768735886,-1.523294585791975
1633782484063641300,20.847641357421875,-7.332394559919834,-6.333723713821172,-1.513375979976356
1633782484083520500,20.8675205078125,-7.383499308735132,-6.284764160341024,-1.4683559579022227
1633782484103398400,20.8873984375,-7.438522107776999,-6.229381880337,-1.4260345272623
1633782484123277300,20.90727734375,-7.488437354546785,-6.171691323390602,-1.4155990579657256
1633782484143156200,20.92715625,-7.537856342232227,-6.109363169771433,-1.423656253823638
1633782484163035400,20.947035400390625,-7.598520946553349,-6.039267304760218,-1.4000428846545516
1633782484182913300,20.966913330078125,-7.660752654060721,-5.974897416180372,-1.33560986771062
1633782484202792400,20.98679248046875,-7.707399838945269,-5.929992691048979,-1.2655274467028677
1633782484222671400,21.00667138671875,-7.73054281412363,-5.907668631038069,-1.2282270590953528
1633782484242550300,21.02655029296875,-7.714003767254948,-5.924057455781102,-1.253026423178613
1633782484262429200,21.04642919921875,-7.675195605432987,-5.969313478568196,-1.2763463623590767
1633782484282307300,21.066307373046875,-7.675094483146071,-5.976584930875897,-1.2424758030697702
1633782484302186200,21.086186279296875,-7.720835074579715,-5.931031970968842,-1.1755642671830953
1633782484322065400,21.1060654296875,-7.785525281155109,-5.862583288642764,-1.0890854226477444
1633782484341944300,21.1259443359375,-7.824865357896686,-5.823464161175489,-1.0144614857528358
