time,seconds_elapsed,z,y,x
1637056325879403800,0.01240380859375,0.0071568860173225396,-0.0007504439079668373,0.025406755391880868
1637056325899284000,0.032283935546875,0.012924363502860069,-0.002122937837569043,0.0037569413807243108
1637056325919163600,0.05216357421875,0.04519230990111828,0.01430914152530022,0.02738287777043879
1637056325939043800,0.0720439453125,-0.003331190249323845,-0.0007906297878827899,-0.03425838956311345
1637056325958923800,0.091923828125,0.012021861705183982,0.0033834958252962678,-0.001745455427840352
1637056325978803000,0.111802978515625,0.01001987423300743,0.003546559166209772,0.008214797572419047
1637056325998682600,0.1316826171875,0.006517419070005416,-0.0024840171017684043,0.005695471695251762
1637056326018562800,0.151562744140625,0.008678981018066407,-0.0018183014683425425,-0.009478095506504178
1637056326038442800,0.17144287109375,0.008162263667583465,-0.002874203729443252,0.005444383011013269
1637056326058323000,0.191322998046875,0.024582652592658995,-0.006888088146457448,0.0015511018995195626
1637056326078202600,0.21120263671875,0.009441782084107399,0.0018789456143975256,-0.0017116627560928464
1637056326098082800,0.231082763671875,0.025329087045788762,-0.0007822546851821243,-0.010221899611130356
1637056326117962000,0.2509619140625,0.015219780963659285,0.012949333547335117,0.014810579108260571
1637056326137841700,0.270841552734375,-0.012583002719283103,0.015624343176558612,0.01569006535653025
1637056326157721900,0.290721923828125,0.026644261297583578,0.019608937567006796,0.0003054857525974512
1637056326177601800,0.310601806640625,0.005869768816232681,0.007321355864033103,-0.0030891981869935986
1637056326197482000,0.33048193359375,0.002316460248827934,0.006776079139346257,0.009329626946523785
1637056326217362000,0.35036181640625,0.006367196944355964,0.012061855788854882,0.007904306851141154
1637056326237241900,0.370241943359375,0.006049217036366463,0.00035113325892016287,-0.011155088808014989
1637056326257120800,0.390120849609375,0.01395429107248783,0.007391324960859492,0.004488689721375704
1637056326277001000,0.4100009765625,-0.0004471592456102371,0.003796442274050787,0.00029262627102434634
1637056326296880600,0.429880615234375,0.024801848301291465,0.008844053652975708,-0.011204005983658134
1637056326316760800,0.4497607421875,0.007552607336640357,-0.0008826463197357952,-0.014990392654575406
1637056326336640800,0.469640869140625,0.016965163326263428,0.0006383253030013292,-0.0017825725678354502
1637056326356521000,0.48952099609375,0.02187280911207199,0.003996348760323599,0.001509600845351815
1637056326376400600,0.509400634765625,0.015410335099697112,0.007158959243400022,-0.02515950263254344
1637056326396281900,0.52928173828125,0.015373510220646857,-0.002253076156415045,-0.017339111205190418
1637056326416161000,0.5491611328125,-0.01059329020678997,0.006761283429013565,0.011510039725527166
1637056326436041200,0.569041259765625,0.004230769437551498,0.007467787730554118,0.007075856670364737
1637056326455921200,0.588921142578125,-0.00485679238140583,0.011480777098424731,0.0015324702642858028
1637056326475801000,0.608801025390625,-0.009238368466496467,0.00927642632140778,0.006119250065274536
1637056326495681000,0.628680908203125,-0.0041524435043334956,0.003947806044016033,0.008360014729388058
1637056326515561200,0.648561279296875,-0.03899813143610954,-0.01321985758440569,-0.008725560106150805
1637056326535440000,0.66843994140625,0.17083295200169085,0.03268446391043253,0.004514372151903808
1637056326555320000,0.688320068359375,-0.0949181715786457,0.004040882021794095,0.061183878954872484
1637056326575200000,0.708199951171875,0.05372399140298366,0.006341551046445965,-0.002703742533363402
1637056326595080200,0.728080078125,0.007466682618856429,-0.001118811429478228,-0.0037766324618831275
1637056326614959900,0.7479599609375,0.012194295662641524,0.0023230726527050135,0.021056451227888465
1637056326634840000,0.767840087890625,-0.004491466200351715,-0.011835837613791226,0.010400178787484764
1637056326654720000,0.787719970703125,0.02547171038687229,0.0016620697270147502,-0.00837272808048874
1637056326674599200,0.80759912109375,0.0016273089408874511,0.008151915803505107,0.024435024282895026
1637056326694479000,0.82747900390625,0.010789105039834976,0.006358885773736983,0.011841573234833777
1637056326714359000,0.847359130859375,0.01976268509030342,0.0029961496086791154,0.000642097295820713
1637056326734239000,0.867239013671875,-0.0029033202260732647,0.01246466443608515,-0.005991312836669385
1637056326754119200,0.887119140625,0.012801613906025886,0.011048696690937504,0.0021935279889032243
1637056326773998800,0.906998779296875,0.01724865644276142,0.003734099361253902,0.0015373291024938225
1637056326793879000,0.926879150390625,0.00837561415731907,-0.00024021109719760714,-0.004034991137124598
1637056326813758200,0.94675830078125,0.016121698239445686,0.007883127065794542,-0.006948321300558746
1637056326833638000,0.966637939453125,0.013588380369544028,0.0018331063118297605,0.007021423069387674
1637056326853518000,0.98651806640625,0.007900982382893561,0.007492913038656115,0.001791705722361803
1637056326873398000,1.00639794921875,0.0020639467924833295,0.001478977378224954,0.004297660661302507
1637056326893278200,1.0262783203125,0.005783844098448753,0.008094523060461507,0.006694017745926976
1637056326913158100,1.046158203125,0.03405132268369197,0.0009465966677293181,0.020194500636309384
1637056326933038000,1.0660380859375,0.016522680255770684,-0.003566853035567328,0.0078033672273159025
1637056326952917000,1.0859169921875,0.009588497078418731,0.003605331015586853,0.004164316605217755
1637056326972797200,1.105797119140625,0.018815175107121468,0.0058678417206276205,-0.005379391483403742
1637056326992676900,1.1256767578125,0.014875497570633887,-0.0012251761470921337,-0.016037088695913554
1637056327012557000,1.14555712890625,-0.004278115710616112,0.005149135524639859,-0.015612177814729511
1637056327032437000,1.16543701171875,0.012612813335657119,0.009912678398331628,-0.01950249978415668
1637056327052317200,1.185317138671875,0.022927286601066587,0.006744661087775603,-0.012529226705431938
1637056327072196900,1.20519677734375,0.007054010164737701,0.008307298161461949,-0.0056046516066417095
1637056327092076000,1.225075927734375,-0.0025426702201366423,0.004562668273039162,-0.007295271574705838
1637056327111956200,1.244956298828125,0.031576457002758976,0.0035568248318973926,0.009189524356089532
1637056327131836200,1.264836181640625,0.006107084703445434,0.004029858304280787,0.007252711074613035
1637056327151716000,1.284716064453125,-0.0006324526846408844,0.0022247907768469305,0.005823737717419862
1637056327171596000,1.304595947265625,0.015071312403678892,-0.01325965073867701,-0.010999277191795408
1637056327191476200,1.324476318359375,0.006399930170178413,-0.002169261197326705,-0.000673259619064629
1637056327211356200,1.344356201171875,0.019579729738831517,0.004980190432211384,0.004475793707184493
1637056327231235000,1.364235107421875,0.027360300612449644,0.0016811306205112486,-0.0022440525997430086
1637056327251115000,1.384114990234375,0.006089549046754837,0.0025140012480784207,-0.007681932804733514
1637056327270995200,1.4039951171875,0.010725392153859137,0.003652138432534411,-0.007796608692966401
1637056327290875000,1.423875,0.00892448021173477,0.002624859477719292,0.007469166836887598
1637056327310755000,1.443755126953125,0.016408113965392112,0.006389162180991843,-0.006819397691264748
1637056327330635000,1.463635009765625,0.009961422044038772,0.006373855014005675,0.0010002265511080623
1637056327350515200,1.48351513671875,0.009492635488510131,0.0006353113620076328,-0.002301262679696083
1637056327370394000,1.50339404296875,0.016953472888469694,0.008231620843056588,0.0007863280721008778
1637056327390273800,1.523273681640625,0.0052589434415102,0.0003413059846498072,0.002719634222239256
1637056327410154000,1.543154052734375,0.01631926663815975,0.008675172492628917,-0.006672865360043943
1637056327430034000,1.563033935546875,0.0064256491333246225,0.0148916175883729,0.004953201960586011
1637056327449913900,1.582913818359375,0.005075988090038299,0.012575942790834233,-0.006988543713092803
1637056327469793800,1.602793701171875,0.0086661215364933,0.010421961361030116,-0.0057917351439595215
1637056327489673700,1.622673828125,0.012855974441766739,0.008300786222284659,-0.0002487871292978525
1637056327509552600,1.642552734375,0.015550035831332206,0.0003604216770734638,0.006102956517599523
1637056327529432800,1.662432861328125,0.02047989344894886,-0.0020103169091045857,-0.00668331368882209
1637056327549312800,1.682312744140625,0.01926291887462139,0.010407795838359742,-0.006736870506964624
1637056327569193000,1.70219287109375,0.014453472766280173,0.003429673054581508,-0.014559563489258288
1637056327589072600,1.72207275390625,0.00935585736632347,0.009085844785906374,0.012710063165053725
1637056327608952800,1.741952880859375,0.011879822885990142,-0.0010139719486702233,0.0037724312108010053
1637056327628831700,1.761831787109375,0.011861702707409858,-0.0019200996086932718,-0.004903115741163492
1637056327648712000,1.7817119140625,0.022922610425949095,0.0059337556968443094,0.0004668868593871593
1637056327668591600,1.801591552734375,0.012595862200856208,-0.005263236024137586,0.005059694542363285
1637056327688471800,1.821471923828125,0.02263093400299549,-0.0014549115160480141,-0.004510645824857056
1637056327708351700,1.841351806640625,0.01782324146032333,0.0010219543257262557,-0.010276771603524684
1637056327728232000,1.86123193359375,0.007042904248833656,0.016907788849528878,-0.008079407689720392
1637056327748111600,1.881111572265625,0.007345686587691307,0.011310032774554566,-0.0036279081735759973
1637056327767990800,1.90099072265625,0.008102642434835433,0.00961629840079695,-0.00411770098451525
1637056327787871000,1.92087109375,0.00689852734208107,-0.0056466549843084066,-0.0023857260927557943
1637056327807750700,1.940750732421875,0.013335866913199424,0.00444542596838437,-0.0012822948954999446
1637056327827630800,1.960630859375,0.020218612164258954,-0.005548437040532007,-0.0022537337435409427
1637056327847510800,1.9805107421875,-0.0037111294776201245,-0.014584414802724495,0.005022467804513871
1637056327867391000,2.000390869140625,0.003180383601784706,0.008381632906151935,-0.016095577417500315
1637056327887271000,2.02027099609375,0.01591360844671726,0.01070307072419673,-0.008688625629246235
1637056327907149800,2.04014990234375,0.007972294053435325,0.006509966415911912,0.0016300488872453569
1637056327927029800,2.06002978515625,0.02428396190702915,-0.0017792754990514368,-0.004664667342789471
1637056327946910000,2.079909912109375,0.016486439898610115,0.0047475324538070705,0.0005803937038406729
1637056327966789600,2.09978955078125,0.012592939591407774,0.004096667329641058,-0.0002535729022696614
1637056327986669800,2.119669921875,0.01693184557855129,-0.0017796408252324907,-0.017922135257534683
1637056328006549800,2.1395498046875,0.012147533911466597,-0.004675334867276251,-0.009426292254030704
1637056328026430000,2.159429931640625,0.0070686232119798655,0.0001401665225159377,-0.019998685803264377
1637056328046308900,2.179308837890625,-0.009165303230285644,-0.003493733000429347,0.0472596176944673
1637056328066188800,2.199188720703125,0.06395078638494014,-0.007054795616026967,-0.08929971064236014
1637056328086069000,2.219069091796875,-0.01163023203909397,-0.008618483002483844,-0.0421788803640753
1637056328105949000,2.238948974609375,0.01737374412715435,-0.0072863302164245395,-0.03620550504289567
1637056328125828900,2.258828857421875,0.006938274830579757,0.014703255409421398,0.05411821488495916
1637056328145708800,2.278708740234375,0.0014426000237464905,0.01326418078332208,0.0559986218040809
1637056328165588700,2.298588623046875,0.046477089014649385,-0.0035169677455443886,-0.10823891398794948
1637056328185467600,2.318467529296875,-0.030734745481610298,0.004399321804335341,-0.003888093479722738
1637056328205347800,2.338347900390625,0.019282208096981047,-0.0023885756369680165,-0.040059403992071745
1637056328225227800,2.358227783203125,0.015976736810803412,-0.0035921518736053257,-0.029788514140062033
1637056328245108000,2.37810791015625,0.0003653261810541153,0.014493786510359496,0.03228928144723177
1637056328264987600,2.397987548828125,0.0004909983873367309,0.017615389129612594,0.049552185611054296
1637056328284867800,2.417867919921875,0.012125906601548194,0.015341836440749466,0.007168722585588694
1637056328304747800,2.437747802734375,-0.0021709142982959746,0.008878449112921953,0.02169365315288305
1637056328324627000,2.457626953125,0.018294950625300406,0.0048221594594419,0.010730652850866317
1637056328344506600,2.477506591796875,0.013684241959452628,0.011497746499534696,-0.0067697863958776
1637056328364386800,2.49738671875,0.01154839897453785,0.0016053619705606252,-0.014477766957320271
1637056328384266500,2.5172666015625,0.012116554251313208,-0.007789256503572687,0.005302709518000483
1637056328404146200,2.537146240234375,0.02719137378633022,-0.009292984730564058,0.006391308472305536
1637056328424026400,2.5570263671875,0.009924597164988518,-0.014306849103514103,0.02710826208014041
1637056328443906300,2.57690625,0.009537643674015998,-0.023362097821757195,0.012607516106031834
1637056328463785500,2.596785400390625,0.00602057546377182,-0.009235199261875823,-0.017449731972813604
1637056328483665200,2.6166650390625,0.0035427871733903884,0.013524347823159769,-0.0030192747559398413
1637056328503545300,2.63654541015625,0.006169044023752212,0.00887587356334552,0.0006028612639755011
1637056328523425300,2.65642529296875,0.023332944792509077,0.004529277460090816,-0.004641944054327905
1637056328543305500,2.676305419921875,0.00919862097799778,0.006625226826034486,-0.012416413980722426
1637056328563185200,2.69618505859375,0.016511574339866636,0.008510629580682143,-0.0171438808940351
1637056328583064300,2.716064208984375,0.006061491996049881,-0.0038488209152594205,-0.029260690873675048
1637056328602944300,2.7359443359375,0.012385434320569037,0.013018553725490345,-0.015808321441337467
1637056328622824400,2.755824462890625,0.01571370196044445,0.0011290679620113223,0.008369659340567886
1637056328642704100,2.7757041015625,0.019785481444001198,-0.004786594955716282,0.00016373919434845447
1637056328662584300,2.795584228515625,0.013958382725715637,0.00576218938906677,-0.007876359398290515
1637056328682464300,2.81546435546875,-0.0018885902255773544,0.01552042614435777,-0.002418459318578243
1637056328702344400,2.835344482421875,0.006678747111558914,-0.006385298856627196,0.00691675711851567
1637056328722223400,2.855223388671875,0.02060615017712116,-0.0005353672520257533,0.014408245385065674
1637056328742103300,2.875103271484375,0.005948094749450683,-0.000839263835735619,-0.002906425498612225
1637056328761983500,2.8949833984375,0.013892916274070738,0.0020822952999267727,0.003674596859514713
1637056328781863200,2.91486328125,0.012712182056903838,0.00015933701386675237,-0.006789221748709678
1637056328801743400,2.934743408203125,0.008839140015840529,-0.0012192761292681097,-0.006878032543323934
1637056328821623300,2.954623291015625,0.01035012910068035,-0.00468815781623125,0.010637165881134569
1637056328841503500,2.97450341796875,0.006615618747472763,-0.008982667539222165,0.004860957099869847
1637056328861382100,2.994382080078125,0.012878186273574828,0.012064760131994262,-0.0049899537744000555
1637056328881262300,3.014262451171875,0.01914016927778721,0.01733457202739082,-0.009939648603647946
1637056328901142300,3.034142333984375,0.010915946289896965,0.01888936372133903,-0.0027697569742798803
1637056328921022500,3.0540224609375,0.015710779350996018,0.006596640052367001,0.01156176991276443
1637056328940902100,3.073902099609375,0.017494740158319474,0.0021598814476281405,0.01044328727684915
1637056328960782300,3.0937822265625,0.015980243942141533,-0.003185900027118623,-0.002265570311807096
1637056328980662300,3.113662353515625,0.0102870007365942,-0.004561873688595369,0.009179258690401912
1637056329000541200,3.133541259765625,0.006851765590906143,-0.00848073676591739,0.009371274131163954
1637056329020421400,3.15342138671875,0.009991817182302474,-0.009360095150023699,-0.013679273523390292
1637056329040301300,3.17330126953125,0.0170142631649971,0.006078306133532896,-0.000030468203499913213
1637056329060181500,3.193181396484375,0.012525719574093819,0.007762633358128369,0.0027478374034166334
1637056329080061200,3.213061279296875,-0.0006412205129861831,-0.0047082872888073325,0.0052390331646427505
1637056329099941400,3.23294140625,0.02373451133072376,0.007137998653762042,-0.0011900865674018858
1637056329119821300,3.2528212890625,0.015963292807340622,0.0026220829987432808,0.004674056225642561
1637056329139700500,3.272700439453125,0.0007066869646310806,0.00560560145471245,0.006208937642723322
1637056329159580200,3.292580078125,0.018072247785329818,0.0057866753763519225,-0.009585830197297036
1637056329179460400,3.31246044921875,0.004760930791497231,-0.0005232566891238093,-0.0028108927022665736
1637056329199340300,3.33234033203125,0.007765957826375961,0.006371763521619141,0.005348959812521934
1637056329219220500,3.352220458984375,0.013761983370780944,0.01649268697630614,-0.005147920815087854
1637056329239100200,3.37210009765625,-0.001799158376455307,0.010889935065805911,-0.004656885895133018
1637056329258979300,3.391979248046875,0.014509002345800399,0.012374291872046887,0.0145873282790184
1637056329278859300,3.411859375,0.017656652721762655,-0.000945920814294368,0.0006791048379614949
1637056329298739200,3.4317392578125,0.02483691961467266,-0.0030695436384528874,-0.002754011415876448
1637056329318619100,3.451619140625,0.007475450447201729,-0.014319315859442575,0.0016974515676498412
1637056329338499300,3.471499267578125,0.018109657186269758,-0.0031175200991798192,-0.007215082477964461
1637056329358379300,3.491379150390625,0.011099486163258551,-0.013721697026165202,-0.012310250192508101
1637056329378259500,3.511259521484375,0.017377835780382156,-0.0013215035278815776,0.002178293887153268
1637056329398137300,3.531137451171875,0.010361819538474083,0.006429530723998322,0.001947773066908121
1637056329418017300,3.551017333984375,0.009452888000011444,0.011904592001065611,-0.008951441283896565
1637056329437897500,3.5708974609375,0.015414426752924919,0.008220167867280543,0.002379405949823558
1637056329457777200,3.590777099609375,0.01587912165522575,0.002246701214555651,0.011672865604422987
1637056329477657300,3.6106572265625,0.008562076640129089,0.013229337798804044,-0.00782974377758801
1637056329497537300,3.630537353515625,0.017685878816246985,0.004700496707996354,0.00430018141195178
1637056329517417500,3.65041748046875,0.011551906105875968,0.004226020197197795,-0.01008252767305821
1637056329537296400,3.67029638671875,0.013057049971818923,-0.005135819385340437,0.001757803452759981
1637056329557176300,3.69017626953125,0.015447744500637054,-0.009421360350586473,-0.00750975457560271
1637056329577056500,3.710056396484375,0.013665537258982658,0.005037272648001089,0.007378602476604283
1637056329596936400,3.7299365234375,0.0027338088780641556,0.014445508655533193,-0.008997764643654227
1637056329616816400,3.74981640625,0.00827098473906517,0.002169288596790284,-0.0022800006959587333
1637056329636696300,3.7696962890625,0.013195581659674644,0.0036620022394228723,0.004619732222519815
1637056329656575500,3.789575439453125,0.01321136375069618,-0.002416203429410234,0.005254669125191867
1637056329676455200,3.809455078125,0.011999065351486206,-0.00670545245539397,-0.001778736642934382
1637056329696335400,3.82933544921875,0.003926818054914474,-0.0037118418636731803,0.01017163072861731
1637056329716215300,3.84921533203125,0.014413725277781486,0.0027254977074451744,-0.004562631740421056
1637056329736095500,3.869095458984375,0.01128653316795826,0.0011346300531178712,0.0022234482031315565
1637056329755975200,3.88897509765625,0.00993628760278225,0.005668428424699232,-0.0033015988286584615
1637056329775855400,3.90885546875,0.020420272216200828,-0.0028739297348074613,0.007419519008882343
1637056329795734500,3.928734619140625,0.013982348123192786,0.004109928670013323,0.0011659019742161034
1637056329815614500,3.948614501953125,0.01786649608016014,0.01663511852114461,0.0009917509837076067
1637056329835494400,3.968494384765625,0.00902560249865055,0.0060008661163039505,-0.008353986847400664
1637056329855374300,3.988374267578125,0.0093371526658535,0.017488968004658816,-0.0029249110033735632
1637056329875254300,4.008254150390625,0.011294131952524185,0.009116057261079549,0.011338080692104995
1637056329895134500,4.028134521484375,0.01639291639626026,-0.006011752836499363,0.0042599224667996165
1637056329915014100,4.04801416015625,0.021620880177617072,-0.0006655055708717554,0.0013452405964955686
1637056329934893300,4.067893310546875,0.01368073482811451,-0.004656812829896807,0.00616842296924442
1637056329954773500,4.0877734375,0.013521744874119758,-0.011461515275528654,0.0035568887639790773
1637056329974653200,4.107653076171875,0.014414894321560859,-0.0015578330344054848,-0.001159289570339024
1637056329994533400,4.127533447265625,0.010059621721506118,-0.003012434023199603,-0.014390307869575916
1637056330014413300,4.147413330078125,0.01664426080882549,0.004647223017644137,-0.0010323021898046136
1637056330034293500,4.16729345703125,0.014402619361877441,-0.0005315678597427905,0.009482552485913037
1637056330054172200,4.187172119140625,0.024282792863249778,0.004258452028920874,-0.007343238902278244
1637056330074052400,4.20705224609375,0.004221417087316512,0.0058529820782132445,0.008853899193555117
1637056330093932300,4.226932373046875,0.015884382352232933,0.021332053298875688,-0.0008047039790078997
1637056330113812500,4.2468125,0.013804653468728065,0.008472480394225566,-0.005175612539611757
1637056330133692200,4.266692138671875,0.0055406829923391335,0.012052978362655266,0.012328954892978071
1637056330153572400,4.286572265625,0.007476034969091415,0.018540641615213824,0.003704224812798202
1637056330173452300,4.306452392578125,0.0020715455770492553,0.009092658119183033,-0.009248086142912507
1637056330193331200,4.326331298828125,0.009811199918389319,0.004156854817969725,0.0037974925868213176
1637056330213211400,4.34621142578125,0.008871288719773293,0.00021950623588636516,0.01959324680753052
1637056330233091300,4.36609130859375,0.008085691300034522,-0.0012393508029170334,0.0014745660645887255
1637056330252971500,4.385971435546875,0.00923603037893772,-0.0035392252431251108,0.0017969298867508768
1637056330272851500,4.4058515625,0.012931962287425994,-0.014904221341619266,-0.0011176423856988549
1637056330292731400,4.4257314453125,0.019470424145460127,-0.0087798658429645,-0.0024429361727088686
1637056330312611300,4.445611328125,0.01614332554936409,-0.005973950709914788,0.010793708149716258
1637056330332490500,4.465490478515625,0.0039449382334947585,0.007989948441134766,0.03666077452972531
1637056330352370200,4.4853701171875,0.019539397728443146,0.004777489200653508,0.028360782891884446
1637056330372250400,4.50525048828125,0.007402385210990905,0.01066610884782858,-0.003444587495923042
1637056330392131000,4.525131103515625,0.004250058659911155,0.011487060708738863,-0.003888458805903792
1637056330412011300,4.54501123046875,0.03791150524318218,0.015230631151236592,-0.0265890605116263
1637056330431891200,4.56489111328125,0.01340834762752056,0.0002712364231236279,-0.02612911484967917
1637056330451770400,4.584770263671875,0.03275777574181556,-0.007449722350900992,-0.006754186967946589
1637056330471650000,4.604650146484375,0.016792729368805884,-0.00659113276018761,0.00519460950102657
1637056330491530200,4.6245302734375,0.0330395152926445,-0.006986790147423744,-0.03275218625124544
1637056330511410200,4.64441015625,0.02616144621670246,-0.006322289223549887,-0.07330361154396087
1637056330531290400,4.664290283203125,0.018501871374249457,-0.0048632495216559615,-0.025270415661111472
1637056330551170000,4.684170166015625,0.019295652100443837,-0.008484864951763302,-0.022760259471088645
1637056330571050200,4.70405029296875,0.029304420417547224,-0.012907869025785475,-0.028051534279622137
1637056330590929200,4.72392919921875,0.009074702337384223,-0.017845572023140265,-0.033053068893961604
1637056330610809000,4.74380908203125,0.00144610715508461,-0.023113730817567554,-0.0075981635114178055
1637056330630689000,4.76368896484375,0.009395020332932472,-0.0107445443789009,0.010070983365736901
1637056330650569200,4.7835693359375,0.0014957915157079696,-0.008914552472764625,0.00011865794360637664
1637056330670449200,4.80344921875,0.016745967617630957,-0.019742893544444813,0.03475848457235843
1637056330690329000,4.8233291015625,0.006204699859023094,0.02424222339084372,0.00912814955767244
1637056330710208300,4.843208251953125,0.014942133066058159,0.032772781514702365,0.025711473959498105
1637056330730088200,4.863088134765625,0.022439795345067976,0.018265852394979448,-0.022310177616029978
1637056330749968400,4.882968505859375,0.006631985360383987,0.014318183348281308,0.022651026942953466
1637056330769848000,4.90284814453125,-0.0035088849037885664,0.04334877352681942,0.08272274340484291
1637056330789728300,4.922728271484375,0.021225158858299255,0.020232485425984485,0.02249908778425306
1637056330809608200,4.942608154296875,-0.007386603119969367,0.03249420203533955,0.022495361457206306
1637056330829488400,4.96248828125,0.0054822308033704754,0.0032927762013860045,0.04693425819762051
1637056330849367000,4.982366943359375,0.015832359904050824,0.007994104026444257,0.039400976615957914
1637056330869247200,5.002247314453125,0.00532908606827259,0.0022445366569329053,0.03133216338548809
1637056330889127200,5.022127197265625,0.018180968856811523,0.003190503136999905,-0.008286255373433232
1637056330909007000,5.042007080078125,0.011307575955986976,0.00798808527761139,-0.008798552277125418
1637056330928887000,5.061886962890625,0.01651975764632225,-0.009799463814822957,-0.002119293708913028
1637056330948767200,5.081767333984375,0.006134557232260703,-0.010766546148154884,-0.02130761297736317
1637056330968646400,5.101646484375,0.007203647768497467,0.00035531624369323253,-0.003616509996727109
1637056330988526000,5.121526123046875,-0.005257189875841141,-0.007824684009980409,0.026465872523374855
1637056331008406300,5.14140625,0.01772095012962818,-0.017227778051514177,0.006691971919313072
1637056331028286200,5.1612861328125,0.007951251265406608,-0.01563924848474562,-0.008469137659668922
1637056331048166400,5.18116650390625,0.02730827816426754,-0.021734670149860903,-0.039150728181935844
1637056331068046000,5.201046142578125,0.022542671197652814,-0.013886276470730081,0.0023415946900844573
1637056331087926300,5.22092626953125,0.029909985095262527,-0.006309100948413833,-0.0005408288784325122
1637056331107805200,5.24080517578125,0.022494740402698516,-0.006640707522956654,-0.02311159365940839
1637056331127685000,5.26068505859375,0.008867197066545486,0.007954320005327463,0.015532828968204557
1637056331147565000,5.28056494140625,0.015301614028215407,0.0025163302024826407,-0.010568265363387763
1637056331167445200,5.3004453125,0.011097148075699805,0.013681776007730514,-0.032341450025886294
1637056331187325200,5.3203251953125,0.015426701712608336,0.00590064801168628,-0.0206482722857967
1637056331207205400,5.340205322265625,0.004250643181800842,0.002183216657442972,-0.016035006336681545
1637056331227084000,5.360083984375,0.018082769179344177,-0.008316120788734406,-0.031116840134374796
1637056331246964200,5.379964111328125,0.012599953854084014,-0.005621429211506619,-0.00806779031716287
1637056331266844200,5.39984423828125,0.0023246435552835465,-0.004657095957687124,-0.003378353859297931
1637056331286724000,5.41972412109375,0.026792145335674283,-0.017817852899152786,-0.021930859442241487
1637056331306604000,5.43960400390625,0.022668927925825116,-0.021151152907172215,-0.024207900996133683
1637056331326484200,5.459484130859375,-0.0026741876453161236,0.007621763582713902,0.030743294114246963
1637056331346364200,5.4793642578125,0.0021925416082143783,0.007691248622350395,0.02605444217827171
1637056331366243000,5.4992431640625,0.011329787787795066,0.014057897577434777,0.01913344727605581
1637056331386123300,5.519123291015625,-0.002008417212963104,0.015114704020833595,0.021807707986608145
1637056331406004000,5.53900390625,0.005459434449672698,0.015295293885283171,0.02997355185076594
1637056331425884000,5.5588837890625,0.020135610055923462,0.010378734140656888,0.012000782384537159
1637056331445763800,5.578763916015625,0.011920154896378517,0.004459838086226955,-0.0033487624386325477
1637056331465643800,5.598643798828125,0.01642038892507553,0.008332962325681,0.006334207990206777
1637056331485524000,5.61852392578125,0.017650222980976103,-0.009130989968730137,0.010978380534239112
1637056331505403100,5.638403076171875,0.023477321699261665,-0.004738262301962822,-0.006347359732724726
1637056331525282800,5.65828271484375,0.006991466322541237,-0.0008624894476961344,0.0005912804240360856
1637056331545163000,5.6781630859375,0.01399345403909683,-0.004916431880462914,0.012256547243893147
1637056331565043000,5.69804296875,0.007673018845915794,0.004204036694252863,-0.01850815498456359
1637056331584923100,5.717923095703125,0.016758827099204062,0.0033424970946274698,-0.019425671688281
1637056331604802800,5.737802734375,0.012220014625787734,0.005612003796035423,0.01290372257363051
1637056331624682000,5.757681884765625,0.001991466078162193,-0.00782050102520734,-0.0022900471659377214
1637056331644562000,5.77756201171875,0.016761749708652494,-0.00559824013216421,-0.007127221531420946
1637056331664441900,5.79744189453125,0.021216975551843643,-0.0025447708456777037,0.005756115841306746
1637056331684321800,5.81732177734375,0.022567221117019653,-0.001045928856357932,-0.0038816637389361857
1637056331704202000,5.837201904296875,0.019300328275561333,-0.009066034973738715,0.004082264344953001
1637056331724082000,5.85708203125,0.011234510719776153,0.009020387467416003,0.015761632755398748
1637056331743960800,5.8769609375,0.017106033101677895,0.0011246657815296203,-0.0034202933048829436
1637056331763841000,5.896841064453125,0.015029811349511146,0.00544803627282381,-0.007177782674878835
1637056331783721000,5.916720947265625,0.00743570295870304,0.002273625754099339,-0.004795052256807685
1637056331803601200,5.93660107421875,0.01780161415040493,0.006629455476580187,-0.013029321714676917
1637056331823480800,5.956480712890625,0.007050503033399581,-0.005665989872440696,-0.0063534972125664346
1637056331843361000,5.976361083984375,0.011837152788043022,0.010434930440457537,0.006002674480900168
1637056331863241000,5.996240966796875,-0.00912321765422821,0.012656223219120874,0.020877514464408158
1637056331883119900,6.016119873046875,0.018827450066804884,0.0002446772097609937,0.004213014585152268
1637056331902999800,6.035999755859375,0.009825812965631484,0.012196268424019217,-0.004790339549072087
1637056331922880000,6.0558798828125,0.012214169406890869,-0.00104918939252384,0.007792626637592911
1637056331942760000,6.075760009765625,0.020471710142493247,0.005345397882256657,-0.009438165354914962
1637056331962640100,6.09564013671875,0.0146352590739727,0.0002861325981561094,-0.010938961839303374
1637056331982519800,6.115519775390625,0.022426351341605186,0.002225557961827144,0.0034058994533494114
1637056332002399000,6.13539892578125,0.010625438910722733,-0.003569848710251972,0.013469941621646284
1637056332022279000,6.15527880859375,0.02154606137573719,-0.012138300292240455,0.007400777775794267
1637056332042158800,6.175158935546875,0.013611176723241806,-0.02065754243764095,0.001073985907062888
1637056332062038800,6.195038818359375,0.002245148578286171,-0.009015948754316196,-0.003972191566601395
1637056332081919000,6.2149189453125,0.013508300870656966,-0.010849475191254168,0.001576345938630402
1637056332101799000,6.234798828125,0.0033697686940431593,-0.0010342840843368321,-0.0038842210222035643
1637056332121678800,6.254678955078125,0.0039782559812068935,0.007750952053489163,-0.0013569310342893004
1637056332141558000,6.27455810546875,0.012212415841221808,0.008943276243750006,0.0007299582423642277
1637056332161438000,6.29443798828125,0.0044458734929561615,0.00912709924490191,0.007494337810762226
1637056332181318100,6.314318115234375,0.004463993671536446,0.014863533138204365,0.005371792698837816
1637056332201197800,6.33419775390625,0.015692659172415732,0.009673334950814023,0.0032352190615609288
1637056332221078000,6.354078125,0.01435293500125408,0.00009483867660164833,0.0045039238231256605
1637056332240958000,6.3739580078125,0.003591302490234375,-0.005868992498097941,-0.0018513269551098345
1637056332260836900,6.3938369140625,0.014082301366329193,0.000737447429075837,0.000025280571728944778
1637056332280716800,6.413716796875,0.013470891469717024,0.012486310012312605,-0.010495565453357994
1637056332300597000,6.433596923828125,0.010478723916411399,0.013196924233390018,-0.0134943454105407
1637056332320477000,6.453476806640625,0.015717793613672256,-0.005853749263193458,0.0024538959581404925
1637056332340356900,6.47335693359375,0.006287701967358589,-0.005875586635665968,0.0003788067171350121
1637056332360236800,6.49323681640625,0.005845803418755531,0.0015131262429989873,0.0031673779897391794
1637056332380117000,6.513116943359375,0.014645195946097374,-0.005726515287486836,0.0060173240607604385
1637056332399995100,6.5329951171875,0.015830606338381768,-0.0008618227274157106,-0.007256035542860626
1637056332419875000,6.552875,0.012238134804368018,-0.013073772777756676,-0.008043715321831405
1637056332439755000,6.572755126953125,0.014050737184286117,0.0024839897023048252,-0.003997837464511394
1637056332459635000,6.592635009765625,0.003455108889937401,-0.006124729957990348,-0.0037379078866913913
1637056332479515100,6.61251513671875,0.010196399843692779,-0.009229463640833274,0.003295863207615912
1637056332499395000,6.63239501953125,0.008990531185269355,-0.0008489997784607112,-0.01005100002363324
1637056332519274000,6.65227392578125,0.01258008010983467,0.008961104161385446,-0.0001239551732316613
1637056332539154200,6.672154296875,0.01348725808262825,0.004606242553284391,-0.0028323008164763447
1637056332559034000,6.6920341796875,0.017391864305734632,0.008321947741322219,-0.006894362623617052
1637056332578914000,6.7119140625,0.009923428121209143,0.007980258164182305,-0.007306669751554727
1637056332598794000,6.7317939453125,0.018610592445731163,0.007771748246345669,-0.004634600998088718
1637056332618674000,6.751673828125,0.010833528703451155,0.0042709096516948195,0.0042799423415213825
1637056332638553000,6.771552978515625,0.005457680884003639,-0.006081466204999014,0.013269852472282946
1637056332658433000,6.79143310546875,0.022969956699013708,-0.01100638278601691,0.0015128157157450913
1637056332678313000,6.81131298828125,0.012644377517700195,-0.00815686597325839,0.005151026087626814
1637056332698193200,6.831193115234375,0.017733809611201284,-0.020474313091533258,0.018496391481533647
1637056332718073000,6.851072998046875,0.00935936449766159,-0.002217155459662899,-0.0006106061790138483
1637056332737953000,6.870953125,0.013110825985670089,0.005932294392120093,-0.008335428277403115
1637056332757833000,6.8908330078125,0.0008475567400455475,0.002673466126108542,0.003958528367429971
1637056332777712000,6.910712158203125,0.00925999577641487,0.002815504945302382,0.015949885336495936
1637056332797592000,6.930592041015625,0.01748304972052574,-0.001725243756873533,-0.00576046322286129
1637056332817472000,6.950471923828125,0.013875965139269829,0.0014004870482254772,0.007390073718689382
1637056332837352000,6.97035205078125,0.013575520887970923,0.0015201770382933318,0.002517426181025803
1637056332857232100,6.990232177734375,0.016460720935463906,0.003949523077066987,-0.007175444587320089
1637056332877112000,7.010112060546875,0.03052665568888187,0.004667060229275375,0.010797434476763009
1637056332896991000,7.029990966796875,0.004923427876830101,0.0067810749748721715,0.005714322526194155
1637056332916871200,7.04987109375,0.01629413219690323,-0.005477700758725405,0.0003955021236091852
1637056332936751000,7.069751220703125,0.014047230052947998,-0.0129090563358739,0.004947904730960726
1637056332956631000,7.089631103515625,0.006570026040077209,0.020576120365038513,-0.010945245449617504
1637056332976511000,7.109510986328125,0.003898176482319832,0.022889703670190647,-0.019801153937168418
1637056332996391200,7.12939111328125,0.006301730492711067,0.005061375042796135,0.01034296870753169
1637056333016270000,7.14927001953125,0.01362929690182209,-0.001680938824266195,0.017527729112468658
1637056333036150000,7.16914990234375,0.019757424393296242,-0.004874465035414323,0.002364975565671921
1637056333056030000,7.189030029296875,0.015707856741547583,-0.016083658650843425,0.017758724856749175
1637056333075910100,7.20891015625,0.009727613288164138,-0.019850098512275142,0.004069477928616106
1637056333095790000,7.2287900390625,0.013463877207040786,-0.01779357697442174,-0.0081942297084257
1637056333115670000,7.248669921875,0.013470306947827339,-0.020740535412821916,-0.003384381741285324
1637056333135549200,7.268549072265625,0.009279284998774527,-0.005660135520389303,0.00555098519064486
1637056333155429000,7.28842919921875,0.01661912636756897,0.014836608598660676,-0.014872903754748402
1637056333175309000,7.30830908203125,0.0010439560949802398,0.007143405481241643,-0.004714790094830095
1637056333195189000,7.32818896484375,0.0019376900643110274,0.0071286828361451626,0.01110149545725435
1637056333215069000,7.34806884765625,0.01300970369875431,0.012511617983505129,-0.0019826982498168944
1637056333234949000,7.36794921875,0.005216857865452766,0.0081278956071008,0.004116897266916931
1637056333254829000,7.3878291015625,0.00983516531586647,0.006398176604509353,0.0052923707870766515
1637056333274708000,7.4077080078125,0.008055880683660506,0.0006066515231039375,0.0015438684411346912
1637056333294588200,7.427588134765625,0.014050152662396431,-0.010906256012944504,0.001958586721867323
1637056333314468000,7.447468017578125,0.016163199293613432,-0.013497551147779448,0.004428483966737985
1637056333334348000,7.46734814453125,0.023065818288922308,-0.0174986308821477,-0.0062111295998096465
1637056333354228000,7.48722802734375,0.011268412989377976,-0.01734890194684267,-0.012097045833244918
1637056333374108200,7.507108154296875,0.01459258897602558,-0.004092402146477252,-0.022866788585484025
1637056333393990400,7.526990478515625,0.0020686229676008224,0.026083330346038564,-0.028413901318609713
1637056333413870300,7.546870361328125,0.0116986211001873,0.0036886436511762437,-0.026359087680652735
1637056333433750300,7.566750244140625,0.01220189444720745,0.0018964173390064387,0.041677470180578526
1637056333453630200,7.586630126953125,-0.00575520252585411,0.007443594004213809,0.2799512791726738
1637056333473510100,7.60651025390625,0.3362286813855171,-0.07212734343935735,-0.5042233412213624
1637056333493390300,7.626390380859375,-0.07862345485985278,-0.008690570991160348,-0.01573869027122855
1637056333513269500,7.64626953125,0.020887889727950096,-0.007446744942525401,-0.03943637672290206
1637056333533149200,7.666149169921875,0.04633914184868335,-0.011799113199440762,-0.0683237407721579
1637056333553029400,7.686029296875,-0.02868716530203819,-0.00810214924449101,-0.00023797347433865068
1637056333572909300,7.705909423828125,-0.008428221127390861,-0.0052170770611613985,0.027348646707274018
1637056333592789500,7.72578955078125,0.007282558223605156,0.007075911469291895,-0.005851392909325659
1637056333612669200,7.745669189453125,-0.004422492617368698,-0.00018404219686053692,0.0007835881257429718
1637056333632548400,7.76554833984375,0.002684124517440796,0.013054821482114494,0.04229720951411873
1637056333652428300,7.78542822265625,0.004248305094242096,0.0059094523726496845,0.019971797796338796
1637056333672308200,7.80530810546875,0.011762333986163139,-0.0010906447809189558,-0.031864370566047726
1637056333692188200,7.825188232421875,0.004811784195899963,0.00007188705927692354,-0.019378215817362068
1637056333712068400,7.845068359375,0.026644845819473264,-0.008009447726048528,-0.003486928800307214
1637056333731948300,7.8649482421875,0.019433599266409873,-0.009448741547856479,-0.004565663947723806
1637056333751828500,7.884828369140625,0.003173369339108467,-0.010884372974699363,-0.001454473124630749
1637056333771707400,7.904707275390625,0.06536942101120949,-0.005779003526549786,-0.11668960267547518
1637056333791587300,7.92458740234375,-0.021271336087584494,0.0012218699451535938,0.055485009726136916
1637056333811467500,7.944467529296875,0.008732172510027884,0.007692856057547033,0.013065489006601273
1637056333831347200,7.96434716796875,0.027199557092785834,0.018950711120292542,-0.03577558919303119
1637056333851227400,7.984227294921875,-0.0015887304961681365,0.014967148776305839,0.005883906939439475
1637056333871107300,8.004107421875,0.006782207486033439,-0.00897128762868233,0.03106401396859437
1637056333890986200,8.023986328125,0.009680267015099525,-0.015354211865132673,0.023571502788737413
1637056333910866200,8.0438662109375,0.012379589101672172,-0.009308008769759908,0.021249672245047986
1637056333930746400,8.063746337890626,0.021637831312417984,-0.015047949794400483,0.009711502403579651
1637056333950626300,8.083626220703126,0.009973697003722191,-0.01431735223121941,0.0031533859970048067
1637056333970506500,8.103506591796876,0.008920388558506966,-0.010687206434784456,-0.024293387322500345
1637056333990386200,8.12338623046875,0.0005529577076435089,0.004165677445242181,0.012887282895483076
1637056334010265300,8.143265380859376,0.000263034850358963,0.01138364600003697,0.006878288271650671
1637056334030145300,8.163145263671876,0.006675239980220795,0.00478539851247333,0.0070419178681448095
1637056334050025200,8.183025146484376,0.005896656823158264,0.005099542495561763,0.006786627932824194
1637056334069905400,8.202905517578126,0.01664776794016361,0.0071603931486606594,-0.00017926555704325436
1637056334089785300,8.222785400390626,0.0055669864773750305,0.0010376542183570562,0.005427431876212358
1637056334109665300,8.242665283203126,0.011977438041567801,-0.0020208565694279966,-0.008986622195132077
1637056334129544200,8.262544189453125,0.010479892960190772,-0.0016573204866610466,-0.0020663579452782866
1637056334149424400,8.28242431640625,0.011671148571372032,0.008475220340583473,-0.004112148026563227
1637056334169304300,8.30230419921875,0.001340308693051338,0.00522323280731216,0.005453077774122357
1637056334189184500,8.3221845703125,0.010152560701966285,-0.00986716788932681,0.011863602403551339
1637056334209064200,8.342064208984375,0.014182254609465598,-0.007548579615494236,0.010982874046266078
1637056334228944400,8.3619443359375,0.015212766700983047,-0.005097871128283441,0.011643785640411079
1637056334248823300,8.3818232421875,0.008149988707900046,-0.011051546235149725,0.009100055974349378
1637056334268703200,8.401703125,0.01383972478210926,-0.005905178056331351,-0.001189392447657883
1637056334288583200,8.421583251953125,0.0048538697719573975,-0.013318842713162303,0.0014325535537675022
1637056334308463400,8.44146337890625,0.013084522500634193,-0.004539479193696752,0.0037108006840571757
1637056334328343300,8.46134326171875,0.016520926690101623,-0.0006370831939857453,-0.013147943125665187
1637056334348223200,8.48122314453125,0.010666355443000793,0.010328209529817103,-0.01197371171452105
1637056334368102400,8.501102294921875,0.010196984365582466,0.0075119191332254556,0.01093812158908695
1637056334387982300,8.520982421875,0.006458966881036758,0.01619976844433695,-0.0011732815630733967
1637056334407862800,8.54086279296875,0.009446458259224891,0.0035349235273431983,-0.0003847980665042996
1637056334427742700,8.56074267578125,0.025446575945615765,0.011243397279130294,-0.0005063420869410038
1637056334447622700,8.58062255859375,0.0028606501281261444,0.019367630491266025,0.0036879677977412935
1637056334467502600,8.600502685546875,0.00675648852288723,0.005640764099638909,0.012572298662178218
1637056334487382500,8.620382568359375,0.020973814445734023,-0.01522480419864878,0.014162380865216255
1637056334507261700,8.64026171875,0.023968320086598396,-0.01674548356044106,-0.007070376777648925
1637056334527141600,8.6601416015625,0.021739538121223447,-0.01058886062684469,0.006260046775452792
1637056334547021600,8.680021484375,0.018457447710633276,-0.020389045960875228,-0.004027575015649199
1637056334566901800,8.69990185546875,0.009032032239437103,-0.010257308851229026,-0.0029215134698897596
1637056334586781700,8.71978173828125,0.0075397478550672525,0.00008092888225801288,-0.003189516756311059
1637056334606662000,8.739661865234375,0.006347907721996307,0.007211849341262132,0.00810552851166576
1637056334626540500,8.75954052734375,0.0069277534365653985,0.008241329386318101,0.005697517521865665
1637056334646420700,8.779420654296874,0.004067687830328941,0.008032992998417466,-0.003002506284229457
1637056334666300700,8.79930078125,0.008384381985664368,0.012398814391950145,0.010405329886637628
1637056334686180600,8.8191806640625,0.004635843107104301,0.006945289093255996,0.00356116308029741
1637056334706060500,8.839060546875,0.009133739048242568,0.005500615843432023,-0.004872245678864419
1637056334725940700,8.858940673828124,0.01646656615436077,0.005918868654966354,-0.006262567526102066
1637056334745820000,8.87881982421875,0.014672668474912642,-0.014194383438676595,0.011458382603526114
1637056334765699600,8.898699462890624,0.0119949736982584,-0.004371557014575228,-0.004959558636136353
1637056334785579800,8.918579833984374,0.0064507835745811455,-0.002980477115511894,0.01285787413790822
1637056334805459700,8.938459716796874,0.014821721556782722,-0.006865657118940725,0.006011369244009256
1637056334825340000,8.95833984375,0.016469488763809204,-0.004975632988102734,0.004576404537446796
1637056334845219600,8.978219482421874,0.017808628413081166,-0.0011629245658405125,0.006291537892259657
1637056334865098800,8.9980986328125,0.01765431463420391,0.012182148567121475,0.020500388247705996
1637056334884978700,9.017978759765626,0.002983399724960327,0.01671202881541103,0.010241627224907278
1637056334904858600,9.037858642578126,0.005054360780119896,0.007344207016658037,0.00828833773266524
1637056334924738600,9.057738525390626,0.0093763156324625,0.002790635365527123,0.017256255227327346
1637056334944618800,9.07761865234375,0.017163900768756866,-0.003937732174573466,-0.003167597185447812
1637056334964498700,9.097498779296876,0.016125789892673492,-0.004303213619254529,-0.005106785087101161
1637056334984377600,9.117377685546876,0.02166238123178482,0.0015968864031601696,-0.0077692092293873425
1637056335004257800,9.1372578125,0.007897475251555442,-0.0009772475343197585,0.004922952952794731
1637056335024137700,9.1571376953125,0.010721885022521018,0.002179335066769272,-0.008372070493362844
1637056335044017700,9.177017578125,0.0065104048073291775,-0.0026609445712529123,-0.0016939444363117217
1637056335063897600,9.196897705078126,0.019361118552088736,0.006831252525839954,0.0004052198000252247
1637056335083777800,9.21677783203125,0.008894669595360755,0.003961514908960089,-0.00009757862295955419
1637056335103656700,9.23665673828125,0.0022977555483579635,0.012630257660802453,0.0002726063963025808
1637056335123536600,9.25653662109375,0.013816928428411483,0.002210232528531924,0.007906791069172322
1637056335143416600,9.27641650390625,0.00021568857729434965,0.0020703400006517768,0.0052755292501300574
1637056335163296800,9.296296875,0.02370879236757755,0.0003649699880275875,0.005135791985876858
1637056335183176700,9.3161767578125,0.009364040672779083,-0.0032401235655415803,0.004977094292826951
1637056335203056600,9.336056640625,0.011759995898604393,-0.00446513531585224,0.004989661513455212
1637056335222935600,9.355935546875,0.017752514311671255,-0.010220748833660035,0.014656301862001418
1637056335242815700,9.375815673828125,0.01281622695326805,-0.011690666122594848,0.003087152360379696
1637056335262695700,9.39569580078125,0.012366729620099067,-0.005866736608929932,0.0061306482421234244
1637056335282575600,9.41557568359375,0.01476210032403469,-0.006873712561232969,0.0042614568367600435
1637056335302455600,9.43545556640625,0.01881985128223896,-0.001724622702365741,0.00023391835372895
1637056335322335700,9.455335693359375,0.004908230307698249,-0.0005180781905073672,0.005352759204804897
1637056335342214700,9.475214599609375,0.013131284251809119,0.0012343184347730128,0.0003550239827483892
1637056335362094600,9.495094482421875,0.011470657563209533,0.004051832674071192,-0.0005766673767939209
1637056335381974800,9.514974853515625,0.01596738446056843,0.009892594591528176,0.002768149539083242
1637056335401852000,9.534851806640624,0.001757072800397873,0.002561813312023878,0.0009929930927231906
1637056335421731600,9.554731689453124,0.008949030131101607,0.01108496444756165,0.0001920885059982538
1637056335441611800,9.57461181640625,0.002358545824885368,0.005454045888502151,-0.004014204077422619
1637056335461491000,9.594490966796876,0.007166238367557525,0.004677408093353733,0.012607991030067205
1637056335481371000,9.614370849609376,0.019741642302274702,-0.005194015845982358,0.008802169006317853
1637056335501250800,9.634250732421876,0.02214285822510719,-0.007212726124096662,0.0027516733283177016
1637056335521130800,9.654130859375,0.020930559825897217,-0.0016031700134743004,0.006634286915324628
1637056335541011000,9.674010986328126,0.02064063696861267,0.0020514435039367526,-0.0003970364935696125
1637056335560891000,9.693890869140626,0.019606033223867416,0.00004753806930966675,0.0028733269466087222
1637056335580769800,9.713769775390626,0.017063363003730774,-0.003265486335661262,0.00043086569793522356
1637056335600649700,9.733649658203126,-0.0037339258313179016,0.00015550108896568416,0.005553323278203607
1637056335620530000,9.753530029296876,0.008087444865703583,-0.0034900980049278585,-0.007905914286337792
1637056335640409600,9.77340966796875,0.0027156886994838714,-0.0022037297225091603,0.0053595177391543986
1637056335660289800,9.793289794921876,0.016619710889458655,0.007512247926788404,0.00781867439430207
1637056335680169700,9.813169677734376,0.008708207112550735,-0.009558622529963031,0.00003974748849868774
1637056335700049000,9.833048828125,0.006467734709382057,-0.001439147691335529,0.0047483270382508635
1637056335719928800,9.8529287109375,0.004075286614894867,0.0024429909716360268,-0.0020154680082574484
1637056335739808800,9.872808837890625,0.00542670122385025,0.007874021310731769,0.005970270048640668
1637056335759689000,9.89268896484375,0.005434884530305862,0.004719155742693692,0.001005012324079871
1637056335779569000,9.91256884765625,0.005586860221624374,-0.005207715577771887,0.011003149649314582
1637056335799448800,9.93244873046875,0.017847206857800484,0.0065531662368215615,0.002326579784043133
1637056335819327700,9.95232763671875,0.006471241840720177,-0.001598110245866701,0.00005271656792610883
1637056335839208000,9.9722080078125,0.02114157222807407,0.005332520134374499,0.0008689648542553186
1637056335859087600,9.992087646484375,0.007380173379182815,0.0026540399064309893,-0.0011655731806531548
1637056335878967800,10.0119677734375,0.007535656201839446,-0.00900895275794901,0.005688493965193629
1637056335898847700,10.03184765625,0.004540566039085388,0.0007059563122689724,0.007229914720915258
1637056335918728000,10.05172802734375,0.008884148201346398,-0.011711078722961246,0.00401252357698977
1637056335938606800,10.07160693359375,0.008432897302508353,-0.006862771042110398,0.0013846592914313078
1637056335958486800,10.09148681640625,0.014290391159057616,-0.009123564714100212,0.009010916386172175
1637056335978367000,10.111366943359375,0.0036678748577833173,-0.007732859274372458,0.0025330256089568137
1637056335998247000,10.131246826171875,0.010552958196401596,0.0035830095859244464,-0.0041391090987250205
1637056336018126800,10.151126953125,0.014444704937934875,-0.004205525398440659,0.003466616664640605
1637056336038006800,10.1710068359375,0.01653320164978504,0.0045784229645971205,0.005244841850921511
1637056336057886000,10.190885986328125,-0.0038233576804399486,0.0002684234115295112,0.0003596270926296711
1637056336077765600,10.210765625,0.00874152486026287,-0.005952131603751331,0.0016570830246433615
1637056336097645800,10.230645751953125,0.0021557167291641234,0.004036671637557446,0.010674721412546932
1637056336117525800,10.25052587890625,0.011593991681933402,-0.00010822788113728165,0.011971227496489881
1637056336137406000,10.270406005859375,0.01084638818502426,0.005493966906936839,-0.00013776450287550688
1637056336157286000,10.290285888671875,0.00410392818748951,-0.004612754492461681,0.006433686309307813
1637056336177164800,10.310164794921874,0.009346505016088484,-0.0021480083467438817,0.009047668199986219
1637056336197044700,10.330044677734374,0.008603577694296836,-0.0008338570082560181,0.006658508041128516
1637056336216925000,10.349925048828124,0.0036637832045555113,-0.0021312307418789715,0.00203559748083353
1637056336236804600,10.3698046875,0.005602057790756225,-0.006297510975319892,0.008286547634378074
1637056336256684800,10.389684814453124,0.007110124266147613,0.00037972916574217377,-0.001976633835211396
1637056336276564700,10.409564697265624,0.010688567274808883,0.00436519120587036,-0.007608136916160583
1637056336296443600,10.429443603515624,0.0050064299851655955,-0.006939681336376816,-0.0002155059142038226
1637056336316323800,10.44932373046875,0.008443418696522712,-0.00008936791704036294,0.0024216741889715194
1637056336336203800,10.469203857421874,0.019209142860770224,0.0002957954756449908,-0.0037459450626745818
1637056336356084000,10.489083984375,-0.00010287585258483886,0.002509507736051455,-0.003729030460491776
1637056336375964000,10.5089638671875,0.01830488749742508,0.005858224508911371,0.002154803413711488
1637056336395843300,10.52884326171875,0.0029027357041835782,0.003233008838165551,-0.0020064079189673063
1637056336415722200,10.54872216796875,0.019819968235492706,-0.0031286625477019697,0.0030703473560512065
1637056336435602200,10.568602294921876,0.011007131704688072,-0.00719287064615637,0.006801642838865518
1637056336455482400,10.588482421875,0.010736498069763184,-0.004513595833769068,-0.00006137479841709136
1637056336475362300,10.6083623046875,0.0074491469621658325,-0.0078610704976134,0.0014152736254036426
1637056336495242200,10.6282421875,-0.0018359832555055618,0.002893438152875751,-0.005138568464852869
1637056336515121200,10.64812109375,0.012080898416042327,-0.0021801570506766437,0.0012368117859587072
1637056336535001300,10.66800146484375,0.017639701586961744,-0.0011604403478093445,0.0030534692864865065
1637056336554881000,10.687881103515625,-0.000011105915904045104,-0.004955722711235284,0.004308656979352236
1637056336574761200,10.70776123046875,0.016454291194677353,0.006388851653737947,0.006764014242216944
1637056336594641200,10.72764111328125,0.019291560447216034,-0.002912480780063197,0.007065992863476276
1637056336614521300,10.747521240234375,0.013000351348519325,0.002059014889039099,-0.002339073939435184
1637056336634400300,10.767400146484375,0.008953706306219101,-0.002800079047307372,-0.0035571079596877094
1637056336654280200,10.7872802734375,-0.004356441643834114,-0.003571099952422082,-0.004350632957555354
1637056336674160000,10.80716015625,0.01269815353155136,0.0011153864965308456,0.014718005453981458
1637056336694040300,10.827040283203125,0.010005845707654953,0.0021560272564180192,-0.002555602766945958
1637056336713920000,10.846919921875,0.015994856989383698,0.0049036911298986526,-0.0030343627272173762
1637056336733800200,10.86680029296875,0.008821604359149932,-0.0056246166824363165,0.007098579958826303
1637056336753679400,10.886679443359375,0.04115443268716335,-0.00006169445882551371,0.008197481111437081
1637056336773559000,10.90655908203125,0.03995382472574711,-0.0030839192236773666,0.0030366277495399116
1637056336793439200,10.926439208984375,0.032766543570160865,0.009638373235287144,-0.0002906535096466541
1637056336813319200,10.946319091796875,0.011809680259227752,-0.003368106459919363,0.007584390714392065
1637056336833199400,10.966199462890625,0.01001636710166931,-0.006782691543223336,-0.0045843686481937766
1637056336853079000,10.9860791015625,0.009262333863973618,-0.01453847503545694,-0.0034856501586735247
1637056336872958200,11.005958251953125,0.005534253251552581,-0.0011777385424822568,-0.002182933529652655
1637056336892838100,11.025838134765625,0.010482815569639205,-0.0027708255533594635,-0.0014828955015167592
1637056336912718300,11.04571826171875,0.001654196947813034,0.00730105286152102,0.0010871011169627308
1637056336932598000,11.065597900390625,0.016306991678476334,0.003139056077552959,0.008914068415574728
1637056336952478200,11.085478271484375,0.010022796842455862,0.007694207764416932,0.001707644168101251
1637056336972358100,11.105358154296875,0.016294716718792915,-0.0012123714644461869,-0.008346314997598529
1637056336992237000,11.125237060546874,0.010606734210252761,0.00022162512773647903,0.007863280721008777
1637056337012117200,11.1451171875,0.01808919892013073,-0.0013117767183110118,0.003676021631620824
1637056337031997200,11.1649970703125,0.00746843618452549,0.00497682029819116,0.00196410314720124
1637056337051877400,11.18487744140625,-0.005271802923083305,0.007169635901041328,0.01491663329862058
1637056337071757000,11.204757080078124,0.005491583153605461,-0.002002891654474661,0.010116356877423823
1637056337091636200,11.22463623046875,-0.0010977321088314056,0.0008275733979418873,0.0036266295319423076
1637056337111516200,11.24451611328125,0.014167057040333747,-0.0033773309459909796,-0.0006293474121019244
1637056337131396400,11.264396240234374,0.011315759262442588,-0.022065737868286667,-0.004575198961049318
1637056337151276000,11.284276123046874,0.025683891832828522,-0.037764863314107056,-0.009827347335591912
1637056337171156200,11.30415625,0.014918167668581008,-0.011025900337239727,-0.00923738208580762
1637056337191036200,11.3240361328125,0.005203998383879661,-0.025002430640999225,0.005868088315799832
1637056337210915000,11.3439150390625,0.013889993664622307,0.003382628175616264,-0.008388437106274068
1637056337230795300,11.363795166015626,0.00505202269256115,0.009627112055756152,0.0037393691914156075
1637056337250675200,11.38367529296875,0.013431728503108024,0.017991273237299172,0.008902012651599943
1637056337270555100,11.40355517578125,0.005516133072972297,0.014259539363067597,0.015290179318748414
1637056337290435000,11.42343505859375,0.01601473073363304,0.010610688866162671,0.02416088351663202
1637056337310315000,11.44331494140625,0.011407529199123382,0.0007153360619675368,0.00837623521182686
1637056337330194200,11.463194091796876,0.014106266763806342,-0.0006387271618004888,0.023149112658202648
1637056337350074400,11.483074462890626,0.007375497204065323,0.004339097783388569,0.0021717910811305044
1637056337369954000,11.5029541015625,0.017555530434846877,0.003909519860241562,-0.008344853692874311
1637056337389834200,11.522834228515626,0.006317512583732605,0.006032850423455238,-0.001872844667173922
1637056337409717200,11.54271728515625,0.010511457142233848,0.005018677545385435,0.0012941679963842034
1637056337429597400,11.562597412109374,0.01720773991048336,-0.0000768372290302068,0.018912826795317233
1637056337449476600,11.5824765625,0.010270634123682976,-0.000595691737672314,0.0148242788400501
1637056337469356500,11.6023564453125,0.008269815695285797,-0.010235279682511464,0.015030615067109464
1637056337489236500,11.622236572265624,0.0076303487479686734,-0.001230254181008786,-0.005801891211792826
1637056337509116400,11.642116455078124,0.015255436798930168,0.00038494419697672125,0.002432451311312616
1637056337528996400,11.661996337890624,0.01703647499680519,-0.003877252425299957,0.0015123773243278264
1637056337548875300,11.681875244140626,0.012844284003973007,-0.01279421605085954,-0.016608824169263244
1637056337568755500,11.70175537109375,0.03183306211233139,-0.009819867282034829,-0.026061785234510897
1637056337588635400,11.721635498046876,0.008338204756379128,-0.010560547847812995,-0.007097374382428825
1637056337608515600,11.741515625,0.0041571196794509884,-0.0015942743209656327,-0.014098667979240417
1637056337628395500,11.7613955078125,0.01732230620086193,-0.0014452121059410274,-0.006081511870771646
1637056337648275500,11.781275390625,0.008319500055909156,-0.004279650080576539,-0.008127375017292797
1637056337668154400,11.801154296875,0.011014730489253997,0.0016825736589264123,0.011405483372509479
1637056337688034600,11.82103466796875,0.024172318226099013,0.0042936603396199645,0.020558328980021176
1637056337707914200,11.840914306640625,0.02175824282169342,0.0026890838203486056,0.01254767567757517
1637056337727794400,11.86079443359375,0.012004326048493384,0.0077758855653461065,0.0031140403673052784
1637056337747674400,11.88067431640625,0.01724339574575424,-0.0001596840737387538,0.004432173761166632
1637056337767554600,11.900554443359376,0.004831657940149307,0.009483639331301674,-0.005520991911180317
1637056337787433500,11.92043359375,0.016049802047014235,0.0065704461651854215,-0.012909458194673061
1637056337807313400,11.9403134765625,0.010814239481091498,0.005765431658923625,-0.01442030114904046
1637056337827193600,11.960193603515625,-0.00010930559337139129,0.00266450650151819,-0.009301204569637775
1637056337847073500,11.980073486328125,0.01830313393175602,-0.0025086400863714516,-0.0036052214177325365
1637056337866953500,11.999953369140625,0.005873860469460487,-0.001296250355616212,0.0006405994584783912
1637056337886833400,12.01983349609375,0.010507365489006042,-0.002755436187982559,-0.0003261266818270087
1637056337906712600,12.039712646484375,0.019189853638410567,-0.010398251691879704,-0.00009246405642479657
1637056337926592300,12.05959228515625,0.015604396367073059,-0.0013139412759337573,-0.0076574194179847834
1637056337946472400,12.079472412109375,0.008421791386604309,-0.005300060903187841,0.006839381033368408
1637056337966352400,12.099352294921875,0.00948445218205452,0.0003319353681057691,0.026216099013388155
1637056337986232600,12.119232666015625,0.013835633128881454,0.00043819048786535855,0.0031200682492926713
1637056338006111500,12.139111572265625,0.0047141690403223035,-0.005280534218810498,-0.015616123337484895
1637056338025991400,12.158991455078125,0.01341010119318962,-0.0023413754943758247,-0.017135076533071697
1637056338045871600,12.17887158203125,0.02108428908288479,0.008127667278237641,0.0012240253696218133
1637056338065751600,12.19875146484375,0.017995675417780875,-0.0008990951310377567,0.03183035869859159
1637056338085631500,12.218631591796875,0.0022930793732404706,0.006153745989920571,0.017341705021075904
1637056338105511400,12.238511474609375,0.019734628039598464,-0.003377732804790139,-0.00447455159816891
1637056338125390600,12.258390625,0.007993921363353728,-0.004090621181344613,0.03919065833352506
1637056338145270300,12.278270263671875,0.009767945298552513,0.011935343332355842,0.016343816557526588
1637056338165150500,12.298150390625,0.01721124704182148,0.0026422490039374677,0.010653313298337162
1637056338185030400,12.318030517578125,0.022535656934976576,-0.0009646711805369704,-0.0055615065846592185
1637056338204910600,12.33791064453125,0.004696048861742019,-0.008140882952837273,-0.01569068641103804
1637056338224789500,12.35778955078125,-0.00043079263269901275,0.010861960213491692,0.01822024142127484
1637056338244669400,12.37766943359375,0.006986790147423744,0.002576928682764992,0.024178236510232088
1637056338264549400,12.39754931640625,0.005254851788282394,0.003115921797137707,-0.0057858533924445505
1637056338284429600,12.4174296875,0.02646072142422199,0.005298928392026573,0.004917728788405656
1637056338304309200,12.437309326171874,0.012370236751437187,-0.0034465693904552606,-0.008900295618548989
1637056338324189400,12.457189453125,0.014324877950549125,0.0005981211567763239,-0.012207922329194843
1637056338344068600,12.477068603515624,0.009546411502361298,-0.005980672711646184,-0.03254146611001342
1637056338363948300,12.4969482421875,0.017751345267891884,-0.00211680949088186,0.002165361340343952
1637056338383828500,12.516828369140624,0.01700023463964462,-0.003549746637139469,0.006238857856951653
1637056338403705900,12.536705810546875,0.006959902140498161,-0.013362681854888796,-0.014280052428133785
1637056338423585800,12.556585693359375,0.019203882163763047,-0.015446949916193262,-0.02280625403728336
1637056338443465700,12.5764658203125,0.01366319917142391,0.0009092237994074821,0.01914294575676322
1637056338463345000,12.596344970703125,0.0032031799554824826,-0.0050848655162379144,0.013207673956267535
1637056338483224800,12.616224853515625,0.006343231546878814,-0.0010928550043143332,0.00885115924719721
1637056338503105000,12.63610498046875,0.003448679149150848,-0.00912888021003455,-0.03045980099774897
1637056338522984700,12.655984619140625,0.009899462723731994,0.00246802494819276,-0.016953874747268855
1637056338542865000,12.675864990234375,0.010068389549851417,0.004003089028364047,0.027930209454894064
1637056338562743800,12.695743896484375,0.0008007949888706207,0.0004894914168398827,0.007581833431124687
1637056338582623700,12.715623779296875,0.018721651604771614,0.00774347199993208,0.009974610319174826
1637056338602503700,12.735503662109375,0.017785247537493706,0.007913887530239298,0.0227430891405791
1637056338622383900,12.7553837890625,0.00882043531537056,0.003914287366904318,0.016786518823727965
1637056338642263800,12.775263916015625,-0.0009106851041316985,-0.008591850723884999,-0.03234101163446903
1637056338662143700,12.795143798828125,0.004165887507796288,-0.0016472557503730057,-0.04305668611191213
1637056338682023000,12.81502294921875,0.021102993783354757,0.0049558049096260215,0.01205331628937274
1637056338701902800,12.83490283203125,0.012289572730660437,0.0037454975381027906,0.007643463957868516
1637056338721783000,12.854782958984375,0.00779343035519123,0.003978411244833842,0.01630549384113401
1637056338741662700,12.874662841796875,0.011201192972064018,0.002401736512640491,-0.013245777476951479
1637056338761543000,12.89454296875,0.001482347512245178,0.004928158850874752,0.0008077361863106489
1637056338781422800,12.9144228515625,-0.0008937339693307876,-0.0063888059879653155,0.009350815865024923
1637056338801301800,12.9343017578125,-0.00746492905318737,0.00007955890907905995,0.023521818428114055
1637056338821181700,12.954181640625,0.019296236622333526,-0.010346366241015493,-0.0007636778488755225
1637056338841062000,12.974061767578124,0.013746201279759406,-0.011473835900984703,-0.007405380885675549
1637056338860941800,12.99394189453125,0.02153086380660534,0.006220975140389055,0.008544504450820386
1637056338880821800,13.01382177734375,0.01078501338660717,-0.0005414773324038833,0.004474880391731858
1637056338900701000,13.033700927734374,0.017978139761090278,0.003431791946431622,0.00012285919468849898
1637056338920580900,13.053580810546874,0.012117723295092583,0.005158971932064741,0.002279525771923363
1637056338940460800,13.073460693359374,0.008384381985664368,0.0030755715204402803,0.011910619883053005
1637056338960340700,13.0933408203125,0.009135492613911628,0.0028694818885531275,0.004922806822322308
1637056338980220700,13.113220703125,0.011677578312158585,0.003878585865860805,0.011658508285507558
1637056339000100900,13.133100830078124,0.014656886383891106,-0.00013409297475591302,0.005860745259560644
1637056339019979800,13.152979736328126,0.004198620733618736,-0.010400334051111713,0.0006207257142290472
1637056339039859700,13.172859619140626,0.022741408640146253,-0.0033518403117079286,0.0029273221561685204
1637056339059740000,13.192739990234376,0.008242927688360213,0.004229298999672755,0.001118994092568755
1637056339079619800,13.212619873046876,0.011978607085347174,0.0038336964113637804,0.0037847427031025287
1637056339099499800,13.232499755859376,0.0004629413366317749,-0.0003419087728485465,0.00706858667936176
1637056339119378700,13.252378662109376,0.01586100147664547,0.0048361788516398515,0.0019517916548997163
1637056339139259000,13.2722587890625,0.004497895941138267,-0.0030572230129968375,0.007952054983004928
1637056339159138800,13.292138916015626,0.008234744381904602,-0.004328320661047473,0.010208711335994302
1637056339179018800,13.312018798828126,0.008681903627514838,0.0018355905298609286,0.005852927279286086
1637056339198898700,13.331898681640626,0.016900865918397904,0.003907163506373763,-0.005356996988505125
1637056339218779000,13.35177880859375,0.005981412497162819,0.006461286702286451,0.0018952391620725392
1637056339238657800,13.37165771484375,-0.0014916998624801634,-0.007568900884315371,-0.00799399442858994
1637056339258537700,13.391537841796875,0.008988193097710609,0.0029412776162847875,0.0013789967356249689
1637056339278418000,13.41141796875,0.026195933008193967,0.0003646411944646388,0.0014298501400277018
1637056339298297900,13.4312978515625,0.02589139710366726,-0.006912336671724915,0.0011373699994757772
1637056339318177800,13.451177734375,0.0031517420291900635,-0.004843457975797355,0.01557173620648682
1637056339338057700,13.4710576171875,0.022160393881797788,-0.008684132117219268,0.02184372914806008
1637056339357937000,13.49093701171875,0.01573240666091442,-0.009335042907157913,-0.003248297738842666
1637056339377816800,13.51081689453125,0.023059388548135756,-0.005671360167302191,-0.0040680896891281005
1637056339397695700,13.53069580078125,0.016480010157823563,-0.002150245969602838,-0.008214761039800941
1637056339417576000,13.550575927734375,0.016357845082879064,0.00981883523557335,-0.019543927773088214
1637056339437456000,13.570455810546875,0.009629998132586479,0.005090984729770571,-0.007940547208301722
1637056339457334800,13.590334716796875,0.005868599772453307,0.0024948490230366585,0.005098309519700706
1637056339477214700,13.610214599609375,0.005411503654718399,0.009677253074105828,0.000005187631770968437
1637056339497095000,13.630094970703125,0.0031441432446241376,0.004329115245491266,-0.005633585440181195
1637056339516974800,13.649974853515625,-0.007041735205054283,-0.0005369198882952332,0.028118754296936093
1637056339536854800,13.669854736328125,0.002248071187734604,0.004197086363658308,0.011620002906024456
1637056339556734700,13.689734619140625,0.01632102020382881,0.002422697102278471,0.011831015308201312
1637056339576614000,13.70961376953125,0.011077274331450462,0.001838321343064308,0.008087043006904424
1637056339596493800,13.729493896484374,0.011105915904045104,-0.0043136345485690975,0.017729498762264848
1637056339616373800,13.749373779296874,0.01322188514471054,-0.004711885751690716,0.003476809265092015
1637056339636254000,13.76925390625,0.019204466685652732,-0.00623751528323628,-0.004284399320930242
1637056339656134000,13.7891337890625,0.0042442134410142895,-0.00529913845458068,0.017453567897714673
1637056339676012800,13.8090126953125,0.013984101688861847,-0.003435700936568901,0.011066533741727471
1637056339695892700,13.828892822265624,0.01023205567896366,-0.004548402285668999,-0.004701492221839726
1637056339715773000,13.84877294921875,0.004537058907747268,-0.002461193348607048,-0.014916815961711108
1637056339735652900,13.86865283203125,0.017114800930023193,0.0027150493786670267,-0.00992211294695735
1637056339755532800,13.88853271484375,0.008012041541934013,0.005965493408823385,-0.006491700106859207
1637056339775412700,13.908412841796874,0.005465279668569564,0.009669161099195479,0.010353453568927943
1637056339795292000,13.9282919921875,0.014458733463287353,-0.01796819375581108,-0.03249353531505912
1637056339815171800,13.948171875,0.023589549902081487,-0.02270620946260169,-0.04138086185418069
1637056339835051800,13.9680517578125,0.01313479138314724,-0.007165078456932678,0.011250292810797691
1637056339854931700,13.987931640625,0.02050210528075695,-0.00555574356415309,0.022631226263940332
1637056339874812000,14.00781201171875,0.020637714359164238,0.006263535640481859,-0.009838526316732167
1637056339894690800,14.02769091796875,0.018337620723247527,0.004932734561292455,0.006566482376120984
1637056339914570800,14.04757080078125,0.012509352961182593,0.006519117836747318,0.016698548279330132
1637056339934451000,14.067450927734376,0.007881693160533904,0.0018677575001027433,-0.0016005305318161844
1637056339954331000,14.087330810546876,0.008939093258976936,-0.0010744699642527848,-0.0041795141743496056
1637056339974210800,14.1072109375,0.01208732815682888,0.004314712260803207,-0.005816796519979834
1637056339994090800,14.1270908203125,0.01120586914718151,0.002561703714169562,-0.007843260846287012
1637056340013970000,14.146969970703125,0.011062661284208297,-0.0030576157386414705,0.00438099156320095
1637056340033849600,14.166849609375,0.016162614771723746,0.00015754691557958722,0.0026984818363562225
1637056340053729800,14.186729736328125,0.014655132818222045,-0.0061820770352613175,-0.010420527455769478
1637056340073609700,14.206609619140625,0.00836158563196659,0.0012702482646796852,-0.011413885874673723
1637056340093490000,14.226489990234375,0.013301380121707916,0.0006258585470728576,-0.0038427565006539225
1637056340113368800,14.246368896484375,0.019152444237470624,0.003566031051659956,0.003132379741594195
1637056340133248800,14.266248779296875,0.021231588599085808,0.0038837826307862996,0.013424714240431785
1637056340153129000,14.28612890625,0.013895254361629486,-0.0026748817650601264,0.005822860934585333
1637056340173009000,14.3060087890625,0.01824643530845642,0.0017250976264011114,-0.005138714595325291
1637056340192888800,14.325888916015625,0.008995791882276534,0.00006880918620154261,-0.003795592890679836
1637056340212768800,14.345768798828125,0.008284428742527961,-0.005544856843957677,0.0002199628936126828
1637056340232648000,14.36564794921875,0.016830138769745824,-0.00025924459123052656,-0.002468582070618868
1637056340252527600,14.385527587890625,0.014735212317109107,0.005558520043129101,0.0063264630751684306
1637056340272407800,14.40540771484375,0.007539163333177566,0.0037992552856449036,0.007193235972337424
1637056340292287700,14.425287841796875,0.014276947155594825,0.0020393786068074403,0.0012312222953885794
1637056340312168000,14.44516796875,0.009033785805106163,-0.0017752021121326834,-0.006127689100056886
1637056340332046800,14.465046875,0.007242226213216781,-0.008407598464470357,0.004927848323620855
1637056340351926800,14.4849267578125,0.010688567274808883,-0.0036524580929428335,-0.008009776519611477
1637056340371807000,14.504806884765625,0.00426467170715332,-0.009800194467185065,0.005764810604415834
1637056340391687000,14.52468701171875,0.019215572601556777,-0.005048077169805765,0.009699483172222972
1637056340411566800,14.54456689453125,0.01113572652041912,-0.004262178355967625,0.002237440195865929
1637056340431445500,14.564445556640624,0.010085340684652328,0.001803122165519744,0.0008801073027774691
1637056340451325700,14.58432568359375,0.004990647894144058,0.0038598902985453602,-0.006212737035006285
1637056340471205600,14.60420556640625,0.013232406538724898,0.002190130455419421,0.007875665278546511
1637056340491085800,14.6240859375,0.011734861457347869,-0.0028704043371602893,-0.0018791282774880528
1637056340510965500,14.643965576171874,0.014426000237464903,0.006015095571056008,0.004511486075073481
1637056340530845700,14.663845703125,-0.005036825123429298,-0.0011771631537470966,-0.0062342547470703715
1637056340550724900,14.683724853515624,0.012169745743274687,-0.001739528010552749,0.00290956730376929
1637056340570604800,14.703604736328124,0.00872106659412384,-0.001312635234836489,-0.001037051430158317
1637056340590484700,14.723484619140624,0.022492986837029456,-0.0032156467114109544,-0.001550773105956614
1637056340610364700,14.74336474609375,0.01784779137969017,-0.0031345899649895727,0.001982844380289316
1637056340630244600,14.76324462890625,0.013066986843943595,0.005685973214544356,-0.003542567977681756
1637056340650123500,14.78312353515625,0.019803017100691794,0.0026121461266186085,-0.001350683956593275
1637056340670003700,14.803003662109376,0.012312369084358215,0.0036630708185024555,-0.005286087176762521
1637056340689883600,14.822883544921876,0.010842881053686141,0.0016718878681305795,0.010573635658249259
1637056340709763800,14.842763916015626,0.018760230049490928,0.004722927735513076,0.00035714287459850307
1637056340729643500,14.8626435546875,0.008141805401444435,0.020554392590420318,-0.0016016265103593467
1637056340749523700,14.882523681640626,0.018597732964158058,0.005262003048276528,-0.002680617386102676
1637056340769402600,14.902402587890625,0.013813421297073364,-0.0021330208401661365,-0.0019500380892306566
1637056340789282800,14.92228271484375,0.011268997511267661,-0.00624693156555295,0.004813939620368183
1637056340809162500,14.94216259765625,0.008884148201346398,-0.00425515496013686,-0.00785243053343147
1637056340829042700,14.962042724609375,0.015481062248349189,0.000965538830216974,-0.003543992749787867
1637056340848922600,14.981922607421875,0.009506664013862609,-0.00810740994149819,0.0022810601418837904
1637056340868801500,15.001801513671875,0.003972410762310028,-0.0008635945593938231,-0.0030597894294187426
1637056340888681700,15.021681640625,0.004279284754395485,-0.0024665453771594912,0.00023972704000771043
1637056340908561700,15.041561767578125,0.0026367782443761823,0.005353663387103006,-0.0010250687314197421
1637056340928441900,15.06144189453125,0.015494506251811981,-0.0024697054486256093,-0.004604498120769858
1637056340948321500,15.081321533203125,0.014303835162520408,0.003522201043087989,0.002848630896769464
1637056340968200700,15.10120068359375,0.011013561445474624,-0.00008560505737550556,0.002214461179077625
1637056340988080600,15.12108056640625,0.021805004572868346,0.00023214652175083754,-0.010812741643749176
1637056341007960800,15.1409609375,0.016559505134820938,0.001575907547213137,0.012523454551771283
1637056341027840500,15.160840576171875,0.004298573976755142,0.00016604988244362174,-0.006137808635272086
1637056341047720700,15.180720703125,0.014927520018815994,-0.0027155151695478705,-0.01080634843558073
1637056341067600600,15.2006005859375,0.005948094749450683,-0.0033505982026923445,-0.006092106330022215
1637056341087479600,15.2204794921875,0.013138298514485358,0.005143253773124888,-0.0005729045171290636
1637056341107359700,15.24035986328125,0.0026636662513017653,-0.006532032117247581,0.010569142146222293
1637056341127239700,15.26023974609375,0.023301380610466,0.004218485344713554,0.009590615970268845
1637056341147119900,15.280119873046875,0.0006885667860507964,0.012010253465780987,0.0013696809180080889
1637056341166999600,15.29999951171875,0.024481530305743217,0.0011174962552264332,-0.006286496390961111
1637056341186878700,15.319878662109375,0.00637830286026001,0.0065606371572241185,-0.001903020609728992
1637056341206758700,15.339758544921875,0.0027852468043565747,0.0017543511203490197,-0.0024181305250152944
1637056341226638800,15.359638916015625,0.0033890579164028165,0.007589925406035035,-0.008265139520168304
1637056341246518500,15.3795185546875,0.015195231044292448,0.0005207816042471677,-0.015363098424486816
1637056341266398700,15.399398681640625,0.007699906852841377,0.0068038073964882635,-0.007953479755111039
1637056341286278000,15.41927783203125,0.01530979733467102,-0.005728926440281793,-0.0032414296066388486
1637056341306157600,15.439157470703124,0.020687983241677282,-0.0007457951323129236,-0.004260762717016041
1637056341326037800,15.459037841796874,0.015736498314142228,0.001398642151011154,0.0058725818278267975
1637056341345917700,15.478917724609374,0.008994038316607474,0.00430967075950466,-0.008622611188329755
1637056341365797600,15.498797607421874,0.00855155524611473,-0.0018065196990035472,0.00412972021587193
1637056341385676500,15.518676513671876,0.008843816190958023,0.0008604162216186523,-0.0023242051638662814
1637056341405557500,15.5385576171875,0.004955576580762863,0.0027681586722377687,-0.010772080839797854
1637056341425437400,15.5584375,0.017815642675757408,0.00096817831187509,-0.0016400588246062396
1637056341445317600,15.578317626953124,0.028746786534786222,-0.007193592165363952,0.013476152166724204
1637056341465197600,15.598197509765624,0.008099719825387,-0.0037719745530746876,0.016459515359066427
1637056341485077500,15.618077392578124,0.027390695750713345,-0.006525136585580185,0.010250504651106893
1637056341504956400,15.637956298828126,0.006145663148164749,0.004176564165437594,0.005421513592079282
1637056341524836600,15.657836669921876,0.004955576580762863,-0.003028152182139456,0.010467362272180616
1637056341544716500,15.677716552734376,0.002436287236213684,-0.008241877375589683,0.003558898057974875
1637056341564596500,15.697596435546876,0.01157704054713249,-0.010819883770588784,0.0020024258635938166
1637056341584476400,15.717476318359376,0.014560440272092818,0.0004724580836482346,0.006521729918941855
1637056341604355600,15.73735546875,0.01547229442000389,-0.003414923010021448,0.0046761385848745705
1637056341624235300,15.7572353515625,0.013665537258982658,-0.007976851497543975,0.018008425301499664
1637056341644115500,15.777115478515626,0.02143967839181423,-0.002268584252800792,0.004168371725827455
1637056341663995400,15.796995361328126,0.013363339442014694,0.0005960479306988418,-0.008812836530804634
1637056341683875600,15.81687548828125,0.0093283848375082,0.005204281511669978,-0.00029711978305131193
1637056341703754500,15.83675439453125,0.008887655332684517,-0.0005925773319788277,-0.004157631136104465
1637056341723634400,15.856634521484375,-0.0035100539475679394,0.0031705015285871923,-0.004442256763763725
1637056341743514600,15.8765146484375,0.007864157503843307,0.006679176369821653,-0.0011631254952400923
1637056341763394600,15.89639453125,0.0011368950754404067,-0.0025634116140659897,-0.006066168171167373
1637056341783274500,15.9162744140625,0.0066834232866764065,-0.0006390285558998584,-0.005340739973448217
1637056341803153400,15.9361533203125,0.005345452681183815,0.00544863906102255,-0.01894643680397421
1637056341823033600,15.95603369140625,0.014913491493463516,0.006751145627489313,-0.005056443139351904
1637056341842913300,15.975913330078125,0.014908815318346022,0.011386586875794455,-0.004180354424566031
1637056341862793500,15.99579345703125,0.015806640940904615,0.0009302848537452519,-0.005798785939253866
1637056341882673400,16.01567333984375,0.015049100571870803,0.005331679884158075,0.0034782705698162314
1637056341902553600,16.0355537109375,0.02506663671731949,-0.000004566577263176441,-0.004650894545763731
1637056341922432500,16.0554326171875,0.0017301847934722899,0.0011136146645527333,0.009615056291781365
1637056341942312400,16.0753125,0.004555763608217239,0.0006256210850551724,0.004951594525389373
1637056341962192600,16.095192626953125,0.005600888746976852,0.0022640633413102476,-0.0035386955201625824
1637056341982072600,16.115072509765625,0.014270517414808273,-0.006834650059323757,0.0070556541325524445
1637056342001952500,16.134952392578125,-0.0008387889117002486,0.000042386970156803726,0.008073562470823525
1637056342021831400,16.15483154296875,0.019517185896635054,-0.011603170502232387,-0.003700790746696293
1637056342041711600,16.174711669921876,0.016080197185277936,-0.0007146054096054286,-0.014059906871430576
1637056342061591300,16.19459130859375,0.010852817925810812,-0.0062927160691935565,0.003213591751642525
1637056342081471500,16.214471435546876,0.008331190493702888,-0.007675676593882963,0.007808554859086871
1637056342101351400,16.234351318359376,0.011626140385866164,-0.0033158648160286244,-0.0008105126652866602
1637056342121230300,16.254230224609376,0.013879472270607948,0.0019087014318443834,0.003334660848043859
1637056342141110500,16.274110595703124,0.014481529816985129,0.00211458100117743,0.011296177779138088
1637056342160990500,16.293990478515624,0.006554243949055671,0.009004979835730046,0.004201762538775801
1637056342180870700,16.31387060546875,0.004757423660159111,0.00783079409035854,0.004327288614585995
1637056342200750600,16.33375048828125,0.013742694148421287,0.001349935037922114,0.0008428074996918439
1637056342220629500,16.35362939453125,0.006433832439780235,-0.003977561861462891,0.0060369420766830445
1637056342240509400,16.373509521484376,0.014680851781368255,-0.00775251382291317,-0.0038209465276449915
1637056342260389600,16.3933896484375,0.0021294132441282273,0.0040928496710490436,-0.0028585677688941357
1637056342280269300,16.413269287109376,0.015431962409615516,0.03532899620300159,0.009386142906732857
1637056342300149500,16.4331494140625,0.0058627545535564415,-0.025385356410825625,0.01383837307523936
1637056342320029400,16.453029541015624,0.012891045755147934,-0.014520181326940655,0.006269399125687778
1637056342339908400,16.472908447265624,0.01710311049222946,-0.018193837471539152,-0.03315912308432162
1637056342359788500,16.49278857421875,-0.0045662850022315975,0.004136195622431114,0.03923325536623597
1637056342379668500,16.51266845703125,0.00798690710067749,0.008035203221812844,0.04433382990825921
1637056342399547600,16.532547607421876,0.021301731225848195,0.004884228377602994,0.008130955213867128
1637056342419427600,16.552427490234376,0.013298457512259483,0.017271808989485726,-0.014363492927886546
1637056342439306800,16.572306640625,-0.003448679149150848,0.008299197053397074,0.006626724663376808
1637056342459186700,16.592186767578124,0.011263736814260482,-0.0010135152909439057,-0.014460706224665046
1637056342479066600,16.612066650390624,0.03145663001537323,0.004844243427086621,-0.004366707309521735
1637056342498946600,16.631946533203124,0.013646248036623,-0.016002702369121834,-0.005665734144113957
1637056342518826800,16.65182666015625,0.01662906323969364,-0.014466971568670123,-0.002439429041370749
1637056342538705700,16.67170556640625,0.009863806888461113,-0.003768357823882252,0.017287161822244525
1637056342558585600,16.691585693359375,0.007734978166222572,0.000491984768025577,0.012171572374179958
1637056342578465800,16.7114658203125,0.014449381113052367,0.003333491804264486,-0.022250227589718997
1637056342598345700,16.731345703125,0.009046645286679268,0.009192328234529121,-0.006954970237053931
1637056342618225700,16.7512255859375,0.01265022273659706,0.0027802692351397125,0.010227087242901325
1637056342638104600,16.7711044921875,0.009672083708643912,0.0049373833369463676,-0.013793693683296441
1637056342657984800,16.79098486328125,0.013103227201104163,0.001903486400609836,-0.01375588242355734
1637056342677864700,16.81086474609375,0.02072247003316879,-0.0011462748251389711,0.0232919186623767
1637056342697744600,16.83074462890625,-0.0011357260316610335,-0.005988381094066426,0.006431348221749067
1637056342717624600,16.85062451171875,0.015777999368309974,-0.003677647333126515,-0.002454845806211233
1637056342737504800,16.8705048828125,0.023099136036634445,-0.001138374646473676,0.012328078110143541
1637056342757383700,16.8903837890625,0.023847908577322958,-0.0071568860173225396,0.000351005394756794
1637056342777263600,16.910263671875,0.011870470535755157,0.006980506537109613,-0.0025066490586847065
1637056342797143800,16.930143798828126,0.01379705468416214,0.004519367987429723,0.008615048936381936
1637056342817023700,16.950023681640626,0.012007248657941817,0.00472524755676277,-0.000976589947193861
1637056342836902700,16.969902587890626,0.002885200047492981,-0.006828430381091311,-0.008548596104048192
1637056342856782600,16.989782470703126,0.010816577568650246,0.0032856249413918703,-0.008052263954468071
1637056342876662800,17.009662841796874,0.016958149063587186,-0.006343770402995869,-0.0024677052877843378
1637056342896542700,17.029542724609374,0.013662614649534225,-0.0033530367549508807,0.0006284706292673945
1637056342916422700,17.049422607421874,0.018254034093022346,0.0006070625150576233,-0.05786423301286995
1637056342936302600,17.069302490234374,-0.02246142265498638,-0.003915766937937587,0.013757526391372083
1637056342956181800,17.089181640625,0.017066285613179206,-0.0012520732871722428,-0.0005090455006808042
1637056342976061700,17.109061767578126,0.012276128727197647,0.0023966858781874177,-0.009396079778857529
1637056342995941600,17.128941650390626,0.009132570004463195,0.002864549985108897,0.006335194370895624
1637056343015821600,17.148821533203126,-0.008363923719525337,0.002097438070131466,0.01276606766860932
1637056343035701800,17.16870166015625,0.007661328408122062,-0.004949229038367048,-0.0006377133816480637
1637056343055580700,17.18858056640625,0.005867430728673934,-0.007573266532178968,-0.006337349795363843
1637056343075460600,17.208460693359374,0.0046831893801689145,0.002932336258003488,0.018121639885008332
1637056343095340800,17.2283408203125,0.003940846580266952,0.0028173133098986,0.019133520341292024
1637056343115220700,17.248220703125,0.013076923716068268,0.009453125462029128,0.006561148613877594
1637056343135100700,17.2681005859375,0.0027279636591672897,0.006949289414938539,0.003971753175184131
1637056343154979600,17.2879794921875,0.019197452422976494,0.0008359941664151846,-0.0002367313653230667
1637056343174859800,17.30785986328125,0.0084440032184124,0.00110468243942596,-0.018091317811980843
1637056343194739500,17.327739501953126,0.012031214055418968,-0.008303343505552037,0.00849909440651536
1637056343214619600,17.34761962890625,0.016962825238704682,-0.002422761034360155,0.0029938480537384745
1637056343234499600,17.36749951171875,0.008432312780618668,-0.006495554298069328,-0.003643909460306167
1637056343254378800,17.387378662109374,0.01544482189118862,-0.0038132016126066442,-0.006957965911738574
1637056343274258700,17.4072587890625,0.0007779986351728439,0.007153826410556212,-0.00722655372004956
1637056343294138600,17.427138671875,0.011553659671545029,-0.0018758129423949866,0.0008372910743579268
1637056343314018800,17.447018798828125,0.014846271476149558,0.007755262902425602,-0.007346490305289626
1637056343333898800,17.466898681640625,0.012743746238946915,0.0019363292242866009,0.0016076543923467398
1637056343353777700,17.486777587890625,0.015420271971821784,-0.00012506028492935002,0.0026034239640459417
1637056343373657600,17.50665771484375,0.009435936865210532,-0.0063284267033915965,0.000017279928363859652
1637056343393537800,17.526537841796873,0.0056838908553123475,-0.004542611865699291,-0.004878785017505288
1637056343413417200,17.546417236328125,0.013608254113793372,-0.005806850514700636,0.00317453838288784
1637056343433297400,17.56629736328125,0.00479191045165062,-0.0032278668721672146,0.018009996204078196
1637056343453176600,17.586176513671877,-0.001028174003958702,0.0020224366051610557,-0.011863894664496182
1637056343473056500,17.606056396484377,0.0006108253747224808,0.00976670318953693,-0.00496953204087913
1637056343492936400,17.6259365234375,0.008250526472926139,0.001556883186334744,0.012589322862215339
1637056343512816400,17.64581640625,0.02262391974031925,-0.006162349421484395,0.0005003142049536109
1637056343532696600,17.665696533203125,0.022900983116030692,-0.0036699480838607995,0.009680815004371107
1637056343552575200,17.6855751953125,0.009867898541688918,-0.0019380371241830288,0.005159172861464321
1637056343572455400,17.705455322265625,0.0024006314009428023,-0.007995035608205943,-0.00423895274400711
1637056343592335400,17.72533544921875,0.011689268749952316,-0.0003864329011645168,-0.0002726429289206862
1637056343612215600,17.745215576171876,0.004522445860505104,0.0028666506106499582,-0.005962488600984216
1637056343632095200,17.76509521484375,0.015448913544416427,-0.0033350170410703867,-0.004950644677318632
1637056343651974400,17.784974365234376,0.021443770045042037,-0.005077741655707359,-0.0025426702201366423
1637056343671854600,17.8048544921875,0.01530804376900196,0.0018638759094290434,0.0073255936477333305
1637056343691734500,17.824734619140624,0.01275134502351284,0.0023622538856230674,-0.005821838021278381
1637056343711614500,17.844614501953124,0.018867197555303573,0.006969491952750832,0.0013243804715573787
1637056343731494400,17.864494384765624,0.0013549217402935027,0.023957040640758348,0.005986015607044101
1637056343751373600,17.88437353515625,0.012291326296329497,0.016559112409176305,-0.002037241448648274
1637056343771253200,17.904253173828124,0.010335516053438186,0.00834450663300231,0.0022839827513322234
1637056343791133400,17.924133544921876,0.009895371070504188,0.0027980788864661005,-0.0016391820417717099
1637056343811013400,17.944013427734376,0.014687866044044495,0.0067559496667701745,0.022138839637115597
1637056343830893600,17.9638935546875,0.018743278914690017,-0.007742659149179235,0.019669015457481145
1637056343850773200,17.983773193359376,0.02084580415189266,-0.015858206731360406,0.00431968983002007
1637056343870652400,18.00365234375,0.010530746364593505,-0.010851932009821758,0.011124839800223708
1637056343890532600,18.02353271484375,0.0102390699416399,-0.012600675373291596,0.002262391974031925
1637056343910412500,18.04341259765625,0.004258241966366767,0.0008176639252807944,-0.026385537296161055
1637056343930292500,18.06329248046875,0.004533551776409149,0.000628379297722131,0.002799896384216845
1637056343950171400,18.08317138671875,0.007821487405896187,0.00672901599407196,0.0003371960651129484
1637056343970051600,18.103051513671875,0.00630114597082138,-0.0012851627060212194,0.015821290520764888
1637056343989931300,18.12293115234375,0.015382278048992157,-0.007646998488670215,-0.00291442614197731
1637056344009811500,18.1428115234375,-0.00132803373336792,0.011523191468045115,-0.026921288140676913
1637056344029691400,18.16269140625,-0.0010533084452152251,-0.000692357045179233,0.011652809197083116
1637056344049570300,18.1825703125,0.009393266767263412,0.008103016894171014,0.003586187923699617
1637056344069450500,18.202450439453123,0.008591302734613417,-0.008484901484381408,0.006675313045457005
1637056344089330400,18.222330322265623,0.01511632058918476,0.007340215828130021,0.005945756661891937
1637056344109210400,18.24221044921875,0.014022680133581161,0.010689434924488886,0.022209457187913357
1637056344129090600,18.262090576171875,0.008444587740302085,0.005044414774840697,0.004578340766206383
1637056344148969500,18.281969482421875,0.014992401948571205,0.0043474180871620775,-0.003347008872963488
1637056344168849400,18.301849365234375,0.015256021320819853,0.006844048075331375,0.012128135091252623
1637056344188729600,18.3217294921875,0.013299626556038856,-0.0020919947100337595,0.009132825732789934
1637056344208609300,18.341609375,0.015225041660666464,0.0064649216977879405,0.014785298536531627
1637056344228489500,18.361489501953123,0.020747604474425314,0.013792917365161701,0.0057423065116629
1637056344248369400,18.381369384765627,0.008760814082622527,0.006274924684176221,-0.006848623785749078
1637056344268248300,18.401248291015627,0.010247837769985198,0.0056144606146030125,-0.015546382569521665
1637056344288128300,18.421128173828127,0.014736965882778168,0.0018198267051484434,0.0062758288664743304
1637056344308008400,18.441008544921875,0.016233341920375823,0.013852976989326998,-0.005441277738474309
1637056344327888400,18.460888427734375,0.011129296779632567,-0.008524859035434202,-0.006148585757613182
1637056344347767300,18.480767333984375,0.01693359914422035,-0.005040661048330367,0.0011881868712604045
1637056344367647500,18.5006474609375,0.019323124629259107,-0.00663973940857686,-0.00244523772764951
1637056344387527400,18.52052734375,0.0049503158837556835,-0.0016864552496001124,0.009277056509070097
1637056344407407900,18.540407958984375,0.011807342171669006,-0.000013672332325950264,0.0001372165136039257
1637056344427287600,18.56028759765625,0.014954408025741576,0.004187825344968587,-0.014194712232239544
1637056344447166700,18.580166748046874,0.0107663086861372,-0.006977419530879706,-0.00148695062212646
1637056344467046700,18.600046630859374,0.010460603737831115,0.009687208212539553,0.0016015899777412413
1637056344486926800,18.6199267578125,0.02003624133467674,0.010776930544851347,0.002060403128527105
1637056344506806500,18.639806640625,0.005959200665354728,0.0007323876614682376,-0.0010423121271654963
1637056344526686700,18.659686767578126,0.004752747485041618,-0.003186046157591045,-0.003905775266885757
1637056344546566700,18.679566650390626,0.023598902252316475,-0.0009966372213792054,-0.0020611703135073184
1637056344566445600,18.699445556640626,0.023295535391569137,-0.0014215755020268262,0.005404379794187844
1637056344586325800,18.71932568359375,0.009673837274312973,0.006775878209946676,0.0032103403486311434
1637056344606205700,18.739205810546874,0.02373158872127533,0.001062103673024103,-0.006710347826220095
1637056344626085600,18.759085693359374,-0.0005371756166219711,0.006285135550936683,-0.017614640210941432
1637056344645965600,18.778965576171874,0.006323942324519157,-0.002559740085946396,-0.003316284941136837
1637056344665844700,18.7988447265625,0.023691256710886954,0.005424883726099505,0.0038789603251963853
1637056344685724700,18.818724609375,0.022191958063840864,0.0014106065834406762,0.010846826576441525
1637056344705604900,18.83860498046875,0.02383212648630142,0.016037052163295446,0.017083236747980117
1637056344725484500,18.858484619140626,0.01904547673165798,0.0023155195339117198,0.008853205073811113
1637056344745364700,18.87836474609375,0.013945523244142532,-0.00024997443938627837,-0.0005506926853209733
1637056344765243600,18.89824365234375,0.006906710648536682,0.006676189828291535,0.004780694937892258
1637056344785123600,18.91812353515625,0.003914543095231056,-0.0009013053544331341,0.003296411196887493
1637056344805003500,18.93800341796875,0.01482873581945896,0.006423384111002088,0.0001625336179509759
1637056344824883700,18.9578837890625,0.00990530794262886,-0.004184327346784994,0.011024448165670036
1637056344844763000,18.977762939453125,0.0067465516507625575,0.0010199358985759318,0.0018793109405785798
1637056344864642600,18.997642578125,0.013348141872882842,0.0037928255448583512,0.0098373938055709
1637056344884522800,19.017522705078125,0.0045101709008216855,-0.0000771842889022082,0.0009387056222185492
1637056344904402700,19.037402587890625,0.002567220139503479,-0.0007597597255837172,-0.002227576388977468
1637056344924283000,19.057282958984374,0.010790274083614349,0.004680915224691853,0.0020700842723250386
1637056344944161500,19.07716162109375,0.006299976927042007,0.00427108318163082,0.0016682620057836173
1637056344964041700,19.097041748046873,0.010619593691825866,0.0063060048090294,0.007858093089237808
1637056344983921700,19.116921630859373,0.015721300745010373,-0.0012942136621568352,0.009888028014265
1637056345003801600,19.136801513671877,0.018255787658691406,-0.0007760806727223098,0.00636858518384397
1637056345023681500,19.156681640625,0.012999766826629637,-0.00018301015039905904,-0.003713942489214241
1637056345043560700,19.176560791015625,0.003863689690828323,-0.004231582288304343,-0.0044387130998075
1637056345063441000,19.19644091796875,0.011795651733875274,-0.0014828224362805485,0.0005050269126892089
1637056345083320600,19.216320556640625,0.01435118143558502,-0.005276387766655534,-0.0002706336349248886
1637056345103200800,19.23620068359375,0.017650222980976103,-0.0029475429602898655,-0.0010115151301026343
1637056345123080700,19.256080810546877,0.01450374164879322,0.003207070679310709,0.009676540688052774
1637056345142959600,19.275959716796876,0.016883330261707304,0.0008250252478290349,-0.003996924149058759
1637056345162839600,19.295839599609376,0.0031260230660438535,0.0008709558819420635,-0.004162709170021117
1637056345182719700,19.3157197265625,0.015239070186018944,0.0026026476459112017,0.010981924198195337
1637056345202599700,19.335599609375,0.0062742579638957975,0.004113408401887864,0.008648257086239754
1637056345222479600,19.355479736328125,0.01508709449470043,0.014424739862140268,0.004582578549906611
1637056345242358800,19.37535888671875,0.01642564962208271,0.007907978379260747,-0.00012384557537734508
1637056345262238700,19.39523876953125,0.0113327103972435,-0.0033969306956045326,0.001931077660433948
1637056345282119000,19.415118896484376,0.005213350734114647,0.0012578545739874243,0.015273666575364768
1637056345301998600,19.43499853515625,0.020015783068537712,-0.00833734623985365,-0.002813596116006374
1637056345321878800,19.454878662109376,0.012677110743522643,-0.0026218729361891747,-0.010120229334942997
1637056345341757700,19.4747578125,0.008777765217423439,0.005819025009684264,-0.007292896954528987
1637056345361637600,19.4946376953125,0.014920505756139754,0.005159090663073584,0.00007836246583610773
1637056345381517600,19.514517578125,0.012375497448444366,-0.0012874459946528077,0.008183050727285444
1637056345401397800,19.534397705078124,0.013414192846417426,-0.0009461034773848951,0.0013931348588317632
1637056345421281500,19.554281494140625,0.012050503277778625,0.00251963640442118,0.008594517605006693
1637056345441160700,19.57416064453125,0.005472293931245803,0.004426776066841558,0.00906246391031891
1637056345461040400,19.594040283203125,0.01235270109474659,0.0005692238558549433,0.006708996119350195
1637056345480920600,19.613920654296876,0.007715688943862915,0.006001085312012583,0.001508797127753496
1637056345500800500,19.633800537109376,0.010559972459077834,0.0028618191719055174,-0.00396769805457443
1637056345520680700,19.6536806640625,0.020741759255528448,-0.0022706574788782744,0.0014680632585659622
1637056345540559600,19.6735595703125,0.006385317122936249,0.0018852566241752355,0.004921820441633463
1637056345560439600,19.693439453125,0.00609071809053421,-0.006190625667897984,0.004880611648410559
1637056345580319700,19.71331982421875,0.017457915279269216,-0.004648602123977616,0.0027521117197349667
1637056345600199400,19.733199462890624,0.014618892461061477,0.0037689971446990965,-0.000879741976596415
1637056345620079600,19.75307958984375,0.01867079820036888,-0.0024858893984463066,0.0054226461032405495
1637056345639958500,19.77295849609375,0.016879823130369186,0.000506269021704793,-0.0037113852059468626
1637056345659838700,19.792838623046876,0.014333061257004736,0.0030793891790322956,-0.002359239944629371
1637056345679718400,19.812718505859376,0.0005786766707897186,0.00342175460960716,0.001348382401652634
1637056345699598600,19.8325986328125,0.013739771538972854,0.006604293635860085,-0.004111453906819224
1637056345719478500,19.852478515625,0.014331307691335678,0.0019555545145645736,0.010671835335716605
1637056345739357400,19.872357421875,0.012978139516711234,0.0017758870987221597,-0.0034279286220669745
1637056345759237600,19.892237548828124,0.012832009044289588,0.005781195483636111,0.005614515413530171
1637056345779117600,19.91211767578125,0.006999065107107162,0.0007392009947448969,-0.007914791712537407
1637056345798997800,19.931997802734376,0.01747077476084232,0.00045262087201699614,0.007248582888767123
1637056345818876400,19.95187646484375,0.007457914790511131,-0.004679316922649741,0.003068338062055409
1637056345838756600,19.971756591796876,-0.0015057283878326415,-0.0038890981267206367,-0.010207505759596823
1637056345858636500,19.991636474609376,0.004784311667084693,0.0017190149454865604,-0.000998180724494159
1637056345878516700,20.011516845703124,0.005989595803618431,0.005234137793816626,-0.0060906815579161045
1637056345898396400,20.031396484375,0.012726210582256316,0.004247172583080828,-0.0001704611960798502
1637056345918276600,20.051276611328124,0.0013356325179338453,-0.0015216748756356536,-0.01274560940247029
1637056345938155800,20.07115576171875,0.007471943315863609,0.004487228416651487,-0.008999262480996549
1637056345958035500,20.091035400390624,0.0016407529443502424,0.0077672638674732295,-0.0014420520344749091
1637056345977915600,20.11091552734375,0.010181786796450614,-0.0049460141679737715,0.004155110385455191
1637056345997795600,20.130795654296875,0.01120937627851963,0.010896958461636677,-0.008778167076222598
1637056346017675500,20.150675537109375,0.005512625941634178,0.006104627884877845,0.006404021823406219
1637056346037554400,20.170554443359375,0.01868950290083885,-0.0024585356006398794,0.005396233020350336
1637056346057434600,20.1904345703125,0.004924012398719787,-0.008516776193678379,-0.000623100334405899
1637056346077314600,20.210314453125,0.019584405913949013,0.0028251769559457895,0.000045300446450710294
1637056346097194800,20.23019482421875,0.011347323444485663,0.0027012857147958127,-0.006679550829157233
1637056346117073400,20.250073486328127,0.012690554746985435,0.0015533029897604137,0.0038762203788384793
1637056346136953600,20.26995361328125,0.009682020580768584,-0.0044164099364541465,-0.007082103748060763
1637056346156833500,20.28983349609375,0.0041571196794509884,0.0006167893246281892,-0.0030741832809522748
1637056346176713500,20.30971337890625,0.0023509470403194426,0.004593200408620759,0.0008607084825634956
1637056346196593400,20.329593505859375,0.011020575708150864,0.006810638996073976,-0.009683262689784169
1637056346216472600,20.34947265625,0.012971125254034994,-0.0017994597705546765,0.003869827170670032
1637056346236352800,20.369352783203126,0.013134206861257552,0.001778197786817327,-0.006118884739093482
1637056346256232400,20.389232421875,0.01088087497651577,-0.008589941894588992,-0.0061875660611316555
1637056346276112600,20.409112548828126,0.017167992421984673,0.008186119467206298,0.0023441519733518362
1637056346295992600,20.42899267578125,0.012968787166476248,0.0006851509862579405,0.0038465558929368852
1637056346315871500,20.44887158203125,0.003991699984669685,0.0030374953992199152,-0.006218728384375572
1637056346335751400,20.46875146484375,0.015038579177856445,0.003976073157275095,0.014219883206114172
1637056346355631600,20.488631591796874,0.014428338325023651,0.010407467044796795,-0.007507818346843123
1637056346375511600,20.508511474609374,0.00859422534406185,0.007288969698082655,0.0012524842791259289
1637056346395391500,20.5283916015625,0.01832359219789505,0.007155917902942746,-0.00751994717605412
1637056346415266800,20.548266845703125,0.008910451686382293,0.0025733393530361355,-0.005042926070652902
1637056346435146800,20.568146728515625,0.00784486828148365,-0.00007851772946305572,0.007603497273661196
1637056346455027000,20.58802685546875,0.010244915160536765,0.00313136596144177,-0.005047090789116919
1637056346474907000,20.607906982421873,0.014423662149906157,0.008086084025679155,-0.002135696854442358
1637056346494785800,20.627785888671873,0.023694179320335386,-0.004779434562567621,-0.0038055662954226133
1637056346514665700,20.647665771484377,0.0196457807123661,0.0016842267598956822,0.00032598055135458706
1637056346534546000,20.6675458984375,0.009783142867684363,-0.00228834839919582,0.0017265680642798542
1637056346554425600,20.687425537109377,0.017098434317111968,-0.002884168001031503,-0.0024752310071140524
1637056346574305800,20.707305908203125,0.009168225839734078,0.002787320030434057,-0.011237615992315113
1637056346594185000,20.72718505859375,0.01993862617909908,0.0010982709649484605,-0.0017405235243961215
1637056346614065000,20.74706494140625,0.015139701464772224,-0.003105245139496401,-0.004139949348941445
1637056346633944800,20.76694482421875,0.004054243826866149,-0.006538050866080448,0.0017830840244889257
1637056346653824800,20.78682470703125,0.013768997633457182,0.006861373669467866,-0.0059678588958457105
1637056346673705000,20.806705078125,0.01900456019937992,0.0013510127501562238,0.008830043393932282
1637056346693583600,20.82658349609375,0.011670564049482345,-0.005117123818024993,0.0059946007722988725
1637056346713463800,20.8464638671875,0.01047346321940422,0.003702708709146827,0.002507854635082185
1637056346733343700,20.86634375,0.023352234014868734,0.0013726491932291537,0.0023300138501450417
1637056346753224000,20.886223876953125,0.0038999300479888913,0.006502331098727882,-0.008724537192843855
1637056346773103600,20.906103515625,0.006288871011137962,0.002816491325991228,0.00036233050636947154
1637056346792982800,20.925982666015624,0.011802665996551514,0.005636772911110892,0.008794424091279507
1637056346812863000,20.945863037109376,-0.003437573233246803,0.0032136556837242094,0.002697276259958744
1637056346832743000,20.965742919921876,0.008994622838497161,0.005551971571333706,0.005535130034387111
1637056346852622800,20.985622802734376,0.006153261932730674,0.0006703004769980907,0.001788162058405578
1637056346872502800,21.005502685546876,0.008405424773693083,-0.0017014610224869102,-0.005534472447261214
1637056346892382000,21.0253818359375,0.02172901672720909,0.003283515182696283,-0.0010049392588436603
1637056346912261600,21.04526171875,0.007530980026721954,0.0032997630645986644,0.004272307024337351
1637056346932141800,21.065141845703124,0.017421674922108648,0.002031067436188459,0.00108925654143095
1637056346952021800,21.085021728515624,0.005145546194911003,0.0028776286623906342,-0.005421294396370649
1637056346971902000,21.10490185546875,0.00649111558496952,0.005632151534920558,0.0022516879169270396
1637056346991780900,21.12478076171875,0.008750292688608169,-0.00002925349394790828,0.0021879384983330965
1637056347011660800,21.144660888671876,0.01564355933368206,0.006449733261810615,0.004143931404314935
1637056347031541000,21.164541015625,0.010403905114531516,0.00854189236862585,-0.005429075844027102
1637056347051421000,21.1844208984375,0.018481997630000115,-0.001106956594903022,-0.0007338306998834013
1637056347071299800,21.2042998046875,0.01265022273659706,0.006034859717451035,-0.0015416034188121556
1637056347091179800,21.2241796875,0.008455693656206131,-0.004790988003043457,0.0012843407221138476
1637056347111060000,21.24406005859375,0.012046411624550819,-0.0014739176106173544,-0.0012578911066055297
1637056347130939600,21.263939697265624,0.019217326167225837,-0.0020118147464469075,-0.008191855088248849
1637056347150819800,21.28381982421875,0.013541618618369103,0.004377365700853988,-0.0006062222648411989
1637056347170699000,21.303698974609375,0.01759060174822807,0.002863883264828473,0.007138619708269834
1637056347190578700,21.32357861328125,0.011150339567661285,-0.0010659121984615922,0.001032959776930511
1637056347210459000,21.343458984375,0.005291676667332649,0.005416170696681365,-0.007569120080024003
1637056347230338800,21.3633388671875,0.0043897593915462494,0.0006568108077626675,-0.005074380654841661
1637056347250218800,21.38321875,0.0009410802423954009,-0.0036307668509427456,0.0016126228284090757
1637056347270097700,21.40309765625,0.0048322424620389935,0.0014928323736414313,0.006080963881500065
1637056347289977900,21.422977783203127,0.0087228201597929,0.002852293291734531,0.00956350876763463
1637056347309857800,21.44285791015625,0.007528057417273521,0.0032401326986961063,0.0002962795328348875
1637056347329738000,21.462738037109375,0.005281155273318291,-0.004999936312297359,-0.006542772706970572
1637056347349616600,21.48261669921875,0.018448095360398292,-0.012296157735073938,0.0028900223530828953
1637056347369496800,21.502496826171875,0.010223287850618362,-0.005894693194935098,-0.0017536387342959642
1637056347389376800,21.522376708984375,0.002898059529066086,0.010781844181986525,0.007315108786337077
1637056347409257200,21.54225732421875,0.011430910074710846,-0.00901972074713558,0.006337897784635425
1637056347429137200,21.56213720703125,0.009482114094495772,0.003593923705583438,-0.0027058248925954102
1637056347449016300,21.582016357421875,0.009175240102410316,0.004793737082555889,-0.005798530210927129
1637056347468896300,21.601896240234375,0.022638532787561415,0.002811522889928892,0.002959799653664231
1637056347488776200,21.621776123046875,0.006640168666839599,0.000413302641781047,0.005850771854817867
1637056347508656400,21.641656494140626,0.004403203395009041,0.005888765777647495,0.0037884324975311755
1637056347528536300,21.661536376953126,0.006500467935204505,-0.0008225592961069196,-0.0002555091310292482
1637056347548415200,21.681415283203126,0.01352992818057537,-0.0017156630777753889,-0.003192987355031073
1637056347568295200,21.701295166015626,0.007246902388334274,-0.010543340984685345,-0.004228577480465174
1637056347588175400,21.72117529296875,0.004984802675247192,0.004927437331667169,-0.0034596024019643663
1637056347608055000,21.741054931640626,0.018012626552581786,-0.005194417704781517,0.004517404359206557
1637056347627935200,21.760935302734374,0.020704934376478194,-0.004486223769653588,0.013641243067942559
1637056347647814400,21.780814453125,0.004231353959441185,0.0026434363140258937,-0.006430142645351588
1637056347667694300,21.8006943359375,0.009764438167214394,0.002148866863269359,0.009047522069513798
1637056347687574300,21.82057421875,0.016041618740558622,-0.003330578327970579,-0.00030501082856208085
1637056347707454200,21.8404541015625,-0.0005704933643341064,-0.0014590945008210838,0.005258285854384303
1637056347727333400,21.86033349609375,0.010039747977256774,-0.000808101512491703,0.00013129822947084902
1637056347747213000,21.880213134765626,0.016475918504595757,-0.004749779209820553,-0.001982113727927208
1637056347767093200,21.90009326171875,0.00958382090330124,0.0035322018472943454,0.003992467169649899
1637056347786973200,21.91997314453125,0.01094400334060192,0.0037669421849306673,0.001793386222794652
1637056347806853400,21.939853271484374,0.016033435434103013,0.0016508633464109152,-0.0008073708601295948
1637056347826732000,21.95973193359375,0.004507248291373253,0.004995461066579446,-0.002058503432385623
1637056347846612200,21.9796123046875,0.007653729623556137,-0.000401036815252155,-0.006284194836020469
1637056347866492200,21.9994921875,0.014697218394279479,-0.0024385796579997985,0.0006316489670425653
1637056347886372400,22.019372314453125,0.00034136078357696533,-0.003503770337253809,0.0006719809774309397
1637056347906252000,22.039251953125,0.023375614890456198,-0.00534761723880656,0.005677388049289584
1637056347926131200,22.059131103515625,0.0075122753262519834,-0.0035731731784995643,0.004329188310727477
1637056347946011400,22.079011474609374,0.004072364005446433,-0.0016956614693626761,-0.005119498438201845
1637056347965891000,22.09889111328125,0.008246434819698334,-0.0032117925202008336,0.006083996088802814
1637056347985771300,22.118771240234373,0.02021978120803833,-0.0036672081375028935,0.0025640783343464134
1637056348005650200,22.138650146484373,0.0070364745080471035,-0.00017075345702469348,0.009797317523509264
1637056348025530400,22.1585302734375,0.019000468546152113,0.011972816665377467,0.008376162146590649
1637056348045410000,22.17841015625,0.010316811352968216,0.008839021284831687,0.010552227544039488
1637056348065290200,22.198290283203125,0.014509002345800399,-0.0015015454030595718,-0.004559088076464831
1637056348085170200,22.218170166015625,0.009425999993085861,-0.00032869309824891385,-0.0037375060278922317
1637056348105049000,22.238049072265625,0.01811316431760788,0.008641626416053623,0.0006909048736095428
1637056348124929300,22.25792919921875,0.002402384966611862,0.003062648106785491,-0.0020089652022346853
1637056348144809200,22.277809326171877,0.008988777619600296,0.008221355177368968,-0.003116670715808868
1637056348164689400,22.297689453125,0.010930559337139129,-0.0070878028364852064,0.00025017536878585813
1637056348184569000,22.317569091796877,0.005233224478363991,0.0052453533075749875,-0.009234751737304031
1637056348204448300,22.3374482421875,0.016598083579540252,0.008171835213527084,0.004683079782314598
1637056348224328200,22.357328125,0.008224222987890243,0.00567577148093842,-0.006545914512127637
1637056348244208400,22.37720849609375,0.013313655081391334,-0.001580072265677154,-0.012053060561046004
1637056348264088000,22.397088134765625,0.007332827106118202,-0.0005365271626506001,-0.003455291553027928
1637056348283968300,22.41696826171875,0.02185702702105045,-0.006761986681912094,-0.0019411241304129361
1637056348303847400,22.436847412109376,0.003596563187241554,0.0004304547059815377,-0.002460800622962415
1637056348323727000,22.45672705078125,0.014374562311172484,0.0052817854609806085,0.009045585840754211
1637056348343607300,22.476607177734376,0.017505846074223518,-0.0019258443628903477,0.007147679797559976
1637056348363487200,22.4964873046875,0.011666472396254539,-0.0019517916548997163,-0.006138795015960931
1637056348383366400,22.516366455078124,0.014215572357177733,-0.0018088851860258728,0.0027521117197349667
1637056348403246000,22.53624609375,0.006145078626275062,0.002469805913325399,-0.0033119740922003984
1637056348423125200,22.556125244140624,0.01182020165324211,0.006676619086554273,0.015084500678814946
1637056348443005400,22.57600537109375,0.027680618607997892,-0.024683628749102352,0.020177403371036053
1637056348462885400,22.595885498046876,0.02468786653280258,0.0031128073914442208,0.012145268889144063
1637056348482764300,22.615764404296876,0.01106383032798767,0.008923913956154137,-0.025106603401526807
1637056348502644200,22.635644287109375,-0.005545943689346313,0.016915889957593754,-0.022796426763013005
1637056348522524400,22.6555244140625,0.012001403439044952,0.005346795254899188,-0.00007171352934092283
1637056348542404400,22.675404296875,0.025764555853605268,-0.0017236454548314212,0.010839812313765287
1637056348562284500,22.695284423828124,0.022899814072251317,-0.005538171374844387,0.011561258456110954
1637056348582163500,22.71516357421875,0.016147417202591895,-0.010798676585778594,0.00930029125418514
1637056348602043400,22.73504345703125,0.01553892991542816,-0.004870181585941463,0.007158785713464021
1637056348621923300,22.75492333984375,0.009996493357419967,-0.005275812377920374,-0.016359306387603283
1637056348641803300,22.77480322265625,0.004612462231516838,0.003553472964186221,-0.004955211254581809
1637056348661682400,22.794682373046875,0.0020785598397254942,-0.00009347783657722175,-0.008289104917645455
1637056348681562400,22.814562255859375,0.01705868682861328,-0.0005604377612005919,-0.008295315462723375
1637056348701442300,22.8344423828125,0.013465630772709845,0.007498493396071716,0.002206350937858224
1637056348721322200,22.854322265625,0.006285363879799843,-0.005719656288437545,0.007833141311071812
1637056348741202400,22.874202392578123,0.005526069945096969,-0.0013009995959699153,-0.003525361114554107
1637056348761081300,22.894081298828127,0.01525660584270954,0.0024798432501498607,0.018727277627959848
1637056348780961300,22.913961181640627,0.015565233400464057,0.008663856514170766,0.0006809680014848708
1637056348800841200,22.93384130859375,0.0052472530037164684,0.005583298291359096,0.006979483623802661
1637056348820721400,22.953721435546875,0.016029343780875206,0.0032511564162094144,0.007953991211764514
1637056348840600300,22.973600341796875,0.0036298809349536894,0.005742498307907954,0.004734298512898385
1637056348860480300,22.993480224609375,0.004092237749695778,0.001035343530261889,0.0024361045731231567
1637056348880360400,23.0133603515625,0.009039046502113342,0.0044458826261106876,-0.006238382932916283
1637056348900240400,23.033240478515626,0.009942132821679115,0.0047122510778717696,-0.014582140647247433
1637056348920120300,23.053120361328126,0.006208206990361213,-0.0002962977991439402,-0.0008099281433969736
1637056348939999200,23.072999267578126,0.0005108721315860748,0.0018654742114711553,-0.005268405389599501
1637056348959879400,23.09287939453125,0.011867547926306723,-0.0017923450431786476,-0.004096037141978741
1637056348979759400,23.11275927734375,0.018282675665616987,-0.005680849514855072,0.0036801498174667355
1637056348999639300,23.132639404296874,0.018279753056168555,-0.003800643525132909,-0.002241897175274789
1637056349019518500,23.1525185546875,0.013191490006446838,-0.0058973144102841615,-0.00624072102047503
1637056349039398400,23.1723984375,0.004205050474405289,-0.00020052754078060388,-0.0028847251234576103
1637056349059278300,23.1922783203125,0.008400748598575591,-0.0019563582321628927,0.0037413419527933
1637056349079158300,23.212158203125,0.012578911066055297,-0.005884226599847897,-0.006229797767661511
1637056349099038500,23.23203857421875,0.016314005941152572,0.0009270060512702911,0.0010362477125599979
1637056349118917400,23.25191748046875,0.012874094620347023,0.0010528152548708021,-0.006769274939224123
1637056349138797300,23.27179736328125,0.005395137041807174,0.005130732218269258,0.00383186978045851
1637056349158677200,23.29167724609375,0.0013613514810800551,-0.005675095627503469,-0.01018770508058369
1637056349178557400,23.311557373046874,0.015581015491485595,-0.0036516452421899884,0.008279679502174257
1637056349198437400,23.331437255859374,0.009729951375722884,0.008854282786045223,0.0048510567603632804
1637056349218316300,23.35131640625,0.0024006314009428023,-0.008160656232386827,0.004264269848354161
1637056349238196500,23.371196533203126,0.012262684723734854,0.002555410970700905,-0.004682239532098174
1637056349258076400,23.391076416015625,-0.0004582651615142822,-0.007709496665094047,-0.001868314622528851
1637056349277956400,23.410956298828125,0.004043722432851791,-0.003692041184660047,0.009630692252330481
