 Acc_timestamp,Accx,Accy,Accz,Gyro_timestamp,Gyrox,Gyroy,Gyroz,Baro_timestamp,Pressure_Reading
 271162752.000000, -9.509077 , 0.437887, 2.490928, 1602408832.000000, -1.540000,  0.770000,  0.140000, 0.000000,  0.000000 
 271182976.000000, -9.523434 , 0.461815, 2.531606, 1602428800.000000, -0.840000,  0.910000,  -0.140000, 0.000000,  0.000000 
 271203328.000000, -9.499505 , 0.464208, 2.533999, 1602449024.000000, -0.420000,  0.700000,  -0.070000, 0.000000,  0.000000 
 271222656.000000, -9.552148 , 0.452243, 2.462214, 1602469376.000000, -0.490000,  0.980000,  0.140000, 0.000000,  0.000000 
 271242624.000000, -9.533006 , 0.504886, 2.522035, 1602488704.000000, -0.560000,  1.050000,  0.700000, 0.000000,  0.000000 
 271262592.000000, -9.456435 , 0.399601, 2.512464, 1602508672.000000, -1.820000,  0.840000,  1.050000, 0.000000,  0.000000 
 271282944.000000, -9.456435 , 0.464208, 2.524428, 1602528768.000000, -2.450000,  0.560000,  1.120000, 0.000000,  0.000000 
 271303168.000000, -9.547362 , 0.488136, 2.526821, 1602548992.000000, -3.290000,  0.350000,  1.190000, 0.000000,  0.000000 
 271322624.000000, -9.561719 , 0.464208, 2.610569, 1602569344.000000, -3.780000,  0.420000,  1.050000, 0.000000,  0.000000 
 271342720.000000, -9.547362 , 0.440279, 2.603391, 1602588672.000000, -4.550000,  0.420000,  0.910000, 0.000000,  0.000000 
 271362560.000000, -9.521042 , 0.478565, 2.591427, 1602608896.000000, -4.550000,  0.560000,  0.840000, 0.000000,  0.000000 
 271382912.000000, -9.494720 , 0.480957, 2.553142, 1602628608.000000, -3.640000,  0.420000,  1.120000, 0.000000,  0.000000 
 271403136.000000, -9.494720 , 0.468993, 2.562713, 1602648960.000000, -2.170000,  0.420000,  0.910000, 0.000000,  0.000000 
 271422592.000000, -9.504292 , 0.471386, 2.536392, 1602669184.000000, -1.050000,  0.350000,  0.700000, 0.000000,  0.000000 
 271442560.000000, -9.494720 , 0.454636, 2.488536, 1602688640.000000, -0.770000,  0.350000,  0.770000, 0.000000,  0.000000 
 271462528.000000, -9.482756 , 0.409173, 2.481357, 1602708608.000000, -1.050000,  0.140000,  0.980000, 0.000000,  0.000000 
 271482880.000000, -9.477970 , 0.406780, 2.548356, 1602728576.000000, -1.750000,  0.140000,  1.190000, 0.000000,  0.000000 
 271503104.000000, -9.480364 , 0.433101, 2.600998, 1602748928.000000, -2.100000,  0.350000,  1.050000, 0.000000,  0.000000 
 271522560.000000, -9.537791 , 0.416351, 2.502892, 1602769152.000000, -2.030000,  0.350000,  0.910000, 0.000000,  0.000000 
 271542528.000000, -9.521042 , 0.428315, 2.651247, 1602788608.000000, -2.310000,  0.140000,  0.630000, 0.000000,  0.000000 
 271562496.000000, -9.466006 , 0.349352, 2.572284, 1602808576.000000, -3.780000,  0.560000,  0.980000, 0.000000,  0.000000 
 271582720.000000, -9.492328 , 0.421137, 2.584249, 1602828544.000000, -1.540000,  0.560000,  0.980000, 0.000000,  0.000000 
 271603072.000000, -9.475577 , 0.457029, 2.522035, 1602848896.000000, -1.540000,  0.280000,  0.630000, 0.000000,  0.000000 
 271622400.000000, -9.525827 , 0.466600, 2.593820, 1602869120.000000, -1.540000,  0.560000,  -0.070000, 0.000000,  0.000000 
 271642496.000000, -9.501899 , 0.406780, 2.577070, 1602888576.000000, -1.050000,  0.420000,  -0.280000, 0.000000,  0.000000 
 271662464.000000, -9.482756 , 0.440279, 2.557927, 1602908544.000000, -0.560000,  0.280000,  0.070000, 0.000000,  0.000000 
 271682688.000000, -9.482756 , 0.449851, 2.572284, 1602928512.000000, 0.140000,  0.070000,  0.070000, 0.000000,  0.000000 
 271703040.000000, -9.521042 , 0.495314, 2.536392, 1602948736.000000, 0.350000,  0.140000,  -0.280000, 0.000000,  0.000000 
 271722368.000000, -9.501899 , 0.497707, 2.486143, 1602969088.000000, 0.210000,  0.070000,  -0.630000, 0.000000,  0.000000 
 271742336.000000, -9.499505 , 0.387637, 2.476572, 1602988416.000000, -0.210000,  0.070000,  -0.560000, 0.000000,  0.000000 
 271762432.000000, -9.516255 , 0.423530, 2.498107, 1603008512.000000, -0.770000,  0.350000,  -0.420000, 0.000000,  0.000000 
 271782656.000000, -9.516255 , 0.447458, 2.421536, 1603028480.000000, -1.260000,  0.350000,  -0.140000, 0.000000,  0.000000 
 271803008.000000, -9.451650 , 0.512064, 2.507678, 1603048704.000000, -1.540000,  0.560000,  -0.140000, 0.000000,  0.000000 
 271822336.000000, -9.521042 , 0.428315, 2.459821, 1603069056.000000, -2.590000,  0.560000,  -0.210000, 0.000000,  0.000000 
 271842304.000000, -9.544970 , 0.492921, 2.562713, 1603088384.000000, -3.290000,  0.420000,  -0.350000, 0.000000,  0.000000 
 271862272.000000, -9.518648 , 0.411566, 2.548356, 1603108352.000000, -5.110000,  1.470000,  -0.140000, 0.000000,  0.000000 
 271882624.000000, -9.499505 , 0.421137, 2.512464, 1603128448.000000, -3.430000,  1.050000,  0.490000, 0.000000,  0.000000 
 271902848.000000, -9.470792 , 0.397209, 2.524428, 1603148672.000000, -3.010000,  0.910000,  0.560000, 0.000000,  0.000000 
 271922304.000000, -9.573684 , 0.464208, 2.577070, 1603169024.000000, -3.710000,  1.400000,  0.210000, 0.000000,  0.000000 
 271942272.000000, -9.571291 , 0.433101, 2.543570, 1603188352.000000, -4.200000,  0.980000,  -0.140000, 0.000000,  0.000000 
 271962240.000000, -9.588040 , 0.471386, 2.550749, 1603208320.000000, -3.150000,  0.770000,  -0.140000, 0.000000,  0.000000 
 271982592.000000, -9.592826 , 0.531207, 2.522035, 1603228288.000000, -2.730000,  0.770000,  0.350000, 0.000000,  0.000000 
 272004736.000000, -9.485149 , 0.495314, 2.488536, 1603248640.000000, -2.590000,  0.490000,  0.560000, 0.000000,  0.000000 
 272022272.000000, -9.516255 , 0.480957, 2.541178, 1603270912.000000, -2.380000,  0.280000,  0.840000, 0.000000,  0.000000 
 272042240.000000, -9.509077 , 0.500100, 2.586641, 1603288320.000000, -3.640000,  0.420000,  1.050000, 1600583552.000000,  1010.240234 
 272062208.000000, -9.542577 , 0.428315, 2.543570, 1603308288.000000, -4.830000,  0.280000,  1.120000, 0.000000,  0.000000 
 272082560.000000, -9.499505 , 0.404387, 2.567499, 1603328256.000000, -4.830000,  0.280000,  1.610000, 0.000000,  0.000000 
 272102784.000000, -9.518648 , 0.416351, 2.584249, 1603348608.000000, -4.480000,  0.140000,  1.680000, 0.000000,  0.000000 
 272122112.000000, -9.487542 , 0.425922, 2.581856, 1603368832.000000, -3.780000,  0.140000,  1.750000, 0.000000,  0.000000 
 272142208.000000, -9.513863 , 0.464208, 2.589034, 1603388288.000000, -3.150000,  0.140000,  1.680000, 0.000000,  0.000000 
 272162176.000000, -9.463614 , 0.468993, 2.533999, 1603408256.000000, -2.940000,  0.140000,  1.400000, 0.000000,  0.000000 
 272182400.000000, -9.454042 , 0.433101, 2.622534, 1603428224.000000, -2.590000,  -0.070000,  1.050000, 0.000000,  0.000000 
 272202752.000000, -9.489935 , 0.447458, 2.586641, 1603448576.000000, -1.750000,  -0.140000,  0.910000, 0.000000,  0.000000 
 272222080.000000, -9.521042 , 0.416351, 2.553142, 1603468800.000000, -0.630000,  -0.070000,  0.560000, 0.000000,  0.000000 
 272242048.000000, -9.544970 , 0.485743, 2.548356, 1603488128.000000, 0.210000,  -0.070000,  0.630000, 0.000000,  0.000000 
 272262144.000000, -9.559326 , 0.409173, 2.526821, 1603508224.000000, 0.210000,  -0.210000,  0.560000, 0.000000,  0.000000 
 272282368.000000, -9.463614 , 0.421137, 2.541178, 1603528192.000000, -0.630000,  -0.210000,  0.630000, 0.000000,  0.000000 
 272302720.000000, -9.521042 , 0.416351, 2.526821, 1603548416.000000, -1.190000,  -0.420000,  0.630000, 0.000000,  0.000000 
 272322048.000000, -9.466006 , 0.457029, 2.541178, 1603568768.000000, -1.190000,  -0.490000,  0.490000, 0.000000,  0.000000 
 272342016.000000, -9.549755 , 0.437887, 2.538785, 1603588096.000000, -1.750000,  -0.140000,  0.420000, 0.000000,  0.000000 
 272361984.000000, -9.521042 , 0.411566, 2.524428, 1603608064.000000, -2.520000,  -0.070000,  0.210000, 0.000000,  0.000000 
 272382336.000000, -9.475577 , 0.378066, 2.603391, 1603628160.000000, -2.870000,  -0.070000,  0.210000, 0.000000,  0.000000 
 272402560.000000, -9.523434 , 0.413958, 2.586641, 1603648384.000000, -2.310000,  0.070000,  -0.140000, 0.000000,  0.000000 
 272422016.000000, -9.513863 , 0.399601, 2.541178, 1603668736.000000, -0.630000,  0.070000,  -0.560000, 0.000000,  0.000000 
 272441984.000000, -9.511470 , 0.385244, 2.581856, 1603688064.000000, 0.840000,  0.070000,  -0.770000, 0.000000,  0.000000 
 272461952.000000, -9.439686 , 0.409173, 2.529213, 1603708032.000000, 1.120000,  -0.140000,  -0.490000, 0.000000,  0.000000 
 272482304.000000, -9.499505 , 0.433101, 2.476572, 1603728000.000000, 1.680000,  -0.140000,  -0.630000, 0.000000,  0.000000 
 272502528.000000, -9.504292 , 0.430708, 2.531606, 1603748352.000000, 1.610000,  0.350000,  -1.120000, 0.000000,  0.000000 
 272521984.000000, -9.418150 , 0.411566, 2.517249, 1603768576.000000, 0.140000,  0.490000,  -1.050000, 0.000000,  0.000000 
 272541952.000000, -9.504292 , 0.366102, 2.452643, 1603788032.000000, -1.470000,  0.280000,  -0.980000, 0.000000,  0.000000 
 272561920.000000, -9.578469 , 0.418744, 2.498107, 1603808000.000000, -2.870000,  0.420000,  -1.120000, 0.000000,  0.000000 
 272582272.000000, -9.602397 , 0.390030, 2.577070, 1603827968.000000, -3.290000,  0.560000,  -0.910000, 0.000000,  0.000000 
 272602496.000000, -9.576077 , 0.356531, 2.569891, 1603848320.000000, -3.080000,  0.630000,  -0.490000, 0.000000,  0.000000 
 272621952.000000, -9.516255 , 0.385244, 2.510071, 1603868544.000000, -1.750000,  0.420000,  0.140000, 0.000000,  0.000000 
 272641920.000000, -9.492328 , 0.416351, 2.567499, 1603888000.000000, -1.050000,  0.420000,  0.140000, 0.000000,  0.000000 
 272661888.000000, -9.504292 , 0.433101, 2.562713, 1603907968.000000, -0.910000,  0.700000,  -0.210000, 0.000000,  0.000000 
 272682112.000000, -9.485149 , 0.356531, 2.550749, 1603927936.000000, -0.910000,  0.700000,  -0.210000, 0.000000,  0.000000 
 272702464.000000, -9.482756 , 0.330210, 2.531606, 1603948288.000000, -0.210000,  0.910000,  -0.280000, 0.000000,  0.000000 
 272721792.000000, -9.442079 , 0.378066, 2.541178, 1603968512.000000, 0.420000,  0.840000,  -0.350000, 0.000000,  0.000000 
 272741888.000000, -9.523434 , 0.394816, 2.524428, 1603987968.000000, 0.350000,  0.910000,  -0.490000, 0.000000,  0.000000 
 272761856.000000, -9.506684 , 0.416351, 2.565106, 1604007936.000000, -0.070000,  0.770000,  -0.560000, 0.000000,  0.000000 
 272782080.000000, -9.523434 , 0.442672, 2.569891, 1604027904.000000, -0.630000,  0.630000,  -0.350000, 0.000000,  0.000000 
 272802432.000000, -9.537791 , 0.401994, 2.524428, 1604048128.000000, -0.980000,  0.630000,  -0.280000, 0.000000,  0.000000 
 272821760.000000, -9.559326 , 0.459422, 2.579463, 1604068480.000000, -1.190000,  0.420000,  -0.280000, 0.000000,  0.000000 
 272841728.000000, -9.609575 , 0.409173, 2.562713, 1604087808.000000, -1.330000,  0.420000,  -0.280000, 0.000000,  0.000000 
 272861824.000000, -9.578469 , 0.397209, 2.529213, 1604107904.000000, -1.470000,  0.350000,  0.700000, 0.000000,  0.000000 
 272882048.000000, -9.456435 , 0.390030, 2.450250, 1604127872.000000, -1.120000,  -0.280000,  1.470000, 0.000000,  0.000000 
 272902400.000000, -9.449257 , 0.409173, 2.562713, 1604148096.000000, -0.910000,  -0.630000,  1.610000, 0.000000,  0.000000 
 272921728.000000, -9.399008 , 0.382852, 2.469393, 1604168448.000000, -1.470000,  0.210000,  1.190000, 0.000000,  0.000000 
 272941696.000000, -9.406186 , 0.344566, 2.445465, 1604187776.000000, -1.470000,  0.070000,  0.700000, 0.000000,  0.000000 
 272961664.000000, -9.449257 , 0.385244, 2.450250, 1604207744.000000, -1.470000,  0.770000,  -0.350000, 0.000000,  0.000000 
 272982016.000000, -9.475577 , 0.394816, 2.519642, 1604227840.000000, -2.240000,  1.890000,  -0.490000, 0.000000,  0.000000 
 273004288.000000, -9.439686 , 0.406780, 2.596212, 1604248064.000000, -3.010000,  2.730000,  -0.700000, 0.000000,  0.000000 
 273021696.000000, -9.521042 , 0.382852, 2.620141, 1604270336.000000, -2.590000,  3.570000,  -0.350000, 0.000000,  0.000000 
 273041664.000000, -9.521042 , 0.397209, 2.778067, 1604287744.000000, -1.820000,  4.340000,  -0.210000, 1601582976.000000,  1010.239258 
 273061632.000000, -9.446864 , 0.457029, 2.732604, 1604307712.000000, 0.070000,  4.130000,  0.140000, 0.000000,  0.000000 
 273082112.000000, -9.451650 , 0.490529, 2.622534, 1604327680.000000, 2.170000,  3.080000,  -0.350000, 0.000000,  0.000000 
 273102208.000000, -9.468399 , 0.413958, 2.718246, 1604348160.000000, 3.080000,  1.890000,  -0.980000, 0.000000,  0.000000 
 273121664.000000, -9.408579 , 0.294317, 2.679961, 1604368256.000000, 3.150000,  0.420000,  -1.190000, 0.000000,  0.000000 
 273141632.000000, -9.372685 , 0.344566, 2.452643, 1604387712.000000, 4.410000,  -0.280000,  -0.700000, 0.000000,  0.000000 
 273161600.000000, -9.372685 , 0.394816, 2.385644, 1604407680.000000, 5.460000,  -0.700000,  -1.120000, 0.000000,  0.000000 
 273181952.000000, -9.511470 , 0.318245, 2.440679, 1604427648.000000, 5.530000,  -0.980000,  -1.400000, 0.000000,  0.000000 
 273202176.000000, -9.518648 , 0.246461, 2.553142, 1604448000.000000, 2.310000,  -0.770000,  -1.470000, 0.000000,  0.000000 
 273221504.000000, -9.564112 , 0.260818, 2.620141, 1604468224.000000, -0.630000,  -0.560000,  -1.750000, 0.000000,  0.000000 
 273241600.000000, -9.645468 , 0.351745, 2.574677, 1604487680.000000, -0.140000,  -0.210000,  -2.170000, 0.000000,  0.000000 
 273261568.000000, -9.650253 , 0.490529, 2.486143, 1604507648.000000, 3.010000,  -0.280000,  -2.660000, 0.000000,  0.000000 
 273281792.000000, -9.628718 , 0.516850, 2.493321, 1604527616.000000, 4.690000,  -0.560000,  -2.660000, 0.000000,  0.000000 
 273302144.000000, -9.580862 , 0.418744, 2.517249, 1604547968.000000, 3.710000,  -1.050000,  -2.030000, 0.000000,  0.000000 
 273321472.000000, -9.549755 , 0.354138, 2.536392, 1604568192.000000, 2.940000,  -1.540000,  -1.120000, 0.000000,  0.000000 
 273341568.000000, -9.523434 , 0.430708, 2.414358, 1604607616.000000, 5.810000,  -1.260000,  -0.560000, 0.000000,  0.000000 
 273361536.000000, -9.487542 , 0.437887, 2.404787, 0.000000, 0.000000,  0.000000,  0.000000, 0.000000,  0.000000 
 273381760.000000, -9.525827 , 0.382852, 2.431108, 1604627584.000000, 5.460000,  -1.260000,  -0.560000, 0.000000,  0.000000 
 273402112.000000, -9.521042 , 0.279960, 2.478964, 1604647808.000000, 3.430000,  -0.840000,  -0.420000, 0.000000,  0.000000 
 273421440.000000, -9.492328 , 0.263210, 2.478964, 1604668160.000000, 1.960000,  -0.700000,  -0.420000, 0.000000,  0.000000 
 273441408.000000, -9.523434 , 0.349352, 2.411965, 1604687488.000000, 2.240000,  -0.560000,  0.280000, 0.000000,  0.000000 
 273461376.000000, -9.535398 , 0.346959, 2.493321, 1604707584.000000, 3.220000,  -0.350000,  0.420000, 0.000000,  0.000000 
 273481728.000000, -9.693325 , 0.418744, 2.536392, 1604727552.000000, 2.590000,  -0.350000,  0.350000, 0.000000,  0.000000 
 273501952.000000, -9.791430 , 0.423530, 2.648855, 1604747776.000000, 1.330000,  0.280000,  0.910000, 0.000000,  0.000000 
 273521408.000000, -9.884750 , 0.509671, 2.730211, 1604768128.000000, 1.750000,  -0.070000,  2.940000, 0.000000,  0.000000 
 273541376.000000, -9.853643 , 0.550349, 3.005385, 1604787456.000000, 2.380000,  -0.630000,  5.250000, 0.000000,  0.000000 
 273561344.000000, -9.609575 , 0.339781, 3.055635, 1604807552.000000, 2.520000,  -1.540000,  4.830000, 0.000000,  0.000000 
 273581696.000000, -9.473185 , 0.399601, 2.871387, 1604827392.000000, 4.620000,  -4.690000,  2.730000, 0.000000,  0.000000 
 273601920.000000, -9.540184 , 0.490529, 2.706282, 1604847744.000000, 8.470000,  -9.030000,  1.540000, 0.000000,  0.000000 
 273621376.000000, -9.494720 , 0.612563, 2.620141, 1604867968.000000, 10.220000,  -11.690000,  0.140000, 0.000000,  0.000000 
 273641344.000000, -8.958728 , 0.681954, 2.182254, 1604887424.000000, 7.070000,  -14.700000,  0.910000, 0.000000,  0.000000 
 273661312.000000, -8.879765 , 0.535992, 1.933401, 1604907392.000000, 0.630000,  -17.290001,  1.400000, 0.000000,  0.000000 
 273681664.000000, -9.408579 , 0.409173, 2.179861, 1604927360.000000, -9.730000,  -16.799999,  0.770000, 0.000000,  0.000000 
 273701888.000000, -9.317651 , 0.122034, 2.318645, 1604967936.000000, -19.110001,  -6.300000,  3.360000, 0.000000,  0.000000 
 273721344.000000, -8.956335 , 0.119641, 2.239682, 0.000000, 0.000000,  0.000000,  0.000000, 0.000000,  0.000000 
 273741312.000000, -9.286544 , 0.404387, 2.335395, 1604987392.000000, -12.250000,  -5.530000,  3.360000, 0.000000,  0.000000 
 273761280.000000, -9.791430 , 0.555135, 2.644069, 1605007360.000000, -8.890000,  1.540000,  2.380000, 0.000000,  0.000000 
 273781632.000000, -9.595219 , 0.416351, 2.840281, 1605027328.000000, -10.710000,  6.580000,  1.400000, 0.000000,  0.000000 
 273801856.000000, -9.269794 , 0.440279, 2.916851, 1605047680.000000, -13.230000,  3.570000,  1.890000, 0.000000,  0.000000 
 273821184.000000, -9.489935 , 0.476172, 3.024528, 1605067904.000000, -14.700000,  2.450000,  2.940000, 0.000000,  0.000000 
 273841280.000000, -9.492328 , 0.375673, 3.203990, 1605087360.000000, -14.980000,  4.620000,  2.240000, 0.000000,  0.000000 
 273861248.000000, -9.324830 , 0.196211, 3.220739, 1605107328.000000, -14.140000,  3.640000,  2.870000, 0.000000,  0.000000 
 273881472.000000, -9.262616 , 0.181855, 3.139383, 1605127296.000000, -11.270000,  0.770000,  2.380000, 0.000000,  0.000000 
 273901824.000000, -9.408579 , 0.224925, 3.091527, 1605147648.000000, -7.140000,  0.770000,  -0.350000, 0.000000,  0.000000 
 273921152.000000, -9.501899 , 0.342174, 2.935993, 1605167872.000000, -0.840000,  0.980000,  -3.010000, 0.000000,  0.000000 
 273941120.000000, -9.468399 , 0.516850, 2.813959, 1605187200.000000, 4.760000,  -0.420000,  -3.500000, 0.000000,  0.000000 
 273961216.000000, -9.410972 , 0.650848, 2.727818, 1605207296.000000, 7.140000,  -0.770000,  -3.220000, 0.000000,  0.000000 
 273981440.000000, -9.291330 , 0.713061, 2.584249, 1605227264.000000, 6.300000,  -0.210000,  -2.310000, 0.000000,  0.000000 
 274003712.000000, -9.288938 , 0.725025, 2.541178, 1605247488.000000, 3.360000,  -0.280000,  -1.750000, 0.000000,  0.000000 
 274021120.000000, -9.442079 , 0.521635, 2.682354, 1605269760.000000, -3.080000,  0.070000,  -1.050000, 0.000000,  0.000000 
 274041088.000000, -9.489935 , 0.342174, 2.744568, 1605287168.000000, -9.660000,  1.330000,  0.980000, 1602582400.000000,  1010.238525 
 274061056.000000, -9.439686 , 0.318245, 2.667997, 1605307136.000000, -11.620000,  1.680000,  2.380000, 0.000000,  0.000000 
 274081408.000000, -9.399008 , 0.349352, 2.706282, 1605327232.000000, -10.570000,  1.120000,  2.590000, 0.000000,  0.000000 
 274101632.000000, -9.458827 , 0.287139, 2.818745, 1605347456.000000, -10.640000,  2.380000,  2.030000, 0.000000,  0.000000 
 274121088.000000, -9.501899 , 0.323031, 2.914458, 1605367808.000000, -11.760000,  2.940000,  2.170000, 0.000000,  0.000000 
 274141056.000000, -9.513863 , 0.275175, 2.897708, 1605387136.000000, -11.620000,  3.710000,  1.750000, 0.000000,  0.000000 
 274161024.000000, -9.518648 , 0.423530, 2.988636, 1605407104.000000, -8.890000,  4.200000,  0.980000, 0.000000,  0.000000 
 274181376.000000, -9.521042 , 0.390030, 2.991028, 1605427072.000000, -5.810000,  4.200000,  0.980000, 0.000000,  0.000000 
 274201600.000000, -9.468399 , 0.428315, 2.962314, 1605447424.000000, -2.100000,  3.780000,  1.190000, 0.000000,  0.000000 
 274221056.000000, -9.379865 , 0.394816, 2.885744, 1605467648.000000, 0.140000,  2.870000,  1.190000, 0.000000,  0.000000 
 274241024.000000, -9.387043 , 0.390030, 2.888137, 1605487104.000000, 2.240000,  1.820000,  0.560000, 0.000000,  0.000000 
 274260992.000000, -9.401401 , 0.354138, 2.801995, 1605507072.000000, 3.710000,  1.680000,  -0.280000, 0.000000,  0.000000 
 274281344.000000, -9.403792 , 0.406780, 2.756532, 1605527040.000000, 4.760000,  1.470000,  -0.910000, 0.000000,  0.000000 
 274301568.000000, -9.463614 , 0.416351, 2.684747, 1605547392.000000, 4.410000,  1.470000,  -0.910000, 0.000000,  0.000000 
 274321024.000000, -9.528220 , 0.445065, 2.744568, 1605567616.000000, 2.240000,  1.330000,  -0.560000, 0.000000,  0.000000 
 274340992.000000, -9.554541 , 0.392423, 2.828316, 1605587072.000000, -0.700000,  1.190000,  0.140000, 0.000000,  0.000000 
 274360960.000000, -9.497113 , 0.459422, 2.813959, 1605607040.000000, -2.240000,  0.770000,  0.490000, 0.000000,  0.000000 
 274381312.000000, -9.504292 , 0.471386, 2.830709, 1605627008.000000, -2.240000,  -0.140000,  1.610000, 0.000000,  0.000000 
 274401536.000000, -9.461221 , 0.476172, 2.806781, 1605647360.000000, -1.890000,  -0.420000,  2.240000, 0.000000,  0.000000 
 274420864.000000, -9.489935 , 0.490529, 2.852244, 1605667584.000000, -1.890000,  -0.700000,  2.310000, 0.000000,  0.000000 
 274440832.000000, -9.425328 , 0.416351, 2.840281, 1605687040.000000, -2.030000,  -0.770000,  1.960000, 0.000000,  0.000000 
 274460928.000000, -9.375079 , 0.344566, 2.878566, 1605707008.000000, -1.260000,  -0.910000,  1.470000, 0.000000,  0.000000 
 274481152.000000, -9.308081 , 0.344566, 2.813959, 1605726976.000000, 0.140000,  -1.120000,  0.630000, 0.000000,  0.000000 
 274501504.000000, -9.348758 , 0.337388, 2.785245, 1605747200.000000, 2.100000,  -1.120000,  0.630000, 0.000000,  0.000000 
 274520832.000000, -9.387043 , 0.356531, 2.782853, 1605767552.000000, 2.800000,  -0.840000,  -0.490000, 0.000000,  0.000000 
 274540928.000000, -9.396614 , 0.351745, 2.790031, 1605786880.000000, 2.380000,  -0.700000,  -0.770000, 0.000000,  0.000000 
 274560768.000000, -9.425328 , 0.373280, 2.749353, 1605806976.000000, 2.450000,  -0.140000,  -1.400000, 0.000000,  0.000000 
 274581120.000000, -9.468399 , 0.433101, 2.742175, 1605826944.000000, 3.360000,  0.280000,  -1.960000, 0.000000,  0.000000 
 274601344.000000, -9.473185 , 0.435494, 2.715853, 1605847168.000000, 3.360000,  0.700000,  -2.030000, 0.000000,  0.000000 
 274620800.000000, -9.477970 , 0.409173, 2.763710, 1605867520.000000, 3.010000,  0.700000,  -2.170000, 0.000000,  0.000000 
 274640768.000000, -9.504292 , 0.370888, 2.739782, 1605886848.000000, 3.290000,  0.420000,  -1.610000, 0.000000,  0.000000 
 274660736.000000, -9.406186 , 0.406780, 2.653640, 1605906816.000000, 4.200000,  0.630000,  -1.750000, 0.000000,  0.000000 
 274681088.000000, -9.415757 , 0.375673, 2.708675, 1605926784.000000, 5.390000,  0.420000,  -1.470000, 0.000000,  0.000000 
 274701312.000000, -9.425328 , 0.378066, 2.684747, 1605947136.000000, 5.320000,  0.630000,  -0.980000, 0.000000,  0.000000 
 274720768.000000, -9.379865 , 0.334995, 2.636890, 1605967360.000000, 4.620000,  0.630000,  -1.260000, 0.000000,  0.000000 
 274740736.000000, -9.363115 , 0.325424, 2.711068, 1605986816.000000, 3.430000,  0.700000,  -1.540000, 0.000000,  0.000000 
 274760704.000000, -9.420543 , 0.356531, 2.706282, 1606006784.000000, 2.660000,  1.330000,  -1.960000, 0.000000,  0.000000 
 274781056.000000, -9.420543 , 0.452243, 2.725425, 1606026752.000000, 2.870000,  1.400000,  -1.960000, 0.000000,  0.000000 
 274801280.000000, -9.451650 , 0.413958, 2.684747, 1606047104.000000, 2.730000,  1.540000,  -2.170000, 0.000000,  0.000000 
 274820736.000000, -9.470792 , 0.411566, 2.739782, 1606067328.000000, 1.750000,  1.610000,  -2.310000, 0.000000,  0.000000 
 274840704.000000, -9.451650 , 0.370888, 2.732604, 1606086784.000000, 0.630000,  1.330000,  -1.820000, 0.000000,  0.000000 
 274860672.000000, -9.449257 , 0.363709, 2.687140, 1606106752.000000, 0.350000,  0.910000,  -1.260000, 0.000000,  0.000000 
 274881024.000000, -9.375079 , 0.301496, 2.653640, 1606126720.000000, 0.490000,  0.840000,  -0.910000, 0.000000,  0.000000 
 274901248.000000, -9.418150 , 0.299103, 2.636890, 1606147072.000000, -0.280000,  0.700000,  -0.840000, 0.000000,  0.000000 
 274920576.000000, -9.473185 , 0.258425, 2.742175, 1606167296.000000, -1.330000,  0.700000,  -0.770000, 0.000000,  0.000000 
 274940672.000000, -9.468399 , 0.282353, 2.766103, 1606186752.000000, -1.890000,  1.470000,  -1.470000, 0.000000,  0.000000 
 274960640.000000, -9.468399 , 0.342174, 2.701497, 1606206720.000000, -0.700000,  1.750000,  -1.750000, 0.000000,  0.000000 
 274980864.000000, -9.497113 , 0.433101, 2.687140, 1606226688.000000, 1.190000,  1.890000,  -1.960000, 0.000000,  0.000000 
 275003136.000000, -9.485149 , 0.413958, 2.703890, 1606247040.000000, 1.680000,  1.750000,  -2.030000, 0.000000,  0.000000 
 275020544.000000, -9.528220 , 0.368495, 2.711068, 1606269184.000000, 0.490000,  1.820000,  -2.240000, 0.000000,  0.000000 
 275040512.000000, -9.528220 , 0.291924, 2.727818, 1606286592.000000, -0.770000,  1.750000,  -1.400000, 1603581952.000000,  1010.241455 
 275060608.000000, -9.470792 , 0.327817, 2.718246, 1606306688.000000, -0.840000,  1.330000,  -0.840000, 0.000000,  0.000000 
 275080832.000000, -9.477970 , 0.289532, 2.682354, 1606326656.000000, -0.770000,  1.190000,  -0.700000, 0.000000,  0.000000 
 275101184.000000, -9.523434 , 0.265603, 2.670390, 1606346880.000000, -1.050000,  1.120000,  -0.420000, 0.000000,  0.000000 
 275120512.000000, -9.540184 , 0.294317, 2.706282, 1606367232.000000, -1.190000,  0.700000,  -0.210000, 0.000000,  0.000000 
 275140480.000000, -9.559326 , 0.318245, 2.730211, 1606386560.000000, -1.470000,  1.400000,  -0.630000, 0.000000,  0.000000 
 275160448.000000, -9.437292 , 0.370888, 2.746960, 1606406528.000000, -2.240000,  1.260000,  0.210000, 0.000000,  0.000000 
 275180800.000000, -9.442079 , 0.334995, 2.706282, 1606426624.000000, -2.520000,  0.350000,  1.190000, 0.000000,  0.000000 
 275201024.000000, -9.489935 , 0.349352, 2.758924, 1606446848.000000, -2.240000,  0.840000,  1.330000, 0.000000,  0.000000 
 275220480.000000, -9.477970 , 0.330210, 2.780460, 1606467200.000000, -3.220000,  0.980000,  0.910000, 0.000000,  0.000000 
 275240448.000000, -9.470792 , 0.287139, 2.751746, 1606486528.000000, -3.640000,  0.770000,  1.540000, 0.000000,  0.000000 
 275260416.000000, -9.444471 , 0.267996, 2.694318, 1606506496.000000, -3.080000,  0.630000,  1.820000, 0.000000,  0.000000 
 275280768.000000, -9.482756 , 0.308674, 2.703890, 1606526464.000000, -1.890000,  0.140000,  1.470000, 0.000000,  0.000000 
 275300992.000000, -9.540184 , 0.299103, 2.699104, 1606546816.000000, -1.330000,  0.140000,  0.910000, 0.000000,  0.000000 
 275320448.000000, -9.513863 , 0.315853, 2.718246, 1606567040.000000, -1.120000,  0.490000,  0.840000, 0.000000,  0.000000 
 275340544.000000, -9.389436 , 0.385244, 2.660819, 1606586496.000000, -0.630000,  0.350000,  1.330000, 0.000000,  0.000000 
 275360384.000000, -9.446864 , 0.401994, 2.632105, 1606606592.000000, -0.210000,  0.140000,  1.540000, 0.000000,  0.000000 
 275380736.000000, -9.499505 , 0.342174, 2.682354, 1606626432.000000, -1.330000,  0.840000,  1.050000, 0.000000,  0.000000 
 275400960.000000, -9.430114 , 0.267996, 2.663212, 1606646784.000000, -3.010000,  1.120000,  0.980000, 0.000000,  0.000000 
 275420416.000000, -9.454042 , 0.239282, 2.706282, 1606667008.000000, -3.360000,  0.840000,  1.120000, 0.000000,  0.000000 
 275440384.000000, -9.523434 , 0.320638, 2.711068, 1606686464.000000, -2.100000,  1.120000,  0.840000, 0.000000,  0.000000 
 275460352.000000, -9.540184 , 0.380459, 2.696711, 1606706432.000000, -1.120000,  1.820000,  0.350000, 0.000000,  0.000000 
 275480704.000000, -9.497113 , 0.303888, 2.663212, 1606726400.000000, -1.050000,  1.820000,  0.280000, 0.000000,  0.000000 
 275500928.000000, -9.437292 , 0.320638, 2.739782, 1606746752.000000, -1.400000,  1.330000,  0.980000, 0.000000,  0.000000 
 275520256.000000, -9.332008 , 0.277567, 2.699104, 1606766976.000000, -1.120000,  1.470000,  1.050000, 0.000000,  0.000000 
 275540352.000000, -9.470792 , 0.313460, 2.675175, 1606786432.000000, 0.420000,  1.540000,  0.630000, 0.000000,  0.000000 
 275560320.000000, -9.446864 , 0.325424, 2.691926, 1606806400.000000, 2.240000,  1.540000,  0.630000, 0.000000,  0.000000 
 275580544.000000, -9.501899 , 0.378066, 2.687140, 1606826368.000000, 2.800000,  1.890000,  -0.140000, 0.000000,  0.000000 
 275600896.000000, -9.470792 , 0.318245, 2.651247, 1606846592.000000, 2.800000,  1.680000,  -0.070000, 0.000000,  0.000000 
 275620224.000000, -9.509077 , 0.323031, 2.684747, 1606866944.000000, 2.800000,  1.680000,  -0.280000, 0.000000,  0.000000 
 275640192.000000, -9.511470 , 0.303888, 2.723032, 1606886272.000000, 2.660000,  1.890000,  -0.280000, 0.000000,  0.000000 
 275660160.000000, -9.451650 , 0.318245, 2.627320, 1606906240.000000, 3.220000,  1.470000,  -0.070000, 0.000000,  0.000000 
 275680512.000000, -9.482756 , 0.323031, 2.622534, 1606926336.000000, 3.920000,  0.980000,  -0.420000, 0.000000,  0.000000 
 275700736.000000, -9.506684 , 0.294317, 2.641676, 1606946560.000000, 3.570000,  0.980000,  -1.050000, 0.000000,  0.000000 
 275720192.000000, -9.549755 , 0.325424, 2.653640, 1606966912.000000, 3.710000,  0.840000,  -0.910000, 0.000000,  0.000000 
 275740160.000000, -9.518648 , 0.409173, 2.577070, 1606986240.000000, 4.550000,  0.630000,  -0.770000, 0.000000,  0.000000 
 275760128.000000, -9.504292 , 0.394816, 2.522035, 1607006208.000000, 4.620000,  0.700000,  -0.630000, 0.000000,  0.000000 
 275780480.000000, -9.556933 , 0.404387, 2.562713, 1607026176.000000, 3.150000,  0.700000,  -0.140000, 0.000000,  0.000000 
 275800704.000000, -9.537791 , 0.428315, 2.612962, 1607046528.000000, 0.980000,  0.770000,  0.280000, 0.000000,  0.000000 
 275820160.000000, -9.585647 , 0.392423, 2.608176, 1607066752.000000, -0.700000,  0.980000,  -0.070000, 0.000000,  0.000000 
 275840128.000000, -9.487542 , 0.339781, 2.608176, 1607086208.000000, -0.910000,  0.910000,  -0.210000, 0.000000,  0.000000 
 275860096.000000, -9.425328 , 0.287139, 2.627320, 1607106176.000000, -0.420000,  0.770000,  -0.420000, 0.000000,  0.000000 
 275880448.000000, -9.434900 , 0.253639, 2.586641, 1607126144.000000, 0.490000,  0.560000,  -0.630000, 0.000000,  0.000000 
 275900672.000000, -9.475577 , 0.296710, 2.632105, 1607146496.000000, 1.190000,  0.560000,  -0.700000, 0.000000,  0.000000 
 275920128.000000, -9.454042 , 0.275175, 2.634498, 1607166720.000000, 0.770000,  0.770000,  -0.490000, 0.000000,  0.000000 
 275940096.000000, -9.477970 , 0.315853, 2.610569, 1607186176.000000, 0.770000,  0.420000,  0.070000, 0.000000,  0.000000 
 275960064.000000, -9.535398 , 0.337388, 2.600998, 1607206144.000000, 1.330000,  0.350000,  0.070000, 0.000000,  0.000000 
 275980416.000000, -9.523434 , 0.344566, 2.620141, 1607226112.000000, 1.610000,  0.350000,  -0.280000, 0.000000,  0.000000 
 276002560.000000, -9.506684 , 0.363709, 2.653640, 1607246464.000000, 1.960000,  0.140000,  -0.210000, 0.000000,  0.000000 
 276019968.000000, -9.504292 , 0.385244, 2.584249, 1607286144.000000, 3.010000,  -0.350000,  0.280000, 1604581376.000000,  1010.243408 
 276040064.000000, -9.518648 , 0.349352, 2.531606, 0.000000, 0.000000,  0.000000,  0.000000, 0.000000,  0.000000 
 276060032.000000, -9.485149 , 0.251246, 2.553142, 1607306112.000000, 2.520000,  -0.350000,  -0.210000, 0.000000,  0.000000 
 276080256.000000, -9.528220 , 0.265603, 2.557927, 1607326080.000000, 1.470000,  -0.350000,  -0.840000, 0.000000,  0.000000 
 276100608.000000, -9.458827 , 0.334995, 2.510071, 1607346432.000000, 0.840000,  -0.280000,  -1.190000, 0.000000,  0.000000 
 276119936.000000, -9.437292 , 0.354138, 2.586641, 1607366656.000000, 1.400000,  -0.280000,  -0.770000, 0.000000,  0.000000 
 276139904.000000, -9.463614 , 0.349352, 2.605784, 1607385984.000000, 1.190000,  0.490000,  -0.770000, 0.000000,  0.000000 
 276160000.000000, -9.518648 , 0.368495, 2.624927, 1607406080.000000, 0.140000,  0.770000,  -0.560000, 0.000000,  0.000000 
 276180224.000000, -9.533006 , 0.308674, 2.627320, 1607426048.000000, -1.120000,  0.840000,  -0.280000, 0.000000,  0.000000 
 276200576.000000, -9.473185 , 0.291924, 2.684747, 1607466624.000000, -0.700000,  0.490000,  -0.700000, 0.000000,  0.000000 
 276219904.000000, -9.473185 , 0.301496, 2.629712, 0.000000, 0.000000,  0.000000,  0.000000, 0.000000,  0.000000 
 276239872.000000, -9.473185 , 0.349352, 2.644069, 1607485952.000000, 2.030000,  0.420000,  -1.050000, 0.000000,  0.000000 
 276259840.000000, -9.540184 , 0.425922, 2.581856, 1607505920.000000, 4.270000,  0.420000,  -1.540000, 0.000000,  0.000000 
 276280192.000000, -9.525827 , 0.392423, 2.567499, 1607526016.000000, 4.690000,  0.420000,  -1.400000, 0.000000,  0.000000 
 276300416.000000, -9.494720 , 0.327817, 2.608176, 1607546240.000000, 3.430000,  0.210000,  -1.190000, 0.000000,  0.000000 
 276319872.000000, -9.482756 , 0.337388, 2.572284, 1607566592.000000, 2.030000,  0.140000,  -0.910000, 0.000000,  0.000000 
 276339840.000000, -9.513863 , 0.313460, 2.543570, 1607585920.000000, 1.190000,  0.140000,  -0.840000, 0.000000,  0.000000 
 276359808.000000, -9.506684 , 0.358923, 2.574677, 1607605888.000000, 0.490000,  0.280000,  -0.770000, 0.000000,  0.000000 
 276380160.000000, -9.492328 , 0.346959, 2.600998, 1607625856.000000, 0.490000,  0.280000,  -0.700000, 0.000000,  0.000000 
 276400384.000000, -9.492328 , 0.366102, 2.574677, 1607646208.000000, 0.910000,  0.140000,  -0.490000, 0.000000,  0.000000 
 276419840.000000, -9.480364 , 0.368495, 2.557927, 1607666432.000000, 1.260000,  0.280000,  -0.210000, 0.000000,  0.000000 
 276439808.000000, -9.537791 , 0.323031, 2.550749, 1607685888.000000, 0.700000,  0.280000,  -0.140000, 0.000000,  0.000000 
 276459776.000000, -9.513863 , 0.303888, 2.624927, 1607705856.000000, -0.490000,  0.420000,  -0.140000, 0.000000,  0.000000 
 276480128.000000, -9.473185 , 0.308674, 2.608176, 1607725824.000000, -1.260000,  0.420000,  -0.210000, 0.000000,  0.000000 
 276500352.000000, -9.480364 , 0.320638, 2.574677, 1607746176.000000, -0.770000,  0.280000,  -0.140000, 0.000000,  0.000000 
 276519808.000000, -9.477970 , 0.375673, 2.543570, 1607766400.000000, 0.210000,  0.280000,  -0.420000, 0.000000,  0.000000 
 276539776.000000, -9.497113 , 0.325424, 2.577070, 1607785856.000000, 0.210000,  0.280000,  -0.350000, 0.000000,  0.000000 
 276559744.000000, -9.494720 , 0.358923, 2.529213, 1607805824.000000, -0.140000,  0.210000,  -0.700000, 0.000000,  0.000000 
 276579968.000000, -9.458827 , 0.418744, 2.574677, 1607825792.000000, 0.070000,  0.490000,  -0.560000, 0.000000,  0.000000 
 276600320.000000, -9.492328 , 0.323031, 2.536392, 1607846144.000000, -0.840000,  0.630000,  -0.490000, 0.000000,  0.000000 
 276619648.000000, -9.489935 , 0.311067, 2.541178, 1607866368.000000, -2.450000,  0.840000,  -0.630000, 0.000000,  0.000000 
 276639744.000000, -9.535398 , 0.222532, 2.567499, 1607885824.000000, -3.990000,  0.910000,  -0.980000, 0.000000,  0.000000 
 276659712.000000, -9.535398 , 0.279960, 2.634498, 1607905792.000000, -4.270000,  1.050000,  -1.050000, 0.000000,  0.000000 
 276679936.000000, -9.511470 , 0.301496, 2.596212, 1607925760.000000, -3.640000,  0.980000,  -0.560000, 0.000000,  0.000000 
 276700288.000000, -9.480364 , 0.337388, 2.629712, 1607945984.000000, -3.150000,  0.910000,  -0.070000, 0.000000,  0.000000 
 276719616.000000, -9.506684 , 0.272782, 2.627320, 1607966336.000000, -2.520000,  0.770000,  -0.070000, 0.000000,  0.000000 
 276739584.000000, -9.513863 , 0.296710, 2.711068, 1607985664.000000, -1.890000,  0.840000,  -0.070000, 0.000000,  0.000000 
 276759680.000000, -9.504292 , 0.296710, 2.632105, 1608005760.000000, -1.050000,  0.910000,  -0.140000, 0.000000,  0.000000 
 276779904.000000, -9.430114 , 0.299103, 2.612962, 1608025728.000000, 0.280000,  0.490000,  0.210000, 0.000000,  0.000000 
 276800128.000000, -9.492328 , 0.289532, 2.584249, 1608045952.000000, 0.840000,  0.280000,  -0.070000, 0.000000,  0.000000 
 276819584.000000, -9.552148 , 0.318245, 2.627320, 1608066304.000000, 0.140000,  0.280000,  -0.280000, 0.000000,  0.000000 
 276839552.000000, -9.497113 , 0.332602, 2.579463, 1608085632.000000, -0.280000,  0.350000,  -0.210000, 0.000000,  0.000000 
 276859520.000000, -9.518648 , 0.303888, 2.569891, 1608105600.000000, -0.280000,  0.210000,  -0.210000, 0.000000,  0.000000 
 276879872.000000, -9.494720 , 0.358923, 2.577070, 1608125696.000000, -0.350000,  0.070000,  0.280000, 0.000000,  0.000000 
 276900096.000000, -9.530612 , 0.277567, 2.591427, 1608145920.000000, -1.190000,  -0.070000,  0.350000, 0.000000,  0.000000 
 276919552.000000, -9.473185 , 0.277567, 2.584249, 1608166144.000000, -2.030000,  -0.070000,  0.140000, 0.000000,  0.000000 
 276939520.000000, -9.518648 , 0.275175, 2.598605, 1608185600.000000, -1.890000,  0.070000,  0.140000, 0.000000,  0.000000 
 276959488.000000, -9.516255 , 0.315853, 2.627320, 1608205568.000000, -1.540000,  0.140000,  0.280000, 0.000000,  0.000000 
 276979840.000000, -9.504292 , 0.267996, 2.603391, 1608225536.000000, -1.330000,  0.210000,  0.350000, 0.000000,  0.000000 
 277002112.000000, -9.477970 , 0.241675, 2.663212, 1608245888.000000, -1.680000,  0.280000,  0.210000, 0.000000,  0.000000 
 277019520.000000, -9.501899 , 0.253639, 2.679961, 1608285568.000000, -0.980000,  0.140000,  -0.350000, 1605580800.000000,  1010.242798 
 277039488.000000, -9.506684 , 0.279960, 2.656033, 0.000000, 0.000000,  0.000000,  0.000000, 0.000000,  0.000000 
 277059456.000000, -9.511470 , 0.303888, 2.584249, 1608305536.000000, 0.560000,  0.280000,  -0.910000, 0.000000,  0.000000 
 277079808.000000, -9.485149 , 0.279960, 2.550749, 1608325504.000000, 1.750000,  0.210000,  -0.770000, 0.000000,  0.000000 
 277100032.000000, -9.528220 , 0.311067, 2.586641, 1608345856.000000, 1.890000,  0.140000,  -0.840000, 0.000000,  0.000000 
 277119488.000000, -9.473185 , 0.346959, 2.562713, 1608366080.000000, 1.330000,  0.140000,  -0.630000, 0.000000,  0.000000 
 277139456.000000, -9.535398 , 0.301496, 2.562713, 1608385536.000000, 0.560000,  0.210000,  -0.420000, 0.000000,  0.000000 
 277159424.000000, -9.504292 , 0.330210, 2.572284, 1608405504.000000, -0.490000,  0.420000,  -0.490000, 0.000000,  0.000000 
 277179648.000000, -9.549755 , 0.287139, 2.555535, 1608425472.000000, -1.330000,  0.420000,  -0.280000, 0.000000,  0.000000 
 277200000.000000, -9.466006 , 0.275175, 2.646462, 1608445824.000000, -1.890000,  0.350000,  -0.140000, 0.000000,  0.000000 
 277219328.000000, -9.482756 , 0.256032, 2.622534, 1608466048.000000, -2.030000,  0.280000,  0.070000, 0.000000,  0.000000 
 277239424.000000, -9.468399 , 0.320638, 2.586641, 1608485504.000000, -0.840000,  0.350000,  0.070000, 0.000000,  0.000000 
 277259392.000000, -9.487542 , 0.287139, 2.598605, 1608505472.000000, -0.840000,  0.700000,  -0.140000, 0.000000,  0.000000 
 277279616.000000, -9.523434 , 0.320638, 2.593820, 1608525440.000000, -0.140000,  0.700000,  -0.210000, 0.000000,  0.000000 
 277299968.000000, -9.482756 , 0.306281, 2.600998, 1608545664.000000, -0.630000,  0.630000,  -0.070000, 0.000000,  0.000000 
 277319296.000000, -9.544970 , 0.334995, 2.622534, 1608566016.000000, -0.840000,  0.700000,  -0.070000, 0.000000,  0.000000 
 277339264.000000, -9.542577 , 0.303888, 2.634498, 1608585344.000000, -0.910000,  0.630000,  -0.210000, 0.000000,  0.000000 
 277359360.000000, -9.530612 , 0.282353, 2.591427, 1608605440.000000, -0.840000,  0.560000,  -0.070000, 0.000000,  0.000000 
 277379584.000000, -9.482756 , 0.366102, 2.634498, 1608625408.000000, -0.140000,  0.280000,  0.350000, 0.000000,  0.000000 
 277399808.000000, -9.446864 , 0.303888, 2.617748, 1608645632.000000, -0.210000,  0.280000,  0.700000, 0.000000,  0.000000 
 277419264.000000, -9.477970 , 0.289532, 2.627320, 1608665984.000000, -0.770000,  0.210000,  0.630000, 0.000000,  0.000000 
 277439232.000000, -9.463614 , 0.270389, 2.620141, 1608685312.000000, -1.190000,  0.490000,  0.560000, 0.000000,  0.000000 
 277459200.000000, -9.511470 , 0.337388, 2.605784, 1608705280.000000, -0.420000,  0.350000,  0.420000, 0.000000,  0.000000 
 277479552.000000, -9.525827 , 0.330210, 2.610569, 1608725248.000000, 0.280000,  0.280000,  0.280000, 0.000000,  0.000000 
 277499776.000000, -9.499505 , 0.327817, 2.627320, 1608745600.000000, -0.140000,  0.560000,  0.280000, 0.000000,  0.000000 
 277519232.000000, -9.497113 , 0.294317, 2.612962, 1608765824.000000, -0.770000,  0.420000,  0.140000, 0.000000,  0.000000 
 277539200.000000, -9.470792 , 0.291924, 2.603391, 1608785280.000000, -0.560000,  0.070000,  0.560000, 0.000000,  0.000000 
 277559168.000000, -9.492328 , 0.287139, 2.622534, 1608805248.000000, -0.630000,  -0.070000,  0.560000, 0.000000,  0.000000 
 277579520.000000, -9.494720 , 0.260818, 2.610569, 1608825216.000000, -0.630000,  0.140000,  0.490000, 0.000000,  0.000000 
 277599744.000000, -9.494720 , 0.265603, 2.603391, 1608845568.000000, -0.280000,  0.140000,  0.420000, 0.000000,  0.000000 
 277619200.000000, -9.456435 , 0.282353, 2.629712, 1608865792.000000, 0.070000,  0.140000,  0.490000, 0.000000,  0.000000 
 277639168.000000, -9.499505 , 0.311067, 2.620141, 1608885248.000000, 0.350000,  0.070000,  0.350000, 0.000000,  0.000000 
 277659136.000000, -9.466006 , 0.311067, 2.627320, 1608905216.000000, 0.490000,  0.140000,  0.140000, 0.000000,  0.000000 
 277679488.000000, -9.458827 , 0.284746, 2.603391, 1608925184.000000, 0.560000,  0.140000,  0.210000, 0.000000,  0.000000 
 277699712.000000, -9.475577 , 0.318245, 2.617748, 1608945536.000000, 0.490000,  -0.070000,  0.140000, 0.000000,  0.000000 
 277719040.000000, -9.475577 , 0.258425, 2.586641, 1608965760.000000, 0.280000,  -0.140000,  -0.070000, 0.000000,  0.000000 
 277739136.000000, -9.504292 , 0.296710, 2.589034, 1608985216.000000, 0.490000,  -0.210000,  -0.420000, 0.000000,  0.000000 
 277759104.000000, -9.499505 , 0.339781, 2.577070, 1609005184.000000, 0.770000,  -0.140000,  -0.350000, 0.000000,  0.000000 
 277779328.000000, -9.470792 , 0.349352, 2.612962, 1609025152.000000, 0.350000,  -0.140000,  -0.210000, 0.000000,  0.000000 
 277799680.000000, -9.497113 , 0.294317, 2.600998, 1609045504.000000, -0.700000,  -0.140000,  -0.210000, 0.000000,  0.000000 
 277819008.000000, -9.497113 , 0.270389, 2.574677, 1609065728.000000, -0.910000,  0.140000,  -0.280000, 0.000000,  0.000000 
 277838976.000000, -9.511470 , 0.344566, 2.586641, 1609085056.000000, 0.210000,  0.070000,  -0.420000, 0.000000,  0.000000 
 277859072.000000, -9.513863 , 0.277567, 2.636890, 1609105152.000000, 0.210000,  0.070000,  -0.070000, 0.000000,  0.000000 
 277879296.000000, -9.437292 , 0.291924, 2.586641, 1609125120.000000, -0.280000,  -0.140000,  -0.070000, 0.000000,  0.000000 
 277899904.000000, -9.442079 , 0.294317, 2.617748, 1609145344.000000, -0.140000,  -0.070000,  0.070000, 0.000000,  0.000000 
 277918976.000000, -9.458827 , 0.277567, 2.629712, 1609166080.000000, -0.490000,  -0.140000,  0.210000, 0.000000,  0.000000 
 277938944.000000, -9.475577 , 0.256032, 2.622534, 1609185024.000000, -0.910000,  -0.280000,  -0.070000, 0.000000,  0.000000 
 277958912.000000, -9.566505 , 0.277567, 2.617748, 1609204992.000000, -0.910000,  -0.140000,  -0.420000, 0.000000,  0.000000 
 277979264.000000, -9.501899 , 0.294317, 2.608176, 1609225088.000000, -0.980000,  0.070000,  -0.700000, 0.000000,  0.000000 
 278001536.000000, -9.518648 , 0.289532, 2.598605, 1609245312.000000, -0.840000,  -0.140000,  -0.630000, 0.000000,  0.000000 
 278018944.000000, -9.475577 , 0.284746, 2.608176, 1609267584.000000, -0.630000,  -0.210000,  -0.490000, 0.000000,  0.000000 
 278038912.000000, -9.473185 , 0.303888, 2.600998, 1609284992.000000, -0.140000,  -0.140000,  -0.490000, 1606580224.000000,  1010.242065 
 278058880.000000, -9.482756 , 0.282353, 2.605784, 1609304960.000000, 0.210000,  -0.140000,  -0.420000, 0.000000,  0.000000 
 278079360.000000, -9.518648 , 0.251246, 2.598605, 1609324928.000000, -0.280000,  0.140000,  -0.770000, 0.000000,  0.000000 
 278099456.000000, -9.518648 , 0.241675, 2.610569, 1609345408.000000, -0.980000,  0.280000,  -0.770000, 0.000000,  0.000000 
 278118912.000000, -9.454042 , 0.246461, 2.603391, 1609365504.000000, -1.050000,  0.280000,  -0.630000, 0.000000,  0.000000 
 278138880.000000, -9.468399 , 0.263210, 2.553142, 1609384960.000000, -0.210000,  0.490000,  -0.840000, 0.000000,  0.000000 
 278158848.000000, -9.499505 , 0.284746, 2.605784, 1609404928.000000, 0.560000,  0.840000,  -1.050000, 0.000000,  0.000000 
 278179200.000000, -9.544970 , 0.215354, 2.689533, 1609424896.000000, 0.770000,  1.120000,  -0.840000, 0.000000,  0.000000 
 278199424.000000, -9.487542 , 0.234497, 2.701497, 1609445248.000000, 1.330000,  1.260000,  -0.420000, 0.000000,  0.000000 
 278218880.000000, -9.444471 , 0.227318, 2.715853, 1609465472.000000, 2.870000,  1.260000,  -0.070000, 0.000000,  0.000000 
 278238848.000000, -9.504292 , 0.260818, 2.684747, 1609484928.000000, 3.850000,  1.400000,  -0.490000, 0.000000,  0.000000 
 278258816.000000, -9.454042 , 0.294317, 2.720639, 1609504896.000000, 4.340000,  1.470000,  -0.840000, 0.000000,  0.000000 
 278279040.000000, -9.494720 , 0.217747, 2.696711, 1609524864.000000, 4.410000,  0.910000,  -1.050000, 0.000000,  0.000000 
 278299392.000000, -9.458827 , 0.299103, 2.634498, 1609545216.000000, 4.620000,  0.350000,  -1.050000, 0.000000,  0.000000 
 278318720.000000, -9.494720 , 0.358923, 2.553142, 1609565440.000000, 4.550000,  -0.280000,  -1.400000, 0.000000,  0.000000 
 278338688.000000, -9.501899 , 0.327817, 2.555535, 1609584896.000000, 3.780000,  -0.630000,  -1.330000, 0.000000,  0.000000 
 278358784.000000, -9.499505 , 0.330210, 2.598605, 1609604864.000000, 2.030000,  -0.770000,  -1.120000, 0.000000,  0.000000 
 278379008.000000, -9.549755 , 0.306281, 2.543570, 1609624832.000000, 0.980000,  -1.050000,  -0.140000, 0.000000,  0.000000 
 278399360.000000, -9.504292 , 0.306281, 2.545963, 1609645056.000000, 0.280000,  -1.050000,  0.490000, 0.000000,  0.000000 
 278418688.000000, -9.444471 , 0.301496, 2.605784, 1609665408.000000, -0.910000,  -0.700000,  0.770000, 0.000000,  0.000000 
 278438656.000000, -9.394222 , 0.260818, 2.636890, 1609684736.000000, -1.960000,  -0.700000,  0.770000, 0.000000,  0.000000 
 278458752.000000, -9.466006 , 0.189033, 2.679961, 1609704704.000000, -1.680000,  -0.350000,  0.770000, 0.000000,  0.000000 
 278478976.000000, -9.487542 , 0.275175, 2.603391, 1609724800.000000, -0.350000,  0.280000,  -0.420000, 0.000000,  0.000000 
 278499328.000000, -9.446864 , 0.303888, 2.579463, 1609745024.000000, 1.470000,  0.490000,  -0.980000, 0.000000,  0.000000 
 278518656.000000, -9.535398 , 0.291924, 2.629712, 1609765376.000000, 2.170000,  0.140000,  -0.840000, 0.000000,  0.000000 
 278538624.000000, -9.537791 , 0.313460, 2.646462, 1609784704.000000, 2.240000,  0.350000,  -1.330000, 0.000000,  0.000000 
 278558592.000000, -9.463614 , 0.356531, 2.610569, 1609804800.000000, 2.310000,  0.420000,  -0.630000, 0.000000,  0.000000 
 278578944.000000, -9.494720 , 0.327817, 2.577070, 1609824640.000000, 1.540000,  -0.070000,  -0.210000, 0.000000,  0.000000 
 278599168.000000, -9.437292 , 0.311067, 2.598605, 1609844992.000000, 0.560000,  -0.070000,  -0.280000, 0.000000,  0.000000 
 278618624.000000, -9.487542 , 0.301496, 2.620141, 1609865216.000000, -0.070000,  0.070000,  -0.700000, 0.000000,  0.000000 
 278638592.000000, -9.458827 , 0.323031, 2.615355, 1609884672.000000, -0.490000,  0.210000,  -0.490000, 0.000000,  0.000000 
 278658560.000000, -9.454042 , 0.248854, 2.636890, 1609904640.000000, -1.400000,  0.420000,  -0.490000, 0.000000,  0.000000 
 278678912.000000, -9.511470 , 0.284746, 2.660819, 1609924608.000000, -2.170000,  0.490000,  -0.280000, 0.000000,  0.000000 
 278699136.000000, -9.513863 , 0.246461, 2.715853, 1609944960.000000, -2.590000,  0.420000,  -0.350000, 0.000000,  0.000000 
 278718592.000000, -9.544970 , 0.248854, 2.746960, 1609965184.000000, -2.310000,  0.280000,  -0.210000, 0.000000,  0.000000 
 278738560.000000, -9.492328 , 0.303888, 2.706282, 1609984640.000000, -1.330000,  -0.140000,  0.140000, 0.000000,  0.000000 
 278758528.000000, -9.506684 , 0.349352, 2.653640, 1610004608.000000, 0.420000,  -0.490000,  0.350000, 0.000000,  0.000000 
 278778880.000000, -9.466006 , 0.330210, 2.694318, 1610024576.000000, 1.750000,  -0.840000,  0.280000, 0.000000,  0.000000 
 278799104.000000, -9.451650 , 0.263210, 2.739782, 1610044928.000000, 1.680000,  -0.700000,  0.210000, 0.000000,  0.000000 
 278818560.000000, -9.377472 , 0.294317, 2.746960, 1610065152.000000, 2.100000,  -0.630000,  0.630000, 0.000000,  0.000000 
 278838528.000000, -9.410972 , 0.323031, 2.723032, 1610084608.000000, 2.870000,  -0.840000,  0.560000, 0.000000,  0.000000 
 278858496.000000, -9.458827 , 0.294317, 2.758924, 1610104576.000000, 3.570000,  -0.560000,  -0.210000, 0.000000,  0.000000 
 278878720.000000, -9.391829 , 0.229711, 2.749353, 1610124544.000000, 3.010000,  -0.070000,  -1.400000, 0.000000,  0.000000 
 278899072.000000, -9.399008 , 0.260818, 2.699104, 1610144896.000000, 3.430000,  -0.490000,  -1.610000, 0.000000,  0.000000 
 278918400.000000, -9.425328 , 0.265603, 2.703890, 1610165120.000000, 5.600000,  -0.560000,  -2.240000, 0.000000,  0.000000 
 278938368.000000, -9.477970 , 0.289532, 2.610569, 1610184576.000000, 8.260000,  -0.070000,  -3.360000, 0.000000,  0.000000 
 278958464.000000, -9.489935 , 0.282353, 2.629712, 1610204544.000000, 8.960000,  0.070000,  -3.710000, 0.000000,  0.000000 
 278978688.000000, -9.415757 , 0.320638, 2.665605, 1610224512.000000, 7.350000,  0.140000,  -3.360000, 0.000000,  0.000000 
 279000960.000000, -9.485149 , 0.334995, 2.577070, 1610244736.000000, 5.600000,  0.350000,  -3.640000, 0.000000,  0.000000 
 279018368.000000, -9.528220 , 0.315853, 2.581856, 1610267008.000000, 4.550000,  0.630000,  -3.990000, 0.000000,  0.000000 
 279038336.000000, -9.533006 , 0.301496, 2.615355, 1610284416.000000, 4.060000,  0.840000,  -4.270000, 1607579776.000000,  1010.243835 
 279058304.000000, -9.506684 , 0.275175, 2.687140, 1610304384.000000, 3.640000,  0.560000,  -3.570000, 0.000000,  0.000000 
 279078656.000000, -9.568897 , 0.174676, 2.653640, 1610324480.000000, 2.590000,  0.280000,  -3.010000, 0.000000,  0.000000 
 279098880.000000, -9.528220 , 0.229711, 2.672783, 1610344704.000000, 1.820000,  0.070000,  -2.380000, 0.000000,  0.000000 
 279118336.000000, -9.544970 , 0.267996, 2.667997, 1610365056.000000, 1.260000,  -0.700000,  -1.960000, 0.000000,  0.000000 
 279138304.000000, -9.516255 , 0.258425, 2.641676, 1610384384.000000, 0.840000,  -1.050000,  -1.820000, 0.000000,  0.000000 
 279158272.000000, -9.434900 , 0.272782, 2.617748, 1610404352.000000, 0.840000,  -1.330000,  -1.680000, 0.000000,  0.000000 
 279178624.000000, -9.475577 , 0.272782, 2.577070, 1610424320.000000, 1.750000,  -1.400000,  -1.260000, 0.000000,  0.000000 
 279198848.000000, -9.521042 , 0.284746, 2.579463, 1610444672.000000, 2.730000,  -1.120000,  -1.470000, 0.000000,  0.000000 
 279218304.000000, -9.511470 , 0.315853, 2.593820, 1610464896.000000, 2.520000,  -0.070000,  -1.680000, 0.000000,  0.000000 
 279238272.000000, -9.485149 , 0.222532, 2.660819, 1610484352.000000, 1.750000,  0.070000,  -0.700000, 0.000000,  0.000000 
 279258240.000000, -9.477970 , 0.251246, 2.610569, 1610504320.000000, 0.210000,  0.350000,  -0.700000, 0.000000,  0.000000 
 279278592.000000, -9.461221 , 0.270389, 2.624927, 1610524288.000000, -0.980000,  0.700000,  0.070000, 0.000000,  0.000000 
 279298816.000000, -9.468399 , 0.251246, 2.715853, 1610544640.000000, -2.520000,  0.420000,  0.070000, 0.000000,  0.000000 
 279318272.000000, -9.489935 , 0.263210, 2.797210, 1610564864.000000, -4.410000,  0.770000,  0.210000, 0.000000,  0.000000 
 279338368.000000, -9.480364 , 0.208176, 2.780460, 1610584320.000000, -4.340000,  0.980000,  0.350000, 0.000000,  0.000000 
 279358208.000000, -9.456435 , 0.224925, 2.691926, 1610604416.000000, -3.150000,  0.840000,  0.210000, 0.000000,  0.000000 
 279378560.000000, -9.497113 , 0.184247, 2.730211, 1610624256.000000, -2.240000,  0.420000,  0.210000, 0.000000,  0.000000 
 279398784.000000, -9.399008 , 0.110070, 2.725425, 1610644608.000000, -2.240000,  -0.210000,  -0.490000, 0.000000,  0.000000 
 279418112.000000, -9.454042 , 0.110070, 2.732604, 1610664832.000000, -1.120000,  -0.560000,  -0.840000, 0.000000,  0.000000 
 279438208.000000, -9.504292 , 0.122034, 2.749353, 1610684288.000000, -0.210000,  -0.560000,  -1.890000, 0.000000,  0.000000 
 279458176.000000, -9.399008 , 0.110070, 2.620141, 1610704256.000000, 0.140000,  0.140000,  -2.240000, 0.000000,  0.000000 
 279478400.000000, -9.363115 , 0.088534, 2.790031, 1610724224.000000, 0.280000,  -0.420000,  -2.590000, 0.000000,  0.000000 
 279498752.000000, -9.406186 , -0.011964, 2.756532, 1610744576.000000, -0.910000,  0.350000,  -3.710000, 0.000000,  0.000000 
 279518080.000000, -9.516255 , -0.028714, 2.696711, 1610764800.000000, 0.560000,  0.630000,  -5.250000, 0.000000,  0.000000 
 279538176.000000, -9.552148 , 0.050249, 2.665605, 1610784128.000000, 3.290000,  0.980000,  -6.300000, 0.000000,  0.000000 
 279558016.000000, -9.528220 , 0.028714, 2.608176, 1610804224.000000, 5.880000,  1.050000,  -6.860000, 0.000000,  0.000000 
 279578368.000000, -9.535398 , 0.098106, 2.624927, 1610824192.000000, 6.860000,  0.700000,  -6.720000, 0.000000,  0.000000 
 279598720.000000, -9.576077 , 0.002393, 2.593820, 1610844416.000000, 5.740000,  0.700000,  -5.880000, 0.000000,  0.000000 
 279618048.000000, -9.662218 , 0.011964, 2.622534, 1610864768.000000, 5.250000,  0.840000,  -5.040000, 0.000000,  0.000000 
 279638016.000000, -9.556933 , 0.071785, 2.586641, 1610884096.000000, 3.850000,  0.630000,  -3.500000, 0.000000,  0.000000 
 279657984.000000, -9.549755 , 0.038285, 2.687140, 1610904064.000000, 1.470000,  -0.420000,  -0.490000, 0.000000,  0.000000 
 279678336.000000, -9.485149 , -0.076570, 2.639283, 1610924160.000000, -2.170000,  -1.260000,  0.980000, 0.000000,  0.000000 
 279698560.000000, -9.446864 , -0.131605, 2.687140, 1610944384.000000, -4.690000,  -1.470000,  1.540000, 0.000000,  0.000000 
 279718016.000000, -9.367901 , -0.055035, 2.696711, 1610964608.000000, -5.180000,  -1.610000,  2.030000, 0.000000,  0.000000 
 279737984.000000, -9.315259 , -0.119641, 2.756532, 1610984064.000000, -4.550000,  -2.030000,  1.400000, 0.000000,  0.000000 
 279757952.000000, -9.410972 , -0.191426, 2.768496, 1611004032.000000, -4.900000,  -1.190000,  0.070000, 0.000000,  0.000000 
 279778304.000000, -9.382257 , -0.162712, 2.782853, 1611024000.000000, -3.920000,  -0.630000,  -1.330000, 0.000000,  0.000000 
 279798528.000000, -9.351151 , -0.028714, 2.706282, 1611044352.000000, 0.140000,  -0.350000,  -2.170000, 0.000000,  0.000000 
 279817984.000000, -9.399008 , -0.066999, 2.699104, 1611064576.000000, 1.610000,  -0.560000,  -3.150000, 0.000000,  0.000000 
 279837952.000000, -9.506684 , -0.076570, 2.790031, 1611084032.000000, 0.560000,  -0.490000,  -3.990000, 0.000000,  0.000000 
 279857920.000000, -9.556933 , -0.162712, 2.758924, 1611104000.000000, -1.750000,  0.560000,  -6.090000, 0.000000,  0.000000 
 279878272.000000, -9.576077 , -0.184247, 2.746960, 1611123968.000000, -1.050000,  0.630000,  -6.510000, 0.000000,  0.000000 
 279898496.000000, -9.561719 , -0.066999, 2.734996, 1611144320.000000, 3.360000,  0.140000,  -5.810000, 0.000000,  0.000000 
 279917824.000000, -9.573684 , 0.028714, 2.581856, 1611164544.000000, 8.400000,  -0.840000,  -4.340000, 0.000000,  0.000000 
 279937920.000000, -9.489935 , 0.028714, 2.569891, 1611184000.000000, 8.610000,  -0.700000,  -3.570000, 0.000000,  0.000000 
 279957888.000000, -9.389436 , -0.145962, 2.560320, 1611203968.000000, 5.740000,  -1.470000,  -2.450000, 0.000000,  0.000000 
 279978112.000000, -9.415757 , -0.143569, 2.620141, 1611223936.000000, 3.850000,  -1.750000,  -1.470000, 0.000000,  0.000000 
 280000384.000000, -9.353544 , -0.064606, 2.572284, 1611244288.000000, 3.430000,  -0.420000,  -2.450000, 0.000000,  0.000000 
 280017792.000000, -9.401401 , -0.074178, 2.608176, 1611266432.000000, 3.290000,  0.140000,  -3.780000, 0.000000,  0.000000 
 280037760.000000, -9.566505 , -0.076570, 2.737389, 1611283968.000000, 1.400000,  1.260000,  -4.200000, 1608579200.000000,  1010.243103 
 280057856.000000, -9.523434 , -0.055035, 2.720639, 1611303936.000000, -0.560000,  1.890000,  -3.920000, 0.000000,  0.000000 
 280078080.000000, -9.521042 , -0.047856, 2.715853, 1611323904.000000, -0.630000,  1.120000,  -2.730000, 0.000000,  0.000000 
 280098432.000000, -9.516255 , 0.009571, 2.720639, 1611344128.000000, -0.420000,  0.980000,  -1.960000, 0.000000,  0.000000 
 280117760.000000, -9.521042 , -0.110070, 2.813959, 1611364480.000000, -1.610000,  1.400000,  -2.100000, 0.000000,  0.000000 
 280137728.000000, -9.501899 , -0.157926, 2.811567, 1611383808.000000, -3.290000,  1.190000,  -1.890000, 0.000000,  0.000000 
 280157696.000000, -9.451650 , -0.189033, 2.804388, 1611403776.000000, -3.500000,  0.630000,  -0.910000, 0.000000,  0.000000 
 280178048.000000, -9.394222 , -0.172283, 2.782853, 1611423872.000000, -2.450000,  0.070000,  -0.210000, 0.000000,  0.000000 
 280198272.000000, -9.408579 , -0.179462, 2.744568, 1611444096.000000, -2.100000,  -0.070000,  -0.560000, 0.000000,  0.000000 
 280217728.000000, -9.468399 , -0.193819, 2.816352, 1611464448.000000, -2.100000,  0.140000,  -0.980000, 0.000000,  0.000000 
 280237696.000000, -9.422935 , -0.200997, 2.780460, 1611483776.000000, -0.980000,  0.140000,  -0.840000, 0.000000,  0.000000 
 280257664.000000, -9.487542 , -0.196211, 2.758924, 1611503744.000000, 0.770000,  0.280000,  -0.980000, 0.000000,  0.000000 
 280278016.000000, -9.430114 , -0.198604, 2.770889, 1611523712.000000, 1.820000,  0.350000,  -1.050000, 0.000000,  0.000000 
 280298240.000000, -9.477970 , -0.248854, 2.794817, 1611544064.000000, 2.030000,  0.350000,  -0.910000, 0.000000,  0.000000 
 280317696.000000, -9.497113 , -0.241675, 2.780460, 1611564288.000000, 1.890000,  0.560000,  -0.980000, 0.000000,  0.000000 
 280337664.000000, -9.403792 , -0.222532, 2.739782, 1611583744.000000, 1.820000,  0.420000,  -0.840000, 0.000000,  0.000000 
 280357632.000000, -9.379865 , -0.253639, 2.713461, 1611603712.000000, 1.610000,  0.560000,  -0.840000, 0.000000,  0.000000 
 280377984.000000, -9.446864 , -0.282353, 2.787638, 1611623680.000000, 1.260000,  0.910000,  -1.190000, 0.000000,  0.000000 
 280398208.000000, -9.542577 , -0.241675, 2.763710, 1611644032.000000, 1.400000,  1.050000,  -1.680000, 0.000000,  0.000000 
 280417664.000000, -9.516255 , -0.224925, 2.732604, 1611664256.000000, 1.260000,  1.260000,  -1.890000, 0.000000,  0.000000 
 280437632.000000, -9.489935 , -0.205783, 2.713461, 1611683712.000000, 0.350000,  0.840000,  -0.980000, 0.000000,  0.000000 
 280457600.000000, -9.487542 , -0.165105, 2.689533, 1611703680.000000, -1.680000,  0.350000,  -0.980000, 0.000000,  0.000000 
 280477952.000000, -9.456435 , -0.165105, 2.632105, 1611723648.000000, -3.500000,  0.420000,  -1.400000, 0.000000,  0.000000 
 280498176.000000, -9.480364 , -0.133998, 2.730211, 1611744000.000000, -5.250000,  -0.210000,  -0.910000, 0.000000,  0.000000 
 280517504.000000, -9.554541 , -0.306281, 2.837888, 1611764224.000000, -9.800000,  0.490000,  -1.540000, 0.000000,  0.000000 
 280537600.000000, -9.444471 , -0.445065, 2.787638, 1611783680.000000, -12.740000,  0.980000,  -1.750000, 0.000000,  0.000000 
 280557568.000000, -9.511470 , -0.394816, 2.835495, 1611803648.000000, -9.030000,  -0.910000,  0.490000, 0.000000,  0.000000 
 280577792.000000, -9.559326 , -0.267996, 2.794817, 1611823616.000000, -3.570000,  -0.070000,  0.140000, 0.000000,  0.000000 
 280598144.000000, -9.475577 , -0.380459, 2.632105, 1611843840.000000, 0.350000,  0.140000,  0.140000, 0.000000,  0.000000 
 280617472.000000, -9.473185 , -0.330210, 2.636890, 1611864192.000000, 3.920000,  -0.910000,  1.190000, 0.000000,  0.000000 
 280637440.000000, -9.466006 , -0.260818, 2.639283, 1611883520.000000, 5.390000,  -0.770000,  1.470000, 0.000000,  0.000000 
 280657536.000000, -9.564112 , -0.337388, 2.562713, 1611903616.000000, 4.900000,  0.280000,  0.350000, 0.000000,  0.000000 
 280677760.000000, -9.611969 , -0.253639, 2.550749, 1611943808.000000, 2.240000,  0.700000,  1.820000, 0.000000,  0.000000 
 280698112.000000, -9.585647 , -0.110070, 2.586641, 0.000000, 0.000000,  0.000000,  0.000000, 0.000000,  0.000000 
 280717440.000000, -9.523434 , -0.105284, 2.632105, 1611964160.000000, -2.170000,  0.770000,  2.240000, 0.000000,  0.000000 
 280737408.000000, -9.566505 , -0.119641, 2.804388, 1611983488.000000, -4.970000,  0.350000,  4.130000, 0.000000,  0.000000 
 280757376.000000, -9.454042 , -0.129212, 2.825923, 1612003456.000000, -10.220000,  -0.280000,  5.670000, 0.000000,  0.000000 
 280777728.000000, -9.355937 , -0.112463, 2.768496, 1612023552.000000, -13.440001,  -0.700000,  7.490000, 0.000000,  0.000000 
 280797952.000000, -9.394222 , -0.086142, 2.720639, 1612043776.000000, -13.720000,  -2.100000,  9.170000, 0.000000,  0.000000 
 280817408.000000, -9.396614 , -0.023928, 2.897708, 1612064128.000000, -15.120000,  -2.590000,  9.800000, 0.000000,  0.000000 
 280837376.000000, -9.446864 , -0.227318, 2.833102, 1612083456.000000, -19.180000,  -1.400000,  8.470000, 0.000000,  0.000000 
 280857344.000000, -9.382257 , -0.430708, 2.945565, 1612103424.000000, -21.770000,  -0.980000,  7.910000, 0.000000,  0.000000 
 280877696.000000, -9.343972 , -0.418744, 2.974278, 1612123392.000000, -20.020000,  -1.330000,  7.140000, 0.000000,  0.000000 
 280898304.000000, -9.334401 , -0.184247, 2.916851, 1612143744.000000, -11.270000,  -1.400000,  5.740000, 0.000000,  0.000000 
 280917376.000000, -9.384650 , -0.069392, 2.852244, 1612164352.000000, -2.660000,  -0.560000,  3.570000, 0.000000,  0.000000 
 280937344.000000, -9.377472 , -0.143569, 2.854637, 1612183424.000000, 0.280000,  0.560000,  2.240000, 0.000000,  0.000000 
 280957312.000000, -9.437292 , -0.227318, 2.888137, 1612203392.000000, 0.280000,  0.350000,  2.030000, 0.000000,  0.000000 
 280977664.000000, -9.456435 , -0.129212, 2.821138, 1612223360.000000, 1.400000,  0.280000,  1.330000, 0.000000,  0.000000 
 280999808.000000, -9.425328 , -0.040678, 2.739782, 1612243712.000000, 4.690000,  0.210000,  0.630000, 0.000000,  0.000000 
 281017344.000000, -9.506684 , 0.011964, 2.713461, 1612265984.000000, 6.720000,  0.210000,  -0.280000, 0.000000,  0.000000 
 281037312.000000, -9.427721 , 0.004786, 2.699104, 1612283392.000000, 7.840000,  -0.140000,  -0.700000, 1609578624.000000,  1010.241760 
 281057280.000000, -9.427721 , 0.004786, 2.718246, 1612303360.000000, 7.630000,  -0.280000,  -0.420000, 0.000000,  0.000000 
 281077504.000000, -9.415757 , 0.074178, 2.651247, 1612323328.000000, 6.580000,  -0.140000,  0.210000, 0.000000,  0.000000 
 281097856.000000, -9.406186 , 0.047856, 2.670390, 1612343680.000000, 3.990000,  1.120000,  0.280000, 0.000000,  0.000000 
 281117184.000000, -9.408579 , -0.062213, 2.699104, 1612363904.000000, 0.420000,  1.540000,  0.280000, 0.000000,  0.000000 
 281137152.000000, -9.504292 , -0.133998, 2.790031, 1612383360.000000, -3.640000,  1.400000,  -0.210000, 0.000000,  0.000000 
 281157248.000000, -9.571291 , -0.122034, 2.804388, 1612403328.000000, -6.090000,  1.750000,  -0.980000, 0.000000,  0.000000 
 281177472.000000, -9.556933 , 0.019143, 2.813959, 1612423296.000000, -5.390000,  1.400000,  -0.840000, 0.000000,  0.000000 
 281197824.000000, -9.518648 , 0.110070, 2.766103, 1612443648.000000, -2.730000,  0.350000,  0.980000, 0.000000,  0.000000 
 281217152.000000, -9.518648 , 0.086142, 2.818745, 1612463872.000000, -1.470000,  -0.770000,  2.030000, 0.000000,  0.000000 
 281237120.000000, -9.454042 , 0.086142, 2.833102, 1612483200.000000, -1.400000,  -0.910000,  3.430000, 0.000000,  0.000000 
 281257088.000000, -9.418150 , -0.043071, 2.734996, 1612503168.000000, -0.840000,  -1.190000,  3.430000, 0.000000,  0.000000 
 281277440.000000, -9.394222 , 0.064606, 2.701497, 1612523264.000000, 0.280000,  -1.050000,  3.850000, 0.000000,  0.000000 
 281297664.000000, -9.413363 , 0.026321, 2.749353, 1612543488.000000, -1.050000,  -1.330000,  4.060000, 0.000000,  0.000000 
 281317120.000000, -9.422935 , 0.002393, 2.809174, 1612563840.000000, -5.110000,  -0.840000,  4.130000, 0.000000,  0.000000 
 281337088.000000, -9.454042 , -0.016750, 2.890530, 1612583168.000000, -8.260000,  -1.050000,  4.690000, 0.000000,  0.000000 
 281357056.000000, -9.509077 , 0.057428, 2.873780, 1612603136.000000, -8.120000,  -0.910000,  4.830000, 0.000000,  0.000000 
 281377408.000000, -9.485149 , 0.069392, 2.921637, 1612623104.000000, -6.020000,  -0.770000,  4.480000, 0.000000,  0.000000 
 281397632.000000, -9.466006 , -0.011964, 2.967100, 1612643456.000000, -3.360000,  -1.470000,  5.460000, 0.000000,  0.000000 
 281417088.000000, -9.372685 , -0.057428, 3.026921, 1612663680.000000, -0.420000,  -1.820000,  5.950000, 0.000000,  0.000000 
 281437056.000000, -9.375079 , -0.033500, 2.926422, 1612683136.000000, 4.130000,  -1.750000,  6.230000, 0.000000,  0.000000 
 281457024.000000, -9.396614 , 0.069392, 2.859423, 1612703104.000000, 8.890000,  -1.750000,  5.180000, 0.000000,  0.000000 
 281477376.000000, -9.396614 , 0.083749, 2.852244, 1612723072.000000, 12.250000,  -1.470000,  3.850000, 0.000000,  0.000000 
 281497600.000000, -9.387043 , 0.153141, 2.766103, 1612743424.000000, 13.440001,  -1.820000,  3.220000, 0.000000,  0.000000 
 281517056.000000, -9.329616 , 0.251246, 2.711068, 1612763648.000000, 12.740000,  -1.750000,  2.100000, 0.000000,  0.000000 
 281537024.000000, -9.327222 , 0.275175, 2.672783, 1612783104.000000, 10.080000,  -1.050000,  1.470000, 0.000000,  0.000000 
 281556992.000000, -9.396614 , 0.325424, 2.727818, 1612803072.000000, 6.230000,  -0.280000,  1.120000, 0.000000,  0.000000 
 281577344.000000, -9.382257 , 0.325424, 2.785245, 1612823040.000000, 1.400000,  0.630000,  0.980000, 0.000000,  0.000000 
 281597568.000000, -9.389436 , 0.239282, 2.828316, 1612843392.000000, -2.240000,  1.120000,  1.890000, 0.000000,  0.000000 
 281616896.000000, -9.382257 , 0.267996, 2.868994, 1612863616.000000, -4.340000,  1.120000,  2.660000, 0.000000,  0.000000 
 281636992.000000, -9.389436 , 0.186640, 2.871387, 1612883072.000000, -5.530000,  1.610000,  2.100000, 0.000000,  0.000000 
 281656960.000000, -9.358330 , 0.131605, 2.962314, 1612903040.000000, -4.130000,  1.190000,  1.400000, 0.000000,  0.000000 
 281677184.000000, -9.219545 , 0.122034, 2.921637, 1612923008.000000, -2.100000,  1.190000,  0.840000, 0.000000,  0.000000 
 281697536.000000, -9.300901 , 0.172283, 2.835495, 1612943360.000000, 1.120000,  1.330000,  -0.280000, 0.000000,  0.000000 
 281716864.000000, -9.451650 , 0.191426, 2.813959, 1612963584.000000, 4.060000,  1.960000,  -1.750000, 0.000000,  0.000000 
 281736832.000000, -9.320045 , 0.184247, 2.782853, 1612982912.000000, 5.250000,  2.240000,  -2.660000, 0.000000,  0.000000 
 281756928.000000, -9.403792 , 0.193819, 2.754139, 1613003008.000000, 5.810000,  1.750000,  -3.430000, 0.000000,  0.000000 
 281777152.000000, -9.442079 , 0.234497, 2.734996, 1613022976.000000, 6.510000,  2.100000,  -4.270000, 0.000000,  0.000000 
 281797504.000000, -9.497113 , 0.244068, 2.766103, 1613043200.000000, 6.230000,  2.310000,  -5.320000, 0.000000,  0.000000 
 281816832.000000, -9.480364 , 0.157926, 2.816352, 1613063552.000000, 4.270000,  2.730000,  -5.670000, 0.000000,  0.000000 
 281836800.000000, -9.458827 , 0.172283, 2.758924, 1613082880.000000, 2.870000,  2.380000,  -4.830000, 0.000000,  0.000000 
 281856768.000000, -9.387043 , 0.191426, 2.665605, 1613102848.000000, 2.800000,  1.750000,  -4.130000, 0.000000,  0.000000 
 281877120.000000, -9.463614 , 0.076570, 2.696711, 1613122944.000000, 2.310000,  1.610000,  -4.410000, 0.000000,  0.000000 
 281897344.000000, -9.513863 , 0.059821, 2.756532, 1613143168.000000, 0.070000,  2.240000,  -5.040000, 0.000000,  0.000000 
 281916800.000000, -9.432507 , 0.021535, 2.723032, 1613163520.000000, -1.540000,  2.800000,  -4.900000, 0.000000,  0.000000 
 281936768.000000, -9.430114 , 0.059821, 2.770889, 1613182848.000000, -0.700000,  2.310000,  -4.340000, 0.000000,  0.000000 
 281956736.000000, -9.540184 , 0.098106, 2.792424, 1613202816.000000, -0.350000,  2.730000,  -4.550000, 0.000000,  0.000000 
 281977088.000000, -9.494720 , 0.057428, 2.799603, 1613222784.000000, -1.190000,  2.660000,  -4.550000, 0.000000,  0.000000 
 281999360.000000, -9.537791 , 0.009571, 2.857030, 1613243136.000000, -2.170000,  1.470000,  -3.640000, 0.000000,  0.000000 
 282016768.000000, -9.468399 , -0.021535, 2.842674, 1613265408.000000, -2.240000,  0.560000,  -3.290000, 0.000000,  0.000000 
 282036736.000000, -9.410972 , 0.007178, 2.718246, 1613282816.000000, -1.050000,  -0.140000,  -3.150000, 1610578048.000000,  1010.240356 
 282056704.000000, -9.449257 , -0.004786, 2.711068, 1613302784.000000, 0.560000,  -0.560000,  -3.010000, 0.000000,  0.000000 
 282077056.000000, -9.535398 , 0.031107, 2.720639, 1613322752.000000, 0.420000,  -0.560000,  -3.150000, 0.000000,  0.000000 
 282097280.000000, -9.463614 , -0.035892, 2.679961, 1613343104.000000, -0.420000,  0.140000,  -2.870000, 0.000000,  0.000000 
 282116736.000000, -9.518648 , -0.002393, 2.699104, 1613363328.000000, -0.140000,  -0.280000,  -1.400000, 0.000000,  0.000000 
 282136704.000000, -9.523434 , 0.009571, 2.696711, 1613382784.000000, -0.700000,  -0.280000,  -1.400000, 0.000000,  0.000000 
 282156672.000000, -9.492328 , -0.078963, 2.715853, 1613402752.000000, -2.660000,  0.280000,  -1.960000, 0.000000,  0.000000 
 282176896.000000, -9.511470 , -0.098106, 2.790031, 1613422720.000000, -3.710000,  -0.070000,  -1.120000, 0.000000,  0.000000 
 282197248.000000, -9.463614 , -0.019143, 2.785245, 1613443072.000000, -3.360000,  -0.140000,  0.350000, 0.000000,  0.000000 
 282216576.000000, -9.489935 , -0.014357, 2.773281, 1613463296.000000, -2.380000,  -0.350000,  0.700000, 0.000000,  0.000000 
 282236672.000000, -9.518648 , -0.093320, 2.801995, 1613482752.000000, -2.310000,  -0.350000,  0.700000, 0.000000,  0.000000 
 282256640.000000, -9.480364 , -0.086142, 2.768496, 1613502720.000000, -1.470000,  -0.560000,  0.770000, 0.000000,  0.000000 
 282276864.000000, -9.332008 , -0.047856, 2.701497, 1613522688.000000, -0.770000,  -0.560000,  0.770000, 0.000000,  0.000000 
 282297216.000000, -9.341579 , -0.064606, 2.675175, 1613542912.000000, -0.140000,  -1.260000,  0.210000, 0.000000,  0.000000 
 282316544.000000, -9.413363 , 0.007178, 2.696711, 1613563264.000000, 0.210000,  -0.560000,  -0.630000, 0.000000,  0.000000 
 282336512.000000, -9.446864 , -0.033500, 2.742175, 1613582592.000000, -1.540000,  0.560000,  -1.680000, 0.000000,  0.000000 
 282356608.000000, -9.430114 , -0.184247, 2.768496, 1613602688.000000, -4.060000,  0.560000,  -1.120000, 0.000000,  0.000000 
 282376832.000000, -9.494720 , -0.162712, 2.792424, 1613622656.000000, -5.740000,  0.770000,  -0.700000, 0.000000,  0.000000 
 282397056.000000, -9.559326 , -0.114855, 2.816352, 1613642880.000000, -6.300000,  1.120000,  -0.980000, 0.000000,  0.000000 
 282416512.000000, -9.540184 , -0.157926, 2.864209, 1613663232.000000, -6.160000,  1.050000,  -0.490000, 0.000000,  0.000000 
 282436480.000000, -9.463614 , -0.110070, 2.845066, 1613682560.000000, -5.180000,  0.420000,  0.770000, 0.000000,  0.000000 
 282456448.000000, -9.432507 , -0.100499, 2.864209, 1613702528.000000, -3.290000,  0.420000,  2.030000, 0.000000,  0.000000 
 282476800.000000, -9.434900 , -0.124427, 2.790031, 1613722624.000000, -1.190000,  -0.070000,  2.310000, 0.000000,  0.000000 
 282497024.000000, -9.446864 , -0.126820, 2.787638, 1613742848.000000, -1.190000,  0.140000,  1.750000, 0.000000,  0.000000 
 282516480.000000, -9.387043 , -0.112463, 2.797210, 1613763200.000000, 1.120000,  0.070000,  1.470000, 0.000000,  0.000000 
 282536448.000000, -9.446864 , -0.093320, 2.761317, 1613782528.000000, 2.380000,  0.210000,  0.910000, 0.000000,  0.000000 
 282556416.000000, -9.470792 , -0.069392, 2.739782, 1613802624.000000, 2.520000,  0.490000,  0.630000, 0.000000,  0.000000 
 282576768.000000, -9.463614 , -0.083749, 2.744568, 1613822464.000000, 2.030000,  0.210000,  0.700000, 0.000000,  0.000000 
 282596992.000000, -9.466006 , -0.019143, 2.751746, 1613842816.000000, 1.750000,  0.210000,  0.980000, 0.000000,  0.000000 
 282616448.000000, -9.444471 , 0.011964, 2.723032, 1613863040.000000, 1.680000,  -0.070000,  1.120000, 0.000000,  0.000000 
 282636416.000000, -9.473185 , -0.002393, 2.725425, 1613882496.000000, 1.330000,  -0.140000,  1.190000, 0.000000,  0.000000 
 282656384.000000, -9.454042 , -0.026321, 2.749353, 1613902464.000000, -0.210000,  0.210000,  1.050000, 0.000000,  0.000000 
 282676736.000000, -9.336794 , -0.071785, 2.775674, 1613922432.000000, -1.890000,  0.490000,  1.120000, 0.000000,  0.000000 
 282696960.000000, -9.367901 , -0.074178, 2.825923, 1613942784.000000, -3.150000,  0.560000,  1.120000, 0.000000,  0.000000 
 282716416.000000, -9.367901 , -0.095713, 2.861816, 1613963008.000000, -3.360000,  0.700000,  1.470000, 0.000000,  0.000000 
 282736384.000000, -9.506684 , -0.078963, 2.864209, 1613982464.000000, -3.010000,  1.050000,  0.770000, 0.000000,  0.000000 
 282756352.000000, -9.422935 , -0.100499, 2.859423, 1614002432.000000, -1.890000,  1.050000,  -0.140000, 0.000000,  0.000000 
 282776576.000000, -9.477970 , -0.023928, 2.821138, 1614022400.000000, -0.210000,  0.770000,  -0.770000, 0.000000,  0.000000 
 282796928.000000, -9.408579 , 0.004786, 2.818745, 1614042752.000000, 1.400000,  0.630000,  -1.190000, 0.000000,  0.000000 
 282816256.000000, -9.425328 , -0.023928, 2.768496, 1614062976.000000, 2.800000,  0.490000,  -1.190000, 0.000000,  0.000000 
 282836352.000000, -9.454042 , 0.004786, 2.739782, 1614082432.000000, 3.780000,  0.490000,  -1.260000, 0.000000,  0.000000 
 282856320.000000, -9.439686 , -0.004786, 2.737389, 1614102400.000000, 3.500000,  0.700000,  -1.260000, 0.000000,  0.000000 
 282876544.000000, -9.439686 , -0.033500, 2.727818, 1614122368.000000, 2.520000,  0.700000,  -1.120000, 0.000000,  0.000000 
 282896896.000000, -9.418150 , -0.035892, 2.785245, 1614142592.000000, 1.330000,  0.980000,  -0.490000, 0.000000,  0.000000 
 282916224.000000, -9.449257 , 0.026321, 2.751746, 1614162944.000000, 0.280000,  1.120000,  -0.070000, 0.000000,  0.000000 
 282936192.000000, -9.434900 , 0.019143, 2.763710, 1614182272.000000, -0.280000,  1.190000,  -0.350000, 0.000000,  0.000000 
 282956160.000000, -9.382257 , -0.050249, 2.782853, 1614202240.000000, -1.680000,  1.190000,  -0.630000, 0.000000,  0.000000 
 282976512.000000, -9.413363 , -0.071785, 2.830709, 1614222336.000000, -2.940000,  0.980000,  -0.630000, 0.000000,  0.000000 
 282998784.000000, -9.458827 , -0.031107, 2.785245, 1614242560.000000, -3.080000,  0.980000,  -0.770000, 0.000000,  0.000000 
 283016192.000000, -9.504292 , -0.031107, 2.754139, 1614282240.000000, -2.170000,  0.910000,  -1.050000, 1611577472.000000,  1010.239929 
 283036160.000000, -9.494720 , -0.002393, 2.799603, 0.000000, 0.000000,  0.000000,  0.000000, 0.000000,  0.000000 
 283056128.000000, -9.537791 , -0.114855, 2.816352, 1614302208.000000, -2.310000,  0.700000,  -0.210000, 0.000000,  0.000000 
 283076608.000000, -9.487542 , -0.086142, 2.825923, 1614322176.000000, -2.870000,  0.490000,  0.560000, 0.000000,  0.000000 
 283096704.000000, -9.377472 , -0.088534, 2.845066, 1614342656.000000, -2.660000,  0.140000,  1.400000, 0.000000,  0.000000 
 283116160.000000, -9.475577 , -0.038285, 2.892922, 1614362752.000000, -0.280000,  0.140000,  1.890000, 0.000000,  0.000000 
 283136128.000000, -9.475577 , -0.081356, 2.780460, 1614382208.000000, 1.470000,  0.140000,  2.170000, 0.000000,  0.000000 
 283156096.000000, -9.389436 , -0.086142, 2.830709, 1614402176.000000, 3.500000,  -1.190000,  3.150000, 0.000000,  0.000000 
 283176448.000000, -9.523434 , -0.066999, 2.821138, 1614422144.000000, 4.900000,  -1.750000,  3.220000, 0.000000,  0.000000 
 283196672.000000, -9.573684 , -0.107677, 2.873780, 1614442496.000000, 7.280000,  -1.330000,  2.380000, 0.000000,  0.000000 
 283216128.000000, -9.588040 , 0.011964, 2.732604, 1614462720.000000, 12.180000,  -1.190000,  1.470000, 0.000000,  0.000000 
 283236096.000000, -9.542577 , 0.203390, 2.600998, 1614482176.000000, 17.639999,  -1.400000,  1.400000, 0.000000,  0.000000 
 283256064.000000, -9.554541 , 0.253639, 2.493321, 1614502144.000000, 19.320000,  -1.960000,  2.240000, 0.000000,  0.000000 
 283276416.000000, -9.437292 , 0.260818, 2.488536, 1614522112.000000, 14.910000,  -2.380000,  2.940000, 0.000000,  0.000000 
 283296640.000000, -9.339187 , 0.165105, 2.498107, 1614542464.000000, 6.720000,  -2.660000,  3.850000, 0.000000,  0.000000 
 283315968.000000, -9.312866 , 0.143569, 2.562713, 1614562688.000000, -1.260000,  -1.960000,  4.200000, 0.000000,  0.000000 
 283336192.000000, -9.387043 , 0.062213, 2.636890, 1614582144.000000, -7.700000,  -0.280000,  3.990000, 0.000000,  0.000000 
 283356032.000000, -9.387043 , 0.021535, 2.758924, 1614602240.000000, -12.670000,  1.190000,  3.920000, 0.000000,  0.000000 
 283376256.000000, -9.430114 , -0.009571, 2.919244, 1614622080.000000, -16.590000,  1.960000,  3.360000, 0.000000,  0.000000 
 283396608.000000, -9.466006 , -0.064606, 2.993421, 1614642432.000000, -18.340000,  1.820000,  2.660000, 0.000000,  0.000000 
 283415936.000000, -9.477970 , -0.043071, 3.000600, 1614662656.000000, -15.820000,  1.190000,  2.310000, 0.000000,  0.000000 
 283435904.000000, -9.406186 , 0.026321, 2.952743, 1614681984.000000, -9.800000,  0.490000,  2.240000, 0.000000,  0.000000 
 283456000.000000, -9.413363 , 0.107677, 2.967100, 1614702080.000000, -3.780000,  0.070000,  1.470000, 0.000000,  0.000000 
 283476224.000000, -9.427721 , 0.021535, 2.890530, 1614722048.000000, 0.840000,  0.070000,  0.700000, 0.000000,  0.000000 
 283496576.000000, -9.389436 , 0.045464, 2.785245, 1614742272.000000, 4.480000,  0.210000,  0.280000, 0.000000,  0.000000 
 283515904.000000, -9.329616 , 0.055035, 2.780460, 1614762624.000000, 5.390000,  0.280000,  0.210000, 0.000000,  0.000000 
 283535872.000000, -9.403792 , 0.043071, 2.706282, 1614781952.000000, 4.760000,  0.210000,  -0.280000, 0.000000,  0.000000 
 283555840.000000, -9.437292 , 0.112463, 2.763710, 1614802048.000000, 3.710000,  0.980000,  -1.750000, 0.000000,  0.000000 
 283576192.000000, -9.451650 , 0.122034, 2.763710, 1614822016.000000, 1.400000,  1.400000,  -2.590000, 0.000000,  0.000000 
 283596416.000000, -9.401401 , 0.167498, 2.720639, 1614842240.000000, 1.400000,  1.330000,  -2.450000, 0.000000,  0.000000 
 283615872.000000, -9.427721 , 0.217747, 2.679961, 1614862592.000000, -0.490000,  1.260000,  -2.240000, 0.000000,  0.000000 
 283635840.000000, -9.499505 , 0.205783, 2.725425, 1614881920.000000, -1.960000,  1.610000,  -2.310000, 0.000000,  0.000000 
 283655808.000000, -9.499505 , 0.076570, 2.799603, 1614901888.000000, -4.480000,  1.750000,  -2.030000, 0.000000,  0.000000 
 283676160.000000, -9.475577 , -0.071785, 2.871387, 1614921856.000000, -5.670000,  1.750000,  -1.330000, 0.000000,  0.000000 
 283696384.000000, -9.456435 , 0.038285, 2.833102, 1614942208.000000, -4.200000,  1.540000,  -0.490000, 0.000000,  0.000000 
 283715840.000000, -9.470792 , 0.050249, 2.833102, 1614962432.000000, -1.540000,  1.610000,  -0.490000, 0.000000,  0.000000 
 283735808.000000, -9.470792 , 0.028714, 2.833102, 1614981888.000000, 0.070000,  1.470000,  -0.630000, 0.000000,  0.000000 
 283755776.000000, -9.449257 , 0.035892, 2.806781, 1615001856.000000, 1.540000,  0.700000,  -0.560000, 0.000000,  0.000000 
 283776128.000000, -9.439686 , 0.095713, 2.761317, 1615021824.000000, 3.430000,  0.420000,  -0.770000, 0.000000,  0.000000 
 283796352.000000, -9.430114 , 0.110070, 2.699104, 1615042176.000000, 4.830000,  0.490000,  -1.260000, 0.000000,  0.000000 
 283815680.000000, -9.485149 , 0.162712, 2.687140, 1615062400.000000, 5.670000,  0.770000,  -1.610000, 0.000000,  0.000000 
 283835776.000000, -9.439686 , 0.133998, 2.682354, 1615081856.000000, 5.740000,  0.980000,  -1.540000, 0.000000,  0.000000 
 283855744.000000, -9.473185 , 0.107677, 2.687140, 1615101824.000000, 5.320000,  0.770000,  -1.050000, 0.000000,  0.000000 
 283875968.000000, -9.489935 , 0.095713, 2.739782, 1615121792.000000, 4.620000,  1.330000,  -0.630000, 0.000000,  0.000000 
 283896320.000000, -9.470792 , 0.129212, 2.734996, 1615142144.000000, 3.920000,  2.030000,  -0.070000, 0.000000,  0.000000 
 283915648.000000, -9.442079 , 0.117248, 2.718246, 1615162368.000000, 3.780000,  1.820000,  0.630000, 0.000000,  0.000000 
 283935616.000000, -9.473185 , 0.090927, 2.778067, 1615181696.000000, 3.220000,  1.680000,  0.980000, 0.000000,  0.000000 
 283955712.000000, -9.437292 , 0.074178, 2.797210, 1615201792.000000, 1.820000,  1.400000,  0.560000, 0.000000,  0.000000 
 283975936.000000, -9.422935 , 0.057428, 2.770889, 1615221760.000000, 1.470000,  0.840000,  1.120000, 0.000000,  0.000000 
 283998208.000000, -9.305687 , 0.083749, 2.706282, 1615241984.000000, 1.960000,  0.140000,  0.980000, 0.000000,  0.000000 
 284015616.000000, -9.408579 , 0.055035, 2.720639, 1615264256.000000, 1.820000,  0.140000,  -0.280000, 0.000000,  0.000000 
 284035584.000000, -9.430114 , -0.004786, 2.758924, 1615281664.000000, 0.630000,  0.630000,  -2.380000, 1612577024.000000,  1010.241150 
 284055552.000000, -9.461221 , 0.031107, 2.687140, 1615301632.000000, 0.630000,  1.050000,  -3.780000, 0.000000,  0.000000 
 284075904.000000, -9.454042 , 0.126820, 2.627320, 1615321728.000000, 2.520000,  0.980000,  -4.270000, 0.000000,  0.000000 
 284096128.000000, -9.566505 , 0.162712, 2.627320, 1615341952.000000, 3.290000,  1.120000,  -3.990000, 0.000000,  0.000000 
 284115584.000000, -9.595219 , 0.076570, 2.646462, 1615362304.000000, 1.820000,  1.120000,  -3.710000, 0.000000,  0.000000 
 284135552.000000, -9.518648 , 0.040678, 2.679961, 1615381632.000000, -0.280000,  1.120000,  -2.660000, 0.000000,  0.000000 
 284155520.000000, -9.525827 , 0.062213, 2.651247, 1615401600.000000, -0.700000,  1.190000,  -1.400000, 0.000000,  0.000000 
 284175872.000000, -9.583255 , 0.107677, 2.665605, 1615421568.000000, -0.630000,  1.260000,  -0.280000, 0.000000,  0.000000 
 284196096.000000, -9.482756 , 0.107677, 2.696711, 1615441920.000000, -3.220000,  1.330000,  1.120000, 0.000000,  0.000000 
 284215552.000000, -9.446864 , -0.062213, 2.763710, 1615462144.000000, -6.090000,  1.120000,  2.240000, 0.000000,  0.000000 
 284235520.000000, -9.449257 , -0.019143, 2.794817, 1615481600.000000, -6.370000,  0.630000,  3.010000, 0.000000,  0.000000 
 284255488.000000, -9.410972 , 0.016750, 2.734996, 1615501568.000000, -4.480000,  0.350000,  2.800000, 0.000000,  0.000000 
 284275840.000000, -9.379865 , -0.019143, 2.751746, 1615521536.000000, -3.150000,  0.070000,  2.030000, 0.000000,  0.000000 
 284296064.000000, -9.401401 , -0.009571, 2.775674, 1615541888.000000, -2.870000,  -0.210000,  1.260000, 0.000000,  0.000000 
 284315520.000000, -9.422935 , -0.066999, 2.773281, 1615562112.000000, -2.520000,  0.140000,  0.350000, 0.000000,  0.000000 
 284335488.000000, -9.430114 , -0.011964, 2.801995, 1615581568.000000, -1.890000,  0.490000,  -0.070000, 0.000000,  0.000000 
 284355456.000000, -9.509077 , -0.059821, 2.751746, 1615601536.000000, -1.400000,  0.490000,  -1.050000, 0.000000,  0.000000 
 284375808.000000, -9.506684 , -0.047856, 2.782853, 1615621504.000000, -0.700000,  0.630000,  -1.890000, 0.000000,  0.000000 
 284396032.000000, -9.492328 , -0.004786, 2.730211, 1615641856.000000, 0.420000,  0.630000,  -2.240000, 0.000000,  0.000000 
 284415360.000000, -9.513863 , 0.011964, 2.720639, 1615662080.000000, 1.400000,  -0.490000,  -2.030000, 0.000000,  0.000000 
 284435456.000000, -9.456435 , 0.071785, 2.701497, 1615681536.000000, 1.400000,  -0.910000,  -1.190000, 0.000000,  0.000000 
 284455424.000000, -9.466006 , -0.002393, 2.763710, 1615701504.000000, 0.140000,  -1.260000,  -0.140000, 0.000000,  0.000000 
 284475648.000000, -9.530612 , 0.031107, 2.730211, 1615721472.000000, -0.980000,  -0.980000,  0.070000, 0.000000,  0.000000 
 284496000.000000, -9.475577 , 0.035892, 2.660819, 1615741824.000000, 0.070000,  -0.770000,  0.070000, 0.000000,  0.000000 
 284515328.000000, -9.521042 , 0.016750, 2.718246, 1615762048.000000, 0.700000,  -1.260000,  0.350000, 0.000000,  0.000000 
 284535424.000000, -9.501899 , -0.014357, 2.696711, 1615781376.000000, -0.490000,  -1.540000,  0.490000, 0.000000,  0.000000 
 284555392.000000, -9.427721 , 0.066999, 2.696711, 1615801472.000000, -1.540000,  -1.680000,  0.210000, 0.000000,  0.000000 
 284575616.000000, -9.408579 , 0.038285, 2.656033, 1615821440.000000, -1.540000,  -1.610000,  -0.420000, 0.000000,  0.000000 
 284595968.000000, -9.399008 , 0.040678, 2.663212, 1615841664.000000, -1.330000,  -1.470000,  -1.260000, 0.000000,  0.000000 
 284615296.000000, -9.544970 , 0.021535, 2.675175, 1615862016.000000, -1.820000,  -1.330000,  -0.770000, 0.000000,  0.000000 
 284635264.000000, -9.437292 , 0.002393, 2.639283, 1615881344.000000, -2.170000,  -1.190000,  -1.400000, 0.000000,  0.000000 
 284655232.000000, -9.487542 , 0.045464, 2.569891, 1615901312.000000, -1.960000,  -0.840000,  -1.400000, 0.000000,  0.000000 
 284675584.000000, -9.473185 , 0.112463, 2.591427, 1615921408.000000, -2.450000,  -1.120000,  -0.840000, 0.000000,  0.000000 
 284695808.000000, -9.451650 , 0.090927, 2.641676, 1615941632.000000, -4.760000,  -1.190000,  -0.350000, 0.000000,  0.000000 
 284715264.000000, -9.394222 , 0.074178, 2.658426, 1615961984.000000, -7.490000,  -0.350000,  -0.560000, 0.000000,  0.000000 
 284735232.000000, -9.425328 , -0.016750, 2.713461, 1615981312.000000, -8.610000,  -0.140000,  0.070000, 0.000000,  0.000000 
 284755200.000000, -9.396614 , 0.023928, 2.806781, 1616001280.000000, -8.400000,  0.490000,  0.280000, 0.000000,  0.000000 
 284775552.000000, -9.408579 , -0.112463, 2.790031, 1616021248.000000, -7.700000,  1.820000,  -0.140000, 0.000000,  0.000000 
 284795776.000000, -9.463614 , -0.105284, 2.828316, 1616041600.000000, -5.880000,  2.380000,  -0.280000, 0.000000,  0.000000 
 284815232.000000, -9.463614 , -0.133998, 2.871387, 1616061824.000000, -4.060000,  2.310000,  -0.350000, 0.000000,  0.000000 
 284835200.000000, -9.456435 , -0.157926, 2.926422, 1616081280.000000, -3.220000,  1.820000,  -0.490000, 0.000000,  0.000000 
 284855168.000000, -9.461221 , -0.165105, 2.938386, 1616101248.000000, -2.100000,  1.050000,  -0.770000, 0.000000,  0.000000 
 284875520.000000, -9.437292 , -0.133998, 2.873780, 1616121216.000000, -0.070000,  0.350000,  -1.470000, 0.000000,  0.000000 
 284895744.000000, -9.394222 , -0.071785, 2.780460, 1616161792.000000, 4.130000,  -1.050000,  -1.820000, 0.000000,  0.000000 
 284915200.000000, -9.401401 , -0.093320, 2.696711, 0.000000, 0.000000,  0.000000,  0.000000, 0.000000,  0.000000 
 284935168.000000, -9.353544 , -0.102891, 2.739782, 1616181248.000000, 2.520000,  -0.770000,  -2.590000, 0.000000,  0.000000 
 284955136.000000, -9.358330 , -0.205783, 2.778067, 1616201216.000000, 0.070000,  -0.140000,  -2.940000, 0.000000,  0.000000 
 284975488.000000, -9.384650 , -0.200997, 2.730211, 1616221184.000000, -1.120000,  0.630000,  -4.130000, 0.000000,  0.000000 
 284997632.000000, -9.480364 , -0.189033, 2.744568, 1616241536.000000, -0.910000,  1.540000,  -5.390000, 0.000000,  0.000000 
 285015040.000000, -9.506684 , -0.186640, 2.763710, 1616263680.000000, 0.140000,  2.100000,  -5.950000, 0.000000,  0.000000 
 285035008.000000, -9.516255 , -0.203390, 2.833102, 1616281216.000000, 0.910000,  1.540000,  -5.600000, 1613576448.000000,  1010.243713 
 285055104.000000, -9.638289 , -0.239282, 2.773281, 1616301184.000000, 1.120000,  0.840000,  -4.830000, 0.000000,  0.000000 
 285075328.000000, -9.640682 , -0.217747, 2.718246, 1616321152.000000, 2.240000,  0.420000,  -3.570000, 0.000000,  0.000000 
 285095680.000000, -9.533006 , -0.222532, 2.660819, 1616341504.000000, 3.010000,  -0.840000,  -1.750000, 0.000000,  0.000000 
 285115008.000000, -9.525827 , -0.217747, 2.667997, 1616361728.000000, 2.240000,  -2.030000,  0.070000, 0.000000,  0.000000 
 285134976.000000, -9.544970 , -0.253639, 2.706282, 1616381056.000000, 1.120000,  -1.750000,  1.120000, 0.000000,  0.000000 
 285154944.000000, -9.597611 , -0.196211, 2.739782, 1616401024.000000, 0.980000,  -1.330000,  1.960000, 0.000000,  0.000000 
 285175296.000000, -9.537791 , -0.160319, 2.694318, 1616421120.000000, 1.050000,  -0.840000,  3.290000, 0.000000,  0.000000 
 285195520.000000, -9.339187 , -0.167498, 2.742175, 1616441344.000000, 1.470000,  -1.820000,  5.390000, 0.000000,  0.000000 
 285214976.000000, -9.221939 , -0.059821, 2.706282, 1616461696.000000, 3.150000,  -2.520000,  5.810000, 0.000000,  0.000000 
 285234944.000000, -9.375079 , 0.066999, 2.713461, 1616481024.000000, 6.020000,  -1.820000,  3.710000, 0.000000,  0.000000 
 285254912.000000, -9.523434 , 0.167498, 2.612962, 1616500992.000000, 7.630000,  -0.070000,  1.050000, 0.000000,  0.000000 
 285275264.000000, -9.494720 , 0.155533, 2.667997, 1616520960.000000, 4.340000,  1.120000,  0.770000, 0.000000,  0.000000 
 285295488.000000, -9.437292 , -0.076570, 2.746960, 1616541312.000000, -2.940000,  0.630000,  3.290000, 0.000000,  0.000000 
 285314944.000000, -9.446864 , -0.234497, 2.792424, 1616561536.000000, -8.890000,  1.190000,  3.850000, 0.000000,  0.000000 
 285334912.000000, -9.401401 , -0.256032, 2.871387, 1616580992.000000, -8.610000,  2.030000,  3.080000, 0.000000,  0.000000 
 285354880.000000, -9.456435 , -0.267996, 2.914458, 1616600960.000000, -4.690000,  1.960000,  1.890000, 0.000000,  0.000000 
 285375232.000000, -9.456435 , -0.272782, 2.933600, 1616620928.000000, 0.140000,  2.310000,  0.980000, 0.000000,  0.000000 
 285395456.000000, -9.489935 , -0.174676, 2.914458, 1616641280.000000, 4.760000,  2.030000,  1.120000, 0.000000,  0.000000 
 285414912.000000, -9.499505 , -0.011964, 2.852244, 1616661504.000000, 7.770000,  1.120000,  1.400000, 0.000000,  0.000000 
 285434880.000000, -9.494720 , 0.069392, 2.828316, 1616680960.000000, 7.560000,  0.420000,  1.610000, 0.000000,  0.000000 
 285454848.000000, -9.415757 , 0.035892, 2.880959, 1616700928.000000, 4.340000,  -0.910000,  2.660000, 0.000000,  0.000000 
 285475200.000000, -9.442079 , -0.016750, 2.849852, 1616720896.000000, 1.960000,  -2.170000,  3.290000, 0.000000,  0.000000 
 285495424.000000, -9.499505 , 0.117248, 2.782853, 1616741248.000000, 3.220000,  -2.100000,  2.800000, 0.000000,  0.000000 
 285514752.000000, -9.501899 , 0.112463, 2.699104, 1616761472.000000, 6.090000,  -1.610000,  2.240000, 0.000000,  0.000000 
 285534848.000000, -9.420543 , 0.112463, 2.723032, 1616780928.000000, 5.460000,  -1.540000,  2.380000, 0.000000,  0.000000 
 285554816.000000, -9.437292 , 0.011964, 2.746960, 1616800896.000000, 2.100000,  -1.750000,  2.030000, 0.000000,  0.000000 
 285575040.000000, -9.322437 , 0.004786, 2.732604, 1616820864.000000, -1.120000,  -1.330000,  0.980000, 0.000000,  0.000000 
 285595392.000000, -9.343972 , -0.023928, 2.761317, 1616841216.000000, -3.010000,  -0.980000,  0.420000, 0.000000,  0.000000 
 285614720.000000, -9.372685 , -0.026321, 2.801995, 1616861440.000000, -4.130000,  -0.280000,  0.140000, 0.000000,  0.000000 
 285634688.000000, -9.363115 , -0.043071, 2.830709, 1616880768.000000, -5.040000,  0.420000,  -0.420000, 0.000000,  0.000000 
 285654784.000000, -9.396614 , -0.021535, 2.842674, 1616900864.000000, -4.410000,  0.700000,  -1.330000, 0.000000,  0.000000 
 285675008.000000, -9.458827 , 0.031107, 2.852244, 1616920832.000000, -3.220000,  1.400000,  -2.450000, 0.000000,  0.000000 
 285695360.000000, -9.463614 , -0.035892, 2.914458, 1616941056.000000, -2.940000,  1.960000,  -3.500000, 0.000000,  0.000000 
 285714688.000000, -9.482756 , -0.105284, 2.914458, 1616961408.000000, -2.870000,  1.330000,  -3.290000, 0.000000,  0.000000 
 285734656.000000, -9.418150 , -0.095713, 2.847459, 1616980736.000000, -1.960000,  0.350000,  -2.310000, 0.000000,  0.000000 
 285754624.000000, -9.379865 , -0.131605, 2.840281, 1617000704.000000, -0.770000,  0.140000,  -2.170000, 0.000000,  0.000000 
 285774976.000000, -9.427721 , -0.122034, 2.849852, 1617020800.000000, -0.770000,  0.070000,  -2.100000, 0.000000,  0.000000 
 285795200.000000, -9.401401 , -0.155533, 2.797210, 1617041024.000000, -0.210000,  0.210000,  -2.170000, 0.000000,  0.000000 
 285814656.000000, -9.470792 , -0.107677, 2.723032, 1617061376.000000, -1.050000,  0.070000,  -2.380000, 0.000000,  0.000000 
 285834624.000000, -9.449257 , -0.090927, 2.751746, 1617080704.000000, -3.430000,  0.350000,  -2.730000, 0.000000,  0.000000 
 285854592.000000, -9.434900 , -0.122034, 2.849852, 1617100672.000000, -6.930000,  0.840000,  -3.080000, 0.000000,  0.000000 
 285874944.000000, -9.482756 , -0.193819, 2.995814, 1617120640.000000, -8.960000,  1.120000,  -3.080000, 0.000000,  0.000000 
 285895168.000000, -9.600004 , -0.308674, 3.110669, 1617140992.000000, -8.890000,  1.680000,  -2.520000, 0.000000,  0.000000 
 285914624.000000, -9.571291 , -0.191426, 2.962314, 1617161216.000000, -5.600000,  1.890000,  -1.400000, 0.000000,  0.000000 
 285934592.000000, -9.604790 , -0.165105, 2.924029, 1617180672.000000, 0.210000,  0.210000,  0.420000, 0.000000,  0.000000 
 285954560.000000, -9.588040 , -0.172283, 2.864209, 1617200640.000000, 3.360000,  -1.260000,  1.680000, 0.000000,  0.000000 
 285974912.000000, -9.439686 , -0.136391, 2.763710, 1617220608.000000, 3.990000,  -2.380000,  2.730000, 0.000000,  0.000000 
 285997056.000000, -9.372685 , -0.081356, 2.653640, 1617240960.000000, 4.410000,  -2.870000,  3.710000, 0.000000,  0.000000 
 286014592.000000, -9.320045 , 0.009571, 2.658426, 1617263232.000000, 4.760000,  -2.310000,  3.920000, 0.000000,  0.000000 
 286034560.000000, -9.379865 , -0.100499, 2.703890, 1617280640.000000, 2.450000,  -1.120000,  2.940000, 1614575872.000000,  1010.242615 
 286054528.000000, -9.401401 , -0.114855, 2.775674, 1617300608.000000, -0.910000,  0.280000,  1.610000, 0.000000,  0.000000 
 286074752.000000, -9.384650 , -0.117248, 2.849852, 1617320576.000000, -3.150000,  1.190000,  1.470000, 0.000000,  0.000000 
 286095104.000000, -9.463614 , -0.066999, 2.864209, 1617340928.000000, -3.990000,  1.540000,  1.120000, 0.000000,  0.000000 
 286114432.000000, -9.456435 , 0.045464, 2.885744, 1617361152.000000, -3.780000,  1.960000,  0.910000, 0.000000,  0.000000 
 286134528.000000, -9.516255 , 0.047856, 2.825923, 1617380608.000000, -3.850000,  1.540000,  1.190000, 0.000000,  0.000000 
 286154496.000000, -9.463614 , 0.047856, 2.801995, 1617400576.000000, -3.500000,  0.630000,  1.680000, 0.000000,  0.000000 
 286174720.000000, -9.401401 , -0.004786, 2.790031, 1617420544.000000, -3.570000,  0.280000,  2.520000, 0.000000,  0.000000 
 286195072.000000, -9.353544 , 0.038285, 2.766103, 1617440768.000000, -3.150000,  0.280000,  3.010000, 0.000000,  0.000000 
 286214400.000000, -9.336794 , -0.076570, 2.809174, 1617461120.000000, -4.340000,  0.910000,  2.520000, 0.000000,  0.000000 
 286234368.000000, -9.305687 , -0.081356, 2.821138, 1617480448.000000, -5.880000,  1.610000,  1.680000, 0.000000,  0.000000 
 286254464.000000, -9.363115 , -0.066999, 2.955136, 1617500544.000000, -6.650000,  2.310000,  0.910000, 0.000000,  0.000000 
 286274688.000000, -9.363115 , -0.014357, 3.012564, 1617520512.000000, -7.490000,  2.940000,  -0.420000, 0.000000,  0.000000 
 286295040.000000, -9.439686 , -0.043071, 3.084348, 1617540736.000000, -7.980000,  2.800000,  -1.260000, 0.000000,  0.000000 
 286314368.000000, -9.470792 , -0.052642, 3.081956, 1617561088.000000, -7.560000,  1.960000,  -1.050000, 0.000000,  0.000000 
 286334336.000000, -9.473185 , -0.083749, 3.048456, 1617580416.000000, -6.440000,  0.770000,  -0.770000, 0.000000,  0.000000 
 286354304.000000, -9.434900 , -0.028714, 2.940779, 1617600384.000000, -4.200000,  -0.490000,  -0.070000, 0.000000,  0.000000 
 286374656.000000, -9.394222 , 0.031107, 2.880959, 1617620480.000000, -1.400000,  -1.400000,  0.770000, 0.000000,  0.000000 
 286394880.000000, -9.370294 , 0.019143, 2.785245, 1617640704.000000, 0.210000,  -2.310000,  1.260000, 0.000000,  0.000000 
 286414336.000000, -9.334401 , -0.043071, 2.830709, 1617661056.000000, 0.420000,  -2.240000,  0.840000, 0.000000,  0.000000 
 286434304.000000, -9.379865 , 0.033500, 2.847459, 1617680384.000000, 0.910000,  -1.890000,  0.840000, 0.000000,  0.000000 
 286454272.000000, -9.430114 , 0.066999, 2.756532, 1617700352.000000, 2.170000,  -1.050000,  0.350000, 0.000000,  0.000000 
 286474624.000000, -9.396614 , 0.026321, 2.742175, 1617720320.000000, 3.920000,  -0.350000,  -0.210000, 0.000000,  0.000000 
 286494848.000000, -9.310472 , -0.043071, 2.744568, 1617740672.000000, 4.200000,  -0.210000,  -0.980000, 0.000000,  0.000000 
 286514304.000000, -9.346365 , -0.045464, 2.751746, 1617760896.000000, 3.010000,  -0.420000,  -0.910000, 0.000000,  0.000000 
 286534272.000000, -9.367901 , -0.114855, 2.821138, 1617780352.000000, 2.030000,  0.420000,  -2.030000, 0.000000,  0.000000 
 286554240.000000, -9.513863 , -0.284746, 2.835495, 1617800320.000000, 2.170000,  1.820000,  -2.660000, 0.000000,  0.000000 
 286574592.000000, -9.425328 , -0.181855, 2.782853, 1617820288.000000, 5.460000,  2.380000,  -6.090000, 0.000000,  0.000000 
 286594816.000000, -9.535398 , -0.086142, 2.761317, 1617840640.000000, 8.190000,  1.960000,  -4.130000, 0.000000,  0.000000 
 286614144.000000, -9.623933 , -0.157926, 2.885744, 1617860864.000000, 6.230000,  2.100000,  -4.410000, 0.000000,  0.000000 
 286634240.000000, -9.549755 , -0.119641, 2.811567, 1617880320.000000, 3.430000,  1.750000,  -2.660000, 0.000000,  0.000000 
 286654208.000000, -9.547362 , 0.057428, 2.766103, 1617900288.000000, 3.080000,  -0.140000,  -0.350000, 0.000000,  0.000000 
 286674432.000000, -9.604790 , 0.026321, 2.734996, 1617920256.000000, 2.240000,  -0.630000,  0.210000, 0.000000,  0.000000 
 286694784.000000, -9.506684 , -0.038285, 2.734996, 1617940608.000000, 1.120000,  -1.400000,  2.310000, 0.000000,  0.000000 
 286714112.000000, -9.370294 , 0.043071, 2.720639, 1617960832.000000, 1.120000,  -2.800000,  4.760000, 0.000000,  0.000000 
 286734080.000000, -9.341579 , -0.028714, 2.720639, 1617980160.000000, -1.820000,  -3.150000,  5.460000, 0.000000,  0.000000 
 286754176.000000, -9.336794 , -0.066999, 2.830709, 1618000256.000000, -3.990000,  -2.520000,  5.740000, 0.000000,  0.000000 
 286774400.000000, -9.327222 , -0.131605, 2.926422, 1618020224.000000, -6.230000,  -1.400000,  5.040000, 0.000000,  0.000000 
 286794752.000000, -9.272188 , -0.165105, 3.019742, 1618040448.000000, -6.860000,  -0.210000,  3.290000, 0.000000,  0.000000 
 286814080.000000, -9.351151 , -0.153141, 2.995814, 1618060800.000000, -3.920000,  0.280000,  1.190000, 0.000000,  0.000000 
 286834048.000000, -9.327222 , -0.050249, 2.971886, 1618080128.000000, 2.170000,  0.910000,  -1.540000, 0.000000,  0.000000 
 286854016.000000, -9.351151 , -0.062213, 2.880959, 1618100096.000000, 7.840000,  1.260000,  -4.410000, 0.000000,  0.000000 
 286874368.000000, -9.379865 , -0.136391, 2.852244, 1618120192.000000, 12.040000,  1.190000,  -6.160000, 0.000000,  0.000000 
 286894592.000000, -9.324830 , -0.119641, 2.718246, 1618140416.000000, 14.700000,  1.400000,  -7.210000, 0.000000,  0.000000 
 286914048.000000, -9.446864 , -0.095713, 2.828316, 1618160768.000000, 15.190001,  2.030000,  -9.030000, 0.000000,  0.000000 
 286934016.000000, -9.439686 , -0.122034, 2.665605, 1618180096.000000, 12.740000,  2.660000,  -9.310000, 0.000000,  0.000000 
 286953984.000000, -9.410972 , -0.071785, 2.725425, 1618200064.000000, 9.800000,  2.030000,  -6.090000, 0.000000,  0.000000 
 286974592.000000, -9.468399 , -0.093320, 2.809174, 1618220032.000000, 4.970000,  1.330000,  -5.670000, 0.000000,  0.000000 
 286996608.000000, -9.504292 , -0.150748, 2.794817, 1618240640.000000, 1.470000,  1.820000,  -4.900000, 0.000000,  0.000000 
 287014016.000000, -9.559326 , -0.047856, 2.761317, 1618262656.000000, 0.700000,  1.470000,  -3.150000, 0.000000,  0.000000 
 287033984.000000, -9.616754 , 0.038285, 2.713461, 1618280064.000000, 1.540000,  1.470000,  -2.520000, 1615575296.000000,  1010.243408 
 287053952.000000, -9.583255 , 0.021535, 2.665605, 1618300032.000000, 0.770000,  0.490000,  -1.260000, 0.000000,  0.000000 
 287074304.000000, -9.576077 , -0.138784, 2.758924, 1618320000.000000, -2.730000,  -0.070000,  0.140000, 0.000000,  0.000000 
 287094528.000000, -9.358330 , -0.184247, 2.744568, 1618340352.000000, -6.020000,  0.070000,  0.980000, 0.000000,  0.000000 
 287113984.000000, -9.300901 , -0.186640, 2.732604, 1618360576.000000, -7.350000,  -0.350000,  2.380000, 0.000000,  0.000000 
 287133952.000000, -9.389436 , -0.241675, 2.816352, 1618380032.000000, -9.310000,  0.140000,  1.820000, 0.000000,  0.000000 
 287153920.000000, -9.418150 , -0.356531, 2.854637, 1618400000.000000, -11.620000,  0.980000,  0.210000, 0.000000,  0.000000 
 287174144.000000, -9.396614 , -0.267996, 2.852244, 1618419968.000000, -11.060000,  0.770000,  -0.980000, 0.000000,  0.000000 
 287194496.000000, -9.454042 , -0.179462, 2.909672, 1618440320.000000, -8.400000,  0.280000,  -1.400000, 0.000000,  0.000000 
 287213824.000000, -9.427721 , -0.155533, 2.859423, 1618460544.000000, -6.930000,  0.700000,  -2.240000, 0.000000,  0.000000 
 287233920.000000, -9.413363 , -0.177069, 2.825923, 1618480000.000000, -6.440000,  0.280000,  -2.170000, 0.000000,  0.000000 
 287253888.000000, -9.413363 , -0.172283, 2.818745, 1618499968.000000, -5.460000,  -0.560000,  -1.680000, 0.000000,  0.000000 
 287274112.000000, -9.363115 , -0.193819, 2.770889, 1618519936.000000, -5.880000,  -0.700000,  -1.890000, 0.000000,  0.000000 
 287294464.000000, -9.406186 , -0.284746, 2.799603, 1618540288.000000, -5.740000,  -1.190000,  -1.050000, 0.000000,  0.000000 
 287313792.000000, -9.535398 , -0.272782, 2.864209, 1618560512.000000, -5.250000,  -0.770000,  0.140000, 0.000000,  0.000000 
 287334016.000000, -9.382257 , -0.284746, 2.792424, 1618579840.000000, -4.760000,  0.630000,  1.120000, 0.000000,  0.000000 
 287353856.000000, -9.444471 , -0.294317, 2.983850, 1618600064.000000, -2.800000,  0.630000,  2.240000, 0.000000,  0.000000 
 287374080.000000, -9.544970 , -0.351745, 3.005385, 1618619904.000000, -1.820000,  0.630000,  1.260000, 0.000000,  0.000000 
 287394432.000000, -9.544970 , -0.390030, 2.947958, 1618640128.000000, -0.280000,  0.910000,  1.190000, 0.000000,  0.000000 
 287413760.000000, -9.547362 , -0.394816, 2.852244, 1618660480.000000, 2.450000,  -1.050000,  0.770000, 0.000000,  0.000000 
 287433728.000000, -9.444471 , -0.260818, 2.766103, 1618679808.000000, 4.620000,  -2.450000,  0.840000, 0.000000,  0.000000 
 287453696.000000, -9.468399 , -0.196211, 2.703890, 1618719872.000000, 6.580000,  -2.450000,  0.350000, 0.000000,  0.000000 
 287474048.000000, -9.473185 , -0.174676, 2.634498, 0.000000, 0.000000,  0.000000,  0.000000, 0.000000,  0.000000 
 287494272.000000, -9.394222 , -0.090927, 2.639283, 1618740096.000000, 4.060000,  -1.190000,  0.210000, 0.000000,  0.000000 
 287513728.000000, -9.454042 , -0.114855, 2.737389, 1618760448.000000, 0.560000,  -0.630000,  0.490000, 0.000000,  0.000000 
 287533696.000000, -9.470792 , -0.193819, 2.868994, 1618779776.000000, -2.800000,  0.490000,  1.400000, 0.000000,  0.000000 
 287553664.000000, -9.535398 , -0.258425, 2.904887, 1618799744.000000, -5.180000,  1.260000,  2.170000, 0.000000,  0.000000 
 287574016.000000, -9.456435 , -0.232104, 2.900101, 1618819712.000000, -4.900000,  1.190000,  2.730000, 0.000000,  0.000000 
 287594240.000000, -9.418150 , -0.150748, 2.959922, 1618840064.000000, -3.290000,  0.350000,  3.780000, 0.000000,  0.000000 
 287613696.000000, -9.339187 , -0.191426, 2.967100, 1618860288.000000, -2.450000,  -0.490000,  4.550000, 0.000000,  0.000000 
 287633664.000000, -9.334401 , -0.191426, 2.916851, 1618879744.000000, -2.730000,  -0.840000,  4.200000, 0.000000,  0.000000 
 287653632.000000, -9.406186 , -0.184247, 2.921637, 1618899712.000000, -2.030000,  -1.190000,  3.220000, 0.000000,  0.000000 
 287673984.000000, -9.399008 , -0.203390, 2.797210, 1618919680.000000, -1.260000,  -0.840000,  1.820000, 0.000000,  0.000000 
 287694208.000000, -9.341579 , -0.169890, 2.868994, 1618940032.000000, -1.750000,  -0.770000,  1.260000, 0.000000,  0.000000 
 287713664.000000, -9.375079 , -0.229711, 2.924029, 1618960256.000000, -4.480000,  -1.400000,  0.490000, 0.000000,  0.000000 
 287733632.000000, -9.332008 , -0.270389, 2.900101, 1618979712.000000, -6.720000,  -0.350000,  -0.210000, 0.000000,  0.000000 
 287753600.000000, -9.358330 , -0.217747, 2.964707, 1618999680.000000, -6.580000,  -0.210000,  -1.470000, 0.000000,  0.000000 
 287773824.000000, -9.365508 , -0.267996, 2.967100, 1619019648.000000, -4.900000,  0.910000,  -3.640000, 0.000000,  0.000000 
 287794176.000000, -9.250652 , -0.191426, 2.924029, 1619040000.000000, -1.960000,  1.050000,  -5.460000, 0.000000,  0.000000 
 287813504.000000, -9.365508 , -0.136391, 2.926422, 1619060224.000000, 1.960000,  0.420000,  -6.510000, 0.000000,  0.000000 
 287833472.000000, -9.422935 , -0.107677, 2.945565, 1619079680.000000, 3.290000,  -0.700000,  -5.250000, 0.000000,  0.000000 
 287853568.000000, -9.473185 , -0.110070, 2.933600, 1619099648.000000, 1.820000,  0.280000,  -3.430000, 0.000000,  0.000000 
 287873792.000000, -9.399008 , -0.162712, 2.880959, 1619119616.000000, 0.700000,  -1.400000,  -0.630000, 0.000000,  0.000000 
 287894144.000000, -9.315259 , -0.222532, 2.830709, 1619139840.000000, 0.350000,  -2.940000,  1.820000, 0.000000,  0.000000 
 287913472.000000, -9.444471 , -0.162712, 2.737389, 1619160192.000000, 0.770000,  -3.150000,  2.730000, 0.000000,  0.000000 
 287933440.000000, -9.616754 , -0.205783, 2.852244, 1619179520.000000, 0.350000,  -3.500000,  2.940000, 0.000000,  0.000000 
 287953536.000000, -9.671788 , -0.287139, 2.749353, 1619199616.000000, -2.870000,  -2.170000,  3.570000, 0.000000,  0.000000 
 287973760.000000, -9.509077 , -0.265603, 2.787638, 1619219584.000000, -3.640000,  -2.590000,  6.230000, 0.000000,  0.000000 
 287996032.000000, -9.451650 , -0.248854, 2.720639, 1619239808.000000, -3.220000,  -2.520000,  4.830000, 0.000000,  0.000000 
 288013440.000000, -9.410972 , -0.181855, 2.790031, 1619279488.000000, 1.400000,  -0.350000,  1.610000, 1616574720.000000,  1010.239685 
 288033408.000000, -9.334401 , -0.078963, 2.840281, 0.000000, 0.000000,  0.000000,  0.000000, 0.000000,  0.000000 
 288053376.000000, -9.377472 , -0.064606, 2.864209, 1619299456.000000, 2.030000,  0.980000,  0.840000, 0.000000,  0.000000 
 288073856.000000, -9.432507 , -0.052642, 2.995814, 1619319552.000000, -1.400000,  1.960000,  1.120000, 0.000000,  0.000000 
 288093952.000000, -9.348758 , -0.174676, 2.933600, 1619339904.000000, -6.650000,  2.660000,  2.240000, 0.000000,  0.000000 
 288113408.000000, -9.403792 , -0.208176, 2.988636, 1619360000.000000, -7.630000,  1.190000,  2.800000, 0.000000,  0.000000 
 288133376.000000, -9.410972 , -0.267996, 2.947958, 1619379456.000000, -6.230000,  1.050000,  2.030000, 0.000000,  0.000000 
 288153344.000000, -9.315259 , -0.224925, 2.914458, 1619399424.000000, -1.890000,  0.840000,  0.980000, 0.000000,  0.000000 
 288173696.000000, -9.384650 , -0.141177, 2.818745, 1619439744.000000, 3.430000,  1.330000,  -0.070000, 0.000000,  0.000000 
 288193920.000000, -9.399008 , -0.055035, 2.799603, 0.000000, 0.000000,  0.000000,  0.000000, 0.000000,  0.000000 
 288213376.000000, -9.308081 , -0.066999, 2.854637, 1619459968.000000, 0.770000,  1.470000,  0.420000, 0.000000,  0.000000 
 288233344.000000, -9.415757 , -0.035892, 2.916851, 1619479424.000000, -3.360000,  1.610000,  1.120000, 0.000000,  0.000000 
 288253312.000000, -9.458827 , -0.129212, 2.967100, 1619499392.000000, -7.350000,  1.960000,  0.630000, 0.000000,  0.000000 
 288273664.000000, -9.473185 , -0.220140, 3.026921, 1619519360.000000, -10.710000,  1.890000,  0.630000, 0.000000,  0.000000 
 288293888.000000, -9.372685 , -0.205783, 3.031706, 1619559936.000000, -11.830000,  0.980000,  2.380000, 0.000000,  0.000000 
 288313216.000000, -9.327222 , -0.198604, 3.002992, 0.000000, 0.000000,  0.000000,  0.000000, 0.000000,  0.000000 
 288333312.000000, -9.377472 , -0.212961, 2.988636, 1619579392.000000, -9.590000,  0.630000,  2.100000, 0.000000,  0.000000 
 288353280.000000, -9.391829 , -0.256032, 3.026921, 1619599360.000000, -7.420000,  1.120000,  1.400000, 0.000000,  0.000000 
 288373504.000000, -9.387043 , -0.227318, 2.967100, 1619619328.000000, -6.440000,  1.120000,  0.770000, 0.000000,  0.000000 
 288393856.000000, -9.403792 , -0.246461, 2.976671, 1619639680.000000, -5.180000,  0.910000,  1.330000, 0.000000,  0.000000 
 288413184.000000, -9.403792 , -0.241675, 2.979064, 1619659904.000000, -4.130000,  0.980000,  1.540000, 0.000000,  0.000000 
 288433152.000000, -9.463614 , -0.272782, 2.998207, 1619679232.000000, -3.500000,  1.120000,  1.540000, 0.000000,  0.000000 
 288453248.000000, -9.399008 , -0.241675, 2.976671, 1619699328.000000, -1.890000,  1.470000,  0.980000, 0.000000,  0.000000 
 288473472.000000, -9.351151 , -0.198604, 2.959922, 1619719296.000000, 0.490000,  1.330000,  1.050000, 0.000000,  0.000000 
 288493824.000000, -9.389436 , -0.191426, 2.928815, 1619739520.000000, 2.590000,  1.260000,  0.700000, 0.000000,  0.000000 
 288513152.000000, -9.399008 , -0.208176, 2.890530, 1619759872.000000, 4.690000,  1.540000,  0.210000, 0.000000,  0.000000 
 288533248.000000, -9.413363 , -0.126820, 2.842674, 1619779200.000000, 6.090000,  1.330000,  0.070000, 0.000000,  0.000000 
 288553088.000000, -9.415757 , -0.145962, 2.828316, 1619799296.000000, 4.970000,  1.470000,  -0.210000, 0.000000,  0.000000 
 288573440.000000, -9.363115 , -0.162712, 2.885744, 1619819264.000000, 1.610000,  1.330000,  -0.280000, 0.000000,  0.000000 
 288593664.000000, -9.396614 , -0.217747, 2.921637, 1619839488.000000, -2.310000,  1.260000,  -0.490000, 0.000000,  0.000000 
 288613120.000000, -9.458827 , -0.215354, 2.909672, 1619859840.000000, -4.760000,  1.260000,  -0.980000, 0.000000,  0.000000 
 288633088.000000, -9.410972 , -0.229711, 2.969493, 1619879168.000000, -5.600000,  1.400000,  -1.400000, 0.000000,  0.000000 
 288653056.000000, -9.391829 , -0.222532, 2.986243, 1619899136.000000, -5.740000,  1.190000,  -1.470000, 0.000000,  0.000000 
 288673408.000000, -9.434900 , -0.284746, 3.031706, 1619919104.000000, -5.600000,  0.980000,  -1.050000, 0.000000,  0.000000 
 288693632.000000, -9.413363 , -0.275175, 2.993421, 1619939456.000000, -4.690000,  0.770000,  -0.490000, 0.000000,  0.000000 
 288713088.000000, -9.422935 , -0.239282, 2.976671, 1619959680.000000, -3.220000,  0.280000,  0.280000, 0.000000,  0.000000 
 288733056.000000, -9.439686 , -0.277567, 3.005385, 1619979136.000000, -1.890000,  -0.490000,  0.630000, 0.000000,  0.000000 
 288753024.000000, -9.444471 , -0.299103, 2.967100, 1619999104.000000, 0.070000,  -0.910000,  0.770000, 0.000000,  0.000000 
 288773376.000000, -9.432507 , -0.224925, 2.861816, 1620019072.000000, 3.570000,  -0.910000,  1.400000, 0.000000,  0.000000 
 288793600.000000, -9.387043 , -0.122034, 2.782853, 1620039424.000000, 6.650000,  -0.840000,  2.520000, 0.000000,  0.000000 
 288813056.000000, -9.415757 , -0.062213, 2.727818, 1620059648.000000, 7.420000,  -1.330000,  3.780000, 0.000000,  0.000000 
 288833280.000000, -9.497113 , -0.210568, 2.837888, 1620079104.000000, 3.850000,  -0.420000,  1.960000, 0.000000,  0.000000 
 288852992.000000, -9.329616 , -0.306281, 2.890530, 1620099328.000000, -0.420000,  0.420000,  -0.980000, 0.000000,  0.000000 
 288873344.000000, -9.382257 , -0.129212, 2.758924, 1620119040.000000, 2.660000,  0.420000,  -1.260000, 0.000000,  0.000000 
 288893568.000000, -9.410972 , 0.064606, 2.663212, 1620139392.000000, 7.910000,  1.890000,  -2.870000, 0.000000,  0.000000 
 288912896.000000, -9.384650 , -0.002393, 2.725425, 1620159616.000000, 6.090000,  2.730000,  -3.080000, 0.000000,  0.000000 
 288932992.000000, -9.382257 , -0.215354, 2.813959, 1620179072.000000, -1.050000,  2.100000,  -2.730000, 0.000000,  0.000000 
 288952960.000000, -9.513863 , -0.224925, 2.868994, 1620199040.000000, -5.810000,  2.310000,  -2.520000, 0.000000,  0.000000 
 288973184.000000, -9.492328 , -0.196211, 2.909672, 1620219008.000000, -6.020000,  2.940000,  -2.870000, 0.000000,  0.000000 
 288995456.000000, -9.494720 , -0.200997, 2.801995, 1620239232.000000, -3.430000,  3.010000,  -1.680000, 0.000000,  0.000000 
 289012864.000000, -9.434900 , -0.227318, 2.825923, 1620278912.000000, 1.890000,  2.520000,  -1.260000, 1617574272.000000,  1010.240723 
 289032832.000000, -9.434900 , -0.244068, 2.811567, 0.000000, 0.000000,  0.000000,  0.000000, 0.000000,  0.000000 
 289052800.000000, -9.468399 , -0.306281, 2.890530, 1620299008.000000, 4.060000,  2.450000,  -1.890000, 0.000000,  0.000000 
 289073152.000000, -9.420543 , -0.265603, 2.792424, 1620318976.000000, 6.440000,  2.660000,  -1.540000, 0.000000,  0.000000 
 289093376.000000, -9.422935 , -0.210568, 2.811567, 1620339200.000000, 7.210000,  2.380000,  -0.980000, 0.000000,  0.000000 
 289112832.000000, -9.497113 , -0.272782, 2.780460, 1620359552.000000, 6.230000,  1.330000,  0.280000, 0.000000,  0.000000 
 289132800.000000, -9.463614 , -0.267996, 2.801995, 1620378880.000000, 3.710000,  1.190000,  1.050000, 0.000000,  0.000000 
 289152768.000000, -9.525827 , -0.198604, 2.809174, 1620398848.000000, 2.590000,  0.350000,  1.330000, 0.000000,  0.000000 
 289173120.000000, -9.470792 , -0.165105, 2.739782, 1620418816.000000, 2.170000,  0.070000,  0.910000, 0.000000,  0.000000 
 289193344.000000, -9.487542 , -0.129212, 2.718246, 1620439168.000000, 2.170000,  -0.140000,  0.700000, 0.000000,  0.000000 
 289212800.000000, -9.477970 , -0.136391, 2.684747, 1620459520.000000, 2.380000,  -0.420000,  0.840000, 0.000000,  0.000000 
 289232768.000000, -9.403792 , -0.100499, 2.641676, 1620478848.000000, 2.170000,  -0.350000,  0.980000, 0.000000,  0.000000 
 289252736.000000, -9.396614 , -0.071785, 2.778067, 1620498816.000000, 0.350000,  -0.070000,  1.330000, 0.000000,  0.000000 
 289273088.000000, -9.363115 , -0.131605, 2.727818, 1620518784.000000, -2.380000,  0.350000,  2.100000, 0.000000,  0.000000 
 289293312.000000, -9.425328 , -0.090927, 2.806781, 1620539136.000000, -5.460000,  0.350000,  3.150000, 0.000000,  0.000000 
 289312768.000000, -9.408579 , -0.145962, 2.878566, 1620559360.000000, -9.940000,  0.700000,  2.660000, 0.000000,  0.000000 
 289332736.000000, -9.358330 , -0.191426, 2.976671, 1620578816.000000, -12.600000,  0.280000,  3.430000, 0.000000,  0.000000 
 289352704.000000, -9.322437 , -0.203390, 3.031706, 1620598784.000000, -12.180000,  -0.350000,  4.130000, 0.000000,  0.000000 
 289373056.000000, -9.327222 , -0.141177, 3.007778, 1620618752.000000, -9.800000,  -0.560000,  4.830000, 0.000000,  0.000000 
 289393280.000000, -9.444471 , -0.157926, 3.058028, 1620639104.000000, -8.470000,  -0.490000,  4.270000, 0.000000,  0.000000 
 289412608.000000, -9.513863 , -0.256032, 3.108276, 1620659328.000000, -8.820000,  0.070000,  2.310000, 0.000000,  0.000000 
 289432704.000000, -9.475577 , -0.390030, 3.175276, 1620678784.000000, -7.000000,  0.070000,  0.070000, 0.000000,  0.000000 
 289452672.000000, -9.461221 , -0.315853, 3.110669, 1620698752.000000, 0.070000,  -1.120000,  0.490000, 0.000000,  0.000000 
 289472896.000000, -9.485149 , -0.263210, 2.964707, 1620718720.000000, 10.220000,  -0.560000,  -1.820000, 0.000000,  0.000000 
 289493248.000000, -9.466006 , -0.169890, 2.859423, 1620759296.000000, 26.809999,  -1.120000,  -2.240000, 0.000000,  0.000000 
 289512576.000000, -9.533006 , -0.124427, 2.679961, 0.000000, 0.000000,  0.000000,  0.000000, 0.000000,  0.000000 
 289532672.000000, -9.454042 , 0.011964, 2.627320, 1620778624.000000, 32.200001,  -0.910000,  -2.450000, 0.000000,  0.000000 
 289552640.000000, -9.367901 , 0.100499, 2.538785, 1620798720.000000, 32.270000,  -0.700000,  -1.470000, 0.000000,  0.000000 
 289572864.000000, -9.420543 , 0.117248, 2.555535, 1620818688.000000, 28.000000,  0.140000,  -1.470000, 0.000000,  0.000000 
 289593216.000000, -9.439686 , 0.165105, 2.596212, 1620838912.000000, 22.120001,  1.400000,  -2.100000, 0.000000,  0.000000 
 289612544.000000, -9.377472 , 0.126820, 2.641676, 1620859264.000000, 15.400000,  2.170000,  -2.170000, 0.000000,  0.000000 
 289632512.000000, -9.320045 , 0.047856, 2.689533, 1620878592.000000, 8.820000,  2.240000,  -2.100000, 0.000000,  0.000000 
 289652480.000000, -9.439686 , 0.045464, 2.799603, 1620898560.000000, 3.710000,  2.590000,  -2.100000, 0.000000,  0.000000 
 289672832.000000, -9.501899 , 0.007178, 2.823531, 1620918656.000000, 0.070000,  3.080000,  -2.450000, 0.000000,  0.000000 
 289693056.000000, -9.477970 , -0.071785, 2.849852, 1620938880.000000, -2.730000,  2.940000,  -2.240000, 0.000000,  0.000000 
 289712512.000000, -9.444471 , -0.148355, 2.895315, 1620959232.000000, -4.130000,  1.960000,  -1.820000, 0.000000,  0.000000 
 289732480.000000, -9.456435 , -0.191426, 2.916851, 1620978560.000000, -3.780000,  1.330000,  -1.960000, 0.000000,  0.000000 
 289752448.000000, -9.504292 , -0.136391, 2.883351, 1620998528.000000, -1.190000,  0.840000,  -2.030000, 0.000000,  0.000000 
 289772800.000000, -9.463614 , -0.057428, 2.799603, 1621018496.000000, 3.290000,  0.280000,  -1.750000, 0.000000,  0.000000 
 289793024.000000, -9.480364 , 0.033500, 2.725425, 1621038848.000000, 8.190000,  -0.210000,  -1.400000, 0.000000,  0.000000 
 289812480.000000, -9.377472 , 0.081356, 2.663212, 1621059072.000000, 10.360000,  -0.350000,  -0.910000, 0.000000,  0.000000 
 289832448.000000, -9.363115 , 0.033500, 2.670390, 1621078528.000000, 8.890000,  -0.840000,  0.350000, 0.000000,  0.000000 
 289852416.000000, -9.391829 , 0.057428, 2.694318, 1621098496.000000, 5.180000,  -0.840000,  0.910000, 0.000000,  0.000000 
 289872768.000000, -9.552148 , -0.016750, 2.715853, 1621118464.000000, 1.120000,  -0.560000,  0.840000, 0.000000,  0.000000 
 289892992.000000, -9.513863 , -0.193819, 2.835495, 1621138816.000000, -2.660000,  0.700000,  -2.660000, 0.000000,  0.000000 
 289912448.000000, -9.511470 , -0.131605, 2.744568, 1621159040.000000, -1.750000,  0.560000,  -2.100000, 0.000000,  0.000000 
 289932416.000000, -9.444471 , 0.002393, 2.620141, 1621178496.000000, 4.060000,  0.280000,  -1.610000, 0.000000,  0.000000 
 289952384.000000, -9.485149 , 0.165105, 2.581856, 1621198464.000000, 7.070000,  0.490000,  -1.260000, 0.000000,  0.000000 
 289972608.000000, -9.446864 , -0.031107, 2.672783, 1621218432.000000, 1.890000,  0.420000,  -0.700000, 0.000000,  0.000000 
 289994880.000000, -9.403792 , -0.143569, 2.756532, 1621238784.000000, -3.780000,  0.350000,  -0.700000, 0.000000,  0.000000 
 290012288.000000, -9.434900 , -0.074178, 2.787638, 1621278464.000000, -3.220000,  1.330000,  0.070000, 1618573696.000000,  1010.240356 
 290032384.000000, -9.375079 , -0.086142, 2.742175, 0.000000, 0.000000,  0.000000,  0.000000, 0.000000,  0.000000 
 290052352.000000, -9.384650 , -0.119641, 2.770889, 1621298432.000000, -2.520000,  1.260000,  -0.630000, 0.000000,  0.000000 
 290072576.000000, -9.449257 , -0.150748, 2.849852, 1621318400.000000, -2.730000,  1.120000,  -2.170000, 0.000000,  0.000000 
 290092928.000000, -9.432507 , -0.098106, 2.847459, 1621338752.000000, -1.820000,  0.980000,  -2.800000, 0.000000,  0.000000 
 290112256.000000, -9.442079 , -0.021535, 2.737389, 1621358976.000000, -0.140000,  1.050000,  -3.290000, 0.000000,  0.000000 
 290132224.000000, -9.420543 , -0.059821, 2.723032, 1621378304.000000, -0.070000,  1.400000,  -4.270000, 0.000000,  0.000000 
 290152320.000000, -9.401401 , -0.107677, 2.727818, 1621398400.000000, -1.960000,  0.980000,  -4.200000, 0.000000,  0.000000 
 290172544.000000, -9.454042 , -0.107677, 2.749353, 1621418368.000000, -4.270000,  0.210000,  -2.590000, 0.000000,  0.000000 
 290192768.000000, -9.537791 , -0.145962, 2.701497, 1621438592.000000, -5.180000,  -0.840000,  -0.350000, 0.000000,  0.000000 
 290212224.000000, -9.456435 , -0.169890, 2.737389, 1621458944.000000, -6.440000,  -0.910000,  0.840000, 0.000000,  0.000000 
 290232192.000000, -9.432507 , -0.141177, 2.715853, 1621478272.000000, -8.330000,  -0.420000,  1.680000, 0.000000,  0.000000 
 290252160.000000, -9.432507 , -0.155533, 2.749353, 1621498240.000000, -8.890000,  -1.120000,  2.450000, 0.000000,  0.000000 
 290272512.000000, -9.434900 , -0.150748, 2.835495, 1621518336.000000, -9.030000,  -0.070000,  1.400000, 0.000000,  0.000000 
 290292736.000000, -9.439686 , -0.208176, 2.809174, 1621538560.000000, -10.220000,  0.070000,  1.820000, 0.000000,  0.000000 
 290312192.000000, -9.420543 , -0.253639, 2.818745, 1621558912.000000, -11.130000,  0.070000,  1.470000, 0.000000,  0.000000 
