time,seconds_elapsed,z,y,x
1634126161934481400,0.0214814453125,0.1327497661113739,0.31453022360801697,-0.24278655648231506
1634126161954360300,0.0413603515625,0.0785439983010292,0.22996222972869873,-0.11967916041612625
1634126161974240300,0.061240234375,0.010721808299422264,0.15750227868556976,-0.0800480842590332
1634126161994119400,0.081119384765625,-0.04116566479206085,0.031934384256601334,-0.07129445672035217
1634126162013998300,0.100998291015625,-0.056304629892110825,0.038630612194538116,-0.06998857110738754
1634126162033877200,0.120877197265625,-0.06851530820131302,0.14429543912410736,0.04648026078939438
1634126162053756200,0.140756103515625,-0.14259539544582367,0.10012184828519821,0.2951018214225769
1634126162073635300,0.16063525390625,-0.22801242768764496,-0.013244722038507462,0.47282105684280396
1634126162093514200,0.18051416015625,-0.1824123114347458,-0.0668632760643959,0.46156319975852966
1634126162113394200,0.200394287109375,0.31332188844680786,0.19094012677669525,0.613679826259613
1634126162133273300,0.2202734375,0.15450307726860046,0.26814696192741394,0.3338581323623657
1634126162153152300,0.24015234375,-0.14790068566799164,-0.13206079602241516,-0.19445939362049103
1634126162173031400,0.260031494140625,-0.13917496800422668,-0.29784369468688965,-0.2920829951763153
1634126162192910300,0.279910400390625,-0.13023827970027924,-0.12455029785633087,-0.10001371800899506
1634126162212789200,0.299789306640625,0.005274003371596336,0.1102471649646759,0.15809480845928192
1634126162232668200,0.319668212890625,0.11014626175165176,0.24628600478172302,0.28101009130477905
1634126162252548000,0.339548095703125,0.07904268056154251,0.2822030186653137,0.1429957151412964
1634126162272427000,0.359427001953125,-0.04443452134728432,0.18223832547664642,-0.12103321403265
1634126162292306200,0.37930615234375,-0.08537476509809494,0.08055150508880615,-0.26950281858444214
1634126162312185000,0.39918505859375,0.010519898496568203,0.050801683217287064,-0.22350233793258667
1634126162332064300,0.419064208984375,0.14361527562141418,0.10687404870986938,-0.10949748754501343
1634126162351943000,0.43894287109375,0.22986899316310883,0.154335156083107,-0.05802270025014877
1634126162371823000,0.458822998046875,0.2211119383573532,0.09784447401762009,-0.10469206422567368
1634126162391702300,0.478702392578125,0.1593976616859436,-0.07215467095375061,-0.17859359085559845
1634126162411581000,0.498580810546875,0.11731491982936859,-0.2294195145368576,-0.2059927135705948
1634126162431460000,0.518460205078125,0.10110519081354141,-0.2568115293979645,-0.1468816101551056
1634126162451339000,0.538339111328125,0.0999472513794899,-0.20233072340488434,-0.012025288306176662
1634126162471218200,0.55821826171875,0.09394799172878265,-0.15081055462360382,0.11038843542337418
1634126162491097000,0.57809716796875,0.07764842361211777,-0.13298669457435608,0.09250649809837341
1634126162510977000,0.59797705078125,0.05236929655075073,-0.10478682070970535,-0.013815274462103844
1634126162530856200,0.617856201171875,0.038958195596933365,-0.12353163957595825,-0.06907255202531815
1634126162550735000,0.637735107421875,0.00887259840965271,-0.1868012249469757,-0.013614210300147533
1634126162570614000,0.657614013671875,-0.029956331476569176,-0.2723276615142822,0.09427589178085327
1634126162590493000,0.677492919921875,-0.04625976085662842,-0.2659505605697632,0.16143283247947693
1634126162610372000,0.6973720703125,-0.05049534887075424,-0.19515104591846466,0.17873409390449524
1634126162630251300,0.717251220703125,-0.042819760739803314,-0.12843798100948334,0.13005149364471436
1634126162650130000,0.7371298828125,-0.04016055166721344,-0.11383108794689178,0.1030552014708519
1634126162670010000,0.757010009765625,-0.03472556546330452,-0.14193077385425568,0.0330163910984993
1634126162689889000,0.776888916015625,0.006190930027514696,-0.22276808321475983,-0.0677388533949852
1634126162709768000,0.796767822265625,0.053887832909822464,-0.2867653965950012,-0.1354200392961502
1634126162729647000,0.816647216796875,0.11714007705450058,-0.25779542326927185,-0.22777165472507477
1634126162749526000,0.836526123046875,0.15113773941993713,-0.233756422996521,-0.2984338402748108
1634126162769405200,0.8564052734375,0.12770675122737885,-0.18665683269500732,-0.3170984983444214
1634126162789285000,0.87628515625,0.07402492314577103,-0.1380138099193573,-0.2809552252292633
1634126162809164000,0.8961640625,0.029605131596326828,-0.09220271557569504,-0.21866486966609955
1634126162829043200,0.916043212890625,0.016303129494190216,-0.054175153374671936,-0.17722752690315247
1634126162848922000,0.935922119140625,0.006567053496837616,-0.011214857921004295,-0.15852198004722595
1634126162868801000,0.955801025390625,-0.007397715467959642,0.038941361010074615,-0.14098817110061646
1634126162888680000,0.975679931640625,-0.06155802682042122,0.12687528133392334,-0.10383239388465881
1634126162908559000,0.99555908203125,-0.1067984327673912,0.18705244362354279,-0.056468456983566284
1634126162928439000,1.01543896484375,-0.12001708149909973,0.16562813520431519,-0.05623393878340721
1634126162948318000,1.03531787109375,-0.1211460679769516,0.1271609365940094,-0.05880238860845566
1634126162968197000,1.055197021484375,-0.06758973002433777,0.11760570853948593,-0.048398442566394806
1634126162988076000,1.075075927734375,-0.010880152694880962,0.08820775896310806,-0.023624002933502197
1634126163007955200,1.094955078125,0.02792334370315075,0.04809260368347168,-0.0433228500187397
1634126163027834000,1.114834228515625,0.036260321736335754,-0.011263239197432995,-0.05282619222998619
1634126163047713000,1.134713134765625,0.016912059858441353,-0.05527710169553757,-0.05157436430454254
1634126163067592200,1.15459228515625,-0.006531126797199249,-0.09252544492483139,-0.04486612603068352
1634126163087471900,1.174471923828125,-0.023565899580717087,-0.09215600043535233,-0.05102245882153511
1634126163107351000,1.19435107421875,-0.03721335902810097,-0.06635139137506485,-0.07867298275232315
1634126163127230200,1.214230224609375,-0.04816246032714844,-0.043558571487665176,-0.08166727423667908
1634126163147109000,1.234109130859375,-0.07199885696172714,-0.06882782280445099,-0.06041142717003822
1634126163166988000,1.253988037109375,-0.13157786428928375,-0.08745485544204712,-0.027481134980916977
1634126163186867000,1.273866943359375,-0.1728493869304657,-0.04980015754699707,0.03472521901130676
1634126163206746000,1.29374609375,-0.1735519915819168,0.03149738907814026,0.13743364810943604
1634126163226626000,1.3136259765625,-0.17582325637340546,0.17454035580158234,0.20245541632175446
1634126163246504700,1.333504638671875,-0.18095600605010986,0.23618070781230927,0.16802269220352173
1634126163266383600,1.353383544921875,-0.18151754140853882,0.266424298286438,0.04134907200932503
1634126163286262800,1.3732626953125,-0.15422524511814117,0.3173764646053314,-0.05599389225244522
1634126163306142000,1.393141845703125,0.054465342313051224,0.2052142471075058,0.051205068826675415
1634126163326020600,1.4130205078125,0.329973965883255,0.10929766297340393,0.2912187874317169
1634126163345899800,1.432899658203125,0.5067334175109863,0.1135469600558281,0.416321337223053
1634126163365779700,1.45277978515625,0.575995683670044,0.12344974279403687,0.3165587782859802
1634126163385658600,1.47265869140625,0.5816664695739746,0.12810510396957397,0.06284567713737488
1634126163405537800,1.492537841796875,0.5635272264480591,0.04368489608168602,-0.3241390585899353
1634126163425416700,1.512416748046875,0.6237388849258423,0.05113695189356804,-0.7017619609832764
1634126163445295900,1.5322958984375,0.677830159664154,0.22400309145450592,-1.029767394065857
1634126163465174800,1.5521748046875,0.6195070147514343,0.6281567811965942,-1.1942620277404785
1634126163485053700,1.5720537109375,0.6204043626785278,0.8494212031364441,-1.1725764274597168
1634126163504934000,1.591933837890625,0.5956681966781616,0.6285022497177124,-1.0013928413391113
1634126163524812800,1.611812744140625,0.3704533874988556,0.5424221158027649,-0.867473304271698
1634126163544691700,1.631691650390625,0.10064175724983215,0.5112231373786926,-0.7163137793540955
1634126163564570600,1.651570556640625,-0.14453692734241486,0.44821780920028687,-0.45738157629966736
1634126163584449800,1.67144970703125,-0.3210834562778473,0.4376711845397949,-0.37002426385879517
1634126163604328700,1.69132861328125,-0.46292757987976074,0.4683544635772705,-0.46846771240234375
1634126163624207600,1.71120751953125,-0.5682231783866882,0.37825828790664673,-0.593464732170105
1634126163644087800,1.731087890625,-0.5954578518867493,0.20052777230739594,-0.6537731289863586
1634126163663966700,1.750966796875,-0.6467393636703491,0.011436523869633675,-0.6825961470603943
1634126163683845600,1.770845703125,-0.7740715742111206,-0.14997775852680206,-0.656473696231842
1634126163703724500,1.790724609375,-0.8138293027877808,-0.3018437922000885,-0.5560261011123657
1634126163723603700,1.810603759765625,-0.7683244347572327,-0.44527506828308105,-0.3952833116054535
1634126163743483000,1.83048291015625,-0.7059988379478455,-0.5124431848526001,-0.20606672763824463
1634126163763361800,1.85036181640625,-0.6366372108459473,-0.5589680671691895,-0.027774373069405556
1634126163783241700,1.87024169921875,-0.5476732850074768,-0.5304285883903503,0.11653656512498856
1634126163803121000,1.890120849609375,-0.48972615599632263,-0.47129321098327637,0.2552133798599243
1634126163822999800,1.909999755859375,-0.48880311846733093,-0.42860621213912964,0.4008147716522217
1634126163842878700,1.929878662109375,-0.49693453311920166,-0.3718968629837036,0.5270838141441345
1634126163862757600,1.949757568359375,-0.46335723996162415,-0.3027733564376831,0.6126305460929871
1634126163882636800,1.96963671875,-0.3762982487678528,-0.22964216768741608,0.6270999908447266
1634126163902515700,1.989515625,-0.21844959259033203,-0.17763084173202515,0.517818033695221
1634126163922395000,2.009394775390625,-0.11422239243984222,-0.1253148466348648,0.3506928086280823
1634126163942274800,2.02927490234375,-0.06878611445426941,-0.0717930793762207,0.21704335510730743
1634126163962153700,2.04915380859375,-0.036019157618284225,-0.09330140054225922,0.13604269921779633
1634126163982033000,2.069032958984375,-0.04312930628657341,-0.1731906235218048,0.09675930440425873
1634126164001911600,2.08891162109375,-0.0945088267326355,-0.2564278841018677,0.06680022925138474
1634126164021790700,2.108790771484375,-0.15898972749710083,-0.29487839341163635,0.06502976268529892
1634126164041670000,2.128669921875,-0.20011670887470245,-0.27427852153778076,0.10579811781644821
1634126164061549600,2.148549560546875,-0.23047058284282684,-0.2110617756843567,0.13977137207984924
1634126164081428700,2.1684287109375,-0.25566184520721436,-0.15236881375312805,0.14280708134174347
1634126164101307600,2.1883076171875,-0.30043166875839233,-0.16371563076972961,0.12099064141511917
1634126164121186800,2.208186767578125,-0.32063308358192444,-0.15472319722175598,0.09014963358640671
1634126164141065700,2.228065673828125,-0.31592750549316406,-0.10802774876356125,0.07816233485937119
1634126164160944600,2.247944580078125,-0.29818615317344666,-0.014234640635550022,0.0830068588256836
1634126164180823800,2.26782373046875,-0.2560310959815979,0.10429820418357849,0.09842085838317871
1634126164200703700,2.287703857421875,-0.18912522494792938,0.23708416521549225,0.12043242156505585
1634126164220582700,2.307582763671875,-0.13790619373321533,0.3658602237701416,0.16310757398605347
1634126164240462300,2.32746240234375,-0.07686427980661392,0.4581713080406189,0.22701825201511383
1634126164260341500,2.347341552734375,0.007932416163384914,0.4657963216304779,0.2417224496603012
1634126164280220200,2.36722021484375,0.0758381336927414,0.3667505979537964,0.13431401550769806
1634126164300099300,2.387099365234375,0.05202965438365936,0.149224191904068,-0.043369442224502563
1634126164319978200,2.406978271484375,0.022802263498306274,-0.03259926661849022,-0.20248427987098694
1634126164339858200,2.426858154296875,0.046477094292640686,-0.07957509160041809,-0.24298599362373352
1634126164359737300,2.4467373046875,0.14099667966365814,0.0006596865132451057,-0.17081943154335022
1634126164379616300,2.4666162109375,0.22966702282428741,0.131496861577034,-0.0368117056787014
1634126164399495400,2.486495361328125,0.24943873286247253,0.23121793568134308,0.07679121196269989
1634126164419374300,2.506374267578125,0.22942858934402466,0.20293781161308289,0.09042941778898239
1634126164439253200,2.526253173828125,0.17730678617954254,0.151824951171875,0.026615776121616364
1634126164459132400,2.54613232421875,0.11145654320716858,0.11952286213636398,-0.04288702458143234
1634126164479012400,2.566012451171875,0.10046465694904327,0.08537127077579498,-0.14898081123828888
1634126164498891300,2.585891357421875,0.1231498122215271,0.09249398857355118,-0.2736247479915619
1634126164518770200,2.605770263671875,0.16513241827487946,0.19327132403850555,-0.41253766417503357
1634126164538649300,2.6256494140625,0.19227385520935059,0.28612011671066284,-0.42575493454933167
1634126164558528500,2.645528564453125,0.20586222410202026,0.3576093018054962,-0.24715782701969147
1634126164578407200,2.6654072265625,0.22481997311115265,0.4164520800113678,0.06782712787389755
1634126164598286300,2.685286376953125,0.21678407490253448,0.6123244762420654,0.25495466589927673
1634126164618165200,2.705165283203125,0.11549904197454453,0.940640926361084,0.19739457964897156
1634126164638045200,2.725045166015625,-0.03091471828520298,1.2422852516174316,-0.010706953704357147
1634126164657924400,2.74492431640625,-0.08627185225486755,1.411351203918457,-0.1253385990858078
1634126164677803300,2.76480322265625,-0.04544639214873314,1.4127308130264282,-0.042564865201711655
1634126164697682400,2.784682373046875,0.029987428337335587,1.4066531658172607,0.1427089422941208
1634126164717561300,2.804561279296875,0.049186110496520996,1.3740583658218384,0.3258434534072876
1634126164737440300,2.824440185546875,0.007507462054491043,1.3156418800354004,0.3441846966743469
1634126164757319200,2.844319091796875,-0.03984532505273819,1.2363886833190918,0.22838567197322845
1634126164777199400,2.864199462890625,-0.08853989094495773,1.1529792547225952,0.05632948875427246
1634126164797078300,2.884078369140625,-0.15942227840423584,1.0672791004180908,-0.13412128388881683
1634126164816957200,2.903957275390625,-0.3148960471153259,0.9963444471359253,-0.37869736552238464
1634126164836836400,2.92383642578125,-0.5759915709495544,1.0871328115463257,-0.44615933299064636
1634126164856715300,2.94371533203125,-0.6631138920783997,1.0589913129806519,-0.4591977000236511
1634126164876594400,2.963594482421875,-0.5444030165672302,1.1590827703475952,-0.5204100012779236
1634126164896473300,2.983473388671875,-0.3924251198768616,1.075127363204956,-0.6728395223617554
1634126164916353300,3.003353271484375,-0.40388113260269165,0.9069176316261292,-0.8478967547416687
1634126164936232400,3.023232421875,-0.4853360652923584,0.7623723149299622,-0.8843176960945129
1634126164956111400,3.043111328125,-0.41491925716400146,0.5448904037475586,-0.7997941374778748
1634126164975990300,3.062990234375,-0.22575660049915314,0.45380309224128723,-0.6544666290283203
1634126164995869400,3.082869384765625,-0.02806340530514717,0.554253876209259,-0.510892391204834
1634126165015748400,3.102748291015625,0.20767691731452942,0.6215211153030396,-0.7289878726005554
1634126165035627300,3.122627197265625,0.32162103056907654,0.3000120222568512,-1.2160528898239136
1634126165055507500,3.142507568359375,0.3539867103099823,-0.2095569372177124,-1.6802533864974976
1634126165075386400,3.162386474609375,0.41753432154655457,-0.712739109992981,-1.8819825649261475
1634126165095265300,3.182265380859375,0.5520190000534058,-1.1545664072036743,-1.7531392574310303
1634126165115144200,3.202144287109375,0.7138177156448364,-1.2652288675308228,-1.410254955291748
1634126165135023400,3.2220234375,0.8195726871490479,-1.1595690250396729,-0.9401070475578308
1634126165154902300,3.24190234375,0.8384807109832764,-0.9327073097229004,-0.4651712477207184
1634126165174781400,3.261781494140625,0.7436438798904419,-0.7314521670341492,-0.1349630206823349
1634126165194661400,3.281661376953125,0.6097540259361267,-0.5101455450057983,-0.002138006268069148
1634126165214540300,3.301540283203125,0.5177693963050842,-0.39490753412246704,0.033576469868421555
1634126165234422800,3.3214228515625,0.499517023563385,-0.34039536118507385,0.016124414280056953
1634126165254301700,3.3413017578125,0.5008276700973511,-0.24828998744487762,-0.0753306895494461
1634126165274180600,3.3611806640625,0.4526730477809906,-0.21092258393764496,-0.18292945623397827
1634126165294059800,3.381059814453125,0.4110056757926941,-0.2534589469432831,-0.29074758291244507
1634126165313938700,3.400938720703125,0.37401196360588074,-0.3332199454307556,-0.4240725636482239
1634126165333818600,3.420818603515625,0.3275967240333557,-0.4267978370189667,-0.5480968952178955
1634126165353697800,3.44069775390625,0.2843480408191681,-0.4772220849990845,-0.6434928774833679
1634126165373576700,3.46057666015625,0.20921123027801514,-0.4397001564502716,-0.6532459855079651
1634126165393455600,3.48045556640625,0.14203034341335297,-0.3614228069782257,-0.592665433883667
1634126165413334500,3.50033447265625,0.10917221754789352,-0.3084036409854889,-0.44402363896369934
1634126165433213700,3.520213623046875,0.1012621819972992,-0.29711678624153137,-0.20490242540836334
1634126165453092900,3.5400927734375,0.07839224487543106,-0.36778709292411804,0.005396880675107241
1634126165472972500,3.55997265625,0.10911162942647934,-0.421090304851532,0.04247158020734787
1634126165492851700,3.579851806640625,0.14447121322155,-0.4880576431751251,-0.057756487280130386
1634126165512730600,3.599730712890625,0.15332964062690735,-0.610252320766449,-0.2580755949020386
1634126165532609800,3.61960986328125,0.12179920077323914,-0.8032046556472778,-0.5208906531333923
1634126165552488700,3.63948876953125,-0.05813293531537056,-1.1208945512771606,-1.0621782541275024
1634126165572367600,3.65936767578125,-0.3128567934036255,-1.6733094453811646,-1.8059122562408447
1634126165592247800,3.679247802734375,-0.427918404340744,-1.8849657773971558,-2.3828048706054688
1634126165612126500,3.69912646484375,-0.3559775948524475,-1.4343397617340088,-2.588121175765991
1634126165632005600,3.719005615234375,-0.27830401062965393,-0.3963780403137207,-2.6352663040161133
1634126165651884800,3.738884765625,-0.11230282485485077,-0.16129626333713531,-2.373852491378784
1634126165671763700,3.758763671875,0.17246344685554504,-0.00729739386588335,-1.812050223350525
1634126165691643000,3.778642822265625,0.4464073181152344,0.07282369583845139,-0.9993587732315063
1634126165711521500,3.798521484375,0.6969082951545715,-0.2049630582332611,0.01850256696343422
1634126165731401700,3.818401611328125,0.7276087403297424,-0.15124952793121338,1.009777307510376
1634126165751281000,3.838281005859375,0.5780777335166931,-0.026033753529191017,1.7674930095672607
1634126165771159600,3.85815966796875,0.4624071717262268,0.17371444404125214,2.15781831741333
1634126165791038700,3.878038818359375,0.4194982945919037,0.4429372549057007,2.1353251934051514
1634126165810917600,3.897917724609375,0.38324499130249023,0.7908337116241455,1.8101286888122559
1634126165830796800,3.917796875,0.30332398414611816,0.9569646716117859,1.48186194896698
1634126165850675500,3.937675537109375,0.19811664521694183,0.7985180020332336,1.2602250576019287
1634126165870555600,3.9575556640625,0.08455892652273178,0.6352759599685669,1.0635793209075928
1634126165890434800,3.977434814453125,-0.05773434787988663,0.4848700761795044,0.8887405395507812
1634126165910313700,3.997313720703125,-0.1934099793434143,0.37306836247444153,0.6588343381881714
1634126165930192600,4.017192626953125,-0.31726986169815063,0.22552552819252014,0.36782577633857727
1634126165950071800,4.03707177734375,-0.34081003069877625,0.056271880865097046,0.09561561048030853
1634126165969950700,4.05695068359375,-0.24222557246685028,0.023088321089744568,-0.012175566516816616
1634126165989830000,4.076829833984375,-0.03455423563718796,0.1589314192533493,0.12481876462697983
1634126166009709600,4.09670947265625,0.2152441442012787,0.29740461707115173,0.3478420078754425
1634126166029588700,4.116588623046875,0.5684703588485718,0.41528359055519104,0.5796040296554565
1634126166049468000,4.136468017578125,1.0156062841415405,0.7448064088821411,0.5350775718688965
1634126166069346600,4.1563466796875,1.445738434791565,0.769894540309906,0.0999377965927124
1634126166089225700,4.176225830078125,1.7287471294403076,0.3370242118835449,-0.5930047631263733
1634126166109104600,4.196104736328125,1.8765597343444824,-0.20790252089500427,-1.1701184511184692
1634126166128983800,4.21598388671875,2.038966178894043,-0.3680798411369324,-1.37185800075531
1634126166148863700,4.23586376953125,2.1488428115844727,-0.19932645559310913,-1.2780494689941406
1634126166168742700,4.25574267578125,2.1298954486846924,0.09107597917318344,-1.0817687511444092
1634126166188621800,4.275621826171875,1.9686261415481567,0.28158214688301086,-0.9691641330718994
1634126166208500700,4.295500732421875,1.730455994606018,0.3463737666606903,-0.928000271320343
1634126166228379600,4.315379638671875,1.5452094078063965,0.4108322858810425,-0.8859752416610718
1634126166248256000,4.335256103515625,1.4364415407180786,0.5108842849731445,-0.8458317518234253
1634126166268135000,4.355135009765625,1.340692162513733,0.5451014041900635,-0.8241109251976013
1634126166288014800,4.375014892578125,1.2135332822799683,0.5066083073616028,-0.8066887855529785
1634126166307893800,4.394893798828125,1.082999348640442,0.4628588855266571,-0.7493733167648315
1634126166327773000,4.41477294921875,0.9478044509887695,0.4163942039012909,-0.6446407437324524
1634126166347651800,4.43465185546875,0.8272219300270081,0.3420102000236511,-0.5434533357620239
1634126166367530800,4.45453076171875,0.7120238542556763,0.27124515175819397,-0.518538773059845
1634126166387410000,4.474409912109375,0.6104689240455627,0.2951902151107788,-0.5714277625083923
1634126166407288800,4.494288818359375,0.553494930267334,0.31148314476013184,-0.6107447147369385
1634126166427168800,4.514168701171875,0.5159822702407837,0.2969834804534912,-0.6831101179122925
1634126166447048000,4.5340478515625,0.4139400124549866,0.08195975422859192,-0.8047176599502563
1634126166466926800,4.5539267578125,0.20713375508785248,-0.043206505477428436,-0.9400797486305237
1634126166486806000,4.573805908203125,-0.08972135186195374,0.10509934276342392,-0.8836132884025574
1634126166506684700,4.5936845703125,-0.3452243208885193,0.36655867099761963,-0.5182381868362427
1634126166526563800,4.613563720703125,-0.470440536737442,0.38755664229393005,0.030703209340572357
1634126166546442800,4.63344287109375,-0.5068583488464355,0.14649270474910736,0.3841002583503723
1634126166566322700,4.65332275390625,-0.556124210357666,-0.19976162910461426,0.3841456472873688
1634126166586201900,4.673201904296875,-0.5783181190490723,-0.4167359173297882,0.2788509428501129
1634126166606080800,4.693080810546875,-0.5161089897155762,-0.45624780654907227,0.28557100892066956
1634126166625960000,4.7129599609375,-0.3996344208717346,-0.4300226867198944,0.38932356238365173
1634126166645838800,4.7328388671875,-0.29887276887893677,-0.46009865403175354,0.48380234837532043
1634126166665717800,4.7527177734375,-0.2632371187210083,-0.5172569155693054,0.5088772177696228
1634126166685597000,4.772596923828125,-0.29540252685546875,-0.4819566011428833,0.4763970971107483
1634126166705476900,4.792476806640625,-0.32525333762168884,-0.3350394666194916,0.4417533278465271
1634126166725355800,4.812355712890625,-0.3827178478240967,-0.11931522935628891,0.3807915449142456
1634126166745235000,4.83223486328125,-0.5164673328399658,0.13387784361839294,0.2777961790561676
1634126166765113900,4.85211376953125,-0.6529781818389893,0.3626191020011902,0.20015095174312592
1634126166784993000,4.871992919921875,-0.7337811589241028,0.5118786096572876,0.14854605495929718
1634126166804871700,4.89187158203125,-0.7670315504074097,0.5097718238830566,0.12251691520214081
1634126166824750800,4.911750732421875,-0.7620391249656677,0.3859579861164093,0.11021468043327332
1634126166844631000,4.931631103515625,-0.7625761032104492,0.2100273221731186,0.14393344521522522
1634126166864509700,4.951509765625,-0.7739453911781311,0.11701111495494843,0.19379347562789917
1634126166884388900,4.971388916015625,-0.7647334337234497,0.14105312526226044,0.26390501856803894
1634126166904267800,4.991267822265625,-0.6975651979446411,0.09028497338294983,0.36895182728767395
1634126166924147000,5.01114697265625,-0.5722304582595825,-0.012846721336245537,0.4042677879333496
1634126166944025900,5.03102587890625,-0.4527786374092102,-0.11635594069957733,0.33495843410491943
1634126166963904800,5.05090478515625,-0.36988523602485657,-0.16297945380210876,0.25465065240859985
1634126166983785000,5.070784912109375,-0.34413766860961914,-0.06926540285348892,0.16517946124076843
1634126167003664000,5.090663818359375,-0.3287714719772339,0.08312559872865677,0.037906769663095474
1634126167023542800,5.110542724609375,-0.2977670431137085,0.25705844163894653,-0.0530657097697258
1634126167043421700,5.130421630859375,-0.31986603140830994,0.3657258152961731,0.012110893614590168
1634126167063300900,5.15030078125,-0.3855521082878113,0.26344552636146545,0.06255649030208588
1634126167083180000,5.170179931640625,-0.47982168197631836,0.09178990870714188,0.04378154128789902
1634126167103058700,5.19005859375,-0.49976247549057007,0.09270848333835602,0.0782780572772026
1634126167122939000,5.20993896484375,-0.450074702501297,0.202500581741333,0.11312441527843475
1634126167142818000,5.229818115234375,-0.3796932101249695,0.2593827545642853,0.07035404443740845
1634126167162697000,5.249697021484375,-0.3179345428943634,0.21978837251663208,-0.0033937974367290735
1634126167182575900,5.269575927734375,-0.2387402206659317,0.15563993155956268,-0.03246775642037392
1634126167202454800,5.289454833984375,-0.16046489775180817,0.09819010645151138,-0.044546402990818024
1634126167222334000,5.309333984375,-0.10070738196372986,0.02339540421962738,-0.05569574981927872
1634126167242212600,5.329212646484375,-0.05192728340625763,-0.04260013997554779,-0.08185821026563644
1634126167262091500,5.349091552734375,-0.0190747007727623,-0.014249908737838268,-0.1146063432097435
1634126167281971700,5.3689716796875,-0.027978939935564995,0.1153235137462616,-0.173615962266922
1634126167301850600,5.3888505859375,-0.07416508346796036,0.2830222249031067,-0.23006325960159302
1634126167321729500,5.4087294921875,-0.11822494864463806,0.3957040309906006,-0.24665102362632751
1634126167341608400,5.4286083984375,-0.1335383802652359,0.4172651171684265,-0.20849809050559998
1634126167361487600,5.448487548828125,-0.1303374469280243,0.39884158968925476,-0.16366031765937805
1634126167381366800,5.46836669921875,-0.11047075688838959,0.4073425531387329,-0.15169772505760193
1634126167401246500,5.48824658203125,-0.053362369537353516,0.4399423599243164,-0.1864032745361328
1634126167421125600,5.508125732421875,0.042220745235681534,0.47187092900276184,-0.21835948526859283
1634126167441004500,5.528004638671875,0.11917140334844589,0.4597280025482178,-0.25189706683158875
1634126167460883700,5.5478837890625,0.16441941261291504,0.37533849477767944,-0.26445308327674866
1634126167480762600,5.5677626953125,0.18425773084163666,0.21417444944381714,-0.27645328640937805
1634126167500641500,5.5876416015625,0.17986245453357697,0.054685045033693314,-0.22311680018901825
1634126167520520700,5.607520751953125,0.15569359064102173,0.02633003517985344,-0.17426499724388123
1634126167540399600,5.627399658203125,0.12046424299478531,0.03146008029580116,-0.09983442723751068
1634126167560279600,5.647279541015625,0.09536239504814148,0.09766890853643417,-0.07818862795829773
1634126167580158700,5.66715869140625,0.05607326328754425,0.1656252145767212,-0.14389348030090332
1634126167600037600,5.68703759765625,0.015229693613946438,0.10982639342546463,-0.24532370269298553
1634126167619916800,5.706916748046875,-0.021951541304588318,0.05837041512131691,-0.26363733410835266
1634126167639795500,5.72679541015625,-0.04960842803120613,0.05316964536905289,-0.14778141677379608
1634126167659674600,5.746674560546875,-0.08544307947158813,0.022218622267246246,0.015050748363137245
1634126167679553500,5.766553466796875,-0.12245369702577591,0.06659799814224243,0.0879487693309784
1634126167699433500,5.78643359375,-0.1349610984325409,0.10818040370941162,0.057893820106983185
1634126167719312600,5.806312744140625,-0.1368994265794754,0.13073089718818665,-0.023092957213521004
1634126167739191600,5.826191650390625,-0.15397927165031433,0.045466020703315735,-0.06772590428590775
1634126167759070700,5.84607080078125,-0.17361310124397278,0.03343956544995308,-0.031851910054683685
1634126167778949400,5.865949462890625,-0.1628367155790329,-0.022985974326729774,0.09427889436483383
1634126167798828500,5.88582861328125,-0.15992623567581177,-0.04328295588493347,0.17094407975673676
1634126167818707700,5.905707763671875,-0.16003862023353577,-0.01734788902103901,0.17593085765838623
1634126167838586600,5.925586669921875,-0.15025177597999573,0.02456146851181984,0.15567909181118011
1634126167858466600,5.945466552734375,-0.12732887268066406,0.08081675320863724,0.1557038277387619
1634126167878345700,5.965345703125,-0.10914312303066254,0.09014363586902618,0.14505015313625336
1634126167898224600,5.985224609375,-0.11000528186559677,0.05245795100927353,0.11966758221387863
1634126167918103800,6.005103759765625,-0.11977970600128174,-0.013308227062225342,0.13183905184268951
1634126167937982500,6.024982421875,-0.13501325249671936,-0.03763248026371002,0.16204114258289337
1634126167957861600,6.044861572265625,-0.13220058381557465,-0.0034679006785154343,0.19931311905384064
1634126167977740500,6.064740478515625,-0.10419372469186783,0.015044531784951687,0.1894567608833313
1634126167997620500,6.084620361328125,-0.06620848923921585,0.04840034618973732,0.1360887885093689
1634126168017499600,6.104499755859375,-0.03479423373937607,0.01454536709934473,0.07405959069728851
1634126168037378600,6.124378662109375,-0.01729544810950756,-0.016347942873835564,0.03126007691025734
1634126168057257700,6.1442578125,-0.01217139046639204,-0.04011140018701553,0.004827516619116068
1634126168077136600,6.16413671875,0.005944045260548592,-0.015993312001228333,0.004024103283882141
1634126168097015600,6.184015625,0.00723453052341938,0.015835091471672058,0.034610193222761154
1634126168116894700,6.203894775390625,0.008158203214406967,0.057999543845653534,0.05224698409438133
1634126168136774700,6.223774658203125,-0.014423408545553684,-0.09363864362239838,0.057994771748781204
1634126168156653600,6.243653564453125,-0.041536472737789154,-0.16615800559520721,0.052731953561306
1634126168176532500,6.263532470703125,-0.07046123594045639,-0.10449455678462982,0.10571340471506119
1634126168196411600,6.28341162109375,-0.07887741178274155,-0.03276908025145531,0.14351631700992584
1634126168216290800,6.303290771484375,-0.057359155267477036,0.001484006643295288,0.15995308756828308
1634126168236169500,6.32316943359375,-0.02343151345849037,0.0015330035239458084,0.10849540680646896
1634126168256048600,6.343048583984375,0.00381161505356431,-0.030875314027071,0.04909338429570198
1634126168275927600,6.362927490234375,0.019804339855909348,-0.037795890122652054,0.00042678811587393284
1634126168295807500,6.382807373046875,0.020012198016047478,0.0025314930826425552,-0.007908498868346214
1634126168315686400,6.402686279296875,0.02128811739385128,0.033082347363233566,0.011246567592024803
1634126168335565600,6.422565673828125,0.003932740073651075,0.0281857717782259,0.03786007687449455
1634126168355444700,6.44244482421875,-0.02559709921479225,-0.02345602959394455,0.02909587137401104
1634126168375323600,6.46232373046875,-0.049162209033966064,-0.07581610977649689,-0.015515678562223911
1634126168395202600,6.48220263671875,-0.04606024920940399,-0.084096759557724,-0.035173818469047546
1634126168415081500,6.50208154296875,-0.01666894368827343,-0.06666044145822525,-0.02615218050777912
1634126168434960600,6.521960693359375,-0.01446925662457943,-0.05720498785376549,-0.05302884802222252
1634126168454840600,6.541840576171875,-0.028010183945298195,-0.060545746237039566,-0.11363735795021057
1634126168474719500,6.561719482421875,-0.025879796594381332,-0.021388545632362366,-0.17026688158512115
1634126168494598700,6.5815986328125,-0.0050801001489162445,0.0082688694819808,-0.2059507817029953
1634126168514477600,6.6014775390625,0.023622602224349976,0.04682867228984833,-0.2247067242860794
1634126168534356500,6.6213564453125,0.04557899385690689,0.07287866622209549,-0.20958572626113892
1634126168554235400,6.6412353515625,0.04631463810801506,0.0512981079518795,-0.19042101502418518
1634126168574114600,6.661114501953125,0.02838863432407379,0.033214714378118515,-0.1814754605293274
1634126168593994500,6.680994384765625,0.038753706961870193,0.03186938539147377,-0.14712218940258026
1634126168613873400,6.700873291015625,0.07730549573898315,0.023342015221714973,-0.12137910723686218
1634126168633752600,6.720752685546875,0.1037222295999527,0.004170439206063747,-0.1074487492442131
1634126168653631700,6.7406318359375,0.11974921822547913,-0.006768014747649431,-0.10576805472373962
1634126168673510700,6.7605107421875,0.13345438241958618,-0.027804464101791382,-0.10117307305335999
1634126168693389600,6.7803896484375,0.14448048174381256,-0.02728610672056675,-0.06990402936935425
1634126168713268500,6.8002685546875,0.14547166228294373,-0.041524142026901245,-0.012321561574935913
1634126168733147600,6.820147705078125,0.12837865948677063,-0.07582458108663559,0.04437937214970589
1634126168753027600,6.840027587890625,0.0909629762172699,-0.15026186406612396,0.07607882469892502
1634126168772906500,6.859906494140625,0.07056529819965363,-0.2059139460325241,0.10854408890008926
1634126168792785700,6.87978564453125,0.06119345501065254,-0.17218492925167084,0.1506742537021637
1634126168812664600,6.89966455078125,0.058537837117910385,-0.10777374356985092,0.16372454166412354
1634126168832543500,6.91954345703125,0.06896926462650299,-0.10277211666107178,0.14271990954875946
1634126168852422400,6.93942236328125,0.07820750027894974,-0.1565525084733963,0.12775535881519318
1634126168872301600,6.959301513671875,0.09145575016736984,-0.16223947703838348,0.10696856677532196
1634126168892180700,6.9791806640625,0.10501820594072342,-0.14615492522716522,0.1409488171339035
1634126168912060400,6.999060302734375,0.10656347125768661,-0.09427700191736221,0.14184705913066864
1634126168931939600,7.018939697265625,0.08851047605276108,-0.08398697525262833,0.10592993348836899
1634126168951818500,7.038818603515625,0.08599746972322464,-0.056145332753658295,0.03858032822608948
1634126168971697700,7.05869775390625,0.08343488723039627,-0.04192560538649559,0.003564548911526799
1634126168991576600,7.07857666015625,0.0648280456662178,-0.015367562882602215,-0.02454550936818123
1634126169011455500,7.09845556640625,0.03349826857447624,0.0005593793466687202,-0.005365175660699606
1634126169031334700,7.118334716796875,0.01172683760523796,-0.004738800227642059,0.039778076112270355
1634126169051213600,7.138213623046875,-0.022615643218159676,-0.04724540561437607,0.09600605070590973
1634126169071093500,7.158093505859375,-0.05806747451424599,-0.11805494874715805,0.11504130065441132
1634126169090972700,7.17797265625,-0.08016674220561981,-0.17470912635326385,0.11480693519115448
1634126169110851600,7.1978515625,-0.08611375093460083,-0.19188135862350464,0.12140733003616333
1634126169130730800,7.217730712890625,-0.10256516188383102,-0.18189065158367157,0.11749351024627686
1634126169150609400,7.237609375,-0.12662142515182495,-0.16636180877685547,0.11118797212839127
1634126169170488600,7.257488525390625,-0.14493006467819214,-0.14099308848381042,0.09199787676334381
1634126169190367500,7.277367431640625,-0.15570566058158875,-0.10977169871330261,0.06295796483755112
1634126169210246700,7.29724658203125,-0.143913134932518,-0.09392883628606796,0.02240057848393917
1634126169230126600,7.317126708984375,-0.12369655072689056,-0.09365227073431015,-0.004815876949578524
1634126169250005500,7.337005615234375,-0.12146752327680588,-0.08571616560220718,-0.04310908913612366
1634126169269884700,7.356884765625,-0.153212770819664,-0.06861142069101334,-0.07526590675115585
1634126169289763600,7.376763671875,-0.1956920027732849,-0.06341149657964706,-0.09153106808662415
1634126169309642500,7.396642578125,-0.2275165170431137,-0.12969864904880524,-0.11562524735927582
1634126169329521700,7.416521728515625,-0.27181383967399597,-0.24938592314720154,-0.13903996348381042
1634126169349400600,7.436400634765625,-0.32453271746635437,-0.26827186346054077,-0.10376401245594025
1634126169369280500,7.456280517578125,-0.32930541038513184,-0.1628907024860382,0.008829520083963871
1634126169389159700,7.47615966796875,-0.2817632853984833,-0.07579252123832703,0.11671120673418045
1634126169409038600,7.49603857421875,-0.2151104062795639,-0.060278572142124176,0.1438073068857193
1634126169428917800,7.515917724609375,-0.13755524158477783,-0.00128178671002388,0.15547434985637665
1634126169448796400,7.53579638671875,-0.03420271351933479,0.10593293607234955,0.22823099792003632
1634126169468675600,7.555675537109375,0.11775220930576324,0.058236103504896164,0.17953450977802277
1634126169488554500,7.575554443359375,0.2486666440963745,-0.05889441817998886,0.025750035420060158
1634126169508433700,7.59543359375,0.31863293051719666,-0.06037101149559021,0.09272878617048264
1634126169528312600,7.6153125,0.3379574120044708,0.024889137595891953,0.37528741359710693
1634126169548192500,7.635192626953125,0.3266795575618744,-0.10047906637191772,0.639197051525116
1634126169568071700,7.65507177734375,0.2959190607070923,-0.35121890902519226,0.6545044183731079
1634126169587950600,7.67495068359375,0.2817116379737854,-0.4915930926799774,0.5676107406616211
1634126169607829500,7.69482958984375,0.27502724528312683,-0.4356354773044586,0.5180693864822388
1634126169627708700,7.714708740234375,0.24185453355312347,-0.2542383372783661,0.4755699336528778
1634126169647587600,7.734587646484375,0.1979590654373169,-0.1429159790277481,0.4150107204914093
1634126169667466800,7.754466796875,0.1446698009967804,-0.14385530352592468,0.3078566789627075
1634126169687345400,7.774345458984375,0.07355091720819473,-0.14979498088359833,0.17932763695716858
1634126169707225600,7.7942255859375,0.02304180897772312,-0.11537396907806396,0.11665874719619751
1634126169727104800,7.814104736328125,-0.004364032298326492,-0.057132333517074585,0.05924622341990471
1634126169746983400,7.8339833984375,-0.02022523619234562,-0.005291275680065155,-0.041424114257097244
1634126169766862600,7.853862548828125,-0.03941473364830017,0.02617069147527218,-0.16802199184894562
1634126169786741500,7.873741455078125,-0.0637509748339653,0.0633726716041565,-0.24001756310462952
1634126169806620700,7.89362060546875,-0.07753250747919083,0.07567071169614792,-0.23100563883781433
1634126169826499600,7.91349951171875,-0.06608828902244568,0.07355118542909622,-0.14912167191505432
1634126169846378500,7.93337841796875,-0.04017364978790283,0.03341738134622574,-0.06821946799755096
1634126169866258700,7.9532587890625,-0.022871484979987144,-0.008060898631811142,-0.03068532422184944
1634126169886137600,7.9731376953125,-0.01169646717607975,-0.04830331355333328,-0.01704283244907856
1634126169906016500,7.9930166015625,0.0023552137427031994,-0.038575075566768646,-0.02170615829527378
1634126169925895400,8.0128955078125,0.014887562952935696,-0.03953743353486061,-0.05346795916557312
1634126169945774600,8.032774658203126,0.01057385839521885,-0.02156539261341095,-0.09975313395261765
1634126169965653800,8.05265380859375,-0.009554702788591385,-0.03260614350438118,-0.08603326976299286
1634126169985532400,8.072532470703125,-0.05050813406705856,-0.06624618917703629,-0.042325571179389954
1634126170005411600,8.09241162109375,-0.11400587856769562,-0.084256611764431,0.017526578158140182
1634126170025291800,8.112291748046875,-0.15547387301921844,-0.09382939338684082,0.03633672744035721
1634126170045170400,8.13217041015625,-0.15920394659042358,-0.0798240676522255,0.015021239407360554
1634126170065049600,8.152049560546875,-0.11839711666107178,-0.0699181780219078,0.008562779054045677
1634126170084928500,8.171928466796874,-0.08369915187358856,-0.0060159871354699135,-0.024251647293567657
1634126170104807700,8.1918076171875,-0.0794997438788414,-0.0347885824739933,-0.054711174219846725
1634126170124686600,8.2116865234375,-0.08487343788146973,-0.019300436601042747,-0.0701487585902214
1634126170144565500,8.2315654296875,-0.08416320383548737,0.000008545815944671631,-0.049359552562236786
1634126170164444700,8.251444580078125,-0.06666570156812668,0.006196801550686359,-0.036861587315797806
1634126170184324600,8.27132470703125,-0.030744455754756927,0.039326395839452744,-0.04177510365843773
1634126170204203500,8.29120361328125,0.004923079628497362,0.1043880432844162,-0.07827743887901306
1634126170224082400,8.31108251953125,0.04756419360637665,0.1649932563304901,-0.14887702465057373
1634126170243965200,8.330965087890625,0.08588002622127533,0.15985646843910217,-0.19050373136997223
1634126170263844000,8.350843994140625,0.07842326164245605,0.11536391824483871,-0.1971869319677353
1634126170283723000,8.370722900390625,0.042735349386930466,0.10151813924312592,-0.17020654678344727
1634126170303602000,8.390601806640625,0.01697334460914135,0.11448051035404205,-0.13832183182239532
1634126170323481000,8.410481201171875,0.0010116001358255744,0.09203383326530457,-0.09354610741138458
1634126170343361000,8.430361083984375,0.0020685207564383745,0.05370619148015976,-0.047999393194913864
1634126170363240000,8.450239990234374,-0.0063485680148005486,0.024625610560178757,-0.004238130524754524
1634126170383119000,8.470119140625,-0.012460034340620041,-0.002888549119234085,0.010154522024095058
1634126170402998000,8.489998046875,-0.02582911029458046,-0.009814352728426456,0.010129278525710106
1634126170422877200,8.509877197265626,-0.03528820723295212,0.012502704747021198,0.016107508912682533
1634126170442756000,8.529756103515625,-0.02300584316253662,0.041676368564367294,0.01478351280093193
1634126170462635000,8.549635009765625,-0.018253743648529053,0.019636206328868866,0.02645655907690525
1634126170482514200,8.56951416015625,-0.022614408284425735,0.0162019282579422,0.020552610978484154
1634126170502393000,8.58939306640625,-0.019679779186844826,0.00937633402645588,0.001936306245625019
1634126170522273000,8.60927294921875,-0.01860363967716694,-0.03534184768795967,-0.026730094105005264
1634126170542152200,8.629152099609374,-0.041529152542352676,-0.054448451846838,-0.04340614005923271
1634126170562031000,8.649031005859374,-0.06815095245838165,-0.036415230482816696,-0.04737197607755661
1634126170581910000,8.668909912109376,-0.10072505474090576,0.02272607758641243,-0.023982226848602295
1634126170601789000,8.688788818359376,-0.11685538291931152,0.06307382136583328,-0.0005064386641606688
1634126170621668000,8.708668212890625,-0.09898081421852112,0.08772312104701996,-0.00023920659441500902
1634126170641547000,8.728547119140625,-0.08660506457090378,0.037486955523490906,-0.010347379371523857
1634126170661426200,8.74842626953125,-0.09642653167247772,-0.04135579615831375,-0.015258794650435448
1634126170681306000,8.76830615234375,-0.11910481750965118,-0.05069023370742798,-0.0012908796779811382
1634126170701185000,8.78818505859375,-0.13352875411510468,0.007892104797065258,0.03428144007921219
1634126170721064200,8.808064208984375,-0.12872987985610962,0.049020301550626755,0.05503825843334198
1634126170740942800,8.82794287109375,-0.1207851767539978,0.023440532386302948,0.038162216544151306
1634126170760822000,8.847822021484374,-0.113020159304142,-0.04613017663359642,0.032376378774642944
1634126170780701200,8.867701171875,-0.11840187013149261,-0.08125275373458862,0.07823092490434647
1634126170800580000,8.887580078125,-0.11293640732765198,-0.08526498824357986,0.1311931312084198
1634126170820459000,8.907458984375,-0.10379625856876373,-0.0939180999994278,0.13991256058216095
1634126170840339200,8.927339111328125,-0.09507094323635101,-0.12777593731880188,0.10553327202796936
1634126170860218000,8.947218017578125,-0.08194909244775772,-0.15133795142173767,0.044572148472070694
1634126170880097000,8.967096923828125,-0.09229868650436401,-0.16549181938171387,0.030579986050724983
1634126170899976000,8.986975830078125,-0.12097342312335968,-0.13086503744125366,0.08037613332271576
1634126170919855000,9.006855224609374,-0.15841253101825714,-0.07390940934419632,0.1329054981470108
1634126170939734000,9.026734130859374,-0.17098328471183777,-0.012608989141881466,0.14190034568309784
1634126170959613200,9.04661328125,-0.144467294216156,0.009705403819680214,0.09914451837539673
1634126170979492000,9.0664921875,-0.10264842957258224,-0.03675507754087448,0.04200541228055954
1634126170999372000,9.0863720703125,-0.06428928673267365,-0.07161852717399597,0.025713717564940453
1634126171019251200,9.106251220703125,-0.04183093458414078,-0.05119417607784271,0.06897487491369247
1634126171039129900,9.1261298828125,-0.0263742133975029,-0.026663266122341156,0.10750947892665863
1634126171059009000,9.146009033203125,-0.019543077796697617,-0.04161323979496956,0.10032790154218674
1634126171078888200,9.16588818359375,-0.0001810905523598194,-0.05401786044239998,0.06774568557739258
1634126171098767000,9.18576708984375,-0.0024583579506725073,-0.05994992330670357,0.03737524896860123
1634126171118646300,9.205646240234374,-0.006649107672274113,-0.025397539138793945,0.050843652337789536
1634126171138525000,9.22552490234375,-0.0005286356899887323,-0.006696546915918589,0.06364469975233078
1634126171158404000,9.245404052734376,0.03012044169008732,-0.039976783096790314,0.07321237027645111
1634126171178284300,9.2652841796875,0.06408067792654037,-0.0654384046792984,0.05683349817991257
1634126171198163000,9.285162841796875,0.07989501953125,-0.08604046702384949,0.026843519881367683
1634126171218042000,9.3050419921875,0.08025182783603668,-0.07951835542917252,0.025564562529325485
1634126171237921000,9.324921142578125,0.0767090767621994,-0.041690174490213394,0.017160015180706978
1634126171257796000,9.344796142578126,0.040756840258836746,0.0031090304255485535,-0.041370145976543427
1634126171277675300,9.36467529296875,-0.010527163743972778,0.038415782153606415,-0.11503756046295166
1634126171297554000,9.384553955078125,-0.04263490065932274,0.05715199187397957,-0.12648607790470123
1634126171317433000,9.40443310546875,-0.04254874587059021,0.07502785325050354,-0.09627345949411392
1634126171337312000,9.42431201171875,-0.04500475525856018,0.0678396001458168,-0.0756029561161995
1634126171357192000,9.44419189453125,-0.03613048419356346,0.04693281650543213,-0.07567457854747772
1634126171377071000,9.464071044921875,-0.015456806868314743,0.03352974355220795,-0.0860300213098526
1634126171396950000,9.483949951171875,0.0072529930621385574,0.036199044436216354,-0.09745913743972778
1634126171416829200,9.5038291015625,0.04754142835736275,0.00805975403636694,-0.11539299041032791
1634126171436708000,9.5237080078125,0.0786212682723999,-0.06215379759669304,-0.15755733847618103
1634126171456587000,9.5435869140625,0.09814751893281937,-0.0951753780245781,-0.16811348497867584
1634126171476466200,9.563466064453126,0.11999964714050293,-0.1161695122718811,-0.14349597692489624
1634126171496345000,9.583344970703125,0.152797669172287,-0.11993848532438278,-0.08973167091608047
1634126171516225000,9.60322509765625,0.19107329845428467,-0.12780113518238068,-0.05478717014193535
1634126171536104000,9.62310400390625,0.21965979039669037,-0.11928801983594894,-0.04173063114285469
1634126171555983000,9.642983154296875,0.25907355546951294,-0.09417015314102173,-0.01670311763882637
1634126171575862300,9.6628623046875,0.3023906946182251,-0.09865466505289078,0.009525768458843231
1634126171595741000,9.682740966796874,0.3441846966743469,-0.1186884269118309,0.02803395316004753
1634126171615620000,9.7026201171875,0.39763620495796204,-0.15467436611652374,0.05423162877559662
1634126171635499000,9.7224990234375,0.441864013671875,-0.228244811296463,0.06389009952545166
1634126171655378200,9.742378173828126,0.46309223771095276,-0.2931448221206665,0.063265860080719
1634126171675258000,9.762258056640626,0.4790218472480774,-0.33314090967178345,0.05974858999252319
1634126171695137000,9.782136962890625,0.45906227827072144,-0.324729859828949,0.03966183215379715
1634126171715016200,9.80201611328125,0.41283994913101196,-0.2620958983898163,0.024750597774982452
1634126171734895000,9.82189501953125,0.35866281390190125,-0.1956600695848465,0.01597893424332142
1634126171754774000,9.84177392578125,0.3160831034183502,-0.1825086921453476,0.01580088585615158
1634126171774653000,9.86165283203125,0.275106817483902,-0.194181427359581,0.003297859337180853
1634126171794532000,9.881531982421874,0.21359631419181824,-0.16771891713142395,-0.013875268399715424
1634126171814411300,9.901411376953124,0.14139121770858765,-0.11455336213111877,-0.038222264498472214
1634126171834290000,9.9212900390625,0.06216035783290863,-0.05252305045723915,-0.06591610610485077
1634126171854170000,9.941170166015626,0.009439351968467236,0.02313842996954918,-0.0692514181137085
1634126171874049300,9.96104931640625,-0.02319204807281494,0.0440446212887764,-0.0898071750998497
1634126171893928000,9.980927978515625,-0.05334080383181572,0.04024476930499077,-0.12521737813949585
1634126171913807000,10.00080712890625,-0.07034154236316681,0.06876466423273087,-0.12412597239017487
1634126171933686000,10.02068603515625,-0.051303137093782425,0.10642123222351074,-0.09144525974988937
1634126171953565200,10.040565185546875,0.004003802314400673,0.11239708214998245,-0.07176695019006729
1634126171973444000,10.060444091796874,0.06038140878081322,0.07130100578069687,-0.06542966514825821
1634126171993323000,10.080322998046874,0.1267828494310379,0.06367793679237366,-0.02311461605131626
1634126172013203200,10.100203125,0.21066723763942719,0.05394987761974335,0.04602811112999916
1634126172033082000,10.12008203125,0.29287099838256836,0.0031948592513799667,0.09143492579460144
1634126172052961000,10.1399609375,0.3681853115558624,-0.05740861967206001,0.09355070441961288
1634126172072840000,10.15983984375,0.42741498351097107,-0.12380584329366684,0.08524269610643387
1634126172092719000,10.179718994140625,0.44367942214012146,-0.17903903126716614,0.09144756942987442
1634126172112598300,10.199598388671875,0.4368586838245392,-0.14956921339035034,0.0931374654173851
1634126172132477000,10.219476806640625,0.4134882390499115,-0.16400068998336792,0.1041489839553833
1634126172152356000,10.239356201171875,0.3829556405544281,-0.1761590838432312,0.09808629751205444
1634126172172235000,10.259235107421874,0.35219377279281616,-0.1798395961523056,0.12739607691764832
1634126172192115000,10.279114990234374,0.30409306287765503,-0.13840770721435547,0.15529409050941467
1634126172211994000,10.298994140625,0.23993737995624542,-0.07336312532424927,0.18097038567066193
1634126172231873000,10.318873046875,0.20613443851470947,-0.038242585957050323,0.15874749422073364
1634126172251753200,10.338753173828126,0.21889866888523102,-0.07179293036460876,0.10635606199502945
1634126172271632400,10.35863232421875,0.2521727681159973,-0.12358276546001434,0.09056740254163742
1634126172291511300,10.37851123046875,0.2766704559326172,-0.12382035702466965,0.16747426986694336
1634126172311390500,10.398390380859375,0.29077374935150146,-0.10698172450065613,0.3321487009525299
1634126172331269400,10.418269287109375,0.26396384835243225,-0.131649449467659,0.4813328981399536
1634126172351148300,10.438148193359375,0.15931788086891174,-0.18752124905586243,0.5549245476722717
1634126172371028500,10.458028564453125,0.0032122668344527483,-0.27757197618484497,0.6095313429832458
1634126172390907400,10.477907470703125,-0.22163811326026917,-0.17515386641025543,0.7990164756774902
1634126172410786300,10.497786376953124,-0.4181946814060211,0.1330914944410324,1.2538093328475952
1634126172430665200,10.517665283203126,-0.4143696129322052,0.39770999550819397,1.7067995071411133
1634126172450544400,10.53754443359375,-0.24506612122058868,0.4858710467815399,1.8529605865478516
1634126172470423300,10.55742333984375,-0.0032008537091314793,0.3262823224067688,1.6909748315811157
1634126172490302200,10.57730224609375,0.18371421098709106,0.17148475348949432,1.3555445671081543
1634126172510181400,10.597181396484375,0.31386232376098633,-0.04095131903886795,1.0457814931869507
1634126172530060300,10.617060302734375,0.47897422313690186,-0.06323248147964478,0.8175470232963562
1634126172549940200,10.636940185546875,0.5746198296546936,-0.17350508272647858,0.7649544477462769
1634126172569819100,10.656819091796875,0.5856711864471436,-0.5264079570770264,0.6211323142051697
1634126172589698300,10.6766982421875,0.45710083842277527,-0.8725525140762329,0.46519172191619873
1634126172609577500,10.696577392578124,0.2583998739719391,-1.0508686304092407,0.6525161862373352
1634126172629456400,10.716456298828126,-0.019837304949760437,-1.1178383827209473,1.236330270767212
1634126172649335300,10.736335205078126,-0.46026521921157837,-0.8289214968681335,1.8118308782577515
1634126172669214200,10.756214111328125,-0.8711041212081909,-0.9803552031517029,1.929880976676941
1634126172689093400,10.77609326171875,-1.1492884159088135,-1.5265554189682007,1.619731068611145
1634126172708972300,10.79597216796875,-1.3208556175231934,-1.9693468809127808,1.108589768409729
1634126172728852200,10.815852294921875,-1.5028536319732666,-1.9259692430496216,0.6715089678764343
1634126172748731400,10.8357314453125,-1.641740083694458,-1.2569862604141235,0.47239628434181213
1634126172768610300,10.8556103515625,-1.6656365394592285,-0.6433905959129333,0.38620704412460327
1634126172788489200,10.8754892578125,-1.5378159284591675,-0.3732547461986542,0.25843000411987305
1634126172808368000,10.8953681640625,-1.3527908325195312,-0.519554078578949,0.11640339344739914
1634126172828247300,10.915247314453126,-1.2445207834243774,-0.727411687374115,-0.01460256427526474
1634126172848126500,10.93512646484375,-1.1480460166931152,-0.8207008242607117,0.007703860756009817
1634126172868005400,10.95500537109375,-0.9950245022773743,-0.7298393845558167,0.06492768228054047
1634126172887884300,10.97488427734375,-0.8674343824386597,-0.592544436454773,0.09416400641202927
1634126172907764500,10.994764404296875,-0.7856939435005188,-0.4095529615879059,0.1434592753648758
1634126172927643400,11.014643310546875,-0.7311941385269165,-0.30465707182884216,0.021746108308434486
1634126172947522300,11.034522216796875,-0.6818124651908875,-0.3183647692203522,-0.43226358294487
1634126172967401200,11.054401123046874,-0.7163494825363159,-0.15590858459472656,-0.5288646817207336
1634126172987280400,11.0742802734375,-0.6289727091789246,0.29270312190055847,-0.16245579719543457
1634126173007159300,11.0941591796875,-0.30850735306739807,0.6423252820968628,-0.09482576698064804
1634126173027038200,11.1140380859375,-0.0339227169752121,0.6488752365112305,-0.16422472894191742
1634126173046917400,11.13391748046875,0.09173986315727234,0.6132713556289673,-0.16905218362808228
1634126173066796300,11.15379638671875,0.08240477740764618,0.4502711892127991,-0.18835534155368805
1634126173086676500,11.173676513671875,-0.023894857615232468,0.2339559644460678,-0.2765064835548401
1634126173106555100,11.19355517578125,-0.22465281188488007,0.09099473059177399,-0.4121735095977783
1634126173126434300,11.213434326171875,-0.4070686399936676,-0.049100879579782486,-0.4601674973964691
1634126173146313500,11.2333134765625,-0.5009610056877136,-0.09854834526777267,-0.28908056020736694
1634126173166192400,11.2531923828125,-0.4917757213115692,-0.09048166871070862,-0.13450555503368378
1634126173186071300,11.2730712890625,-0.49294713139533997,0.03186323493719101,-0.012792806141078472
1634126173205950200,11.2929501953125,-0.5150079131126404,0.059272319078445435,0.03318942338228226
1634126173225829400,11.312829345703125,-0.4756386876106262,-0.09743361175060272,0.004975845571607351
1634126173245707300,11.332707275390625,-0.3915071189403534,-0.2980712056159973,-0.0376303531229496
1634126173265587500,11.35258740234375,-0.29832592606544495,-0.2606455981731415,0.034914158284664154
1634126173285466400,11.37246630859375,-0.2638387382030487,-0.015691149979829788,0.21554794907569885
1634126173305345300,11.39234521484375,-0.2608950138092041,0.2066410332918167,0.31159254908561707
1634126173325224400,11.412224365234374,-0.2570561468601227,0.18395216763019562,0.2172333300113678
1634126173345103400,11.432103271484374,-0.23045167326927185,-0.02421249821782112,0.07815150916576385
1634126173364982300,11.451982177734376,-0.189374640583992,-0.17267383635044098,0.0360809825360775
1634126173384861200,11.471861083984376,-0.19394749402999878,-0.12642714381217957,0.11645477265119553
1634126173404740400,11.491740234375,-0.2062785029411316,-0.034904398024082184,0.2361975461244583
1634126173424619500,11.51161962890625,-0.16342513263225555,0.0028109299018979073,0.2804510295391083
1634126173444499200,11.531499267578125,-0.1088702455163002,-0.05405861884355545,0.2168588936328888
1634126173464378400,11.55137841796875,-0.11267951130867004,-0.17181406915187836,0.09478002786636353
1634126173484257300,11.57125732421875,-0.11805583536624908,-0.22646138072013855,0.0242965929210186
1634126173504136400,11.591136474609375,-0.09610313922166824,-0.22292429208755493,0.05670168623328209
1634126173524015400,11.611015380859374,-0.0442177876830101,-0.11835797131061554,0.10429970175027847
1634126173543894300,11.630894287109374,0.002094798255711794,-0.0701291561126709,0.1392168253660202
1634126173563773400,11.6507734375,0.018082549795508385,-0.055626239627599716,0.14104430377483368
1634126173583652400,11.67065234375,-0.011591272428631783,-0.07621005177497864,0.11539802700281143
1634126173603531300,11.69053125,-0.03989318385720253,-0.10687702149152756,0.05620678886771202
1634126173623411500,11.710411376953125,-0.07144462317228317,-0.20451894402503967,0.04151863604784012
1634126173643290400,11.730290283203125,-0.06036143749952316,-0.1636497527360916,0.07336953282356262
1634126173663169300,11.750169189453125,-0.027354344725608826,-0.11935640871524811,0.11500947177410126
1634126173683048200,11.770048095703125,-0.026783369481563568,-0.11674103140830994,0.10699952393770218
1634126173702927400,11.78992724609375,-0.031362760812044144,-0.09115507453680038,0.07208413630723953
1634126173722806300,11.80980615234375,-0.025047162547707558,-0.17638364434242249,0.028219999745488167
1634126173742685400,11.829685546875,-0.008051271550357342,-0.16234232485294342,0.004471415653824806
1634126173762564400,11.849564453125,-0.006156603805720806,-0.15424597263336182,0.015491805970668793
1634126173782443300,11.869443359375,-0.035882189869880676,-0.13495247066020966,0.07546010613441467
1634126173802323500,11.889323486328125,-0.0404338464140892,-0.13806767761707306,0.13927997648715973
1634126173822202000,11.9092021484375,-0.00987273920327425,-0.15123553574085236,0.1406240463256836
1634126173842081300,11.929081298828125,0.03237179294228554,-0.1981113851070404,0.07052788883447647
1634126173861960400,11.94896044921875,0.06780305504798889,-0.22007343173027039,-0.025155331939458847
1634126173881839400,11.96883935546875,0.14456571638584137,-0.15067435801029205,-0.09141653776168823
1634126173901718300,11.98871826171875,0.28369420766830444,-0.09401077777147293,-0.10924401134252548
1634126173921597200,12.00859716796875,0.4843105673789978,-0.049016743898391724,-0.1137324646115303
1634126173941476400,12.028476318359376,0.7052015066146851,-0.022803036496043205,-0.1464070826768875
1634126173961355300,12.048355224609375,0.8672118186950684,-0.004085445776581764,-0.13408541679382324
1634126173981235200,12.068235107421875,1.0316929817199707,-0.05541398376226425,-0.08311814814805984
1634126174001114400,12.0881142578125,1.1984585523605347,-0.13561666011810303,-0.06285649538040161
1634126174020993300,12.1079931640625,1.3868117332458496,-0.16817496716976166,-0.13391980528831482
1634126174040872400,12.12787255859375,1.5427114963531494,-0.16482271254062653,-0.27457356452941895
1634126174060751400,12.14775146484375,1.5152580738067627,-0.02055678702890873,-0.3894788324832916
1634126174080630300,12.16763037109375,1.2499706745147705,0.3851569890975952,-0.4347805082798004
1634126174100509400,12.187509521484374,1.0113978385925293,1.0256519317626953,-0.40175095200538635
1634126174120388400,12.207388427734376,1.0271590948104858,1.5710241794586182,-0.5822509527206421
1634126174140267300,12.227267333984376,1.2147258520126343,1.7607369422912598,-1.0396121740341187
1634126174160146200,12.247146240234375,1.4217661619186401,1.523909330368042,-1.3105149269104004
1634126174180026400,12.2670263671875,1.6171830892562866,1.2914067506790161,-1.2971447706222534
1634126174199905300,12.2869052734375,1.9074689149856567,1.1240620613098145,-1.4217664003372192
1634126174219784200,12.3067841796875,2.3623697757720947,0.6773595213890076,-1.9362361431121826
1634126174239663400,12.326663330078125,2.94844388961792,0.27656289935112,-2.353558301925659
1634126174259541800,12.346541748046874,3.2484636306762695,0.47949570417404175,-1.9720326662063599
1634126174279420700,12.366420654296874,2.8786935806274414,0.9426993727684021,-0.8626267910003662
1634126174299299800,12.3862998046875,1.8563909530639648,1.4565353393554688,0.3778616487979889
1634126174319178500,12.406178466796876,1.1908373832702637,1.4866690635681152,1.0629509687423706
1634126174339057700,12.4260576171875,1.408189058303833,0.8683255314826965,0.7442574501037598
1634126174358937900,12.445937744140625,1.5717964172363281,0.26939237117767334,-0.04393170773983002
1634126174378816500,12.46581640625,1.262643814086914,-0.05700894072651863,-0.5703592300415039
1634126174398695700,12.48569580078125,0.8290721774101257,-0.0911676362156868,-0.48672983050346375
1634126174418574800,12.505574951171875,0.6022562384605408,-0.0654682070016861,-0.05288378521800041
1634126174438453800,12.525453857421875,0.42484888434410095,0.2293470948934555,0.22394293546676636
1634126174458332700,12.545332763671874,0.18402446806430817,0.13028140366077423,0.43924567103385925
1634126174478211600,12.565211669921876,0.09978225082159042,0.18881770968437195,0.49950140714645386
1634126174498090800,12.5850908203125,0.3268294036388397,0.0896749347448349,0.46070900559425354
1634126174517969700,12.6049697265625,0.5962777137756348,-0.02078012004494667,0.3562452793121338
1634126174537848800,12.624848876953125,0.73222416639328,-0.15973880887031555,0.27748993039131165
1634126174557728800,12.644728759765625,0.6957069635391235,-0.1584891676902771,0.16517482697963715
1634126174577607700,12.664607666015625,0.6209830045700073,0.00910966843366623,0.0255182646214962
1634126174597486800,12.68448681640625,0.462434858083725,0.1455250233411789,-0.09958109259605408
1634126174617365500,12.704365478515625,0.383676141500473,0.241578608751297,-0.13244420289993286
1634126174637244700,12.72424462890625,0.33805784583091736,0.43657293915748596,-0.181501105427742
1634126174657123800,12.744123779296874,0.31719744205474854,0.41813650727272034,-0.3300752341747284
1634126174677002800,12.764002685546876,0.27157238125801086,0.30650728940963745,-0.49825966358184814
1634126174696881700,12.783881591796876,0.11991890519857407,0.20228677988052368,-0.5661056637763977
1634126174716760600,12.803760498046875,-0.02189820073544979,0.28252026438713074,-0.4672574996948242
1634126174736640800,12.823640869140625,-0.0721336230635643,0.3302202522754669,-0.27048200368881226
1634126174756519700,12.843519775390625,-0.09520255029201508,0.26338908076286316,-0.13568048179149628
1634126174776398600,12.863398681640625,-0.10194239020347595,0.11391405761241913,-0.1295882612466812
1634126174796277800,12.88327783203125,-0.16169396042823792,-0.03258625417947769,-0.18633142113685608
1634126174816156700,12.90315673828125,-0.1910412460565567,-0.05695256590843201,-0.2014942765235901
1634126174836035800,12.923035888671874,-0.22912412881851196,0.17151841521263123,-0.13826854526996613
1634126174855914500,12.94291455078125,-0.26088887453079224,0.12659721076488495,0.15358644723892212
1634126174875793700,12.962793701171876,-0.25538915395736694,0.32670843601226807,0.3991369307041168
1634126174895672800,12.9826728515625,-0.027623509988188744,0.34213197231292725,0.5458170771598816
1634126174915552500,13.002552490234375,0.07819270342588425,0.20336194336414337,0.6416838765144348
1634126174935431700,13.022431640625,0.10772014409303665,0.09108659625053406,0.624556303024292
1634126174955310600,13.042310546875,0.13072273135185242,-0.08053793758153915,0.39380598068237305
1634126174975189800,13.062189697265625,0.16760608553886414,-0.21631331741809845,-0.020078280940651894
1634126174995068700,13.082068603515625,0.2253139466047287,-0.2329624891281128,-0.376156210899353
1634126175014947600,13.101947509765624,0.27460888028144836,-0.045344434678554535,-0.4403645098209381
1634126175034826800,13.12182666015625,0.18962740898132324,-0.013868674635887146,-0.2987661063671112
1634126175054705700,13.14170556640625,0.05902576819062233,-0.025286603718996048,-0.12201622873544693
1634126175074584800,13.161584716796876,-0.10852882266044617,-0.11398974061012268,0.039924025535583496
1634126175094464800,13.18146484375,-0.24086034297943115,-0.13648486137390137,0.15537452697753906
1634126175114343700,13.20134375,-0.3112145662307739,-0.12048464268445969,0.18443706631660461
1634126175134222800,13.221222900390625,-0.33110570907592773,0.01749785616993904,0.0707474946975708
1634126175154101500,13.2411015625,-0.37537676095962524,-0.00019857566803693771,0.07193012535572052
1634126175173980700,13.260980712890625,-0.3856261670589447,-0.018658166751265526,0.240726038813591
1634126175193859600,13.280859619140625,-0.35921916365623474,0.08948259055614471,0.33713510632514954
1634126175213738800,13.30073876953125,-0.34406670928001404,0.13692767918109894,0.2573480010032654
1634126175233617700,13.32061767578125,-0.23021447658538818,0.07288546115159988,0.06498614698648453
1634126175253497900,13.340497802734374,-0.09419698268175125,0.05019159987568855,-0.084858737885952
1634126175273377000,13.360376953125,0.034112825989723206,0.004910522140562534,-0.08683332800865173
1634126175293256700,13.380256591796876,0.10379252582788467,-0.07823748141527176,-0.033401671797037125
1634126175313135900,13.400135986328126,0.27756592631340027,-0.03925812244415283,-0.038807354867458344
1634126175333015000,13.42001513671875,0.3366764187812805,-0.19949549436569214,-0.08370281755924225
1634126175352894000,13.43989404296875,0.2765125334262848,-0.23952245712280273,-0.16410788893699646
1634126175372772900,13.45977294921875,0.10069766640663147,-0.2336616963148117,-0.16942130029201508
1634126175392651800,13.47965185546875,-0.06343157589435577,-0.12962119281291962,-0.0944204106926918
1634126175412531000,13.499531005859374,-0.29218024015426636,-0.056934650987386703,0.03705452382564545
1634126175432409900,13.519409912109374,-0.43166202306747437,0.003648567944765091,0.18719357252120972
1634126175452288800,13.539288818359376,-0.38642966747283936,0.028243303298950195,0.21782641112804413
1634126175472168000,13.55916796875,-0.4194141924381256,-0.008191964589059353,0.12246476858854294
1634126175492048000,13.5790478515625,-0.4462888538837433,-0.02966494858264923,0.13866423070430756
1634126175511926800,13.5989267578125,-0.2825228273868561,-0.08210098743438721,0.24742239713668823
1634126175531805700,13.6188056640625,-0.08702953904867172,-0.22250932455062866,0.22287756204605103
1634126175551684900,13.638684814453125,-0.021986572071909904,-0.2183789312839508,-0.026924459263682365
1634126175571564000,13.65856396484375,0.12604966759681702,-0.15031981468200684,-0.24835510551929474
1634126175591443000,13.67844287109375,0.3306065797805786,-0.21781978011131287,-0.262291818857193
1634126175611321900,13.69832177734375,0.46347469091415405,-0.3457503616809845,-0.17962665855884552
1634126175631200800,13.71820068359375,0.445828378200531,-0.5341798067092896,-0.08088143169879913
1634126175651080000,13.738079833984376,0.39637964963912964,-0.6691367626190186,-0.06841398775577545
1634126175670958800,13.757958740234375,0.34721094369888306,-0.6783478856086731,-0.0676262155175209
1634126175690838800,13.7778388671875,0.17000234127044678,-0.6310016512870789,0.008515185676515102
1634126175710718000,13.797718017578125,-0.003949783742427826,-0.5154451131820679,0.13148489594459534
1634126175730596900,13.817596923828125,-0.24344804883003235,-0.47894519567489624,0.27178505063056946
1634126175750475800,13.837475830078125,-0.4846138060092926,-0.31922033429145813,0.3724987208843231
1634126175770354700,13.857354736328125,-0.6635544300079346,-0.426163911819458,0.5380576848983765
1634126175790233900,13.87723388671875,-0.7411485314369202,-0.6510292887687683,0.7592771649360657
1634126175810113000,13.897113037109374,-0.7012295722961426,-0.8833826184272766,0.9500097036361694
1634126175829992000,13.916991943359376,-0.6427115201950073,-1.1732454299926758,0.91623455286026
1634126175849870800,13.936870849609376,-0.58233642578125,-1.3534096479415894,0.8330304622650146
1634126175869751000,13.9567509765625,-0.5258384346961975,-1.5262742042541504,0.7004122734069824
1634126175889630000,13.9766298828125,-0.7693217396736145,-1.4224199056625366,0.5699164271354675
1634126175909508900,13.9965087890625,-1.1953566074371338,-1.1219476461410522,0.6930128931999207
1634126175929387800,14.0163876953125,-1.7113937139511108,-0.7118679285049438,1.1644827127456665
1634126175949267000,14.036266845703125,-2.135044813156128,-0.42519548535346985,1.9459694623947144
1634126175969145900,14.056145751953125,-2.1837069988250732,-0.5305488705635071,2.5681025981903076
1634126175989024800,14.076024658203124,-2.023341178894043,-0.8721136450767517,2.627495288848877
1634126176008904000,14.095904052734374,-1.8365895748138428,-1.040471076965332,2.2251219749450684
1634126176028782800,14.115782958984376,-1.5815421342849731,-1.1615020036697388,1.6284979581832886
1634126176048662000,14.135662109375,-1.3345030546188354,-1.0681719779968262,1.1080063581466675
1634126176068541700,14.155541748046875,-1.1359968185424805,-0.6940227746963501,0.8223246932029724
1634126176088420900,14.1754208984375,-0.976918637752533,-0.4162154495716095,0.595409631729126
1634126176108300000,14.195300048828125,-0.8416405916213989,-0.31676149368286133,0.11864329129457474
1634126176128179000,14.215178955078125,-0.8114669919013977,-0.19112259149551392,-0.45340362191200256
1634126176148057900,14.235057861328125,-0.8877356052398682,0.34578052163124084,-0.7142980694770813
1634126176167936800,14.254936767578124,-0.884168803691864,0.8507688641548157,-0.49862930178642273
1634126176187816000,14.27481591796875,-0.7890918254852295,1.0919811725616455,-0.12926135957241058
1634126176207694800,14.29469482421875,-0.8363385796546936,0.8636385798454285,0.18811814486980438
1634126176227573800,14.31457373046875,-0.7815014719963074,0.15117208659648895,0.37692126631736755
1634126176247452200,14.3344521484375,-0.6865196228027344,0.04520505294203758,0.4087059795856476
1634126176267332400,14.354332275390625,-0.5857894420623779,0.4245361089706421,0.24159452319145203
1634126176287211500,14.37421142578125,-0.26118695735931396,0.4872410297393799,0.06775714457035065
1634126176307090200,14.394090087890625,0.0212947279214859,0.38487982749938965,-0.11376950889825821
1634126176326969300,14.41396923828125,0.21809592843055725,0.2926574945449829,-0.38814324140548706
1634126176346848300,14.43384814453125,0.3529374897480011,0.6436519622802734,-0.7538813948631287
1634126176366727400,14.4537275390625,0.375020295381546,1.0810413360595703,-1.0663728713989258
1634126176386606300,14.4736064453125,0.4755207300186157,1.2733311653137207,-1.1205394268035889
1634126176406485200,14.4934853515625,0.49081921577453613,1.313950538635254,-0.8447991013526917
1634126176426364400,14.513364501953125,0.39077726006507874,1.3503813743591309,-0.28029826283454895
1634126176446243300,14.533243408203125,0.27570587396621704,1.5052509307861328,0.44486504793167114
1634126176466123300,14.553123291015625,0.2762131989002228,1.5662462711334229,1.1258026361465454
1634126176486002200,14.573002197265625,0.4216410219669342,1.3592559099197388,1.5463835000991821
1634126176505881300,14.59288134765625,0.21089880168437958,0.5593602657318115,0.9031253457069397
1634126176525760500,14.612760498046875,-0.09170910716056824,-0.6029385328292847,0.20610132813453674
1634126176545639200,14.63263916015625,-0.41810187697410583,-0.6177096962928772,-0.6177771091461182
1634126176565518300,14.652518310546874,-0.11057840287685394,-0.6787428259849548,-0.777536928653717
1634126176585397200,14.672397216796876,-0.09308982640504837,-0.8061906099319458,-0.9289356470108032
1634126176605276400,14.6922763671875,-0.17605319619178772,-0.8424453735351562,-0.7616362571716309
1634126176625155300,14.7121552734375,-0.2537270784378052,-0.7033078670501709,-0.3419376611709595
1634126176645035300,14.73203515625,-0.3087061643600464,-0.3826389014720917,-0.05692644417285919
1634126176664914400,14.75191455078125,-0.3076702952384949,-0.12349873036146164,-0.029859105125069618
1634126176684793300,14.77179345703125,-0.2661890685558319,0.05800018087029457,-0.0976962074637413
1634126176704672300,14.79167236328125,-0.2880996763706207,0.009361926466226578,-0.07774072885513306
1634126176724551400,14.811551513671875,-0.36244964599609375,-0.13910499215126038,-0.01635955460369587
1634126176744430300,14.831430419921874,-0.3965364098548889,-0.2257579267024994,0.03477061167359352
1634126176764309500,14.8513095703125,-0.33798032999038696,-0.16298991441726685,0.055697739124298096
1634126176784188200,14.871188232421876,-0.26967060565948486,-0.09180346131324768,0.09867367893457413
1634126176804067300,14.8910673828125,-0.23527228832244873,-0.044721364974975586,0.14275722205638885
1634126176823946200,14.9109462890625,-0.21247218549251556,-0.017763376235961914,0.1914672553539276
1634126176843825400,14.930825439453125,-0.1817028671503067,-0.1201406866312027,0.1810148060321808
1634126176863705300,14.950705322265625,-0.0805838331580162,-0.16594049334526062,0.12656496465206146
1634126176883584300,14.970584228515625,0.040859270840883255,-0.19125811755657196,0.04590756446123123
1634126176903463400,14.99046337890625,0.10443993657827377,-0.20816601812839508,-0.034021347761154175
1634126176923342300,15.01034228515625,0.12091758847236633,-0.29441553354263306,-0.06196342036128044
1634126176943221200,15.03022119140625,0.12392478436231613,-0.3601299226284027,-0.09168387949466705
1634126176963100400,15.050100341796876,0.14940492808818817,-0.3441798985004425,-0.064400315284729
1634126176982979300,15.069979248046875,0.12433730065822601,-0.2985646724700928,-0.07142118364572525
1634126177002858500,15.0898583984375,0.12460673600435257,-0.23246046900749207,-0.07373499870300293
1634126177022737200,15.109737060546875,0.10560319572687149,-0.22818779945373535,-0.07901278138160706
1634126177042617300,15.129617431640625,0.08831507712602615,-0.27345117926597595,-0.04972429201006889
1634126177062496500,15.14949658203125,0.061837125569581985,-0.3343755304813385,-0.016321327537298203
1634126177082375200,15.169375244140625,0.03607632592320442,-0.3225145936012268,-0.005144441965967417
1634126177102254300,15.18925439453125,0.04708295688033104,-0.25452426075935364,0.014402722008526325
1634126177122133200,15.20913330078125,0.025859152898192406,-0.22974631190299988,0.07617345452308655
1634126177142012400,15.229012451171876,0.04422333836555481,-0.20193392038345337,0.11710941046476364
1634126177161891300,15.248891357421876,0.06223886087536812,-0.15379489958286285,0.1201208084821701
1634126177181770200,15.268770263671875,0.05686110258102417,-0.10802367329597473,0.08538157492876053
1634126177201649400,15.2886494140625,0.05842437967658043,-0.05139687657356262,0.024761637672781944
1634126177221528300,15.3085283203125,0.054052479565143585,0.006371932104229927,-0.06934177130460739
1634126177241408300,15.328408203125,0.0343109667301178,0.04551919922232628,-0.12881459295749664
1634126177261287700,15.34828759765625,0.02891940250992775,0.03135396167635918,-0.1401812732219696
1634126177281166600,15.36816650390625,0.020249560475349426,0.07510394603013992,-0.09405314922332764
1634126177301045800,15.388045654296874,0.015963243320584297,0.10228189080953598,-0.006138058379292488
1634126177320924400,15.40792431640625,0.00455603888258338,0.10503697395324707,0.05679669231176376
1634126177340803600,15.427803466796876,-0.004188087768852711,0.10775800049304962,0.04338417947292328
1634126177360682500,15.4476826171875,-0.027022700756788254,0.08953353017568588,-0.017766105011105537
1634126177380561700,15.467561767578125,-0.04455810412764549,0.08675909042358398,-0.0751790702342987
1634126177400440600,15.487440673828125,-0.036301638931035995,0.06364903599023819,-0.07914917916059494
1634126177420319500,15.507319580078125,-0.03162118047475815,0.05604907125234604,-0.043798238039016724
1634126177440198700,15.52719873046875,-0.025557737797498703,0.04245152696967125,-0.007953557185828686
1634126177460078600,15.54707861328125,-0.035750240087509155,0.03249746561050415,-0.025637321174144745
1634126177479957500,15.56695751953125,-0.030871456488966942,0.009761180728673935,-0.04319543018937111
1634126177499836700,15.586836669921874,-0.029619721695780754,0.0011229198426008224,-0.024444537237286568
1634126177519715600,15.606715576171876,-0.007416769862174988,0.013266445137560368,0.010108641348779202
1634126177539594800,15.6265947265625,0.006652661133557558,0.0320524163544178,0.024332210421562195
1634126177559473400,15.646473388671875,0.0231477003544569,0.05074876546859741,0.015012357383966446
1634126177579352600,15.6663525390625,0.03699764981865883,0.043005261570215225,0.015798769891262054
1634126177599231500,15.6862314453125,0.033055637031793594,0.018561311066150665,0.03709768131375313
1634126177619110700,15.706110595703125,0.027701305225491524,-0.014961068518459797,0.060417793691158295
1634126177638989600,15.725989501953125,0.022804372012615204,-0.021415548399090767,0.061919018626213074
1634126177658869500,15.745869384765625,0.023346098139882088,-0.00840055849403143,0.03592884913086891
1634126177678748700,15.765748779296874,0.023378688842058182,0.007654109038412571,0.026309743523597717
1634126177698627600,15.785627685546874,0.015736127272248268,0.0018607107922434807,0.039393581449985504
1634126177718506500,15.805506591796876,0.0016037459718063474,-0.01709536835551262,0.04270751029253006
1634126177738385700,15.8253857421875,-0.012420061975717545,-0.027029287070035934,0.04204212501645088
1634126177758264600,15.8452646484375,-0.029049497097730637,-0.045144062489271164,0.029452664777636528
1634126177778143700,15.865143798828125,-0.0319376140832901,-0.06593978404998779,0.006000088062137365
1634126177798022400,15.8850224609375,-0.032822318375110626,-0.10040707886219025,-0.014874021522700787
1634126177817901600,15.904901611328125,-0.04488302022218704,-0.16278761625289917,-0.015714650973677635
1634126177837780500,15.924780517578125,-0.051829565316438675,-0.18935398757457733,-0.01782160811126232
1634126177857659600,15.94465966796875,-0.04480121284723282,-0.1773877590894699,-0.02766173519194126
1634126177877539600,15.96453955078125,-0.03465123847126961,-0.14880996942520142,-0.04363337159156799
1634126177897418500,15.98441845703125,-0.013536494225263596,-0.12090132385492325,-0.04629962518811226
1634126177917297700,16.004297607421876,-0.017542777583003044,-0.10995607823133469,-0.049822982400655746
1634126177937176600,16.024176513671875,-0.014201577752828598,-0.0969192311167717,-0.057854264974594116
1634126177957055500,16.044055419921875,-0.01941307820379734,-0.07485562562942505,-0.04623447731137276
1634126177976934700,16.0639345703125,-0.024428069591522217,-0.02453627437353134,-0.04709737002849579
1634126177996813600,16.0838134765625,-0.0235381368547678,-0.011164486408233643,-0.04017472267150879
1634126178016692700,16.103692626953126,-0.027198735624551773,0.026048030704259872,-0.015116260387003422
1634126178036571400,16.1235712890625,-0.02451045624911785,0.03210096061229706,0.016099998727440834
1634126178056450600,16.143450439453126,-0.022228524088859558,0.03251461312174797,0.021644826978445053
1634126178076330800,16.163330810546874,-0.025910476222634315,0.03545347601175308,0.003705901326611638
1634126178096209400,16.18320947265625,-0.021513426676392555,0.01556877326220274,-0.017073923721909523
1634126178116088600,16.203088623046874,-0.020772889256477356,-0.014970451593399048,-0.012811537832021713
1634126178135967500,16.222967529296874,-0.01581735908985138,-0.03061649575829506,0.009930494241416454
1634126178155846700,16.2428466796875,-0.012898487970232964,-0.02464398369193077,0.030133090913295746
1634126178175725600,16.2627255859375,-0.009609713219106197,-0.00044997408986091614,0.026619743555784225
1634126178195604500,16.2826044921875,-0.008118882775306702,0.027825357392430305,0.010977160185575485
1634126178215483600,16.302483642578125,-0.006900168489664793,0.04756520316004753,-0.01952391490340233
1634126178235362600,16.322362548828124,-0.010942750610411167,0.027237899601459503,-0.024097396060824394
1634126178255241000,16.342240966796876,-0.024404987692832947,-0.010871552862226963,-0.02249748632311821
1634126178275120000,16.3621201171875,-0.02935495786368847,-0.04949207603931427,-0.02875925414264202
1634126178294999800,16.381999755859376,-0.04327548295259476,-0.06258541345596313,-0.023096024990081787
1634126178314879000,16.40187890625,-0.057040564715862274,-0.06845315545797348,-0.020023537799715996
1634126178334758100,16.421758056640623,-0.05914894491434097,-0.07744240760803223,-0.014100797474384308
1634126178354636800,16.44163671875,-0.04504063352942467,-0.0669279471039772,-0.005312473978847265
1634126178374516000,16.461515869140626,-0.03791778162121773,-0.03599119186401367,0.035280074924230576
1634126178394395000,16.481394775390626,-0.02249964140355587,-0.0007823407649993896,0.04985944926738739
1634126178414274000,16.501274169921874,-0.007793750148266554,0.031721439212560654,0.05120086297392845
1634126178434153000,16.521153076171874,-0.0005827092099934816,0.062239933758974075,0.04720772057771683
1634126178454032000,16.541031982421874,-0.0028853185940533876,0.058576371520757675,0.04175182059407234
1634126178473911000,16.5609111328125,-0.007294134236872196,0.03720993548631668,0.031418610364198685
1634126178493790000,16.5807900390625,-0.017577312886714935,0.008224986493587494,0.009662733413279057
1634126178513670000,16.600669921875,-0.020399248227477074,0.011899512261152267,0.001602820702828467
1634126178533548800,16.620548828125,-0.01786690391600132,0.02554626390337944,0.011661482974886894
1634126178553428000,16.640427978515625,-0.0066093020141124725,0.06396012008190155,0.045459989458322525
1634126178573307100,16.66030712890625,-0.005342573393136263,0.10505996644496918,0.051846399903297424
1634126178593185800,16.680185791015624,0.0002321307547390461,0.09751007705926895,0.015330212190747261
1634126178613065000,16.70006494140625,0.00011893874034285545,0.06718042492866516,-0.017980314791202545
1634126178632943900,16.71994384765625,-0.008690783753991127,0.03521420434117317,-0.008098176680505276
1634126178652823000,16.739822998046876,-0.01814895309507847,0.026606306433677673,0.020127709954977036
1634126178672702000,16.759701904296875,-0.013100496493279934,0.022320812568068504,0.04060054570436478
1634126178692580900,16.779580810546875,-0.012879414483904839,-0.005410832352936268,0.03658384457230568
1634126178712461000,16.7994609375,-0.012644512578845024,-0.02515459805727005,0.02590479701757431
1634126178732340000,16.819340087890627,-0.007325256243348122,-0.024592984467744827,0.033146630972623825
1634126178752219000,16.839218994140627,-0.00696222810074687,0.00830569677054882,0.04694834724068642
1634126178772098000,16.85909814453125,-0.011221850290894508,0.02066415175795555,0.037511106580495834
1634126178791977000,16.87897705078125,-0.01363490428775549,-0.0015869606286287308,0.019881155341863632
1634126178811856100,16.898856201171874,-0.019253147765994072,-0.009664853103458881,0.003750227391719818
1634126178831734800,16.91873486328125,-0.026226015761494637,0.010954095982015133,-0.01632014848291874
1634126178851614000,16.938614013671874,-0.02671271562576294,0.02541900798678398,-0.014288523234426975
1634126178871492900,16.958492919921873,-0.030086349695920944,0.018230557441711426,0.007120177149772644
1634126178891372000,16.9783720703125,-0.03483255207538605,0.011031188070774078,0.005663965363055468
1634126178911251000,16.9982509765625,-0.02955656498670578,0.04365691542625427,0.001730223884806037
1634126178931131000,17.018130859375,-0.028080865740776062,0.06050312519073486,0.001871786778792739
1634126178951010000,17.038010009765625,-0.03325370326638222,0.044162996113300323,0.005370918661355972
1634126178970889000,17.057888916015624,-0.03407479077577591,0.007960520684719086,0.01105926837772131
1634126178990767900,17.077767822265624,-0.03417355567216873,-0.0343247652053833,-0.0014862020034343004
1634126179010647000,17.09764697265625,-0.026932254433631897,-0.0709327682852745,-0.026370730251073837
1634126179030526000,17.11752587890625,-0.021850978955626488,-0.07297088205814362,-0.02949158474802971
1634126179050405000,17.137405029296875,-0.009323880076408386,-0.0370776429772377,0.00043505470966920257
1634126179070283800,17.15728369140625,0.010200301185250282,-0.019949287176132202,0.03154285252094269
1634126179090163000,17.177162841796875,0.020934205502271652,-0.0026204967871308327,0.040330927819013596
1634126179110041900,17.197041748046875,0.0201365165412426,-0.003935157787054777,0.0329618901014328
1634126179129921000,17.216921142578126,0.02217920310795307,-0.035790443420410156,0.021222559735178947
1634126179149801000,17.236801025390626,0.023354187607765198,-0.05448143184185028,0.01833117939531803
1634126179169680000,17.256679931640626,0.02145867794752121,-0.054433953016996384,0.016989098861813545
1634126179189559000,17.27655908203125,0.020202426239848137,-0.07208484411239624,0.020081931725144386
1634126179209438000,17.29643798828125,0.012944281101226807,-0.05609455704689026,0.03305169939994812
1634126179229316900,17.31631689453125,0.006464067846536636,-0.0303487628698349,0.04145325720310211
1634126179249195500,17.336195556640625,-0.0012425410095602274,-0.023272370919585228,0.025215286761522293
1634126179269074700,17.35607470703125,-0.009996451437473297,-0.03258378058671951,0.0024069601204246283
1634126179288953600,17.37595361328125,-0.00946364738047123,-0.020314538851380348,-0.001759001170285046
1634126179308832800,17.395832763671876,-0.004566127434372902,0.010490109212696552,0.0010027883108705282
1634126179328711400,17.41571142578125,0.0010439121397212148,0.0269772931933403,-0.01010952703654766
1634126179348590600,17.435590576171876,0.003116282634437084,0.04277417063713074,-0.030947381630539894
1634126179368470800,17.455470703125,0.008616290986537933,0.04597246274352074,-0.01786581240594387
1634126179388349400,17.475349365234376,0.01978812739253044,0.038490891456604004,0.02980567142367363
1634126179408228600,17.495228515625,0.021383222192525864,0.042489442974328995,0.045422330498695374
1634126179428107500,17.515107421875,0.03160706162452698,0.05378564074635506,0.010558716021478176
1634126179447986700,17.534986572265623,0.033318229019641876,0.06556969881057739,-0.01290238369256258
1634126179467865300,17.554865234375,0.037723392248153687,0.07214318215847015,-0.002498556859791279
1634126179487744500,17.57474462890625,0.028774285688996315,0.057871878147125244,0.011743491515517235
1634126179507623700,17.594623779296874,0.01783762127161026,0.026646234095096588,0.0002560601569712162
1634126179527502600,17.614502685546874,0.017619511112570763,-0.01991528458893299,0.005236424505710602
1634126179547381800,17.6343818359375,0.014729185961186886,-0.04107876867055893,0.01735406182706356
1634126179567260400,17.654260498046874,0.015876425430178642,-0.0055886488407850266,0.016427436843514442
1634126179587140600,17.674140625,0.015598745085299015,0.05599743872880936,0.0015803193673491478
1634126179607019800,17.694019775390625,0.010732398368418217,0.09130706638097763,-0.02882193960249424
1634126179626898400,17.7138984375,0.01768733747303486,0.08210019767284393,-0.0477069690823555
1634126179646777600,17.733777587890625,0.018448542803525925,0.05980846658349037,-0.03275033459067345
1634126179666656500,17.753656494140625,0.027957327663898468,0.03794310241937637,0.018610937520861626
1634126179686535700,17.77353564453125,0.02206295356154442,0.023952186107635498,0.023586520925164223
1634126179706414300,17.793414306640624,0.016587579622864723,0.012796567752957344,-0.01591399870812893
1634126179726293500,17.81329345703125,0.010173222050070763,0.012975203804671764,-0.06125124543905258
1634126179746172700,17.833172607421876,0.006568279583007097,0.022969292476773262,-0.07208845019340515
1634126179766051600,17.853051513671875,0.005813269875943661,0.03256852924823761,-0.05965786799788475
1634126179785930800,17.8729306640625,0.017432378605008125,0.023946670815348625,-0.023386161774396896
1634126179805809400,17.892809326171875,0.018820736557245255,0.01620309054851532,0.009058159776031971
1634126179825689600,17.912689697265623,0.008848167955875397,0.007136018946766853,-0.014129946939647198
1634126179845568800,17.93256884765625,0.007600520737469196,0.005404412746429443,-0.05105054751038551
1634126179865447400,17.952447509765626,0.004555721301585436,0.03219183161854744,-0.05246119573712349
1634126179885326600,17.97232666015625,-0.001846160041168332,0.05411958694458008,-0.033378321677446365
1634126179905205500,17.99220556640625,0.0003871191293001175,0.05176844447851181,-0.05446988344192505
1634126179925084700,18.012084716796874,0.027006041258573532,0.027994610369205475,-0.10781808197498322
1634126179944963300,18.03196337890625,0.07399880886077881,0.20328640937805176,0.18800756335258484
1634126179964842500,18.051842529296874,-0.021541664376854897,0.13790029287338257,0.1620955914258957
1634126179984721700,18.0717216796875,-0.022728178650140762,-0.035713423043489456,-0.11658428609371185
1634126180004600600,18.0916005859375,-0.016788091510534286,-0.023397842422127724,-0.2231898009777069
1634126180024479700,18.111479736328125,-0.03016780875623226,0.025412432849407196,-0.15995119512081146
