time,seconds_elapsed,z,y,x
1633779671564333600,0.02233349609375,-8.72578543933928,-4.403997175735235,0.7974089266289025
1633779671584213500,0.042213623046875,-8.719694721248745,-4.413652892830967,0.810537580532208
1633779671604092700,0.0620927734375,-8.71256121610701,-4.423209825727343,0.8347923894099891
1633779671623972600,0.08197265625,-8.708269071871042,-4.428420546112954,0.851779545372352
1633779671643851500,0.1018515625,-8.708465471225976,-4.427772311337292,0.8531363668087869
1633779671663731500,0.1217314453125,-8.714808702772855,-4.417079652409255,0.8437392275840043
1633779671683610600,0.141610595703125,-8.718018312469125,-4.41073963573277,0.8437506257608532
1633779671703490600,0.161490478515625,-8.71797155071795,-4.410119165746868,0.8474744685895741
1633779671723369500,0.181369384765625,-8.717956353148818,-4.409467423839867,0.8510089263260364
1633779671743249700,0.201249755859375,-8.71959593704939,-4.4075063528999685,0.8443452306531369
1633779671763128600,0.221128662109375,-8.72274475646913,-4.4040898224547504,0.8295172254860401
1633779671783008500,0.241008544921875,-8.729602951800823,-4.394130446237326,0.8099627763189375
1633779671802887700,0.2608876953125,-8.736700801107286,-4.383445386093855,0.791107050005719
1633779671822767600,0.280767578125,-8.744215999042988,-4.369986185061931,0.782488493937999
1633779671842646500,0.300646484375,-8.751768606379628,-4.355251557266712,0.7802049861107021
1633779671862526700,0.320526611328125,-8.760200919160246,-4.33966469655633,0.772383206443861
1633779671882405600,0.340405517578125,-8.76882846225202,-4.329506290635466,0.7303471686165779
1633779671902285600,0.36028564453125,-8.774714597681164,-4.33460127568692,0.6212859053950757
1633779671922164700,0.380164794921875,-8.781180578824877,-4.345938077737391,0.4172219706492498
1633779671942044400,0.40004443359375,-8.78660201935172,-4.353857180298864,0.09971040169070475
1633779671961923600,0.419923583984375,-8.777332086703181,-4.366513248254359,-0.24977268800279123
1633779671981803800,0.4398037109375,-8.749908657726644,-4.391891142877936,-0.5663660918036475
1633779672001682400,0.459682373046875,-8.714208398792147,-4.421367412731051,-0.8273241724211722
1633779672021562600,0.479562744140625,-8.688533859309553,-4.4329786478087305,-1.0141346649512648
1633779672041441800,0.49944189453125,-8.689577815404533,-4.409911075954139,-1.101955206419155
1633779672061321500,0.519321533203125,-8.730258785361052,-4.335919080287217,-1.073669096198678
1633779672081200600,0.53920068359375,-8.787746513211726,-4.249868690297007,-0.9404859297640621
1633779672101080600,0.55908056640625,-8.845713549011945,-4.173918254038691,-0.7086214398249984
1633779672120959500,0.57895947265625,-8.891942800745367,-4.106264229221642,-0.49227717510089275
1633779672140839700,0.598839599609375,-8.92687090626359,-4.045416085027158,-0.3405411012245342
1633779672160718600,0.618718505859375,-8.95531315689385,-3.990555198548734,-0.21958604139061644
1633779672180598500,0.6385986328125,-8.97651551939845,-3.948274684441089,-0.060621249236585566
1633779672200477700,0.658477783203125,-8.98854673345387,-3.91678327537328,0.1876609536132775
1633779672220357600,0.678357666015625,-8.993853023168445,-3.879139481155574,0.48297509374842046
1633779672240236500,0.698236572265625,-9.007562399569153,-3.820207107454538,0.6634944502450525
1633779672260116500,0.718116455078125,-9.035745707002281,-3.7529149016872045,0.6643127808906137
1633779672279995100,0.7379951171875,-9.069425858286023,-3.6789509630709882,0.6174276955969631
1633779672299875000,0.757875,-9.101441875749826,-3.6070568164661525,0.5685809548415244
1633779672319754200,0.777754150390625,-9.125188662040234,-3.5523622264653443,0.5310796743670478
1633779672339634200,0.79763427734375,-9.14006006795764,-3.518935757681727,0.4967607867883518
1633779672359513000,0.81751318359375,-9.151831754294037,-3.4940687351897357,0.45370453906785696
1633779672379393000,0.83739306640625,-9.157040428853035,-3.4841286481946705,0.42407636658865955
1633779672399272200,0.857272216796875,-9.148663061130046,-3.5167598749473687,0.3236525102658197
1633779672419152100,0.877152099609375,-9.130158851668238,-3.5697248646765947,0.26008367240317165
1633779672439031000,0.897031005859375,-9.10663885987103,-3.6301442620649933,0.24811765080476178
1633779672458911200,0.9169111328125,-9.078202454459667,-3.7006370174393055,0.24880797115648165
1633779672478790100,0.9367900390625,-9.046132660982012,-3.7785049777567385,0.2465032561443746
1633779672498670000,0.956670166015625,-9.01398395704925,-3.8544028070449827,0.24910596772236748
1633779672518549200,0.97654931640625,-8.984974135664105,-3.9210193055078384,0.25735161709077653
1633779672538429000,0.996428955078125,-8.95273775344789,-3.9950022410854693,0.24254335780376568
1633779672558308000,1.01630810546875,-8.909720449498295,-4.093026854246855,0.18545642930632456
1633779672578188300,1.036188232421875,-8.855480909788609,-4.212102438743412,0.09506575422263704
1633779672598067000,1.05606689453125,-8.80068432071805,-4.326465315504372,-0.006045008935418445
1633779672617947100,1.075947021484375,-8.75872032521367,-4.409571760997176,-0.10430718229589983
1633779672637826300,1.095826416015625,-8.727756447151302,-4.468014305354655,-0.183021913902089
1633779672657706000,1.1157060546875,-8.703523923170566,-4.5118362036854025,-0.24977234094291925
1633779672677585200,1.135585205078125,-8.67841286278963,-4.555206266595423,-0.3250178438022733
1633779672697465000,1.155465087890625,-8.663835471382736,-4.58076331717819,-0.35348365797121073
1633779672717344000,1.175343994140625,-8.666616626533866,-4.576918332187831,-0.334599399683252
1633779672737224200,1.19522412109375,-8.679114873579143,-4.5533211835011835,-0.332588607850112
1633779672757103000,1.21510302734375,-8.70323750744462,-4.5048909145921465,-0.3605542174119502
1633779672776983000,1.234983154296875,-8.74158155888617,-4.427652192088962,-0.38862946136072274
1633779672796862200,1.2548623046875,-8.78479350862503,-4.340679426556825,-0.39532643824871627
1633779672816742100,1.2747421875,-8.821388670572638,-4.269107351513207,-0.3580623275309801
1633779672836621000,1.29462109375,-8.84717602277994,-4.221597704580426,-0.2756309134892188
1633779672856501000,1.3145009765625,-8.859303682947159,-4.201465893916786,-0.1755315398803912
1633779672876380200,1.334380126953125,-8.852430290046334,-4.2184485928997395,-0.09776907663089222
1633779672896260000,1.354260009765625,-8.827124583876133,-4.271949296940863,-0.05204395676101558
1633779672916139000,1.374138916015625,-8.79383840034604,-4.340312346810102,-0.02187730719067622
1633779672936019200,1.394019287109375,-8.760947938135265,-4.406371211390197,0.00833605960670975
1633779672955898000,1.413898193359375,-8.723610433387757,-4.479665872442722,0.04000700251797679
1633779672975778000,1.433778076171875,-8.67075036533773,-4.580758056481183,0.07162360430145635
1633779672995657200,1.4536572265625,-8.599081551921367,-4.71338198159784,0.10103388711311855
1633779673015537000,1.473536865234375,-8.51757523510158,-4.858411507040262,0.13090944934897125
1633779673035416000,1.493416015625,-8.436954468944668,-4.9962102044463155,0.16145203325934707
1633779673055296300,1.513296142578125,-8.357702653053403,-5.126690687793493,0.19032902204506097
1633779673075175200,1.533175048828125,-8.276178216055035,-5.256622305086255,0.2077997237406671
1633779673095055000,1.55305517578125,-8.195165235710144,-5.382337181466817,0.20025650528687983
1633779673114934300,1.572934326171875,-8.125330651983619,-5.488779202100634,0.1506179109008517
1633779673134814000,1.59281396484375,-8.080699483096598,-5.555754889264702,0.07920621405071579
1633779673154693000,1.612693115234375,-8.067659384259581,-5.5752352502822875,0.004261119480864726
1633779673174573000,1.632572998046875,-8.07959765933454,-5.55749384188652,-0.06891373798798303
1633779673194452000,1.652451904296875,-8.10350694271028,-5.519651310226321,-0.19237287589758634
1633779673214332200,1.672332275390625,-8.132662310045957,-5.465513477325439,-0.3979307389955967
1633779673234211300,1.69221142578125,-8.170117888215184,-5.380125350636243,-0.688334073273465
1633779673254091000,1.712091064453125,-8.265590771067142,-5.19103836454153,-0.9505368567224591
1633779673273971200,1.73197119140625,-8.447410981029272,-4.851484338125586,-1.1290395396344364
1633779673293851100,1.75185107421875,-8.640480314758419,-4.467466023822128,-1.2466887445896864
1633779673313730300,1.771730224609375,-8.775347634887694,-4.170521305076778,-1.3305664667159318
1633779673333610000,1.79160986328125,-8.85758577311337,-3.9707349380522965,-1.3952876529514788
1633779673353489200,1.8114892578125,-8.92599412342906,-3.8005247941240667,-1.4328361701011656
1633779673373369300,1.831369384765625,-9.006945728975534,-3.60837695915401,-1.422998812828213
1633779673393248000,1.851248046875,-9.083602267676591,-3.433153370977938,-1.3682152293696999
1633779673413128200,1.871128173828125,-9.121260674941539,-3.3624799983397122,-1.2910137701369822
1633779673433007400,1.89100732421875,-9.110541128006577,-3.4246459471344948,-1.200093436022848
1633779673452887000,1.910886962890625,-9.06812412803769,-3.5688857835039496,-1.0966134069997817
1633779673472766200,1.93076611328125,-9.017044513663649,-3.7248078743606805,-0.9945341846853494
1633779673492646100,1.950646240234375,-8.97312236982882,-3.8508839852690695,-0.9078261345040053
1633779673512525000,1.970525146484375,-8.935889494499564,-3.949925958779454,-0.8475567400455475
1633779673532405200,1.9904052734375,-8.894601206299662,-4.049578465403616,-0.8107813992254436
1633779673552284200,2.0102841796875,-8.844328816655278,-4.160976062618196,-0.7965631965197623
1633779673572164000,2.0301640625,-8.789339919883012,-4.275176734554767,-0.8004669990252703
1633779673592043300,2.050043212890625,-8.741996569427847,-4.368725663606822,-0.8137067120876162
1633779673611923200,2.069923095703125,-8.713560748538374,-4.424798848484456,-0.8157165906053035
1633779673631802000,2.089802001953125,-8.689993410468102,-4.4715851495787495,-0.8119856604486704
1633779673651682000,2.10968212890625,-8.639674259072542,-4.563904536835849,-0.8349815553065388
1633779673671561200,2.129561279296875,-8.556414961105585,-4.709750347097218,-0.8811368650209158
1633779673691441200,2.149441162109375,-8.47286983193457,-4.85649485976398,-0.8918029282029718
1633779673711320000,2.169320068359375,-8.412623160764575,-4.969621472728252,-0.8372700315698981
1633779673731199000,2.189198974609375,-8.367357785627245,-5.056950212091207,-0.7648286994110792
1633779673751079200,2.2090791015625,-8.360981820854544,-5.082563376775384,-0.6571994417540729
1633779673770958000,2.2289580078125,-8.396990707346797,-5.039222832220792,-0.516875500186719
1633779673790838300,2.24883837890625,-8.432894379898904,-4.987653388503194,-0.42425800676587966
1633779673810717200,2.26871728515625,-8.450300272729992,-4.957190445700287,-0.4348288294125348
1633779673830597000,2.28859716796875,-8.45957312798798,-4.931349902001023,-0.536466153178364
1633779673850476000,2.30847607421875,-8.483132867273687,-4.876825407870114,-0.6507048190377652
1633779673870356000,2.32835595703125,-8.522180098548532,-4.798028057748079,-0.7223272360291332
1633779673890235100,2.348235107421875,-8.553914960983395,-4.737193942078948,-0.7482806655183434
1633779673910115300,2.368115234375,-8.553895087239146,-4.734981234465539,-0.7623764839533717
1633779673929994000,2.387993896484375,-8.52956787071228,-4.778111351139843,-0.7658342231918126
1633779673949874200,2.407874267578125,-8.500877782800794,-4.8332925556138155,-0.7380658532351255
1633779673969753000,2.427753173828125,-8.472128658178448,-4.894262280361354,-0.663034358452633
1633779673989633000,2.447633056640625,-8.427055590742826,-4.983428464284539,-0.5661856572028249
1633779674009512200,2.46751220703125,-8.357216330841183,-5.109006562542915,-0.474730704755336
1633779674029392100,2.48739208984375,-8.271502625459432,-5.252293335971236,-0.40748065762929614
1633779674049271000,2.50727099609375,-8.188260278627276,-5.38494298005104,-0.3537925047246739
1633779674069151200,2.527151123046875,-8.124763665750622,-5.484077892541885,-0.28895479770367966
1633779674089030100,2.547030029296875,-8.083691650649905,-5.547476890262961,-0.2231845773392357
1633779674108910000,2.56691015625,-8.068935395544766,-5.56941107417345,-0.2105447846651077
1633779674128789200,2.586789306640625,-8.102092399737238,-5.518405694079399,-0.27143063052147626
1633779674148669200,2.606669189453125,-8.197114616212248,-5.373041529855132,-0.3288181859333068
1633779674168548000,2.626548095703125,-8.31583919531405,-5.186252883830666,-0.3463860643930733
1633779674188428300,2.64642822265625,-8.404047055599094,-5.04032874763608,-0.3707709293913096
1633779674208307000,2.666306884765625,-8.45606833473742,-4.949000124981999,-0.41555674085076894
1633779674228187100,2.686187255859375,-8.504273270457983,-4.865540628267825,-0.4174147898076102
1633779674248066300,2.70606640625,-8.570706521308422,-4.753222701337934,-0.34676593055613336
1633779674267946200,2.7259462890625,-8.636444191110133,-4.640151617953181,-0.22629220623206345
1633779674287825400,2.745825439453125,-8.662056186750531,-4.596064931206405,-0.12393075117645784
1633779674307705300,2.765705322265625,-8.636304490378498,-4.645366137731075,-0.07212133382367901
1633779674327584300,2.785584228515625,-8.583137548336387,-4.743124208910763,-0.05386221256358548
1633779674347464400,2.80546435546875,-8.53033300986588,-4.837596682548523,-0.03816698925803648
1633779674367343400,2.82534326171875,-8.485980073398352,-4.91512941956222,0.005279289826506283
1633779674387223300,2.845223388671875,-8.439334642079473,-4.994364868840575,0.06586994984529447
1633779674407102500,2.8651025390625,-8.378778758829831,-5.094515095853805,0.11121657809186726
1633779674426982400,2.884982421875,-8.308543193086981,-5.207850967654585,0.1295645649455022
1633779674446861300,2.904861328125,-8.244924415135383,-5.308264814040064,0.11801238484499044
1633779674466741200,2.9247412109375,-8.203504609510302,-5.3726855560243125,0.08456555825993418
1633779674486620400,2.944620361328125,-8.181078842690587,-5.407301526853442,0.03785396865295479
1633779674506500400,2.964500244140625,-8.165888287821412,-5.430331689307093,-0.012011532107414676
1633779674526379300,2.984379150390625,-8.150757354184984,-5.4527445966452355,-0.05588829329740256
1633779674546259500,3.004259521484375,-8.130480289831757,-5.48246402760446,-0.09089056916353293
1633779674566138400,3.024138427734375,-8.104954803431033,-5.519489397662878,-0.12381623968500644
1633779674586018300,3.044018310546875,-8.086791954752803,-5.545293701004982,-0.15460235002767295
1633779674605897500,3.0638974609375,-8.092131562215089,-5.537289258247614,-0.16189930210281162
1633779674625777200,3.083777099609375,-8.103186040192842,-5.52155509802103,-0.14556377844959498
1633779674645656300,3.10365625,-8.094078020107746,-5.534907916069031,-0.14518882592367008
1633779674665536500,3.12353662109375,-8.112360111251473,-5.509556032669544,-0.06924036699330899
1633779674685415200,3.143415283203125,-8.166946856963634,-5.427383360895514,0.12196361582195385
1633779674705294300,3.16329443359375,-8.201917632579804,-5.364303512126207,0.3509644051592797
1633779674725174500,3.183174560546875,-8.179887002557516,-5.385092033132911,0.5105056363612414
1633779674745053200,3.20305322265625,-8.118549029019475,-5.473334964731335,0.5496840928003192
1633779674764933400,3.222933349609375,-8.075050079032778,-5.5385746218830345,0.5367866173043847
1633779674784812500,3.2428125,-8.083019450476765,-5.527509037989378,0.5308686619648709
1633779674804692200,3.262692138671875,-8.130386181807518,-5.455972911041974,0.5473291637046263
1633779674824571400,3.2825712890625,-8.176584453880787,-5.383614361795782,0.5749333195429295
1633779674844451300,3.302451416015625,-8.189132969808577,-5.362594370120764,0.5925095639722422
1633779674864330200,3.322330322265625,-8.164170962509512,-5.399488807275891,0.6018460225183516
1633779674884210400,3.34221044921875,-8.113048093515633,-5.475298958280682,0.6082276863794773
1633779674904089300,3.36208935546875,-8.049151083144546,-5.567833449593186,0.6170763979412615
1633779674923969300,3.38196923828125,-7.984843738406896,-5.658883255305886,0.6242549112685024
1633779674943848400,3.401848388671875,-7.928914345914125,-5.7372582883626215,0.6217476046226919
1633779674963728400,3.421728271484375,-7.876222620168328,-5.809480059486627,0.6208397690627724
1633779674983607300,3.441607177734375,-7.820524113821983,-5.883114620018005,0.6314698841486126
1633779675003487200,3.4614873046875,-7.769303045150637,-5.950167464071512,0.6354694021135568
1633779675023366400,3.481366455078125,-7.737834140175581,-5.995290800389647,0.5939673980977386
1633779675043246300,3.501246337890625,-7.733155042448639,-6.008963351911306,0.5109426395390182
1633779675063125200,3.521125244140625,-7.744813331538438,-5.998569968190789,0.45320835304874924
1633779675083005400,3.54100537109375,-7.760977115353941,-5.97764174645245,0.4532305283479392
1633779675102884400,3.56088427734375,-7.793433862322568,-5.937510811594128,0.42277087348066267
1633779675122764300,3.580764404296875,-7.888345019638538,-5.817416113182902,0.31948205618076025
1633779675142643500,3.6006435546875,-8.034076848131418,-5.620473152890801,0.18512566298199817
1633779675162523400,3.6205234375,-8.178999113807082,-5.409818478110433,0.09065348160518333
1633779675182402300,3.64040234375,-8.283513965770602,-5.24913457967937,0.019242526823852676
1633779675202282500,3.660282470703125,-8.341940435776113,-5.15573382692635,-0.028693629292154216
1633779675222161400,3.680161376953125,-8.372716097790002,-5.105348624557257,-0.058533213749038984
1633779675242041300,3.700041259765625,-8.391326690235733,-5.074631414732337,-0.0643065455866279
1633779675261920500,3.71992041015625,-8.400659751248359,-5.059400527852773,-0.04205654175919481
1633779675281799400,3.73979931640625,-8.387739479398727,-5.080931391659378,0.01843279732656665
1633779675301678300,3.75967822265625,-8.336198092731832,-5.164308763048052,0.08998343685651197
1633779675321558300,3.779558349609375,-8.246835217192768,-5.304765281486511,0.13983487027562222
1633779675341437400,3.7994375,-8.144597662511467,-5.4600259858250615,0.1550336723833345
1633779675361317400,3.8193173828125,-8.056289264461398,-5.589722625318169,0.14693290224517694
1633779675381196300,3.8391962890625,-7.988202985706925,-5.686854381293058,0.1367012027592398
1633779675401076200,3.859076171875,-7.930404292210936,-5.767206851902603,0.13562019345634616
1633779675420955400,3.878955322265625,-7.871411420494318,-5.847251279476285,0.14463814237150363
1633779675440835300,3.89883544921875,-7.807132132807373,-5.932300383469462,0.1639633036942221
1633779675460714200,3.91871435546875,-7.739071573016047,-6.020334640753269,0.18091505954964085
1633779675480594400,3.938594482421875,-7.674758967581391,-6.102628308558463,0.16244720004284754
1633779675500473300,3.958473388671875,-7.631277553251385,-6.158372992134094,0.09182036082693375
1633779675520352300,3.978352294921875,-7.617282345646619,-6.1762482560426,0.03671490445331437
1633779675540232400,3.998232421875,-7.6072104489654295,-6.188675191417336,0.03211368513501948
1633779675560111400,4.018111328125,-7.595456882807612,-6.20278671887815,0.06970376955424434
1633779675579991300,4.0379912109375,-7.616397379505634,-6.175624571186304,0.15013469396117143
1633779675599870500,4.057870361328125,-7.666940987306833,-6.110699386811256,0.21850314152473582
1633779675619750100,4.077750244140625,-7.736503183832764,-6.0207940749585624,0.25873353643584995
1633779675639629300,4.09762939453125,-7.812643005183339,-5.922103983625769,0.248361359900143
1633779675659509500,4.117509521484375,-7.883131668904423,-5.829753616708516,0.20148184583075343
1633779675679388200,4.13738818359375,-7.948453743642568,-5.7419724574029445,0.14907801538193596
1633779675699268400,4.157268310546875,-8.006703103515505,-5.661082226654887,0.12341016136845573
1633779675719147500,4.1771474609375,-8.052064340242744,-5.596249981260299,0.12895110922227612
1633779675739027200,4.197027099609375,-8.084211875131725,-5.5488791582763195,0.16075645221062004
1633779675758906400,4.21690625,-8.108723800575733,-5.511457482376694,0.20692533379262312
1633779675778786300,4.236786376953125,-8.127159036454557,-5.482313805478811,0.2527909215791151
1633779675798665200,4.256665283203125,-8.13606773457527,-5.467164167141914,0.2913722158426419
1633779675818545400,4.27654541015625,-8.130222515678405,-5.473753482404351,0.3284570244707167
1633779675838424300,4.29642431640625,-8.105007410401106,-5.507873778671026,0.3775865276902914
1633779675858304300,4.31630419921875,-8.065769624990224,-5.561625242602825,0.426687243206799
1633779675878183400,4.336183349609375,-8.021524240550399,-5.621816968715191,0.4697875857973471
1633779675898063400,4.3560634765625,-7.972261320209503,-5.686897635912895,0.5221415309561416
1633779675917942300,4.3759423828125,-7.914885820561647,-5.760343980395794,0.586004018003121
1633779675937822500,4.395822509765625,-7.861605481272935,-5.828453640025854,0.6282279065527021
1633779675957701400,4.415701416015625,-7.8420567311942575,-5.856252916577458,0.6138646693531423
1633779675977581300,4.435581298828125,-7.8628569426387545,-5.834699256417155,0.5496813163213432
1633779675997460500,4.45546044921875,-7.897537795397639,-5.79371491959989,0.48181795960254964
1633779676017340400,4.47534033203125,-7.925553929570317,-5.762468717464804,0.38721258030012246
1633779676037219300,4.49521923828125,-7.988839530044793,-5.6799961859613655,0.294054038805142
1633779676057099300,4.515099365234375,-8.133257937851548,-5.473450115543604,0.24869391632275653
1633779676076978400,4.534978515625,-8.308037581652403,-5.204833665660024,0.23790661964751778
1633779676096858400,4.5548583984375,-8.442592767092584,-4.984416890799999,0.22045354494014754
1633779676116737300,4.5747373046875,-8.499045891198515,-4.889931557680666,0.15864388050343842
1633779676136616200,4.5946162109375,-8.481243108004332,-4.922615975925326,0.08216012281971052
1633779676156496400,4.614496337890625,-8.429161623111368,-5.011826291251182,0.03483744069323875
1633779676176375300,4.634375244140625,-8.388896248218417,-5.078814253374934,0.04949557831929996
1633779676196255500,4.65425537109375,-8.383093114897608,-5.08665503000319,0.1416862063638866
1633779676216134400,4.674134521484375,-8.385219605532289,-5.076499546691775,0.29601821501757947
1633779676236014300,4.694014404296875,-8.348726150393485,-5.125198403409123,0.4488797492599115
1633779676255893200,4.713893310546875,-8.2566212826699,-5.264143348240852,0.5360869811350479
1633779676275773000,4.73377294921875,-8.130444049474596,-5.4578357823044055,0.5275372525198385
1633779676295651800,4.75365185546875,-8.014578366935252,-5.633701467776298,0.44533509892299766
1633779676315532000,4.773531982421875,-7.933327486181259,-5.755158686712384,0.33293037049248814
1633779676335411000,4.793410888671875,-7.8798302892714736,-5.833126892533898,0.23086466524675486
1633779676355291000,4.813290771484375,-7.834639732936024,-5.896259932795167,0.15141372832050545
1633779676375170000,4.833170166015625,-7.790322452303767,-5.95533639114201,0.12341634451407008
1633779676395050000,4.853050048828125,-7.748406387594342,-6.009547873800993,0.1338525809956249
1633779676414929000,4.872928955078125,-7.721269958865642,-6.042889002388716,0.18939486473379655
1633779676434809000,4.89280908203125,-7.716636453846097,-6.044414019998908,0.2982738484572619
1633779676454688000,4.91268798828125,-7.721638792178035,-6.032435412913561,0.3954621203923598
1633779676474568000,4.93256787109375,-7.720262243127823,-6.032260640868544,0.4239842313257977
1633779676494447000,4.952447021484375,-7.72470636305511,-6.027278760802745,0.4137767986314371
1633779676514327000,4.9723271484375,-7.7537383962720625,-5.989026479297876,0.42601909815426914
1633779676534206000,4.9922060546875,-7.792336714735627,-5.93629500606358,0.45855175990331914
1633779676554086000,5.0120859375,-7.8092329044789075,-5.9137651943475005,0.4622166390864178
1633779676573965000,5.031965087890625,-7.794110738670826,-5.937836390286684,0.4053635193448514
1633779676593845000,5.051844970703125,-7.767448357194661,-5.977918225306272,0.3187803011195734
1633779676613724000,5.071723876953125,-7.756239565438031,-5.995673662227392,0.25105682779550553
1633779676633602800,5.091602783203125,-7.762828296178579,-5.987817103508115,0.23435614235801622
1633779676653483000,5.11148291015625,-7.775792991691827,-5.969145720785856,0.2770086863821372
1633779676673362000,5.13136181640625,-7.789020137533545,-5.948024606823921,0.35007852570284154
1633779676693242000,5.1512421875,-7.796071225088834,-5.933285302853584,0.4333342434732243
1633779676713121000,5.17112109375,-7.795318945416808,-5.9267655456960195,0.526152885489352
1633779676733001000,5.1910009765625,-7.791345365610718,-5.923302253499627,0.6162871472597122
1633779676752879900,5.2108798828125,-7.778122895944118,-5.932771508112549,0.6880527721140534
1633779676772759800,5.230759765625,-7.74701171836555,-5.968312777093052,0.7303639736209064
1633779676792639000,5.250638916015625,-7.696521886578202,-6.031766135349869,0.7427822872977703
1633779676812519200,5.270519287109375,-7.645544563534855,-6.099765320342779,0.7133708993744104
1633779676832397800,5.290397705078125,-7.636956183409691,-6.120944301971793,0.617516031467542
1633779676852278000,5.310278076171875,-7.6943305140137666,-6.061894147109985,0.47021140069998796
1633779676872157000,5.330156982421875,-7.787435498690605,-5.952637069055438,0.3038761437100358
1633779676892036900,5.350036865234375,-7.893742494767904,-5.816806456851959,0.15485444335890933
1633779676911916000,5.369916015625,-8.056763896235823,-5.590524589350819,0.07056531372044701
1633779676931796000,5.3897958984375,-8.256366431125999,-5.291726936215162,-0.020481555683072656
1633779676951675000,5.4096748046875,-8.411855683523417,-5.03848107394278,-0.15740197241725398
1633779676971555000,5.42955517578125,-8.494898708391188,-4.889194183316826,-0.32071561656370756
1633779676991434000,5.44943408203125,-8.536148418146372,-4.808736206506192,-0.424984202148579
1633779677011314000,5.46931396484375,-8.567924197113513,-4.7546305223092435,-0.39312414243146776
1633779677031193000,5.489193115234375,-8.592999017137288,-4.720756309758126,-0.2126337380346842
1633779677051072000,5.509072021484375,-8.587098268660903,-4.7361821346879,0.02660457317458931
1633779677070952000,5.528951904296875,-8.542067871323228,-4.810134967388213,0.25702996565466746
1633779677090831000,5.5488310546875,-8.473732001721858,-4.916792384338379,0.43750024057887493
1633779677110710800,5.568710693359375,-8.399248130884766,-5.03406208845675,0.530316252246499
1633779677130590000,5.58858984375,-8.32460293200612,-5.156289122721552,0.5329652323853225
1633779677150470100,5.60847021484375,-8.250538163363933,-5.280453262528777,0.46455607835203405
1633779677170348800,5.628348876953125,-8.183139282351732,-5.392269377416372,0.3606197934614494
1633779677190229000,5.64822900390625,-8.123379517915845,-5.488039197388291,0.25003250798275695
1633779677210108200,5.668108154296875,-8.073824921151996,-5.564181356826424,0.15369239557590333
1633779677229987800,5.68798779296875,-8.040354028704762,-5.614003080093861,0.07784250621576794
1633779677249867000,5.707866943359375,-8.022075444692373,-5.640303642520308,0.06060152162280864
1633779677269747700,5.727747802734375,-8.008498754760623,-5.658734202224016,0.11424683089954778
1633779677289627000,5.747626953125,-8.000182177314162,-5.668823634561896,0.17859830703986806
1633779677309506800,5.7675068359375,-8.000665576916933,-5.666823400655389,0.2164627948035486
1633779677329385700,5.7873857421875,-8.001724146059155,-5.665419963598251,0.2140392574510537
1633779677349266000,5.807265869140625,-8.01130212174356,-5.652334272053838,0.20135891357082872
1633779677369144800,5.827144775390625,-8.059170957377553,-5.58183216432929,0.25159358328701925
1633779677389024800,5.847024658203125,-8.132890273582936,-5.468061992764473,0.3560568329274654
1633779677408904000,5.866904052734375,-8.185736897629498,-5.382272299537062,0.4418630754308775
1633779677428783900,5.886783935546875,-8.195714686286449,-5.366932691586017,0.44348932492583987
1633779677448662800,5.906662841796875,-8.172468835255502,-5.4077621301025145,0.37046661268249154
1633779677468542000,5.9265419921875,-8.146182885876298,-5.451784227180481,0.296870959389396
1633779677488422000,5.946421875,-8.130240635856985,-5.477177027112245,0.26477544694859534
1633779677508300800,5.96630078125,-8.120997006693482,-5.489451986795664,0.292765113239456
1633779677528180700,5.9861806640625,-8.103561303246021,-5.511706488701701,0.3518105736598372
1633779677548060000,6.006059814453125,-8.065916924506425,-5.56198823069632,0.4191164426263422
1633779677567939800,6.02593994140625,-8.005680774730443,-5.643415637061,0.48094939660709346
1633779677587818800,6.04581884765625,-7.927027509254216,-5.750756652361154,0.5112924393573776
1633779677607699000,6.065698974609375,-7.844505877912044,-5.862930494645237,0.5100511340593918
1633779677627577900,6.085577880859375,-7.781805968371033,-5.946543428355455,0.502492791101709
1633779677647457800,6.105457763671875,-7.752050297054648,-5.984810907429456,0.5080748655503615
1633779677667337000,6.1253369140625,-7.736819994696974,-6.002566344350576,0.5302736552137881
1633779677687216600,6.145216552734375,-7.70653942272365,-6.040272097888589,0.5429097398271784
1633779677707095800,6.165095703125,-7.657599742987752,-6.103295248034596,0.5304116023797542
1633779677726976000,6.18497607421875,-7.623413395747542,-6.148519122117757,0.4996657144496217
1633779677746854700,6.204854736328125,-7.638578231653571,-6.132398592922091,0.46496454955507066
1633779677766734800,6.22473486328125,-7.707877393329143,-6.049916124546527,0.39689598912037904
1633779677786614000,6.244614013671875,-7.833569473356008,-5.893895541751385,0.25993991655092685
1633779677806493700,6.26449365234375,-8.026513134878874,-5.63172169213593,0.17080330578209832
1633779677826372900,6.284372802734375,-8.230708258256316,-5.329987985548377,0.13062658642013555
1633779677846252800,6.304252685546875,-8.364187338897585,-5.119408129569888,0.04908256793846376
1633779677866131700,6.324131591796875,-8.410590193632245,-5.042805366882681,-0.04973059265157208
1633779677886011000,6.344010986328125,-8.40974322141409,-5.043463538530468,-0.10040637546507641
1633779677905890800,6.363890869140625,-8.399189094173908,-5.061763165330887,-0.050573244887636974
1633779677925769700,6.383769775390625,-8.39422241167724,-5.069191269505024,0.10353163134614005
1633779677945650000,6.40364990234375,-8.383136954039335,-5.0800142768144605,0.2947050317934714
1633779677965529000,6.423529052734375,-8.350162905198335,-5.123949280130863,0.4362416188199073
1633779677985408800,6.44340869140625,-8.297045647516846,-5.205767731639742,0.4789576748006045
1633779678005288000,6.463287841796875,-8.234180902802944,-5.309800937566161,0.4179272693743929
1633779678025168000,6.48316796875,-8.170373908802867,-5.415294863694906,0.2999190766473301
1633779678045046800,6.503046875,-8.111682650381326,-5.507958534345031,0.1826940336545929
1633779678064927000,6.522927001953125,-8.060210237297415,-5.585552646157145,0.0706618831298314
1633779678084806000,6.542805908203125,-8.017955149891971,-5.646321879896521,-0.04278553188717924
1633779678104685800,6.562685791015625,-7.989154002821445,-5.685453282323479,-0.13935311464066616
1633779678124565000,6.58256494140625,-7.979587717574835,-5.697410846620798,-0.18991580160167068
1633779678144445000,6.60244482421875,-7.98189014929831,-5.694166165611148,-0.190503008638788
1633779678164323800,6.62232373046875,-7.980034292298555,-5.698203458303213,-0.14113407977330497
1633779678184203800,6.642203857421875,-7.973949419426917,-5.708333807173371,-0.03801493821819313
1633779678204082700,6.662082763671875,-7.972034525716304,-5.709773484587669,0.12464407794442958
1633779678223963000,6.681962890625,-7.968793936359882,-5.7086354204684495,0.28318136540139094
1633779678243841800,6.701841796875,-7.95682468162477,-5.720134135082364,0.37334728268533945
1633779678263722000,6.721721923828125,-7.954107239359617,-5.720395416367054,0.4238341553306207
1633779678283601000,6.741600830078125,-7.989643832165003,-5.665587721380591,0.4869125793278217
1633779678303479600,6.7614794921875,-8.056445916327833,-5.560393070459366,0.5883003853119909
1633779678323359700,6.78135986328125,-8.122018750956654,-5.454180182406306,0.6746257197860628
1633779678343239000,6.801239013671875,-8.164498879289626,-5.388645926222205,0.6883512436039746
1633779678363118600,6.82111865234375,-8.182128059482574,-5.370003185072541,0.6214678378332406
1633779678382997800,6.840997802734375,-8.187744730320572,-5.37272705707848,0.5148079731976614
1633779678402877700,6.860877685546875,-8.194308911141754,-5.371285041576623,0.4159106688549742
1633779678422756600,6.880756591796875,-8.199342813655733,-5.367388618659973,0.36373503940515217
1633779678442636800,6.90063671875,-8.189986371767521,-5.3805730944037435,0.37939606133028864
1633779678462515700,6.920515625,-8.149109002456068,-5.43742427791655,0.44364553840085863
1633779678482395600,6.940395751953125,-8.064739697420597,-5.554067959091067,0.5316822068374604
1633779678502274800,6.96027490234375,-7.943683460500836,-5.718039208629727,0.6101709294017404
1633779678522154800,6.98015478515625,-7.814619858214258,-5.888254320994019,0.6561709754891694
1633779678542033700,7.00003369140625,-7.716859741207957,-6.011314883473515,0.6960953549247235
1633779678561913900,7.019913818359375,-7.662605003929138,-6.075128891736268,0.7400511087682098
1633779678581792800,7.039792724609375,-7.625737454780936,-6.116534668835997,0.7787906623333692
1633779678601672700,7.059672607421875,-7.584687651512026,-6.169672969305515,0.7602851376973092
1633779678621551900,7.0795517578125,-7.556691391083597,-6.213064951786398,0.6816321644820272
1633779678641430800,7.0994306640625,-7.57641842033863,-6.197994808426499,0.5942416484618559
1633779678661310700,7.119310791015625,-7.6497455223560324,-6.113324474617839,0.5282434280278161
1633779678681190000,7.13918994140625,-7.7620105500549075,-5.973796761462092,0.4851128729620948
1633779678701069800,7.15906982421875,-7.917626643702388,-5.769585855993628,0.43982992563545703
1633779678720948700,7.17894873046875,-8.104531609582901,-5.508151426568627,0.3836806798469275
1633779678740828700,7.19882861328125,-8.269218313914537,-5.261514168781042,0.32692407928239553
1633779678760707800,7.218707763671875,-8.3765815410465,-5.093360665121674,0.24687327676685525
1633779678780587800,7.238587890625,-8.425210839658975,-5.016332370498776,0.15037136139441282
1633779678800466700,7.258466796875,-8.435505439180135,-5.000439804840088,0.09076373704662546
1633779678820347000,7.278346923828125,-8.424742053103447,-5.018222714290022,0.10742213597865774
1633779678840225800,7.298225830078125,-8.401929332792758,-5.053278245580196,0.2057876715322025
1633779678860105700,7.318105712890625,-8.37283241764605,-5.0934921825468535,0.3498652848109603
1633779678879985000,7.33798486328125,-8.344170971307157,-5.127476285213231,0.5041679943049326
1633779678899864600,7.357864501953125,-8.315711769542098,-5.1570297119557855,0.6514324026599526
1633779678919743700,7.37774365234375,-8.283546114474534,-5.192568642848729,0.7684282582730054
1633779678939624000,7.3976240234375,-8.254024836435914,-5.233161934521794,0.8096136706203222
1633779678959502600,7.417502685546875,-8.229380809044837,-5.276835656553507,0.7763245644807815
1633779678979381800,7.4373818359375,-8.207302832749486,-5.3171425325006245,0.7338613142173737
1633779678999262000,7.457261962890625,-8.19026811131835,-5.343122192409634,0.7354818280912935
1633779679019140600,7.477140625,-8.178584687787295,-5.355918545618653,0.7715398144222796
1633779679039020800,7.497020751953125,-8.171662779569626,-5.3681712934702634,0.7596335419207811
1633779679058900000,7.51689990234375,-8.177524365079403,-5.371736292475462,0.6655339201834053
1633779679078779600,7.536779541015625,-8.209433999559282,-5.334661822578311,0.562994423413463
1633779679098658800,7.556658935546875,-8.262414479118585,-5.257298596912622,0.5135174219304696
1633779679118538800,7.576538818359375,-8.307599190235138,-5.189699809414148,0.4703168703684583
1633779679138417700,7.596417724609375,-8.325532906332612,-5.167703666183352,0.388235493607074
1633779679158297900,7.6162978515625,-8.332543077355623,-5.162008084890246,0.30459667653692885
1633779679178176800,7.6361767578125,-8.348649578025936,-5.137461672654748,0.27734993756785986
1633779679198056700,7.656056640625,-8.377441957268118,-5.087732303845882,0.32221875113565474
1633779679217936000,7.675935791015625,-8.401502631813287,-5.0432899355292315,0.3877610810283571
1633779679237815800,7.69581591796875,-8.408760640117526,-5.028759890395403,0.41797088932041077
1633779679257694700,7.71569482421875,-8.405310207402705,-5.036210206401348,0.3971574165355414
1633779679277574000,7.735573974609375,-8.398595219933986,-5.050867092785239,0.35033556920383124
1633779679297453800,7.755453857421875,-8.39299374666512,-5.062282805290818,0.3183227300778031
1633779679317333000,7.7753330078125,-8.386921733275056,-5.071924493861198,0.3248216636430472
1633779679337213000,7.795212890625,-8.373739011096953,-5.089927183541655,0.3788409481981769
1633779679357091800,7.815091796875,-8.338264377611875,-5.140576005282997,0.46712622110098595
1633779679376972000,7.834971923828125,-8.279498300388456,-5.225939582052827,0.5566381131893023
1633779679396851000,7.854850830078125,-8.220000401759147,-5.315519315212964,0.5892636773861945
1633779679416731000,7.87473095703125,-8.195438791954517,-5.354738395923376,0.5761444488983601
1633779679436610000,7.894610107421875,-8.214728014314174,-5.322881368413567,0.596287475075759
1633779679456489700,7.91448974609375,-8.258346206766367,-5.239388846212625,0.7203517712377011
1633779679476369000,7.934368896484375,-8.30112502578497,-5.147015098419785,0.877464313988015
1633779679496249000,7.9542490234375,-8.345301436641812,-5.058177123537659,0.9701393828149885
1633779679516127700,7.974127685546875,-8.425178690955041,-4.925488901013136,0.9624486821819096
1633779679536008000,7.994008056640625,-8.546066585570573,-4.723438972970843,0.9078818832792341
1633779679555887000,8.01388720703125,-8.656137902617454,-4.53535005800277,0.8199150652084499
1633779679575765800,8.033765869140625,-8.708337460932135,-4.460185803686082,0.6648184653904289
1633779679595646000,8.05364599609375,-8.70963393048346,-4.480375774277746,0.48877055521942675
1633779679615524900,8.07352490234375,-8.704588922053574,-4.501270386007428,0.37294038238488136
1633779679635404800,8.09340478515625,-8.729746159663796,-4.4512204069420696,0.38541988819707185
1633779679655284000,8.113283935546875,-8.788460214439034,-4.322769091334939,0.49701037763524797
1633779679675164000,8.133163818359375,-8.847098281368613,-4.190148088827729,0.5847221249664202
1633779679695042800,8.153042724609374,-8.884037726709247,-4.111156385177374,0.585358340510726
1633779679714923000,8.172923095703124,-8.902479976850747,-4.0821743285819885,0.5020774517664686
1633779679734801700,8.1928017578125,-8.913138733509182,-4.070262941513955,0.39912762062996626
1633779679754681900,8.212681884765624,-8.920738687118888,-4.059621720512211,0.3320820100348443
1633779679774561000,8.23256103515625,-8.922591036987304,-4.056536613978445,0.31978001621402796
1633779679794441000,8.25244091796875,-8.91197085877359,-4.077372188997268,0.3495622467437759
1633779679814319900,8.27231982421875,-8.883615117383004,-4.135514873625338,0.38637200129013505
1633779679834199000,8.292198974609375,-8.837415676265955,-4.230959699426591,0.411637740776129
1633779679854078700,8.31207861328125,-8.778962902775406,-4.350084676022828,0.4206626856876537
1633779679873958000,8.3319580078125,-8.714316535341739,-4.4784386687353255,0.41791901300270107
1633779679893837800,8.351837890625,-8.65256588934958,-4.59823818359226,0.3996174499735236
1633779679913716700,8.371716796875,-8.602099438437818,-4.695120056459308,0.36071368228998035
1633779679933597000,8.391596923828125,-8.569073951670527,-4.7601732511281964,0.28653496841192244
1633779679953475800,8.411475830078125,-8.54991624673605,-4.798946633897722,0.19855280664153396
1633779679973355800,8.431355712890625,-8.537130999442935,-4.823313890174031,0.15305273683234116
1633779679993235000,8.45123486328125,-8.534038294124603,-4.828341362947225,0.1664255838882178
1633779680013115000,8.471114990234375,-8.538083770123123,-4.82091033616364,0.17418122124997898
1633779680032993800,8.490993896484374,-8.54439660653174,-4.810333704830706,0.1560883325354196
1633779680052873700,8.510873779296874,-8.544242877274751,-4.811066110758484,0.14119902563514186
1633779680072753000,8.5307529296875,-8.543317579123377,-4.812546120183169,0.14664995711795054
1633779680092631800,8.5506318359375,-8.568556065276265,-4.766356615938246,0.17908903143256902
1633779680112512000,8.570511962890626,-8.625041338086127,-4.660396241341531,0.2444514564474113
1633779680132391000,8.590390869140625,-8.686456468513608,-4.541199660813808,0.30554749272204934
1633779680152270800,8.610270751953125,-8.731091144531964,-4.453763369423151,0.32003442936651405
1633779680172150000,8.63014990234375,-8.756559932309388,-4.406041833305359,0.28254843779271466
1633779680192030000,8.650030029296875,-8.770563907742499,-4.382029089555144,0.21311461688680572
1633779680211908900,8.669908935546875,-8.77738995437026,-4.371824506404995,0.1223226766590029
1633779680231788800,8.689788818359375,-8.775085184559225,-4.378009624780714,0.03597690675167832
1633779680251668000,8.70966796875,-8.762014690583944,-4.404146228817105,-0.03130197602648986
1633779680271547100,8.729547119140625,-8.73719764471352,-4.452748054900765,-0.06925908539351075
1633779680291426000,8.749426025390624,-8.695300869226456,-4.534064109845459,-0.06623449970821384
1633779680311306000,8.769305908203124,-8.626953309187293,-4.663062537941336,-0.0436288828095654
1633779680331185200,8.78918505859375,-8.533189568340777,-4.832630292312801,-0.027247880613384765
1633779680351064800,8.80906494140625,-8.427267772188783,-5.015044668775797,-0.029546042587119153
1633779680370944000,8.828944091796876,-8.323571835392713,-5.185223540782928,-0.044678483194042926
1633779680390823200,8.8488232421875,-8.230417166355252,-5.331980620670318,-0.024382883103704078
1633779680410702800,8.868702880859376,-8.144282020691037,-5.462654580762982,0.021360672038584015
1633779680430582000,8.88858203125,-8.054151667910814,-5.594522134554386,0.04841594355616253
1633779680450462200,8.908462158203125,-7.960549255105852,-5.726939138922095,0.04694274746475275
1633779680470340900,8.9283408203125,-7.883039898967742,-5.833300495535135,0.02579085248877527
1633779680490221000,8.948220947265625,-7.838485302448272,-5.893091239631175,-0.0033502314494558956
1633779680510100200,8.968100341796875,-7.817710809966921,-5.920545648267865,-0.030277448434475808
1633779680529980000,8.98797998046875,-7.805804099074005,-5.935863044387101,-0.07308580407481641
1633779680549859000,9.007859130859375,-7.852239687034487,-5.873633674967289,-0.11465927502480334
1633779680569739000,9.027739013671875,-8.036393308380246,-5.620112502884864,-0.03314684584134957
1633779680589618000,9.047617919921874,-8.24239401987493,-5.312318473345041,0.11223571027284487
1633779680609498000,9.067498046875,-8.315136015480757,-5.19333261295855,0.24122495041526854
1633779680629377000,9.087376953125,-8.24987180840969,-5.2938808993786575,0.2912418126623146
1633779680649256000,9.107255859375,-8.162202292785048,-5.428353082710505,0.2860398418387398
1633779680669136100,9.12713623046875,-8.151673299986124,-5.444949412724376,0.27043511667810377
1633779680689014800,9.147014892578126,-8.215861402258277,-5.346745643603802,0.28691026799771935
1633779680708895000,9.16689501953125,-8.287120465829968,-5.231426489031315,0.3552426670003682
1633779680728774100,9.186774169921875,-8.31387812437415,-5.183566421225667,0.42479269816447046
1633779680748654000,9.206654052734375,-8.286646418577432,-5.2232963740676635,0.468035627563484
1633779680768533000,9.226532958984375,-8.243769399881362,-5.290999206462502,0.4647310330601409
1633779680788413000,9.246412841796875,-8.229509403860568,-5.317475125455856,0.4123309106720611
1633779680808291800,9.266291748046875,-8.246550555032492,-5.297187539708614,0.32341033554039894
1633779680828172000,9.286172119140625,-8.266053712403775,-5.2712458737224335,0.23812495683962479
1633779680848051000,9.306051025390625,-8.259189671853184,-5.284464251735806,0.1749587997600436
1633779680867931100,9.32593115234375,-8.214180317303537,-5.355861846995353,0.11124228792185895
1633779680887810000,9.34581005859375,-8.142211059635876,-5.465677727976441,0.033915131366683636
1633779680907689200,9.365689208984374,-8.067831818217039,-5.574974553519487,-0.011423955177539028
1633779680927569000,9.38556884765625,-8.013325152003764,-5.65300004248619,-0.024410766624473033
1633779680947448000,9.405447998046874,-8.002149093472957,-5.668204041358829,-0.08636420517973602
1633779680967328000,9.425327880859374,-8.097215733611582,-5.531731624120473,-0.07366897882421035
1633779680987207000,9.44520703125,-8.274018992194533,-5.2635237550377845,0.07946439006286672
1633779681007087000,9.465087158203126,-8.419407121816278,-5.021684252920746,0.2581865883438848
1633779681026966000,9.484966064453126,-8.478239834535122,-4.917328975433111,0.3312222148677334
1633779681046846000,9.504845947265625,-8.476665132564305,-4.925087334474921,0.24503822509311138
1633779681066725000,9.52472509765625,-8.484798754659295,-4.9161283674716945,0.10124087179414927
1633779681086605000,9.54460498046875,-8.533069741353392,-4.8328679004609585,-0.022233344953577032
1633779681106484000,9.56448388671875,-8.594428173157572,-4.722057163223624,-0.09147395854205824
1633779681126364000,9.584364013671875,-8.627615572488308,-4.66024835730344,-0.12931701992521993
1633779681146243000,9.6042431640625,-8.623031167307495,-4.668751397232711,-0.12838190363273025
1633779681166122000,9.6241220703125,-8.59793705806136,-4.715848956233263,-0.08141790788397192
1633779681186002000,9.644001953125,-8.566863874405621,-4.77274719375819,-0.01047293121315306
1633779681205881000,9.663881103515624,-8.533739018917084,-4.8312709866583345,0.06713392363281455
1633779681225761000,9.683760986328124,-8.491842827951908,-4.90282961769849,0.1457703886712901
1633779681245640000,9.703639892578124,-8.431416124039888,-5.001633398538828,0.25548505603391675
1633779681265520000,9.72352001953125,-8.351181726852058,-5.125548532021045,0.3961146660169586
1633779681285399300,9.7433994140625,-8.253854740566014,-5.271768436291813,0.5027173205725849
1633779681305279200,9.763279296875,-8.184089130422473,-5.376356353491545,0.5346684195740148
1633779681325158100,9.783158203125,-8.201077090102434,-5.354919597709179,0.4873967826481908
1633779681345038000,9.8030380859375,-8.30511497220397,-5.202349447628856,0.3619599194914102
1633779681364917200,9.822917236328125,-8.470946754917502,-4.9381280178338285,0.16832622987776993
1633779681384796200,9.842796142578125,-8.676873232132197,-4.56958170568943,-0.0343200360728777
1633779681404676000,9.862676025390625,-8.861808943766356,-4.1935035367354745,-0.2307748132725246
1633779681424555300,9.88255517578125,-8.975530015492438,-3.927352015660703,-0.43144689535666253
1633779681444435200,9.902435302734375,-9.024455082181095,-3.782468620690703,-0.650018151947856
1633779681464314000,9.922314208984375,-9.04486834013462,-3.68993237581253,-0.8632128665998577
1633779681484194300,9.9421943359375,-9.067317487829923,-3.607139818574488,-0.9709159932106732
1633779681504073200,9.9620732421875,-9.093473673349619,-3.5556463627025483,-0.9146066614896059
1633779681523953200,9.981953125,-9.099780664539336,-3.5796842408940193,-0.7417763251256198
1633779681543832300,10.001832275390624,-9.068007223659754,-3.6968414245486256,-0.5244007811250164
1633779681563712000,10.0217119140625,-8.997894407513737,-3.8871544453069564,-0.3135395509218797
1633779681583591200,10.041591064453126,-8.908944204428792,-4.096396330679953,-0.14362494674096815
1633779681603471400,10.061471435546874,-8.82175984197259,-4.2832285235852,-0.02982810636493377
1633779681623350000,10.08135009765625,-8.741565776795149,-4.4444802850320935,0.04475141143293585
1633779681643229200,10.101229248046875,-8.662620834895968,-4.596152901750803,0.06896851408225484
1633779681663109400,10.121109375,-8.589501822671293,-4.731751458764076,0.037056361135013864
1633779681682988300,10.14098828125,-8.529875913748144,-4.83850649086982,-0.0214367055500159
1633779681702868200,10.1608681640625,-8.48303466759622,-4.91982956007719,-0.06148961586921941
1633779681722747400,10.180747314453125,-8.452704411262273,-4.97147031546533,-0.08155398275326006
1633779681742627000,10.200626953125,-8.442385261821746,-4.9893350579798215,-0.05523767020183149
1633779681762506200,10.22050634765625,-8.437009414002299,-4.998704359349608,-0.014781131534778977
1633779681782386200,10.24038623046875,-8.451888418704272,-4.973101716059446,0.06507106368571985
1633779681802265000,10.26026513671875,-8.506988959157466,-4.872215283726155,0.2510742538543418
1633779681822145300,10.280145263671875,-8.563684075325726,-4.756385549283027,0.45880160647854207
1633779681842024400,10.3000244140625,-8.595541687357425,-4.683325866030156,0.5945609800767153
1633779681861903000,10.319903076171874,-8.606098737207054,-4.66384842762202,0.5949543998410924
1633779681881783300,10.339783203125,-8.624583072924613,-4.638913600590825,0.517134406851232
1633779681901662200,10.359662109375,-8.662069630753994,-4.577791315630078,0.42750645063519477
1633779681921542100,10.379542236328126,-8.70450533542335,-4.501451880054176,0.37270131293199954
1633779681941421300,10.39942138671875,-8.732866922032832,-4.447789847971499,0.3529657715769484
1633779681961301200,10.41930126953125,-8.73522137620449,-4.441328835263848,0.37535252156052734
1633779681981180200,10.43918017578125,-8.707605639526248,-4.48972198703289,0.4363300277557224
1633779682001060400,10.459060302734375,-8.652275381970405,-4.585466672563553,0.5310454798365012
1633779682020939000,10.47893896484375,-8.574144679063558,-4.716618479301035,0.6387025388158858
1633779682040819200,10.498819091796875,-8.486550566762686,-4.857325757630169,0.7451431712102145
1633779682060698400,10.518698486328125,-8.403385376819967,-4.985475459942221,0.8357829348172992
1633779682080577000,10.538576904296875,-8.331768585851789,-5.0938206838488576,0.8972257569693028
1633779682100457200,10.558457275390625,-8.270199141645431,-5.184834249204397,0.9442910211354494
1633779682120336400,10.57833642578125,-8.21546100476384,-5.249942388930917,1.0557865988317876
1633779682140216000,10.598216064453124,-8.187239703407883,-5.279212907078862,1.1266807746138423
1633779682160095200,10.61809521484375,-8.156209189850092,-5.3259688130348914,1.1316743451174347
1633779682179975200,10.63797509765625,-8.112523192858696,-5.39868976585269,1.1006806564386933
1633779682199854000,10.65785400390625,-8.08254306513667,-5.461270432928204,1.0086650013685226
1633779682219734300,10.677734375,-8.114516412502526,-5.449927785658836,0.7894945002425462
1633779682239613200,10.69761328125,-8.251897761279345,-5.276189759865403,0.4882464217474684
1633779682259492000,10.7174921875,-8.461080609941481,-4.94618272947371,0.3402587406191975
1633779682279373300,10.737373291015626,-8.626066589480638,-4.652140454171597,0.34488563323486593
1633779682299252200,10.757252197265625,-8.688398250231145,-4.538662543551624,0.28750543914558363
1633779682319132400,10.77713232421875,-8.659058758500217,-4.6000291586622595,0.17553336651129647
1633779682339011300,10.79701123046875,-8.59633371451795,-4.719456333075463,0.012691858504794071
1633779682358891300,10.816891357421875,-8.563929574519396,-4.777029985643923,-0.09739129282706417
1633779682378770400,10.8367705078125,-8.583309982293844,-4.741771625258028,-0.11301791929225437
1633779682398650400,10.856650390625,-8.609790577462315,-4.694304940684139,-0.07343291874574497
1633779682418529300,10.876529296875,-8.587875682774186,-4.734711185352504,-0.035798122968536336
1633779682438409200,10.8964091796875,-8.49743494887054,-4.895298345410824,0.006556553495506523
1633779682458288400,10.916288330078125,-8.350780744835735,-5.139548415800928,0.1409873465126846
1633779682478167300,10.936167236328124,-8.163962288194893,-5.423142654585838,0.3311049086309969
1633779682498047200,10.956047119140624,-7.987168966484069,-5.67827184638679,0.3643467415627092
1633779682517926400,10.975926513671874,-7.88179603638649,-5.824671783399581,0.3476698571259156
1633779682537806300,10.995806396484374,-7.827240854856371,-5.892622453075647,0.4262471347564831
1633779682557685200,11.015685302734376,-7.792201690179109,-5.919802136424184,0.6386934787265957
1633779682577565400,11.0355654296875,-7.787847586622834,-5.914536178719997,0.7335298172406852
1633779682597444400,11.0554443359375,-7.8417638857275245,-5.868792080155015,0.4841518093775958
1633779682617324300,11.07532421875,-7.953343269249796,-5.736839770689606,0.058255387754924594
1633779682637203500,11.095203369140625,-8.091141966655849,-5.5378895622283215,-0.18865511574978008
1633779682657083400,11.11508349609375,-8.24423877095878,-5.306985295623541,-0.19701476515298708
1633779682676962300,11.13496240234375,-8.397894962710142,-5.063223301011323,-0.0975722845503129
1633779682696841200,11.15484130859375,-8.51600930095911,-4.861785367387533,0.10497966559682972
1633779682716721400,11.174721435546875,-8.610288590112328,-4.6844545777991415,0.29866701249331234
1633779682736600300,11.194600341796875,-8.706169469243287,-4.5018373722404235,0.3262821281170472
1633779682756480500,11.21448046875,-8.767167251041531,-4.382634361971914,0.31571923304852095
1633779682776359400,11.234359375,-8.79676802405715,-4.324505705869198,0.2931029120927676
1633779682796239400,11.2542392578125,-8.807403984361887,-4.301605599536002,0.3101842856772244
1633779682816118300,11.2741181640625,-8.811401529565453,-4.293675391058623,0.3064881711056456
1633779682835998200,11.293998291015624,-8.813041697987913,-4.293547380764783,0.2571540121594444
1633779682855877400,11.31387744140625,-8.827702091503143,-4.264919836695492,0.22917059294627978
1633779682875756300,11.33375634765625,-8.868412872076034,-4.1777728836402295,0.2604924358671531
1633779682895636200,11.35363623046875,-8.943288372579216,-4.012852955074608,0.291520593071077
1633779682915515400,11.373515380859375,-9.038297145050764,-3.7974879106462,0.24218384030899032
1633779682935395300,11.393395263671875,-9.121852211093902,-3.5945480480268595,0.20352400091653688
1633779682955274200,11.413274169921875,-9.179117236104608,-3.4434462169334292,0.2384808576052077
1633779682975154400,11.433154541015625,-9.206241389873624,-3.3645684950515626,0.30852541255429383
1633779682995033300,11.453033447265625,-9.187586958286166,-3.4109979455322024,0.3517438285665586
1633779683014913300,11.472913330078125,-9.119276223126054,-3.590394143217802,0.34387791749704627
1633779683034792400,11.49279248046875,-9.02877469894588,-3.8157007359459993,0.3033853097194806
1633779683054671400,11.51267138671875,-8.949515284270047,-4.002189229980111,0.2429821693461388
1633779683074551300,11.53255126953125,-8.887550118744374,-4.140173220825195,0.20199200557628647
1633779683094430500,11.552430419921874,-8.837192973425983,-4.248566375526786,0.15519810569742692
1633779683114310100,11.57231005859375,-8.789000312665104,-4.348971161822974,0.10151846489282325
1633779683134189300,11.592189208984376,-8.742012936040759,-4.443315040645003,0.06737984295159112
1633779683154069500,11.612069580078124,-8.732978565713763,-4.461243203784525,0.05275647981138899
1633779683173948200,11.6319482421875,-8.79473447240293,-4.338250738105177,0.05103720000442117
1633779683193828400,11.651828369140626,-8.941674507641793,-4.0269478236615655,0.023143331371387466
1633779683213707500,11.67170751953125,-9.107387632411719,-3.63599737200737,-0.07348128793211653
1633779683233586400,11.69158642578125,-9.19904943254292,-3.392164357985556,-0.20272095917165278
1633779683253466400,11.71146630859375,-9.208997995105385,-3.3567961074844,-0.310907448852621
1633779683273344800,11.7313447265625,-9.183454388526082,-3.415853276608884,-0.40804201783910393
1633779683293224700,11.751224609375,-9.164037155872583,-3.45442032315135,-0.5077282806023955
1633779683313103600,11.771103515625,-9.170945035564898,-3.422791551439464,-0.5904645776085555
1633779683332983800,11.79098388671875,-9.184404236596823,-3.3826702611923216,-0.6120806354805827
1633779683352862700,11.81086279296875,-9.171298086786269,-3.4186686262905597,-0.6085856695042923
1633779683372742700,11.83074267578125,-9.122702690443395,-3.539630170664191,-0.6462999351423233
1633779683392621800,11.850621826171874,-9.069769557157159,-3.6625811352893707,-0.7036824490528554
1633779683412500700,11.870500732421876,-9.052510963842272,-3.698284609094262,-0.7383189512133598
1633779683432380700,11.890380615234376,-9.085897100615501,-3.618678865198791,-0.7225103375110775
1633779683452259800,11.910259765625,-9.150998226079345,-3.471225912001729,-0.6166065154071897
1633779683472139800,11.930139892578126,-9.20505539495945,-3.348538274487853,-0.47394978351071476
1633779683492018700,11.950018798828125,-9.217843564862012,-3.3271684464618563,-0.3629001594835892
1633779683511899000,11.96989892578125,-9.189824508079885,-3.411511740273237,-0.2812536122092046
1633779683531777500,11.989777587890625,-9.149988172253966,-3.517488481482863,-0.27454373930701986
1633779683551657700,12.00965771484375,-9.128015409898758,-3.5701518579170104,-0.32208573587313294
1633779683571537000,12.029536865234375,-9.13004603894353,-3.557700372622907,-0.3942190249960869
1633779683591415600,12.04941552734375,-9.147785693773626,-3.506404485149681,-0.43991782311461863
1633779683611295700,12.069295654296875,-9.171654645138979,-3.445395305174589,-0.42471773323211814
1633779683631175000,12.0891748046875,-9.187290021166206,-3.4098584201082587,-0.3700746542228386
1633779683651054600,12.1090546875,-9.18554814593494,-3.4206527858451006,-0.308585764439404
1633779683670933800,12.128933837890624,-9.169641551750898,-3.4648850185424087,-0.2874563758394681
1633779683690813700,12.148813720703124,-9.146203393018245,-3.524178626771271,-0.31226408762596547
1633779683710692600,12.168692626953124,-9.120012136185169,-3.5877833761975166,-0.3515297474244609
1633779683730572800,12.18857275390625,-9.093350339230895,-3.6529151890605687,-0.3709125663517043
1633779683750451700,12.20845166015625,-9.06131561706662,-3.7307384334534404,-0.3801770556401461
1633779683770330600,12.22833056640625,-9.02620104906559,-3.8128698964342473,-0.4001195542767644
1633779683790210800,12.2482109375,-9.005438247022033,-3.8604116920709606,-0.41193635839652265
1633779683810089700,12.26808984375,-9.01133490384519,-3.846850784230232,-0.4098399341065436
1633779683829969700,12.2879697265625,-9.029088587200642,-3.8061324048727747,-0.3991223599329591
1633779683849848800,12.307848876953125,-9.045123191678524,-3.7697260434955355,-0.38117465184275057
1633779683869728800,12.327728759765625,-9.046543579870463,-3.767427411164343,-0.37003877919185907
1633779683889607700,12.347607666015625,-9.033315849506854,-3.798582427884638,-0.37464082962721584
1633779683909486800,12.36748681640625,-9.018326370167731,-3.833570154635608,-0.37936581232249733
1633779683929366800,12.38736669921875,-9.01471168680191,-3.8425527947753664,-0.374364679566957
1633779683949245700,12.40724560546875,-9.02463336135745,-3.8207586038574575,-0.35801750200856475
1633779683969125600,12.427125732421874,-9.039355714192986,-3.788281690883636,-0.33068368754424154
1633779683989004500,12.447004638671874,-9.046832333683968,-3.7740395227804777,-0.286061396083422
1633779684008884700,12.466884765625,-9.04261150111854,-3.7878283941581845,-0.23219691849751398
1633779684028763600,12.486763671875,-9.029882952448725,-3.819997264096141,-0.1980323446976952
1633779684048643800,12.506643798828126,-9.016130321428179,-3.8529561153680083,-0.1857544624048285
1633779684068522800,12.526522705078126,-9.005819939815998,-3.8773262942537663,-0.17869425996132193
1633779684088402000,12.54640185546875,-8.99759104065299,-3.8969288203462957,-0.16640072344159706
1633779684108281600,12.566281494140625,-8.983823212063312,-3.929019364351034,-0.1552938211568631
1633779684128160800,12.586160888671875,-8.963781710031627,-3.9747731075271964,-0.14892522683986462
1633779684148040700,12.606040771484375,-8.943212969255447,-4.0207296797990795,-0.15184950765557587
1633779684167919600,12.625919677734375,-8.925421291977166,-4.059898783887922,-0.15639166286354883
1633779684187799800,12.6457998046875,-8.91437441278398,-4.083910943116248,-0.16121011426225304
1633779684207678700,12.6656787109375,-8.910898845627903,-4.0910386030390855,-0.17224073644038287
1633779684227557600,12.6855576171875,-8.909135343086719,-4.094297604835033,-0.18551170315751805
1633779684247437800,12.705437744140625,-8.899743245363235,-4.113674797739089,-0.2064717630725354
1633779684267316700,12.725316650390624,-8.888585307011008,-4.136167200054228,-0.2357026067972183
1633779684287197200,12.745197265625,-8.878673569327592,-4.155078236751258,-0.27360817548995836
1633779684307076000,12.765076171875,-8.873408196145295,-4.163683568011224,-0.3110445192357525
1633779684326956000,12.7849560546875,-8.867682219713926,-4.172489098018407,-0.3534641860857606
1633779684346835200,12.804835205078126,-8.861915911272167,-4.181079816231131,-0.3942109878201037
1633779684366715100,12.824715087890626,-8.857672282353043,-4.186551525640487,-0.42989221326056865
1633779684386594000,12.844593994140626,-8.854954255566,-4.18863534617722,-0.46422695599552244
1633779684406473200,12.86447314453125,-8.855655681833625,-4.183519026076794,-0.49589763062037523
1633779684426353200,12.884353271484375,-8.856024515146016,-4.179561228361726,-0.5219952178206294
1633779684446232000,12.904232177734375,-8.854856640410423,-4.179726063534617,-0.54018141084183
1633779684466112300,12.9241123046875,-8.853007797673344,-4.18197822637558,-0.55289848826956
1633779684485991200,12.9439912109375,-8.84874546405375,-4.189297609478235,-0.5655766219263896
1633779684505871000,12.96387109375,-8.843644341522454,-4.19891971656531,-0.5739465004626662
1633779684525750300,12.983750244140625,-8.841758089384436,-4.201636574308574,-0.5830490771876647
1633779684545630200,13.003630126953125,-8.842055026504397,-4.200112725742161,-0.589488462585397
1633779684565509000,13.023509033203124,-8.840739267730712,-4.202153583920002,-0.5946621754288673
1633779684585388300,13.04338818359375,-8.835733422267436,-4.211126287187636,-0.6054918316747993
1633779684605268200,13.063268310546874,-8.831421988809108,-4.218302462427318,-0.6182993638649582
1633779684625147100,13.083147216796876,-8.829677190968393,-4.219133360293507,-0.6372572353783994
1633779684645027000,13.103027099609376,-8.83132320460975,-4.212239216865599,-0.6596588176049292
1633779684664906000,13.122906005859376,-8.836420235487818,-4.198458821055293,-0.6789747818410397
1633779684684786200,13.1427861328125,-8.842764051556587,-4.183555266433954,-0.6883092310931533
1633779684704665000,13.1626650390625,-8.848943032452464,-4.171157264892757,-0.684135014148429
1633779684724544000,13.1825439453125,-8.853046376118064,-4.163277909819781,-0.6790227126359939
1633779684744424200,13.202424072265625,-8.855785445693135,-4.157206773212552,-0.6805028681911528
1633779684764303000,13.22230322265625,-8.857924211287498,-4.150575372374058,-0.69302698033005
1633779684784183000,13.24218310546875,-8.862126339152455,-4.138794333687424,-0.7095644928287714
1633779684804062200,13.262062255859375,-8.865094541308283,-4.12954398252219,-0.726187637784332
1633779684823942100,13.281942138671875,-8.867422691994905,-4.122696016323566,-0.7365995070096105
1633779684843821000,13.301821044921875,-8.870327181264757,-4.115411704534292,-0.7423393658358604
1633779684863700200,13.3217001953125,-8.874563795921206,-4.106443677441775,-0.7413679635204374
1633779684883580200,13.341580078125,-8.87810015335381,-4.100165620085597,-0.7337305274445564
1633779684903459000,13.361458984375,-8.879550936684012,-4.098687656487524,-0.7243773004267364
1633779684923339000,13.381339111328124,-8.880536440590024,-4.097216999413073,-0.7206007775627076
1633779684943218200,13.40121826171875,-8.88289498641491,-4.092074083566666,-0.7207607904300093
1633779684963098000,13.42109814453125,-8.884170413178206,-4.087889199097455,-0.7287436789426952
1633779684982977000,13.44097705078125,-8.884444553944467,-4.085855062921345,-0.7367595198769122
1633779685002857200,13.460857177734376,-8.882191806581616,-4.089985586854815,-0.7409915314234793
1633779685022736100,13.480736083984375,-8.882311633569001,-4.090333085118234,-0.7376267311654985
1633779685042615300,13.500615234375,-8.884881191796064,-4.086481962648034,-0.727963488350436
1633779685062495200,13.5204951171875,-8.887714953917264,-4.081766624563932,-0.7197851503308862
1633779685082374100,13.5403740234375,-8.888125288283824,-4.081814847619832,-0.7144245000805706
1633779685102254000,13.560254150390625,-8.886049651053547,-4.0860964704617855,-0.7157642242517321
1633779685122133200,13.58013330078125,-8.883968168604373,-4.08975353166461,-0.7207043110024184
1633779685142013200,13.60001318359375,-8.884342262613773,-4.0876653272137045,-0.7278994101382792
1633779685161892000,13.61989208984375,-8.886352433392405,-4.081861317110062,-0.735890920348838
1633779685181771000,13.63977099609375,-8.890181051769853,-4.072555728626251,-0.7411847159080207
1633779685201651200,13.659651123046874,-8.891591503089666,-4.0679444354385135,-0.7495407485820352
1633779685221530000,13.679530029296876,-8.891744647824764,-4.065464601321518,-0.7610882707737385
1633779685241410300,13.699410400390626,-8.892211096292733,-4.060755108456314,-0.7805377251964062
1633779685261289200,13.719289306640626,-8.892812569317222,-4.054268376785516,-0.8069546074789017
1633779685281172200,13.739172119140624,-8.893153930100798,-4.0494358420625325,-0.8272060989994555
1633779685301051400,13.759051513671874,-8.893620963090658,-4.045716529278457,-0.8402786388013511
1633779685320930600,13.7789306640625,-8.89712283373177,-4.035935724498331,-0.8501837275482713
1633779685340810200,13.798810302734376,-8.900341795778274,-4.026965067057311,-0.8589834123365581
1633779685360689400,13.818689453125,-8.900409600317477,-4.025283689841628,-0.8661351837873459
1633779685380569300,13.8385693359375,-8.897985588040948,-4.028421403345465,-0.8763919355161488
1633779685400448300,13.8584482421875,-8.8951658544451,-4.032445544295013,-0.8864514841724187
1633779685420328400,13.878328369140625,-8.891656385019422,-4.03819431708008,-0.8954461070109159
1633779685440207400,13.898207275390625,-8.885541701531409,-4.050735234223306,-0.8994893179871142
1633779685460086300,13.918086181640625,-8.8777833424896,-4.068644400401413,-0.8952562104620039
1633779685479966500,13.937966552734375,-8.86894069534242,-4.08920320430547,-0.8892089661870152
1633779685499845600,13.957845703125,-8.859501835867762,-4.110929006162285,-0.8831049502234906
1633779685519725300,13.977725341796875,-8.848905623051524,-4.134161413189768,-0.880889466131106
1633779685539604500,13.9976044921875,-8.838194259423018,-4.1575712226107715,-0.8782393900137394
1633779685559484400,14.017484375,-8.830551635715365,-4.175576250378787,-0.8696594123907386
1633779685579363300,14.03736328125,-8.826298654446004,-4.186699117417633,-0.8592930628076195
1633779685599243500,14.057243408203124,-8.824382591691613,-4.192506926913559,-0.8506143009852617
1633779685619122400,14.077122314453124,-8.820815839120746,-4.200118863222003,-0.8500547674063592
1633779685639001300,14.09700146484375,-8.81563989778757,-4.209853783033788,-0.855573457762599
1633779685658881500,14.116881591796876,-8.812799705925583,-4.215901831026375,-0.8550515527803451
1633779685678760200,14.13676025390625,-8.812869848552346,-4.217857349008321,-0.8446215633764863
1633779685698640400,14.156640380859375,-8.81321588551104,-4.220185499694943,-0.8292411119583993
1633779685718519600,14.17651953125,-8.81127761092484,-4.226237347079813,-0.818954768808931
1633779685738399500,14.1963994140625,-8.807239149188995,-4.235122079803049,-0.8164915205005556
1633779685758278400,14.2162783203125,-8.802320397487282,-4.245758332368731,-0.814291964629665
1633779685778157600,14.236157470703125,-8.799684788286685,-4.251960986401141,-0.8104049671284854
1633779685798037200,14.256037353515625,-8.799686541852354,-4.2524891019284725,-0.8076132905833423
1633779685817916400,14.27591650390625,-8.796997741159796,-4.25862950437963,-0.8045469618152826
1633779685837796400,14.29579638671875,-8.790466878086328,-4.272565675273538,-0.8020335176896304
1633779685857675300,14.31567529296875,-8.784808121672272,-4.284625238640606,-0.7997002524364739
1633779685877555500,14.335555419921874,-8.78311242367029,-4.288380207259952,-0.7982003692675381
1633779685897434400,14.355434326171874,-8.783052217915653,-4.287654231072962,-0.8027440771117806
1633779685917313300,14.375313232421876,-8.78080180864036,-4.290893066863715,-0.8100280235748738
1633779685937193500,14.395193359375,-8.776115112128853,-4.301452747061848,-0.8047942876398563
1633779685957072400,14.415072265625,-8.77078602606058,-4.3153015319332475,-0.7885839612688869
1633779685976952300,14.434952392578126,-8.763586469945311,-4.332040193027257,-0.7767675590079277
1633779685996831500,14.45483154296875,-8.752760540026426,-4.355150142718851,-0.7695669799793511
1633779686016711400,14.47471142578125,-8.71899797115624,-4.433472568805516,-0.7026911729931831
1633779686036590300,14.49459033203125,-8.695492007884383,-4.49267762196809,-0.6120845079381019
1633779686056469500,14.514469482421875,-8.71981513275802,-4.444114082068205,-0.6205304839178919
1633779686076349400,14.534349365234375,-8.740745692583918,-4.396975606535375,-0.6605727906446903
1633779686096228400,14.554228271484375,-8.733387146514653,-4.404814629597961,-0.7042354067604989
