time,seconds_elapsed,z,y,x
1633779671564333600,0.02233349609375,-0.08142191171646118,0.03279326483607292,0.018339945003390312
1633779671584213500,0.042213623046875,-0.1190681904554367,0.0834774374961853,0.08708951622247696
1633779671604092700,0.0620927734375,-0.12594091892242432,0.0900031253695488,0.08653111010789871
1633779671623972600,0.08197265625,-0.1307753026485443,0.027207491919398308,0.045280493795871735
1633779671643851500,0.1018515625,-0.10096891969442368,-0.07398563623428345,-0.047649696469306946
1633779671663731500,0.1217314453125,-0.05154714360833168,-0.04113159328699112,-0.05617973580956459
1633779671683610600,0.141610595703125,-0.0056126853451132774,0.017918240278959274,-0.027755161747336388
1633779671703490600,0.161490478515625,-0.008758814074099064,0.0391552671790123,-0.011949103325605392
1633779671723369500,0.181369384765625,0.001643654191866517,0.0038021262735128403,-0.012112662196159363
1633779671743249700,0.201249755859375,-0.018766192719340324,-0.05277036130428314,-0.016783129423856735
1633779671763128600,0.221128662109375,-0.03571997955441475,-0.09767183661460876,-0.03704439103603363
1633779671783008500,0.241008544921875,-0.04522950202226639,-0.12656725943088531,-0.04105585068464279
1633779671802887700,0.2608876953125,-0.055853649973869324,-0.10677650570869446,-0.05484277009963989
1633779671822767600,0.280767578125,-0.08327420055866241,-0.05547491833567619,-0.06274231523275375
1633779671842646500,0.300646484375,-0.13657881319522858,-0.07076343894004822,-0.07431872189044952
1633779671862526700,0.320526611328125,-0.18682080507278442,-0.17998278141021729,-0.07568672299385071
1633779671882405600,0.340405517578125,-0.23204991221427917,-0.5300284028053284,0.014674564823508263
1633779671902285600,0.36028564453125,-0.222530797123909,-0.9537034630775452,0.08677360415458679
1633779671922164700,0.380164794921875,-0.008950460702180862,-1.5525455474853516,0.05335446819663048
1633779671942044400,0.40004443359375,0.15172556042671204,-1.924757480621338,0.04607074707746506
1633779671961923600,0.419923583984375,0.21683934330940247,-1.8438411951065063,0.1122729554772377
1633779671981803800,0.4398037109375,0.22636805474758148,-1.562596321105957,0.19206856191158295
1633779672001682400,0.459682373046875,0.26605933904647827,-1.17274010181427,0.1660231053829193
1633779672021562600,0.479562744140625,0.3169874846935272,-0.6837815046310425,0.021448777988553047
1633779672041441800,0.49944189453125,0.1930130273103714,-0.06155691295862198,-0.26798519492149353
1633779672061321500,0.519321533203125,0.2735825479030609,0.5971311926841736,-0.4793269634246826
1633779672081200600,0.53920068359375,0.5145471096038818,1.3365331888198853,-0.4005545675754547
1633779672101080600,0.55908056640625,0.6876184940338135,1.7364195585250854,-0.3599308431148529
1633779672120959500,0.57895947265625,0.59583979845047,1.310375690460205,-0.3265805244445801
1633779672140839700,0.598839599609375,0.4191655218601227,0.8943462371826172,-0.3131933808326721
1633779672160718600,0.618718505859375,0.3808803856372833,0.886524498462677,-0.2665714919567108
1633779672180598500,0.6385986328125,0.4555940628051758,1.3169217109680176,-0.19751888513565063
1633779672200477700,0.658477783203125,0.46145424246788025,1.834190845489502,-0.17963407933712006
1633779672220357600,0.678357666015625,0.3467918932437897,1.6611753702163696,-0.2882400453090668
1633779672240236500,0.698236572265625,0.18760181963443756,0.49974486231803894,-0.37869808077812195
1633779672260116500,0.718116455078125,0.09513965249061584,-0.20299170911312103,-0.4021508991718292
1633779672279995100,0.7379951171875,0.15238156914710999,-0.2042457014322281,-0.4139483571052551
1633779672299875000,0.757875,0.16864046454429626,-0.16898487508296967,-0.3778834044933319
1633779672319754200,0.777754150390625,0.06816116720438004,-0.15500067174434662,-0.24719080328941345
1633779672339634200,0.79763427734375,-0.026271238923072815,-0.24095343053340912,-0.13488033413887024
1633779672359513000,0.81751318359375,-0.009041480720043182,-0.20557107031345367,-0.11556421965360641
1633779672379393000,0.83739306640625,-0.030023444443941116,-0.33101946115493774,0.0519598126411438
1633779672399272200,0.857272216796875,-0.2877921462059021,-0.6194528341293335,0.26211848855018616
1633779672419152100,0.877152099609375,-0.5934586524963379,-0.4136798083782196,0.3301943242549896
1633779672439031000,0.897031005859375,-0.6729207634925842,-0.2626638114452362,0.38009876012802124
1633779672458911200,0.9169111328125,-0.5162923336029053,-0.22264647483825684,0.4355369806289673
1633779672478790100,0.9367900390625,-0.4373621940612793,-0.200104221701622,0.45353931188583374
1633779672498670000,0.956670166015625,-0.42369991540908813,-0.12725548446178436,0.40596556663513184
1633779672518549200,0.97654931640625,-0.33802178502082825,-0.14114712178707123,0.3807271718978882
1633779672538429000,0.996428955078125,-0.374082088470459,-0.3575378954410553,0.48436951637268066
1633779672558308000,1.01630810546875,-0.47808247804641724,-0.6596985459327698,0.6362830400466919
1633779672578188300,1.036188232421875,-0.4685576260089874,-0.7870337963104248,0.7043297290802002
1633779672598067000,1.05606689453125,-0.381804883480072,-0.7619468569755554,0.5648853182792664
1633779672617947100,1.075947021484375,-0.36297735571861267,-0.7144931554794312,0.39645877480506897
1633779672637826300,1.095826416015625,-0.41885602474212646,-0.5956308841705322,0.268531858921051
1633779672657706000,1.1157060546875,-0.47467559576034546,-0.6645141243934631,0.23688405752182007
1633779672677585200,1.135585205078125,-0.5997092127799988,-0.681287407875061,0.20450519025325775
1633779672697465000,1.155465087890625,-0.5974418520927429,-0.28716349601745605,0.03336787968873978
1633779672717344000,1.175343994140625,-0.4324723780155182,-0.11541791260242462,-0.10452102869749069
1633779672737224200,1.19522412109375,-0.3064720630645752,-0.25413501262664795,-0.2055518627166748
1633779672757103000,1.21510302734375,-0.2670263648033142,-0.3314014971256256,-0.3820004165172577
1633779672776983000,1.234983154296875,-0.23689444363117218,-0.23757034540176392,-0.5069385170936584
1633779672796862200,1.2548623046875,-0.23361586034297943,-0.045747850090265274,-0.482233464717865
1633779672816742100,1.2747421875,-0.28843584656715393,0.22261115908622742,-0.34961533546447754
1633779672836621000,1.29462109375,-0.41706129908561707,0.36082902550697327,-0.21356885135173798
1633779672856501000,1.3145009765625,-0.5500944256782532,0.27525126934051514,-0.02915985882282257
1633779672876380200,1.334380126953125,-0.6393948197364807,0.0392010360956192,0.2060326337814331
1633779672896260000,1.354260009765625,-0.6557648777961731,-0.12014583498239517,0.3695123493671417
1633779672916139000,1.374138916015625,-0.632602870464325,-0.15196064114570618,0.3873015344142914
1633779672936019200,1.394019287109375,-0.6224774718284607,-0.13192538917064667,0.37900757789611816
1633779672955898000,1.413898193359375,-0.6441724896430969,-0.14892727136611938,0.48722323775291443
1633779672975778000,1.433778076171875,-0.75916987657547,-0.22689524292945862,0.6923131942749023
1633779672995657200,1.4536572265625,-0.8429490327835083,-0.28597426414489746,0.8516303300857544
1633779673015537000,1.473536865234375,-0.7514269351959229,-0.25198686122894287,0.8585177063941956
1633779673035416000,1.493416015625,-0.5484136343002319,-0.14144299924373627,0.8006671667098999
1633779673055296300,1.513296142578125,-0.2953813374042511,-0.029967956244945526,0.7880556583404541
1633779673075175200,1.533175048828125,-0.01551554724574089,0.04315439984202385,0.7852540612220764
1633779673095055000,1.55305517578125,0.23575453460216522,-0.020194971933960915,0.7285720109939575
1633779673114934300,1.572934326171875,0.43714258074760437,-0.11093196272850037,0.5484684109687805
1633779673134814000,1.59281396484375,0.6060800552368164,-0.05205322057008743,0.2610422372817993
1633779673154693000,1.612693115234375,0.7353496551513672,0.06951037049293518,-0.012090248055756092
1633779673174573000,1.632572998046875,0.7207787036895752,-0.05502709373831749,-0.18039405345916748
1633779673194452000,1.652451904296875,0.59674072265625,-0.599177360534668,-0.2703776955604553
1633779673214332200,1.672332275390625,0.4759959280490875,-1.2457990646362305,-0.3692432940006256
1633779673234211300,1.69221142578125,0.4619021713733673,-1.5726640224456787,-0.7025533318519592
1633779673254091000,1.712091064453125,0.5927430391311646,-0.8991864919662476,-1.5693901777267456
1633779673273971200,1.73197119140625,0.951343834400177,-0.3840055763721466,-2.1977856159210205
1633779673293851100,1.75185107421875,1.1102843284606934,0.05908740311861038,-1.9013562202453613
1633779673313730300,1.771730224609375,0.900397777557373,-0.018821975216269493,-1.2366137504577637
1633779673333610000,1.79160986328125,0.3574265241622925,-0.13074815273284912,-0.9171847701072693
1633779673353489200,1.8114892578125,-0.14547215402126312,-0.16486988961696625,-1.0238200426101685
1633779673373369300,1.831369384765625,-0.44578495621681213,0.030452778562903404,-1.1842693090438843
1633779673393248000,1.851248046875,-0.634511411190033,0.13039946556091309,-0.8458675146102905
1633779673413128200,1.871128173828125,-0.8873393535614014,0.14297954738140106,-0.13200463354587555
1633779673433007400,1.89100732421875,-1.1990717649459839,0.0850532054901123,0.482355535030365
1633779673452887000,1.910886962890625,-1.3487638235092163,0.057976316660642624,0.7251202464103699
1633779673472766200,1.93076611328125,-1.301918864250183,0.008835327811539173,0.6623614430427551
1633779673492646100,1.950646240234375,-1.1859134435653687,-0.10295911133289337,0.48694276809692383
1633779673512525000,1.970525146484375,-1.1380428075790405,-0.23361413180828094,0.4249385893344879
1633779673532405200,1.9904052734375,-1.1629621982574463,-0.38234639167785645,0.4895045757293701
1633779673552284200,2.0102841796875,-1.2107454538345337,-0.5535111427307129,0.5500596165657043
1633779673572164000,2.0301640625,-1.1454355716705322,-0.6085688471794128,0.5155737400054932
1633779673592043300,2.050043212890625,-0.9705347418785095,-0.5561734437942505,0.3446873128414154
1633779673611923200,2.069923095703125,-0.7246075868606567,-0.33269885182380676,0.171575665473938
1633779673631802000,2.089802001953125,-0.5266494750976562,-0.2966587543487549,0.30744868516921997
1633779673651682000,2.10968212890625,-0.5984551310539246,-0.5587321519851685,0.6721848845481873
1633779673671561200,2.129561279296875,-0.8626391291618347,-0.703419029712677,0.8317089080810547
1633779673691441200,2.149441162109375,-0.9792149066925049,-0.41667333245277405,0.6730377078056335
1633779673711320000,2.169320068359375,-0.9097040891647339,-0.09812500327825546,0.5069549679756165
1633779673731199000,2.189198974609375,-0.6555132269859314,0.067653588950634,0.34102991223335266
1633779673751079200,2.2090791015625,-0.17083585262298584,0.7289896011352539,-0.1225312352180481
1633779673770958000,2.2289580078125,0.22369523346424103,0.9004018306732178,-0.3246493339538574
1633779673790838300,2.24883837890625,0.40154290199279785,0.5248945355415344,-0.22899022698402405
1633779673810717200,2.26871728515625,0.37689095735549927,-0.1814187467098236,-0.11258123070001602
1633779673830597000,2.28859716796875,0.20788905024528503,-0.6000310778617859,-0.20393463969230652
1633779673850476000,2.30847607421875,0.15159013867378235,-0.49894043803215027,-0.4143850803375244
1633779673870356000,2.32835595703125,0.22987788915634155,-0.12834429740905762,-0.45054659247398376
1633779673890235100,2.348235107421875,0.29868221282958984,0.06759116053581238,-0.17388319969177246
1633779673910115300,2.368115234375,0.27053412795066833,0.08491024374961853,0.1824425458908081
1633779673929994000,2.387993896484375,0.21120542287826538,0.15847672522068024,0.3355118930339813
1633779673949874200,2.407874267578125,0.1727369725704193,0.4149046838283539,0.3446771204471588
1633779673969753000,2.427753173828125,0.12754541635513306,0.6117740869522095,0.4266226589679718
1633779673989633000,2.447633056640625,0.0758139118552208,0.6383150219917297,0.6573517918586731
1633779674009512200,2.46751220703125,0.09583620727062225,0.5296810269355774,0.8412918448448181
1633779674029392100,2.48739208984375,0.18773514032363892,0.4762456715106964,0.878395140171051
1633779674049271000,2.50727099609375,0.3328435719013214,0.5512181520462036,0.7426075339317322
1633779674069151200,2.527151123046875,0.4743751287460327,0.7756646275520325,0.509717583656311
1633779674089030100,2.547030029296875,0.5928117036819458,0.7109017968177795,0.3042694926261902
1633779674108910000,2.56691015625,0.7075985670089722,0.3040820062160492,-0.028879551216959953
1633779674128789200,2.586789306640625,0.7969378232955933,0.0789734348654747,-0.592876136302948
1633779674148669200,2.606669189453125,0.8906583786010742,0.3707706332206726,-1.0777606964111328
1633779674168548000,2.626548095703125,0.8877893090248108,0.4906211793422699,-1.035085678100586
1633779674188428300,2.64642822265625,0.6246988773345947,0.12746335566043854,-0.6497310996055603
1633779674208307000,2.666306884765625,0.19259099662303925,-0.09320744127035141,-0.45401281118392944
1633779674228187100,2.686187255859375,-0.20773868262767792,0.07910747826099396,-0.5759671330451965
1633779674248066300,2.70606640625,-0.4706157147884369,0.35933032631874084,-0.7512235641479492
1633779674267946200,2.7259462890625,-0.5741744637489319,0.4026699960231781,-0.5362597107887268
1633779674287825400,2.745825439453125,-0.6710308790206909,0.09401261806488037,0.024575719609856606
1633779674307705300,2.765705322265625,-0.7886468768119812,-0.2475004345178604,0.4850611090660095
1633779674327584300,2.785584228515625,-0.796538233757019,-0.37689951062202454,0.59212726354599
1633779674347464400,2.80546435546875,-0.7146908044815063,-0.2529648244380951,0.49810028076171875
1633779674367343400,2.82534326171875,-0.5624412894248962,0.020609602332115173,0.4312698543071747
1633779674387223300,2.845223388671875,-0.42296773195266724,0.0840076357126236,0.534034252166748
1633779674407102500,2.8651025390625,-0.3513796031475067,-0.009934592060744762,0.6635254621505737
1633779674426982400,2.884982421875,-0.35720130801200867,-0.2138989418745041,0.6851368546485901
1633779674446861300,2.904861328125,-0.3413735330104828,-0.3599582016468048,0.5178225040435791
1633779674466741200,2.9247412109375,-0.2982868552207947,-0.4523722529411316,0.28553980588912964
1633779674486620400,2.944620361328125,-0.20064117014408112,-0.44315284490585327,0.1631806492805481
1633779674506500400,2.964500244140625,-0.11480619758367538,-0.3708440959453583,0.12845930457115173
1633779674526379300,2.984379150390625,-0.08708807826042175,-0.2973427176475525,0.15341229736804962
1633779674546259500,3.004259521484375,-0.12066001445055008,-0.28174805641174316,0.21300920844078064
1633779674566138400,3.024138427734375,-0.25016966462135315,-0.37999865412712097,0.22269733250141144
1633779674586018300,3.044018310546875,-0.35434114933013916,-0.3882942199707031,0.05509006604552269
1633779674605897500,3.0638974609375,-0.35783663392066956,-0.1692202389240265,-0.1438216269016266
1633779674625777200,3.083777099609375,-0.4701533019542694,-0.2720285952091217,-0.003303863573819399
1633779674645656300,3.10365625,-0.6861531138420105,-0.3915780782699585,0.04588500037789345
1633779674665536500,3.12353662109375,-0.5968202352523804,0.4836311638355255,-0.393486350774765
1633779674685415200,3.143415283203125,-0.1549881249666214,1.2951353788375854,-0.5371854901313782
1633779674705294300,3.16329443359375,0.16208748519420624,1.4085421562194824,-0.1739843338727951
1633779674725174500,3.183174560546875,0.16397693753242493,0.6926016807556152,0.4030885696411133
1633779674745053200,3.20305322265625,-0.05592118576169014,-0.04933341592550278,0.5742123126983643
1633779674764933400,3.222933349609375,-0.2233157604932785,-0.2476259469985962,0.20136898756027222
1633779674784812500,3.2428125,-0.2041720449924469,-0.1084309071302414,-0.29123440384864807
1633779674804692200,3.262692138671875,-0.03352123871445656,0.14418114721775055,-0.5174213647842407
1633779674824571400,3.2825712890625,0.1539308726787567,0.24614408612251282,-0.328877717256546
1633779674844451300,3.302451416015625,0.23673513531684875,0.2346305251121521,0.04439636692404747
1633779674864330200,3.322330322265625,0.20383962988853455,0.17388960719108582,0.3581691384315491
1633779674884210400,3.34221044921875,0.0909540206193924,0.10570551455020905,0.5366899967193604
1633779674904089300,3.36208935546875,-0.050175685435533524,0.025782907381653786,0.5961623787879944
1633779674923969300,3.38196923828125,-0.0378686748445034,-0.013657813891768456,0.5377165079116821
1633779674943848400,3.401848388671875,0.15534177422523499,0.08369147777557373,0.4517356753349304
1633779674963728400,3.421728271484375,0.3986795246601105,0.32077091932296753,0.43647024035453796
1633779674983607300,3.441607177734375,0.6220488548278809,0.5589790344238281,0.4165123403072357
1633779675003487200,3.4614873046875,0.827007532119751,0.5427914261817932,0.3169374167919159
1633779675023366400,3.481366455078125,0.9211989641189575,0.26950719952583313,0.1185370460152626
1633779675043246300,3.501246337890625,0.828497052192688,0.08630796521902084,-0.057223185896873474
1633779675063125200,3.521125244140625,0.6504214406013489,0.36591997742652893,-0.1571878045797348
1633779675083005400,3.54100537109375,0.45870664715766907,0.3593127131462097,-0.17564614117145538
1633779675102884400,3.56088427734375,0.4684039056301117,-0.06362424790859222,-0.48568499088287354
1633779675122764300,3.580764404296875,0.6974936127662659,-0.3535494804382324,-1.0958257913589478
1633779675142643500,3.6006435546875,0.6579995155334473,-0.2685873508453369,-1.3674752712249756
1633779675162523400,3.6205234375,0.3993918299674988,-0.22632208466529846,-1.1956411600112915
1633779675182402300,3.64040234375,-0.046970468014478683,-0.39770743250846863,-0.757607638835907
1633779675202282500,3.660282470703125,-0.45973700284957886,-0.5178223252296448,-0.4044775068759918
1633779675222161400,3.680161376953125,-0.741582989692688,-0.5631867051124573,-0.23061800003051758
1633779675242041300,3.700041259765625,-0.94913250207901,-0.5390583276748657,-0.1573670357465744
1633779675261920500,3.71992041015625,-1.0919536352157593,-0.4096510708332062,-0.0178605318069458
1633779675281799400,3.73979931640625,-1.1271480321884155,-0.24096789956092834,0.296139121055603
1633779675301678300,3.75967822265625,-1.061998724937439,-0.26492372155189514,0.715868353843689
1633779675321558300,3.779558349609375,-0.9770123362541199,-0.43472763895988464,0.9728627800941467
1633779675341437400,3.7994375,-0.9096232056617737,-0.6085292100906372,0.9247308373451233
1633779675361317400,3.8193173828125,-0.8511205911636353,-0.6665288209915161,0.7131840586662292
1633779675381196300,3.8391962890625,-0.7742183208465576,-0.5944563746452332,0.5472310185432434
1633779675401076200,3.859076171875,-0.5947750210762024,-0.4018137454986572,0.5056737661361694
1633779675420955400,3.878955322265625,-0.39399945735931396,-0.19888925552368164,0.532580554485321
1633779675440835300,3.89883544921875,-0.28786009550094604,-0.07821927964687347,0.5696800351142883
1633779675460714200,3.91871435546875,-0.29036352038383484,-0.1845698058605194,0.5717369318008423
1633779675480594400,3.938594482421875,-0.2487812042236328,-0.5187938213348389,0.4911785125732422
1633779675500473300,3.958473388671875,-0.10874208807945251,-0.6080928444862366,0.2278483510017395
1633779675520352300,3.978352294921875,-0.06938958913087845,-0.223456472158432,0.052819982171058655
1633779675540232400,3.998232421875,-0.18693065643310547,-0.07868689298629761,0.13003259897232056
1633779675560111400,4.018111328125,-0.1466328203678131,0.32690274715423584,-0.009227349422872066
1633779675579991300,4.0379912109375,0.16667674481868744,0.6649697422981262,-0.334782212972641
1633779675599870500,4.057870361328125,0.40350523591041565,0.6955298185348511,-0.5262517333030701
1633779675619750100,4.077750244140625,0.5046960711479187,0.5051472783088684,-0.6573063731193542
1633779675639629300,4.09762939453125,0.49809789657592773,0.15253600478172302,-0.6302776336669922
1633779675659509500,4.117509521484375,0.47570815682411194,0.0023917164653539658,-0.5859767198562622
1633779675679388200,4.13738818359375,0.4425845146179199,0.0453178733587265,-0.5497258305549622
1633779675699268400,4.157268310546875,0.38403287529945374,0.2185349017381668,-0.47207796573638916
1633779675719147500,4.1771474609375,0.34321901202201843,0.3570430278778076,-0.3472002446651459
1633779675739027200,4.197027099609375,0.3034818470478058,0.4721645712852478,-0.2658352851867676
1633779675758906400,4.21690625,0.2670900821685791,0.4761773645877838,-0.21512365341186523
1633779675778786300,4.236786376953125,0.2424902617931366,0.4270518720149994,-0.1537352055311203
1633779675798665200,4.256665283203125,0.23839271068572998,0.38069647550582886,-0.04533563181757927
1633779675818545400,4.27654541015625,0.23545241355895996,0.41628652811050415,0.11727305501699448
1633779675838424300,4.29642431640625,0.25882959365844727,0.5111679434776306,0.27584242820739746
1633779675858304300,4.31630419921875,0.29812362790107727,0.4766688942909241,0.3488996624946594
1633779675878183400,4.336183349609375,0.32387775182724,0.5134440660476685,0.36891070008277893
1633779675898063400,4.3560634765625,0.4201142191886902,0.6812449097633362,0.40621957182884216
1633779675917942300,4.3759423828125,0.4452422261238098,0.7113690376281738,0.4476635158061981
1633779675937822500,4.395822509765625,0.36937451362609863,0.3889870047569275,0.31246837973594666
1633779675957701400,4.415701416015625,0.2842353284358978,-0.09051307290792465,-0.017386268824338913
1633779675977581300,4.435581298828125,0.34185487031936646,-0.18560689687728882,-0.2728460431098938
1633779675997460500,4.45546044921875,0.38982489705085754,-0.1791052222251892,-0.25350892543792725
1633779676017340400,4.47534033203125,0.23623575270175934,-0.5215668082237244,-0.24616409838199615
1633779676037219300,4.49521923828125,0.2657030522823334,-0.2456536442041397,-0.9068721532821655
1633779676057099300,4.515099365234375,0.562188982963562,0.22678117454051971,-1.6175349950790405
1633779676076978400,4.534978515625,0.6918548941612244,0.4103277921676636,-1.5971688032150269
1633779676096858400,4.5548583984375,0.4551636874675751,0.03456439450383186,-1.0030872821807861
1633779676116737300,4.5747373046875,-0.28477251529693604,-0.6320272088050842,-0.12653285264968872
1633779676136616200,4.5946162109375,-0.9795277118682861,-0.9676725268363953,0.4543975591659546
1633779676156496400,4.614496337890625,-1.287683367729187,-0.8915717601776123,0.5427154898643494
1633779676176375300,4.634375244140625,-1.261317491531372,-0.45373624563217163,0.2324228584766388
1633779676196255500,4.65425537109375,-0.9766652584075928,0.1968245804309845,-0.0759650394320488
1633779676216134400,4.674134521484375,-0.6906388401985168,0.5837079286575317,0.07593909651041031
1633779676236014300,4.694014404296875,-0.5219653844833374,0.4543614089488983,0.5944401025772095
1633779676255893200,4.713893310546875,-0.4654204249382019,-0.04934751242399216,1.1137312650680542
1633779676275773000,4.73377294921875,-0.4908754825592041,-0.6576839089393616,1.2524937391281128
1633779676295651800,4.75365185546875,-0.5234377384185791,-1.0240522623062134,0.9650673866271973
1633779676315532000,4.773531982421875,-0.5512065887451172,-1.1123892068862915,0.629629909992218
1633779676335411000,4.793410888671875,-0.5002873539924622,-0.9617136120796204,0.4365071654319763
1633779676355291000,4.813290771484375,-0.46336185932159424,-0.7217124700546265,0.4025874733924866
1633779676375170000,4.833170166015625,-0.4497946500778198,-0.3638797998428345,0.3776131570339203
1633779676395050000,4.853050048828125,-0.45759618282318115,-0.1866406798362732,0.3188852071762085
1633779676414929000,4.872928955078125,-0.42364752292633057,0.2447982281446457,0.11755118519067764
1633779676434809000,4.89280908203125,-0.2254132777452469,0.5847747325897217,-0.058688823133707047
1633779676454688000,4.91268798828125,0.010937735438346863,0.445904016494751,-0.055134713649749756
1633779676474568000,4.93256787109375,0.09077739715576172,0.04466566815972328,0.027360282838344574
1633779676494447000,4.952447021484375,0.10263321548700333,0.050230756402015686,-0.14029987156391144
1633779676514327000,4.9723271484375,0.13372860848903656,0.28892791271209717,-0.3471757471561432
1633779676534206000,4.9922060546875,0.26521065831184387,0.37330514192581177,-0.30291926860809326
1633779676554086000,5.0120859375,0.31945082545280457,0.07357306778430939,-0.006230120547115803
1633779676573965000,5.031965087890625,0.22021128237247467,-0.35771703720092773,0.25021854043006897
1633779676593845000,5.051844970703125,0.09898556023836136,-0.4678376317024231,0.2057204395532608
1633779676613724000,5.071723876953125,0.006431815214455128,-0.29770171642303467,0.017934653908014297
1633779676633602800,5.091602783203125,-0.049947600811719894,0.06131152808666229,-0.09990102797746658
1633779676653483000,5.11148291015625,-0.055480267852544785,0.37263357639312744,-0.13085639476776123
1633779676673362000,5.13136181640625,-0.06978795677423477,0.4537547826766968,-0.12632720172405243
1633779676693242000,5.1512421875,-0.1705661565065384,0.4450121223926544,-0.05067892745137215
1633779676713121000,5.17112109375,-0.2535321116447449,0.41510090231895447,-0.01412232592701912
1633779676733001000,5.1910009765625,-0.1823427826166153,0.4024966359138489,0.014327451586723328
1633779676752879900,5.2108798828125,0.11396593600511551,0.45872125029563904,0.12559159100055695
1633779676772759800,5.230759765625,0.49274009466171265,0.5584779381752014,0.2818766236305237
1633779676792639000,5.250638916015625,0.6325303316116333,0.47099533677101135,0.4157535135746002
1633779676812519200,5.270519287109375,0.4901169240474701,-0.008424590341746807,0.31569904088974
1633779676832397800,5.290397705078125,0.27418261766433716,-0.6253656148910522,-0.14185713231563568
1633779676852278000,5.310278076171875,0.12335052341222763,-0.954465389251709,-0.6216599345207214
1633779676872157000,5.330156982421875,0.043333999812603,-1.064017415046692,-0.7632566094398499
1633779676892036900,5.350036865234375,0.23149900138378143,-0.5575974583625793,-1.0833014249801636
1633779676911916000,5.369916015625,0.8843711614608765,0.1642477810382843,-1.7606905698776245
1633779676931796000,5.3897958984375,1.2334705591201782,0.10046853125095367,-1.794912338256836
1633779676951675000,5.4096748046875,0.8100602626800537,-0.4658935070037842,-1.1897317171096802
1633779676971555000,5.42955517578125,-0.2453135848045349,-1.0375083684921265,-0.6282162666320801
1633779676991434000,5.44943408203125,-1.185530424118042,-0.9355491995811462,-0.42996278405189514
1633779677011314000,5.46931396484375,-1.563301920890808,-0.20128920674324036,-0.3482939600944519
1633779677031193000,5.489193115234375,-1.3665508031845093,0.5905203819274902,-0.12386179715394974
1633779677051072000,5.509072021484375,-0.9462018609046936,0.8886532783508301,0.2839478552341461
1633779677070952000,5.528951904296875,-0.5503994822502136,0.9498231410980225,0.5758986473083496
1633779677090831000,5.5488310546875,-0.27928465604782104,0.668899416923523,0.6962810158729553
1633779677110710800,5.568710693359375,-0.1735793650150299,0.17435859143733978,0.7250418066978455
1633779677130590000,5.58858984375,-0.28985467553138733,-0.41124579310417175,0.7771351933479309
1633779677150470100,5.60847021484375,-0.4710307717323303,-0.8662980198860168,0.7581504583358765
1633779677170348800,5.628348876953125,-0.5387721061706543,-1.0397047996520996,0.6582019329071045
1633779677190229000,5.64822900390625,-0.5184049606323242,-1.0065727233886719,0.5573767423629761
1633779677210108200,5.668108154296875,-0.41738376021385193,-0.8347247242927551,0.40426725149154663
1633779677229987800,5.68798779296875,-0.2696753740310669,-0.5402663350105286,0.23045387864112854
1633779677249867000,5.707866943359375,-0.16293612122535706,0.04029712453484535,0.12874428927898407
1633779677269747700,5.727747802734375,-0.0687161535024643,0.391831636428833,0.10120292007923126
1633779677289627000,5.747626953125,0.06932881474494934,0.3831663429737091,0.017922962084412575
1633779677309506800,5.7675068359375,0.06392117589712143,0.18072430789470673,-0.034354016184806824
1633779677329385700,5.7873857421875,-0.2122151404619217,-0.2949080169200897,0.011689514853060246
1633779677349266000,5.807265869140625,-0.43047261238098145,-0.23219074308872223,-0.22257815301418304
1633779677369144800,5.827144775390625,-0.2661152780056,0.36209502816200256,-0.6333718299865723
1633779677389024800,5.847024658203125,0.13950090110301971,0.7603617310523987,-0.6923187375068665
1633779677408904000,5.866904052734375,0.4529220759868622,0.6151731610298157,-0.3537851572036743
1633779677428783900,5.886783935546875,0.416615754365921,-0.017455747351050377,0.10768284648656845
1633779677448662800,5.906662841796875,0.09748160094022751,-0.4536840617656708,0.3055921196937561
1633779677468542000,5.9265419921875,-0.11087610572576523,-0.43085575103759766,0.220613494515419
1633779677488422000,5.946421875,-0.12874817848205566,-0.0973685160279274,0.1052616685628891
1633779677508300800,5.96630078125,0.02415328659117222,0.3319481313228607,0.07849679887294769
1633779677528180700,5.9861806640625,0.20533126592636108,0.5379692912101746,0.20934997498989105
1633779677548060000,6.006059814453125,0.3636441230773926,0.6807018518447876,0.39106157422065735
1633779677567939800,6.02593994140625,0.4629051387310028,0.6354811191558838,0.578047513961792
1633779677587818800,6.04581884765625,0.46124202013015747,0.405752956867218,0.6999791860580444
1633779677607699000,6.065698974609375,0.41104742884635925,0.2488306164741516,0.635434627532959
1633779677627577900,6.085577880859375,0.47157570719718933,0.3370617628097534,0.36049023270606995
1633779677647457800,6.105457763671875,0.6975804567337036,0.6375975012779236,0.08647432178258896
1633779677667337000,6.1253369140625,1.003617763519287,0.9321447610855103,0.07323410362005234
1633779677687216600,6.145216552734375,1.1480673551559448,0.896350085735321,0.2751080393791199
1633779677707095800,6.165095703125,1.005279779434204,0.6398045420646667,0.3491392433643341
1633779677726976000,6.18497607421875,0.7784712910652161,0.4086258113384247,0.0695275217294693
1633779677746854700,6.204854736328125,0.6441383361816406,0.24918648600578308,-0.37417998909950256
1633779677766734800,6.22473486328125,0.4721178710460663,-0.32838213443756104,-0.7725437879562378
1633779677786614000,6.244614013671875,0.30440106987953186,-0.65863436460495,-1.3364263772964478
1633779677806493700,6.26449365234375,0.28284701704978943,-0.07496021687984467,-1.919095516204834
1633779677826372900,6.284372802734375,0.30702081322669983,-0.13870494067668915,-1.6835190057754517
1633779677846252800,6.304252685546875,-0.06238016486167908,-0.6490428447723389,-0.83730149269104
1633779677866131700,6.324131591796875,-0.8366835713386536,-1.0149857997894287,-0.15742535889148712
1633779677886011000,6.344010986328125,-1.4354196786880493,-0.9069726467132568,0.08779779821634293
1633779677905890800,6.363890869140625,-1.5570358037948608,-0.2801973521709442,0.07332569360733032
1633779677925769700,6.383769775390625,-1.211951732635498,0.39634883403778076,0.036978479474782944
1633779677945650000,6.40364990234375,-0.626990556716919,0.6949626803398132,0.16523894667625427
1633779677965529000,6.423529052734375,-0.12121668457984924,0.5089065432548523,0.3951537311077118
1633779677985408800,6.44340869140625,0.18032409250736237,0.03453868255019188,0.5762191414833069
1633779678005288000,6.463287841796875,0.1911563277244568,-0.49765655398368835,0.6498748660087585
1633779678025168000,6.48316796875,-0.04399256408214569,-0.7891680598258972,0.6180333495140076
1633779678045046800,6.503046875,-0.3058398962020874,-0.9039520025253296,0.5342636108398438
1633779678064927000,6.522927001953125,-0.374705046415329,-0.9667944312095642,0.4368886947631836
1633779678084806000,6.542805908203125,-0.31691113114356995,-0.9151710271835327,0.3219869136810303
1633779678104685800,6.562685791015625,-0.24398526549339294,-0.6593136191368103,0.15435615181922913
1633779678124565000,6.58256494140625,-0.10870267450809479,-0.23602744936943054,0.0013856968143954873
1633779678144445000,6.60244482421875,0.02311745658516884,0.1673281043767929,-0.013018395751714706
1633779678164323800,6.62232373046875,0.00778446439653635,0.4767542779445648,0.06273344904184341
1633779678184203800,6.642203857421875,-0.13396577537059784,0.7561674118041992,0.04224570840597153
1633779678204082700,6.662082763671875,-0.21683888137340546,0.9696966409683228,-0.00991324707865715
1633779678223963000,6.681962890625,-0.1522613912820816,0.6981635093688965,0.029229965060949326
1633779678243841800,6.701841796875,-0.20058415830135345,0.22274015843868256,0.10683126002550125
1633779678263722000,6.721721923828125,-0.3212521970272064,0.08452398329973221,-0.13492967188358307
1633779678283601000,6.741600830078125,-0.3161839246749878,0.304828405380249,-0.5179838538169861
1633779678303479600,6.7614794921875,-0.08178427815437317,0.6160439252853394,-0.7173845171928406
1633779678323359700,6.78135986328125,0.26056671142578125,0.5262691974639893,-0.5773176550865173
1633779678343239000,6.801239013671875,0.4618918299674988,0.12041960656642914,-0.28489920496940613
1633779678363118600,6.82111865234375,0.3785392940044403,-0.3485310673713684,-0.040632009506225586
1633779678382997800,6.840997802734375,0.20588770508766174,-0.5395297408103943,0.005331637803465128
1633779678402877700,6.860877685546875,0.09308893233537674,-0.44619038701057434,-0.03610023111104965
1633779678422756600,6.880756591796875,0.07651900500059128,-0.060370270162820816,-0.0020986858289688826
1633779678442636800,6.90063671875,0.17684219777584076,0.3910856246948242,0.18025118112564087
1633779678462515700,6.920515625,0.25984668731689453,0.6689073443412781,0.5179077982902527
1633779678482395600,6.940395751953125,0.25328415632247925,0.7420376539230347,0.8880705833435059
1633779678502274800,6.96027490234375,0.20423510670661926,0.5305108428001404,1.1038317680358887
1633779678522154800,6.98015478515625,0.11737263202667236,0.331793874502182,0.9794604182243347
1633779678542033700,7.00003369140625,0.14699317514896393,0.38748911023139954,0.5781627893447876
1633779678561913900,7.019913818359375,0.3817400634288788,0.6052309274673462,0.2505738437175751
1633779678581792800,7.039792724609375,0.7072152495384216,0.6969289779663086,0.2281922698020935
1633779678601672700,7.059672607421875,0.8541448712348938,0.3172893822193146,0.2904674708843231
1633779678621551900,7.0795517578125,0.6842877864837646,-0.04062186926603317,0.07744603604078293
1633779678641430800,7.0994306640625,0.453065425157547,-0.16704654693603516,-0.3785509467124939
1633779678661310700,7.119310791015625,0.30236414074897766,-0.0939594954252243,-0.7692515850067139
1633779678681190000,7.13918994140625,0.2985532283782959,-0.024971894919872284,-1.1025563478469849
1633779678701069800,7.15906982421875,0.6600573062896729,0.13451528549194336,-1.5729585886001587
1633779678720948700,7.17894873046875,1.0013304948806763,0.3394298851490021,-1.708842158317566
1633779678740828700,7.19882861328125,0.9420806765556335,0.21041642129421234,-1.3422363996505737
1633779678760707800,7.218707763671875,0.3703252077102661,-0.3441418409347534,-0.7314761281013489
1633779678780587800,7.238587890625,-0.4861469566822052,-0.8163077235221863,-0.22945384681224823
1633779678800466700,7.258466796875,-1.0994020700454712,-0.8020187020301819,0.036939166486263275
1633779678820347000,7.278346923828125,-1.313976764678955,-0.4243437647819519,0.19048485159873962
1633779678840225800,7.298225830078125,-1.200060486793518,0.047483816742897034,0.26779842376708984
1633779678860105700,7.318105712890625,-0.9395849704742432,0.3541260063648224,0.2698379158973694
1633779678879985000,7.33798486328125,-0.6353943943977356,0.5313329696655273,0.21403445303440094
1633779678899864600,7.357864501953125,-0.42594820261001587,0.5751941204071045,0.22844499349594116
1633779678919743700,7.37774365234375,-0.314473032951355,0.3304254114627838,0.262458473443985
1633779678939624000,7.3976240234375,-0.29071304202079773,-0.21690399944782257,0.28923675417900085
1633779678959502600,7.417502685546875,-0.30221179127693176,-0.4946941137313843,0.2917889356613159
1633779678979381800,7.4373818359375,-0.19905295968055725,-0.29012981057167053,0.23509304225444794
1633779678999262000,7.457261962890625,0.052193060517311096,0.20962727069854736,0.09951096028089523
1633779679019140600,7.477140625,0.2978557348251343,0.3621445298194885,0.037301741540431976
1633779679039020800,7.497020751953125,0.32882964611053467,-0.14028963446617126,0.05255712568759918
1633779679058900000,7.51689990234375,0.11869826167821884,-0.632476270198822,-0.09062039107084274
1633779679078779600,7.536779541015625,0.0012687643757089972,-0.4813215136528015,-0.3743545413017273
1633779679098658800,7.556658935546875,0.2422793209552765,-0.027440953999757767,-0.529765248298645
1633779679118538800,7.576538818359375,0.40991026163101196,-0.12310674041509628,-0.2916221618652344
1633779679138417700,7.596417724609375,0.18802601099014282,-0.4588854908943176,-0.04390290752053261
1633779679158297900,7.6162978515625,-0.195017009973526,-0.4914824366569519,-0.06375175714492798
1633779679178176800,7.6361767578125,-0.40738072991371155,-0.18935474753379822,-0.22003643214702606
1633779679198056700,7.656056640625,-0.393683522939682,0.17769265174865723,-0.3153063654899597
1633779679217936000,7.675935791015625,-0.2780105173587799,0.15086305141448975,-0.16016724705696106
1633779679237815800,7.69581591796875,-0.20249730348587036,-0.09324514865875244,0.001765875960700214
1633779679257694700,7.71569482421875,-0.27824538946151733,-0.4148920774459839,0.09399630129337311
1633779679277574000,7.735573974609375,-0.45739272236824036,-0.54377281665802,0.10465589910745621
1633779679297453800,7.755453857421875,-0.5557205080986023,-0.42649713158607483,0.08020880073308945
1633779679317333000,7.7753330078125,-0.46178022027015686,-0.09395669400691986,0.07831314206123352
1633779679337213000,7.795212890625,-0.26998135447502136,0.2765391170978546,0.19731886684894562
1633779679357091800,7.815091796875,-0.08787104487419128,0.5478399395942688,0.4247332811355591
1633779679376972000,7.834971923828125,0.062434207648038864,0.45075932145118713,0.5860776305198669
1633779679396851000,7.854850830078125,0.12148590385913849,0.08278118073940277,0.43148863315582275
1633779679416731000,7.87473095703125,0.0973522737622261,-0.02018851973116398,0.016354672610759735
1633779679436610000,7.894610107421875,0.1256486028432846,0.5144326686859131,-0.40224626660346985
1633779679456489700,7.91448974609375,0.39300650358200073,1.2288094758987427,-0.6112160682678223
1633779679476369000,7.934368896484375,0.7537572383880615,1.3081231117248535,-0.6085458397865295
1633779679496249000,7.9542490234375,0.9391047358512878,0.7991126179695129,-0.7070478796958923
1633779679516127700,7.974127685546875,1.024753451347351,0.3521219491958618,-1.1480363607406616
1633779679536008000,7.994008056640625,1.0581358671188354,0.19439345598220825,-1.3852335214614868
1633779679555887000,8.01388720703125,1.0041903257369995,-0.16021640598773956,-0.9201522469520569
1633779679575765800,8.033765869140625,0.6966784596443176,-0.69740891456604,-0.12472326308488846
1633779679595646000,8.05364599609375,0.24212746322155,-0.7851552963256836,0.19303499162197113
1633779679615524900,8.07352490234375,-0.11682555824518204,-0.4150027334690094,-0.025293027982115746
1633779679635404800,8.09340478515625,-0.19072917103767395,0.3768521249294281,-0.5521291494369507
1633779679655284000,8.113283935546875,0.10867130756378174,0.7195402979850769,-0.8366860151290894
1633779679675164000,8.133163818359375,0.4239761531352997,0.48410654067993164,-0.6563801765441895
1633779679695042800,8.153042724609374,0.5111905336380005,-0.0430050827562809,-0.30927008390426636
1633779679714923000,8.172923095703124,0.33963388204574585,-0.4441218376159668,-0.10606752336025238
1633779679734801700,8.1928017578125,0.04911937564611435,-0.49703922867774963,-0.0634123757481575
1633779679754681900,8.212681884765624,-0.23286046087741852,-0.33650076389312744,-0.041543878614902496
1633779679774561000,8.23256103515625,-0.4054844379425049,-0.10035631060600281,0.04825350642204285
1633779679794441000,8.25244091796875,-0.39448586106300354,0.036182090640068054,0.2302480787038803
1633779679814319900,8.27231982421875,-0.3114074468612671,0.03925596922636032,0.45827752351760864
1633779679834199000,8.292198974609375,-0.3009098470211029,-0.04570121690630913,0.6414798498153687
1633779679854078700,8.31207861328125,-0.3878648281097412,-0.1743401736021042,0.7399802803993225
1633779679873958000,8.3319580078125,-0.518957793712616,-0.3250856101512909,0.7598444223403931
1633779679893837800,8.351837890625,-0.6159839630126953,-0.4817941188812256,0.6729393005371094
1633779679913716700,8.371716796875,-0.6322658658027649,-0.6650096774101257,0.5050578117370605
1633779679933597000,8.391596923828125,-0.5664202570915222,-0.8456698656082153,0.3068796694278717
1633779679953475800,8.411475830078125,-0.4651382863521576,-0.7067480683326721,0.1901686042547226
1633779679973355800,8.431355712890625,-0.3634541928768158,-0.2678993046283722,0.09552689641714096
1633779679993235000,8.45123486328125,-0.2784615457057953,-0.014527911320328712,-0.01388896070420742
1633779680013115000,8.471114990234375,-0.21451589465141296,-0.18701671063899994,-0.06243666633963585
1633779680032993800,8.490993896484374,-0.19798429310321808,-0.22890400886535645,-0.03899126499891281
1633779680052873700,8.510873779296874,-0.29226750135421753,-0.20546838641166687,0.05025852844119072
1633779680072753000,8.5307529296875,-0.27592137455940247,-0.05789390951395035,-0.07982238382101059
1633779680092631800,8.5506318359375,0.01261625811457634,0.31532320380210876,-0.4761121869087219
1633779680112512000,8.570511962890626,0.2670208215713501,0.5557361841201782,-0.7197333574295044
1633779680132391000,8.590390869140625,0.338408499956131,0.43672165274620056,-0.6410681009292603
1633779680152270800,8.610270751953125,0.32314544916152954,0.07061222195625305,-0.3910997211933136
1633779680172150000,8.63014990234375,0.2953301668167114,-0.16489417850971222,-0.19715966284275055
1633779680192030000,8.650030029296875,0.2806950509548187,-0.34195613861083984,-0.10104753822088242
1633779680211908900,8.669908935546875,0.31727904081344604,-0.3742004632949829,-0.02097461186349392
1633779680231788800,8.689788818359375,0.33337587118148804,-0.27952075004577637,0.08742187172174454
1633779680251668000,8.70966796875,0.3091978132724762,-0.1600922793149948,0.21135886013507843
1633779680271547100,8.729547119140625,0.2614634037017822,0.027827788144350052,0.3583546280860901
1633779680291426000,8.749426025390624,0.20001426339149475,0.2124958634376526,0.6006175875663757
1633779680311306000,8.769305908203124,0.09329739958047867,0.18157950043678284,0.8911316990852356
1633779680331185200,8.78918505859375,0.03129386529326439,0.06427091360092163,1.0710268020629883
1633779680351064800,8.80906494140625,0.11828192323446274,-0.010635146871209145,1.06898832321167
1633779680370944000,8.828944091796876,0.2780053913593292,0.14409250020980835,0.9605234265327454
1633779680390823200,8.8488232421875,0.4854148328304291,0.5728002190589905,0.8343510031700134
1633779680410702800,8.868702880859376,0.6772546172142029,0.7120852470397949,0.7899236679077148
1633779680430582000,8.88858203125,0.7324126362800598,0.5902430415153503,0.8383898735046387
1633779680450462200,8.908462158203125,0.6029500961303711,0.3429234027862549,0.7884157299995422
1633779680470340900,8.9283408203125,0.38646531105041504,0.11780264228582382,0.5326423048973083
1633779680490221000,8.948220947265625,0.1648506373167038,-0.06556595861911774,0.2523289918899536
1633779680510100200,8.968100341796875,-0.13411282002925873,-0.2632935047149658,0.12817366421222687
1633779680529980000,8.98797998046875,-0.5044423937797546,-0.7958709597587585,0.0062005966901779175
1633779680549859000,9.007859130859375,-0.5485943555831909,-0.33639106154441833,-0.987945556640625
1633779680569739000,9.027739013671875,-0.21602939069271088,0.6616610288619995,-2.050015449523926
1633779680589618000,9.047617919921874,-0.10272946208715439,0.8571028709411621,-1.4913960695266724
1633779680609498000,9.067498046875,-0.6224136352539062,0.18479418754577637,0.08829621970653534
1633779680629377000,9.087376953125,-1.412611722946167,-0.8321373462677002,0.9888302683830261
1633779680649256000,9.107255859375,-1.8125048875808716,-1.3088374137878418,0.6044884920120239
1633779680669136100,9.12713623046875,-1.7526775598526,-1.214072585105896,-0.27243784070014954
1633779680689014800,9.147014892578126,-1.448183536529541,-0.6620622277259827,-0.7129178047180176
1633779680708895000,9.16689501953125,-0.9892482161521912,-0.1474481225013733,-0.5188223719596863
1633779680728774100,9.186774169921875,-0.5707182288169861,-0.0028338786214590073,0.03640786558389664
1633779680748654000,9.206654052734375,-0.43388572335243225,-0.1330157220363617,0.43398523330688477
1633779680768533000,9.226532958984375,-0.46461451053619385,-0.47484445571899414,0.36039483547210693
1633779680788413000,9.246412841796875,-0.4998875558376312,-0.7820035219192505,0.015356059186160564
1633779680808291800,9.266291748046875,-0.3933335542678833,-0.8298593759536743,-0.17919044196605682
1633779680828172000,9.286172119140625,-0.14707313477993011,-0.5383607745170593,-0.07074759155511856
1633779680848051000,9.306051025390625,0.09819570183753967,-0.28568312525749207,0.2540866732597351
1633779680867931100,9.32593115234375,0.06812532246112823,-0.4119877815246582,0.5965102910995483
1633779680887810000,9.34581005859375,-0.26987093687057495,-0.6156907081604004,0.7192137837409973
1633779680907689200,9.365689208984374,-0.768099844455719,-0.6373825073242188,0.6125008463859558
1633779680927569000,9.38556884765625,-1.0514051914215088,-0.9454651474952698,0.34341534972190857
1633779680947448000,9.405447998046874,-1.0905717611312866,-1.1784961223602295,-0.28912681341171265
1633779680967328000,9.425327880859374,-0.5799679756164551,0.24017322063446045,-1.3985400199890137
1633779680987207000,9.44520703125,0.5928827524185181,1.4844238758087158,-1.7306386232376099
1633779681007087000,9.465087158203126,1.4427052736282349,1.7746416330337524,-1.1310275793075562
1633779681026966000,9.484966064453126,1.3965171575546265,0.7127376794815063,-0.23626454174518585
1633779681046846000,9.504845947265625,0.7502791285514832,-0.3583352267742157,0.10363483428955078
1633779681066725000,9.52472509765625,0.2885686457157135,-0.6871529221534729,-0.28223851323127747
1633779681086605000,9.54460498046875,0.20501790940761566,-0.4477368891239166,-0.6530540585517883
1633779681106484000,9.56448388671875,0.39783087372779846,-0.07237482070922852,-0.5598157048225403
1633779681126364000,9.584364013671875,0.5917200446128845,0.18172816932201385,-0.12613636255264282
1633779681146243000,9.6042431640625,0.6019895076751709,0.4813201129436493,0.21012303233146667
1633779681166122000,9.6241220703125,0.3848024606704712,0.5832341909408569,0.32670578360557556
1633779681186002000,9.644001953125,0.0780910775065422,0.4814580976963043,0.3373766839504242
1633779681205881000,9.663881103515624,-0.03063856065273285,0.45606017112731934,0.36111482977867126
1633779681225761000,9.683760986328124,0.06200191751122475,0.5398094654083252,0.4940265417098999
1633779681245640000,9.703639892578124,0.2892327308654785,0.9659141898155212,0.6554452776908875
1633779681265520000,9.72352001953125,0.6166042685508728,1.1870254278182983,0.8055152297019958
1633779681285399300,9.7433994140625,0.7046968340873718,0.890630304813385,0.8285151124000549
1633779681305279200,9.763279296875,0.6729293465614319,0.3862994313240051,0.26700398325920105
1633779681325158100,9.783158203125,0.5173349976539612,-0.19308878481388092,-0.5974087715148926
1633779681345038000,9.8030380859375,0.31408944725990295,-0.8062968850135803,-1.278487205505371
1633779681364917200,9.822917236328125,0.4070979356765747,-1.0078667402267456,-1.918125033378601
1633779681384796200,9.842796142578125,0.9497599601745605,-0.61601322889328,-2.3088431358337402
1633779681404676000,9.862676025390625,1.3368204832077026,-0.5104177594184875,-1.8559932708740234
1633779681424555300,9.88255517578125,1.0439460277557373,-0.6778850555419922,-1.060115933418274
1633779681444435200,9.902435302734375,0.08273635804653168,-1.2587804794311523,-0.5765100717544556
1633779681464314000,9.922314208984375,-0.9102046489715576,-1.3519688844680786,-0.5735641121864319
1633779681484194300,9.9421943359375,-1.4539201259613037,-0.7318556308746338,-0.5666741132736206
1633779681504073200,9.9620732421875,-1.432458758354187,0.15597154200077057,-0.25777438282966614
1633779681523953200,9.981953125,-1.1281293630599976,0.6890817880630493,0.30260175466537476
1633779681543832300,10.001832275390624,-0.998214840888977,0.8214105367660522,0.8325056433677673
1633779681563712000,10.0217119140625,-1.104722499847412,0.6118530035018921,1.1352384090423584
1633779681583591200,10.041591064453126,-1.2469767332077026,0.22264453768730164,1.1186779737472534
1633779681603471400,10.061471435546874,-1.281537652015686,-0.10254941880702972,0.9725967049598694
1633779681623350000,10.08135009765625,-1.1486140489578247,-0.2701684236526489,0.8971062898635864
1633779681643229200,10.101229248046875,-0.8670135140419006,-0.4930296838283539,0.8595003485679626
1633779681663109400,10.121109375,-0.5838173627853394,-0.6404649615287781,0.7161051630973816
1633779681682988300,10.14098828125,-0.417405366897583,-0.5488304495811462,0.5472816824913025
1633779681702868200,10.1608681640625,-0.4616605341434479,-0.4488995373249054,0.4016363322734833
1633779681722747400,10.180747314453125,-0.5721376538276672,-0.3481394946575165,0.1914193332195282
1633779681742627000,10.200626953125,-0.48951104283332825,0.00042491592466831207,0.04189356416463852
1633779681762506200,10.22050634765625,-0.3797115087509155,-0.025690611451864243,0.039686091244220734
1633779681782386200,10.24038623046875,-0.12671193480491638,0.7866244316101074,-0.4025785028934479
1633779681802265000,10.26026513671875,0.32286393642425537,1.4181615114212036,-0.7187180519104004
1633779681822145300,10.280145263671875,0.6712114810943604,1.503966212272644,-0.6377162337303162
1633779681842024400,10.3000244140625,0.7434322237968445,0.7891120910644531,-0.2905850112438202
1633779681861903000,10.319903076171874,0.5719565153121948,0.005976182408630848,-0.10168740153312683
1633779681881783300,10.339783203125,0.45622554421424866,-0.3047539293766022,-0.28113195300102234
1633779681901662200,10.359662109375,0.37850409746170044,-0.2431008368730545,-0.4516717791557312
1633779681921542100,10.379542236328126,0.3594439923763275,-0.020749345421791077,-0.42696473002433777
1633779681941421300,10.39942138671875,0.3927950859069824,0.19745080173015594,-0.20011676847934723
1633779681961301200,10.41930126953125,0.3960140645503998,0.4508364200592041,0.10366415977478027
1633779681981180200,10.43918017578125,0.2927156686782837,0.6086028218269348,0.41250765323638916
1633779682001060400,10.459060302734375,0.13499456644058228,0.6879460215568542,0.6686330437660217
1633779682020939000,10.47893896484375,-0.029710719361901283,0.6156280040740967,0.8297405242919922
1633779682040819200,10.498819091796875,-0.06597896665334702,0.5679773688316345,0.8183068633079529
1633779682060698400,10.518698486328125,0.14014022052288055,0.5409256815910339,0.6914608478546143
1633779682080577000,10.538576904296875,0.492026686668396,0.5941244959831238,0.545382022857666
1633779682100457200,10.558457275390625,0.8840661644935608,0.9694006443023682,0.415467768907547
1633779682120336400,10.57833642578125,0.9591379761695862,1.321651816368103,0.08953746408224106
1633779682140216000,10.598216064453124,0.9869739413261414,0.8075626492500305,0.0727139413356781
1633779682160095200,10.61809521484375,0.9530742168426514,0.5658038854598999,0.2413841336965561
1633779682179975200,10.63797509765625,0.8853240013122559,0.24613603949546814,0.3687267005443573
1633779682199854000,10.65785400390625,0.6957739591598511,-0.43837422132492065,0.14367112517356873
1633779682219734300,10.677734375,0.459594190120697,-1.4719539880752563,-0.526323676109314
1633779682239613200,10.69761328125,0.5399025678634644,-1.2630748748779297,-1.68251633644104
1633779682259492000,10.7174921875,0.9187509417533875,0.3376842737197876,-2.135462999343872
1633779682279373300,10.737373291015626,0.99968022108078,0.4578295946121216,-1.2960577011108398
1633779682299252200,10.757252197265625,0.7784706950187683,-0.05120937526226044,-0.07948815822601318
1633779682319132400,10.77713232421875,0.5021314024925232,-0.610421895980835,0.6414086818695068
1633779682339011300,10.79701123046875,0.20576339960098267,-0.7846260666847229,0.6161940097808838
1633779682358891300,10.816891357421875,0.12255412340164185,-0.2998999357223511,0.03078872337937355
1633779682378770400,10.8367705078125,-0.017103148624300957,0.12689068913459778,-0.35907095670700073
1633779682398650400,10.856650390625,-0.4548785388469696,0.02205425314605236,-0.09973709285259247
1633779682418529300,10.876529296875,-0.9666067361831665,-0.361318975687027,0.5946791172027588
1633779682438409200,10.8964091796875,-1.1640251874923706,-0.23134054243564606,1.249089241027832
1633779682458288400,10.916288330078125,-0.7542517781257629,0.6917812824249268,1.64621901512146
1633779682478167300,10.936167236328124,-0.20388688147068024,0.6304106116294861,1.7722656726837158
1633779682498047200,10.956047119140624,0.08739764988422394,-0.05228051170706749,1.291178584098816
1633779682517926400,10.975926513671874,-0.0451866090297699,0.016039399430155754,0.6006038188934326
1633779682537806300,10.995806396484374,-0.49812087416648865,0.6068609952926636,0.328462690114975
1633779682557685200,11.015685302734376,-0.7870944738388062,0.9765163660049438,0.08940012007951736
1633779682577565400,11.0355654296875,-0.6834222078323364,-0.8979584574699402,-0.037319816648960114
1633779682597444400,11.0554443359375,-0.19266277551651,-2.7754712104797363,-0.5332329273223877
1633779682617324300,11.07532421875,0.6537538766860962,-1.911448359489441,-1.101963996887207
1633779682637203500,11.095203369140625,0.2416999787092209,-0.47471165657043457,-1.3543919324874878
1633779682657083400,11.11508349609375,0.021289780735969543,0.3282930552959442,-1.4789972305297852
1633779682676962300,11.13496240234375,0.2404102236032486,1.0657531023025513,-1.3868829011917114
1633779682696841200,11.15484130859375,0.25899919867515564,1.5425751209259033,-1.0521231889724731
1633779682716721400,11.174721435546875,0.11822019517421722,0.6821760535240173,-1.0823705196380615
1633779682736600300,11.194600341796875,0.34883278608322144,0.12654203176498413,-0.949883759021759
1633779682756480500,11.21448046875,0.4381231367588043,0.04577792435884476,-0.4933406412601471
1633779682776359400,11.234359375,0.2973976135253906,0.18474292755126953,-0.1964094340801239
1633779682796239400,11.2542392578125,0.25039178133010864,0.2318112701177597,-0.1014833077788353
1633779682816118300,11.2741181640625,0.2829459309577942,-0.063258096575737,-0.0049619958736002445
1633779682835998200,11.293998291015624,0.34156325459480286,-0.12234281003475189,-0.06058460846543312
1633779682855877400,11.31387744140625,0.3059907555580139,0.1482560634613037,-0.2931474447250366
1633779682875756300,11.33375634765625,0.33773577213287354,0.46068426966667175,-0.7245885729789734
1633779682895636200,11.35363623046875,0.25547707080841064,0.06080707907676697,-1.1695008277893066
1633779682915515400,11.373515380859375,0.1527915894985199,-0.31332215666770935,-1.202423334121704
1633779682935395300,11.393395263671875,0.05951504409313202,0.03961200267076492,-1.0073221921920776
1633779682955274200,11.413274169921875,0.18227386474609375,0.40339428186416626,-0.666466236114502
1633779682975154400,11.433154541015625,0.5235926508903503,0.5575388669967651,-0.15534856915473938
1633779682995033300,11.453033447265625,0.8536465167999268,0.3847655951976776,0.6233903765678406
1633779683014913300,11.472913330078125,0.8716119527816772,0.2212679237127304,1.2007389068603516
1633779683034792400,11.49279248046875,0.8993819952011108,0.053785111755132675,1.1442354917526245
1633779683054671400,11.51267138671875,0.8826754093170166,0.09820935130119324,0.8864954710006714
1633779683074551300,11.53255126953125,0.717488706111908,0.12849488854408264,0.6546238660812378
1633779683094430500,11.552430419921874,0.5474567413330078,-0.055269405245780945,0.5631434917449951
1633779683114310100,11.57231005859375,0.4274989366531372,-0.05188222974538803,0.5798097848892212
1633779683134189300,11.592189208984376,0.1969529688358307,-0.030841361731290817,0.41443169116973877
1633779683154069500,11.612069580078124,-0.11606056988239288,-0.10937696695327759,-0.25503090023994446
1633779683173948200,11.6319482421875,-0.4628981947898865,-0.24310946464538574,-1.22451651096344
1633779683193828400,11.651828369140626,-0.7092075347900391,-0.6498575210571289,-2.196233034133911
1633779683213707500,11.67170751953125,-0.8045386075973511,-1.0159685611724854,-1.93329656124115
1633779683233586400,11.69158642578125,-0.6820610165596008,-0.9180481433868408,-0.7291844487190247
1633779683253466400,11.71146630859375,-0.6750021576881409,-0.7840427160263062,0.19446736574172974
1633779683273344800,11.7313447265625,-0.7636606693267822,-0.797212541103363,0.31848224997520447
1633779683293224700,11.751224609375,-0.905509889125824,-0.9099913239479065,-0.05443909764289856
1633779683313103600,11.771103515625,-0.7863535284996033,-0.5845701098442078,-0.32606855034828186
1633779683332983800,11.79098388671875,-0.780205249786377,-0.26853910088539124,-0.13685138523578644
1633779683352862700,11.81086279296875,-0.9296184182167053,-0.4086853265762329,0.42481857538223267
1633779683372742700,11.83074267578125,-1.1001025438308716,-0.7426803112030029,0.6914198994636536
1633779683392621800,11.850621826171874,-1.2002140283584595,-0.766875147819519,0.4085976481437683
1633779683412500700,11.870500732421876,-1.1789956092834473,-0.5618076324462891,-0.23388251662254333
1633779683432380700,11.890380615234376,-1.0339381694793701,-0.12174168229103088,-0.7854030132293701
1633779683452259800,11.910259765625,-0.8345410823822021,0.5054050087928772,-0.8889968395233154
1633779683472139800,11.930139892578126,-0.9138103723526001,0.35366085171699524,-0.49177369475364685
1633779683492018700,11.950018798828125,-0.9685474038124084,0.2198343276977539,0.1907327026128769
1633779683511899000,11.96989892578125,-0.759663462638855,-0.04840075224637985,0.5910917520523071
1633779683531777500,11.989777587890625,-0.6776347756385803,-0.3905537724494934,0.45114201307296753
1633779683551657700,12.00965771484375,-0.611643373966217,-0.6138440370559692,0.07921431213617325
1633779683571537000,12.029536865234375,-0.5640168190002441,-0.5895230174064636,-0.22908924520015717
1633779683591415600,12.04941552734375,-0.6108241677284241,-0.33116844296455383,-0.3611162304878235
1633779683611295700,12.069295654296875,-0.5915888547897339,0.001573074609041214,-0.3268226385116577
1633779683631175000,12.0891748046875,-0.539188802242279,0.1569538712501526,-0.0884266048669815
1633779683651054600,12.1090546875,-0.5316439270973206,0.06771579384803772,0.151093527674675
1633779683670933800,12.128933837890624,-0.4983561933040619,-0.21430756151676178,0.2853027880191803
1633779683690813700,12.148813720703124,-0.4651224911212921,-0.40574681758880615,0.32948437333106995
1633779683710692600,12.168692626953124,-0.42049694061279297,-0.3338993191719055,0.33304616808891296
1633779683730572800,12.18857275390625,-0.3554648458957672,-0.19827821850776672,0.37454691529273987
1633779683750451700,12.20845166015625,-0.2471240907907486,-0.18352587521076202,0.4651210904121399
1633779683770330600,12.22833056640625,-0.15665534138679504,-0.18167154490947723,0.39303335547447205
1633779683790210800,12.2482109375,-0.16914433240890503,-0.07870465517044067,0.06996364891529083
1633779683810089700,12.26808984375,-0.0831516906619072,-0.018037375062704086,-0.1748371571302414
1633779683829969700,12.2879697265625,-0.119377501308918,0.04794204235076904,-0.25718459486961365
1633779683849848800,12.307848876953125,-0.14888963103294373,0.027527887374162674,-0.13010840117931366
1633779683869728800,12.327728759765625,-0.10651501268148422,-0.027135785669088364,0.09409552812576294
1633779683889607700,12.347607666015625,-0.12100495398044586,-0.09826097637414932,0.21363723278045654
1633779683909486800,12.36748681640625,-0.1682739555835724,-0.07837530970573425,0.1465776413679123
1633779683929366800,12.38736669921875,-0.1887000948190689,-0.04288570582866669,0.02601822279393673
1633779683949245700,12.40724560546875,-0.17000626027584076,0.02710653282701969,-0.10753605514764786
1633779683969125600,12.427125732421874,-0.19289086759090424,0.07267428189516068,-0.10621052980422974
1633779683989004500,12.447004638671874,-0.19307459890842438,0.17356617748737335,0.021598266437649727
1633779684008884700,12.466884765625,-0.1922747641801834,0.1434699147939682,0.16258715093135834
1633779684028763600,12.486763671875,-0.16414618492126465,0.037263959646224976,0.19785018265247345
1633779684048643800,12.506643798828126,-0.109178327023983,-0.0009337160736322403,0.16323602199554443
1633779684068522800,12.526522705078126,-0.049456365406513214,0.024577192962169647,0.14822271466255188
1633779684088402000,12.54640185546875,-0.01836354285478592,0.03561969846487045,0.19487406313419342
1633779684108281600,12.566281494140625,0.009217276237905025,-0.0017215358093380928,0.28082895278930664
1633779684128160800,12.586160888671875,0.023940434679389,-0.02501026540994644,0.305929571390152
1633779684148040700,12.606040771484375,0.04119962826371193,-0.039250075817108154,0.2677169740200043
1633779684167919600,12.625919677734375,0.004228595178574324,-0.04150821268558502,0.20424266159534454
1633779684187799800,12.6457998046875,-0.021250411868095398,-0.09095901250839233,0.09819705784320831
1633779684207678700,12.6656787109375,0.004110048059374094,-0.0720844566822052,0.027849538251757622
1633779684227557600,12.6855576171875,-0.014657062478363514,-0.09147899597883224,0.08295375108718872
1633779684247437800,12.705437744140625,0.011799232102930546,-0.13056840002536774,0.14604265987873077
1633779684267316700,12.725316650390624,0.031515322625637054,-0.1817101091146469,0.12042950093746185
1633779684287197200,12.745197265625,0.027669472619891167,-0.20766256749629974,0.09897217899560928
1633779684307076000,12.765076171875,0.03905357047915459,-0.21771763265132904,0.048422671854496
1633779684326956000,12.7849560546875,0.058820851147174835,-0.23805826902389526,0.06524328887462616
1633779684346835200,12.804835205078126,0.06366162747144699,-0.18624205887317657,0.04629688709974289
1633779684366715100,12.824715087890626,0.06191030517220497,-0.17781949043273926,0.026771215721964836
1633779684386594000,12.844593994140626,0.07589738816022873,-0.15670475363731384,-0.004706449806690216
1633779684406473200,12.86447314453125,0.055018723011016846,-0.14368844032287598,-0.025745036080479622
1633779684426353200,12.884353271484375,0.053889114409685135,-0.10127481818199158,0.0010062289657071233
1633779684446232000,12.904232177734375,0.05371151491999626,-0.06593924015760422,0.008850031532347202
1633779684466112300,12.9241123046875,0.04795229434967041,-0.05442168563604355,0.037064552307128906
1633779684485991200,12.9439912109375,0.036420099437236786,-0.05649286136031151,0.059579912573099136
1633779684505871000,12.96387109375,0.03105930984020233,-0.04642826318740845,0.04201747104525566
1633779684525750300,12.983750244140625,0.03701825067400932,-0.03368448093533516,0.000973681453615427
1633779684545630200,13.003630126953125,0.062087900936603546,0.0009921081364154816,0.001249347347766161
1633779684565509000,13.023509033203124,0.07550778239965439,-0.023456627503037453,0.033036164939403534
1633779684585388300,13.04338818359375,0.06328131258487701,-0.04824349656701088,0.05026683583855629
1633779684605268200,13.063268310546874,0.053164444863796234,-0.06104010343551636,0.014039444737136364
1633779684625147100,13.083147216796876,0.0519428625702858,-0.10942334681749344,-0.006498228292912245
1633779684645027000,13.103027099609376,0.0458313524723053,-0.10583214461803436,-0.07159135490655899
1633779684664906000,13.122906005859376,0.0360235795378685,-0.07526808232069016,-0.08972157537937164
1633779684684786200,13.1427861328125,0.05684958025813103,0.019857164472341537,-0.09907002002000809
1633779684704665000,13.1626650390625,0.06158722564578056,0.0509418249130249,-0.06409583240747452
1633779684724544000,13.1825439453125,0.07248405367136002,0.060950834304094315,-0.04919162765145302
1633779684744424200,13.202424072265625,0.07025633752346039,-0.00344755407422781,-0.03810840845108032
1633779684764303000,13.22230322265625,0.06613789498806,-0.04234186187386513,-0.07079829275608063
1633779684784183000,13.24218310546875,0.05252491310238838,-0.0647319108247757,-0.07235792279243469
1633779684804062200,13.262062255859375,0.03711213916540146,-0.061220258474349976,-0.05817943438887596
1633779684823942100,13.281942138671875,0.03393829986453056,-0.048470888286828995,-0.03648030757904053
1633779684843821000,13.301821044921875,0.023763542994856834,0.0009637987241148949,-0.06329695880413055
1633779684863700200,13.3217001953125,0.017574019730091095,0.02195998653769493,-0.06164463981986046
1633779684883580200,13.341580078125,0.026353197172284126,0.0828903391957283,-0.04447222128510475
1633779684903459000,13.361458984375,0.03150394558906555,0.05810253322124481,-0.008830511011183262
1633779684923339000,13.381339111328124,0.025930486619472504,0.04679636284708977,-0.03675154224038124
1633779684943218200,13.40121826171875,0.017709074541926384,-0.012222003191709518,-0.0428185798227787
1633779684963098000,13.42109814453125,0.019347280263900757,-0.03089531883597374,-0.04016711935400963
1633779684982977000,13.44097705078125,0.022565742954611778,-0.02772034890949726,0.003941128961741924
1633779685002857200,13.460857177734376,0.02192031964659691,-0.0004294198006391525,0.01911361701786518
1633779685022736100,13.480736083984375,0.027286605909466743,0.04554463177919388,-0.016848411411046982
1633779685042615300,13.500615234375,0.028897881507873535,0.07112445682287216,-0.03430161997675896
1633779685062495200,13.5204951171875,0.025753801688551903,0.051048073917627335,-0.020153701305389404
1633779685082374100,13.5403740234375,0.009494058787822723,0.029706764966249466,0.006731923669576645
1633779685102254000,13.560254150390625,-0.005672063212841749,-0.014412377029657364,0.01614740677177906
1633779685122133200,13.58013330078125,-0.004795077256858349,-0.029462017118930817,-0.006976758595556021
1633779685142013200,13.60001318359375,-0.02200929820537567,-0.06025035306811333,-0.0347818098962307
1633779685161892000,13.61989208984375,-0.011862639337778091,-0.038934510201215744,-0.058562539517879486
1633779685181771000,13.63977099609375,0.0022543722297996283,-0.04285955801606178,-0.06075652688741684
1633779685201651200,13.659651123046874,0.00279412604868412,-0.05357016623020172,-0.021316612139344215
1633779685221530000,13.679530029296876,-0.002295883372426033,-0.08507193624973297,-0.0331171452999115
1633779685241410300,13.699410400390626,-0.012417631223797798,-0.14555907249450684,-0.04396933689713478
1633779685261289200,13.719289306640626,-0.015783078968524933,-0.13476037979125977,-0.041044801473617554
1633779685281172200,13.739172119140624,-0.020565249025821686,-0.10497940331697464,-0.028097940608859062
1633779685301051400,13.759051513671874,-0.029613662511110306,-0.08441874384880066,-0.039180174469947815
1633779685320930600,13.7789306640625,-0.03710854798555374,-0.07503391057252884,-0.07247087359428406
1633779685340810200,13.798810302734376,-0.025555424392223358,-0.05957889184355736,-0.043079882860183716
1633779685360689400,13.818689453125,-0.013419224880635738,-0.05113822966814041,-0.011390859261155128
1633779685380569300,13.8385693359375,-0.00947623886168003,-0.057980649173259735,0.00874856486916542
1633779685400448300,13.8584482421875,-0.004607032984495163,-0.057383861392736435,0.01109662838280201
1633779685420328400,13.878328369140625,-0.008768312633037567,-0.046769797801971436,0.039334993809461594
1633779685440207400,13.898207275390625,-0.001023792428895831,0.010739951394498348,0.08039335906505585
1633779685460086300,13.918086181640625,0.02075204998254776,0.04576951265335083,0.11164011061191559
1633779685479966500,13.937966552734375,0.03426498919725418,0.04615462198853493,0.1127389520406723
1633779685499845600,13.957845703125,0.0367833748459816,0.040665168315172195,0.1240374967455864
1633779685519725300,13.977725341796875,0.03546375781297684,0.03139624744653702,0.1349705457687378
1633779685539604500,13.9976044921875,0.02976311184465885,0.060635387897491455,0.11542830616235733
1633779685559484400,14.017484375,0.018885990604758263,0.0837831124663353,0.08404414355754852
1633779685579363300,14.03736328125,0.013687530532479286,0.06965605169534683,0.04977235943078995
1633779685599243500,14.057243408203124,0.01830483414232731,0.04483158886432648,0.03609422594308853
1633779685619122400,14.077122314453124,0.006664013955742121,-0.021095464006066322,0.055277109146118164
1633779685639001300,14.09700146484375,0.010422920808196068,-0.009002402424812317,0.0414988175034523
1633779685658881500,14.116881591796876,0.0069402363151311874,0.030772268772125244,0.018298251554369926
1633779685678760200,14.13676025390625,0.017787175253033638,0.08869440108537674,0.013902660459280014
1633779685698640400,14.156640380859375,0.009577134624123573,0.07847705483436584,0.03295078128576279
1633779685718519600,14.17651953125,0.008317767642438412,0.04926108196377754,0.0499412976205349
1633779685738399500,14.1963994140625,0.010459423065185547,0.013706539757549763,0.06598042696714401
1633779685758278400,14.2162783203125,0.012323988601565361,0.02811259590089321,0.06096101552248001
1633779685778157600,14.236157470703125,-0.002035681391134858,0.01548838708549738,0.018392261117696762
1633779685798037200,14.256037353515625,0.015038787387311459,0.018724747002124786,0.0203490499407053
1633779685817916400,14.27591650390625,0.02509782277047634,0.02305068075656891,0.07058972865343094
1633779685837796400,14.29579638671875,0.04380102828145027,0.04205735772848129,0.08852525055408478
1633779685857675300,14.31567529296875,0.04523627087473869,0.03338467329740524,0.04934437945485115
1633779685877555500,14.335555419921874,0.04725542291998863,0.032606229186058044,0.003946596756577492
1633779685897434400,14.355434326171874,0.03802945837378502,-0.017813483253121376,-0.008974500000476837
1633779685917313300,14.375313232421876,0.03613406419754028,-0.0004819510504603386,0.03841562569141388
1633779685937193500,14.395193359375,0.01573590561747551,0.08602924644947052,0.06819244474172592
1633779685957072400,14.415072265625,0.015914998948574066,0.09330226480960846,0.09303434193134308
1633779685976952300,14.434952392578126,0.028618238866329193,0.050120748579502106,0.1086609810590744
1633779685996831500,14.45483154296875,0.14121218025684357,0.12181549519300461,0.19655011594295502
1633779686016711400,14.47471142578125,0.08490538597106934,0.7598132491111755,0.636864960193634
1633779686036590300,14.49459033203125,-0.10876049101352692,0.12060277909040451,-0.06802359223365784
1633779686056469500,14.514469482421875,0.08901803940534592,-0.12423336505889893,-0.36177754402160645
1633779686076349400,14.534349365234375,0.07031510770320892,-0.24897241592407227,-0.12031829357147217
1633779686096228400,14.554228271484375,0.02866009995341301,-0.13921311497688293,0.20468565821647644
