 Acc_timestamp,Accx,Accy,Accz,Gyro_timestamp,Gyrox,Gyroy,Gyroz,Baro_timestamp,Pressure_Reading
 125073968.000000, -0.399601 , 3.594020, 9.008978, 256603872.000000, -1.470000,  0.700000,  0.070000, 0.000000,  0.000000 
 125093968.000000, -0.392423 , 3.692125, 9.004191, 256623856.000000, -0.070000,  0.420000,  0.070000, 0.000000,  0.000000 
 125114272.000000, -0.325424 , 3.742374, 8.994620, 256643840.000000, 1.050000,  0.420000,  0.210000, 0.000000,  0.000000 
 125133952.000000, -0.346959 , 3.723232, 8.953942, 256664144.000000, 1.050000,  0.420000,  0.140000, 0.000000,  0.000000 
 125153936.000000, -0.416351 , 3.773481, 8.927622, 256683824.000000, 0.490000,  0.560000,  -0.140000, 0.000000,  0.000000 
 125173920.000000, -0.440279 , 3.747160, 8.973085, 256723808.000000, -1.890000,  0.630000,  0.350000, 256723072.000000,  1008.935242 
 125193904.000000, -0.421137 , 3.555735, 8.982656, 0.000000, 0.000000,  0.000000,  0.000000, 0.000000,  0.000000 
 125214208.000000, -0.380459 , 3.517449, 9.037691, 256743792.000000, -2.800000,  0.560000,  0.140000, 0.000000,  0.000000 
 125233888.000000, -0.358923 , 3.622734, 9.023334, 256764096.000000, -1.400000,  0.350000,  0.140000, 0.000000,  0.000000 
 125253872.000000, -0.413958 , 3.728018, 8.980263, 256783760.000000, 0.910000,  0.210000,  0.350000, 0.000000,  0.000000 
 125273904.000000, -0.406780 , 3.720839, 8.997013, 256803760.000000, 1.680000,  0.420000,  0.210000, 0.000000,  0.000000 
 125293856.000000, -0.418744 , 3.711268, 8.961121, 256823776.000000, 0.770000,  0.490000,  0.070000, 0.000000,  0.000000 
 125314160.000000, -0.437887 , 3.680161, 8.977871, 256843728.000000, -0.210000,  0.490000,  0.070000, 0.000000,  0.000000 
 125333840.000000, -0.492921 , 3.672983, 8.937192, 256864032.000000, -0.770000,  0.490000,  0.070000, 0.000000,  0.000000 
 125353824.000000, -0.342174 , 3.632305, 9.023334, 256883712.000000, -1.050000,  0.350000,  0.070000, 0.000000,  0.000000 
 125373824.000000, -0.394816 , 3.646662, 8.997013, 256903712.000000, -1.260000,  0.210000,  0.210000, 0.000000,  0.000000 
 125393808.000000, -0.430708 , 3.615555, 8.987441, 256923696.000000, -0.980000,  0.350000,  0.210000, 0.000000,  0.000000 
 125414096.000000, -0.378066 , 3.634698, 8.968300, 256943680.000000, -0.980000,  0.490000,  0.210000, 0.000000,  0.000000 
 125433792.000000, -0.387637 , 3.696911, 8.980263, 256963984.000000, 0.700000,  0.350000,  0.140000, 0.000000,  0.000000 
 125453776.000000, -0.440279 , 3.684947, 9.008978, 256983664.000000, 0.630000,  0.280000,  0.070000, 0.000000,  0.000000 
 125473760.000000, -0.437887 , 3.720839, 8.989835, 257003648.000000, 0.140000,  0.350000,  -0.140000, 0.000000,  0.000000 
 125493760.000000, -0.404387 , 3.672983, 9.016156, 257023648.000000, -0.490000,  0.490000,  -0.070000, 0.000000,  0.000000 
 125514048.000000, -0.354138 , 3.644269, 9.011370, 257043632.000000, -1.190000,  0.350000,  0.140000, 0.000000,  0.000000 
 125533728.000000, -0.399601 , 3.610770, 8.965906, 257063920.000000, -1.330000,  0.210000,  0.280000, 0.000000,  0.000000 
 125553712.000000, -0.401994 , 3.663411, 8.963513, 257083616.000000, -0.490000,  0.210000,  0.140000, 0.000000,  0.000000 
 125573712.000000, -0.356531 , 3.766303, 8.944371, 257103600.000000, 0.490000,  0.280000,  0.140000, 0.000000,  0.000000 
 125593696.000000, -0.397209 , 3.663411, 8.925228, 257123584.000000, 0.490000,  0.350000,  0.140000, 0.000000,  0.000000 
 125614000.000000, -0.421137 , 3.670590, 8.968300, 257143568.000000, -0.350000,  0.420000,  -0.070000, 0.000000,  0.000000 
 125633680.000000, -0.416351 , 3.622734, 9.001799, 257163872.000000, -1.190000,  0.420000,  -0.070000, 0.000000,  0.000000 
 125653664.000000, -0.394816 , 3.608376, 9.018548, 257183552.000000, -1.190000,  0.210000,  -0.070000, 0.000000,  0.000000 
 125673648.000000, -0.411566 , 3.680161, 8.975478, 257203536.000000, -0.770000,  0.210000,  -0.070000, 0.000000,  0.000000 
 125693648.000000, -0.401994 , 3.713661, 8.965906, 257223536.000000, -0.350000,  0.140000,  -0.140000, 0.000000,  0.000000 
 125713936.000000, -0.435494 , 3.701697, 8.941978, 257243520.000000, -0.420000,  0.070000,  0.140000, 0.000000,  0.000000 
 125733616.000000, -0.409173 , 3.620341, 8.968300, 257263808.000000, -0.840000,  0.210000,  -0.070000, 0.000000,  0.000000 
 125753600.000000, -0.399601 , 3.670590, 8.970692, 257283488.000000, -0.770000,  0.210000,  -0.070000, 0.000000,  0.000000 
 125773584.000000, -0.366102 , 3.680161, 8.977871, 257303472.000000, -0.560000,  0.070000,  -0.070000, 0.000000,  0.000000 
 125793584.000000, -0.442672 , 3.665804, 8.970692, 257323472.000000, -0.630000,  0.070000,  -0.140000, 0.000000,  0.000000 
 125813888.000000, -0.418744 , 3.641876, 9.008978, 257343456.000000, -0.770000,  0.210000,  -0.070000, 0.000000,  0.000000 
 125833552.000000, -0.387637 , 3.661019, 9.013763, 257363760.000000, -0.980000,  0.210000,  -0.070000, 0.000000,  0.000000 
 125853552.000000, -0.435494 , 3.589234, 9.006584, 257383440.000000, -1.120000,  0.280000,  -0.070000, 0.000000,  0.000000 
 125873536.000000, -0.378066 , 3.622734, 8.977871, 257403424.000000, -0.980000,  0.210000,  -0.140000, 0.000000,  0.000000 
 125893520.000000, -0.394816 , 3.649055, 9.023334, 257423408.000000, -0.700000,  0.070000,  0.070000, 0.000000,  0.000000 
 125913840.000000, -0.380459 , 3.644269, 8.965906, 257443392.000000, -0.560000,  0.070000,  0.210000, 0.000000,  0.000000 
 125933504.000000, -0.399601 , 3.641876, 9.004191, 257463712.000000, -0.140000,  0.070000,  0.210000, 0.000000,  0.000000 
 125953488.000000, -0.378066 , 3.646662, 9.008978, 257483376.000000, -0.070000,  0.070000,  0.350000, 0.000000,  0.000000 
 125973472.000000, -0.428315 , 3.725625, 8.965906, 257503360.000000, 0.070000,  0.070000,  0.140000, 0.000000,  0.000000 
 125993472.000000, -0.399601 , 3.771089, 8.944371, 257523360.000000, 0.490000,  0.280000,  -0.280000, 0.000000,  0.000000 
 126013776.000000, -0.411566 , 3.661019, 8.953942, 257543344.000000, 0.350000,  0.210000,  -0.140000, 0.000000,  0.000000 
 126033456.000000, -0.406780 , 3.622734, 9.008978, 257563664.000000, -1.330000,  0.210000,  0.140000, 0.000000,  0.000000 
 126053440.000000, -0.325424 , 3.519842, 9.044869, 257583328.000000, -2.520000,  0.210000,  0.140000, 0.000000,  0.000000 
 126073424.000000, -0.394816 , 3.617948, 8.997013, 257603312.000000, -1.820000,  0.280000,  0.140000, 0.000000,  0.000000 
 126093424.000000, -0.428315 , 3.701697, 8.977871, 257623296.000000, 0.140000,  0.350000,  -0.140000, 0.000000,  0.000000 
 126113728.000000, -0.440279 , 3.771089, 9.020942, 257643296.000000, 1.120000,  0.350000,  -0.140000, 0.000000,  0.000000 
 126133392.000000, -0.454636 , 3.706482, 8.961121, 257663600.000000, 0.280000,  0.350000,  -0.140000, 0.000000,  0.000000 
 126153376.000000, -0.346959 , 3.744767, 8.839087, 257683264.000000, 0.350000,  0.280000,  -0.140000, 0.000000,  0.000000 
 126173376.000000, -0.258425 , 3.342773, 9.087940, 257703264.000000, -1.610000,  -0.210000,  1.050000, 0.000000,  0.000000 
 126193360.000000, -0.526421 , 3.290131, 9.016156, 257723248.000000, -8.120000,  -0.420000,  -1.050000, 257722512.000000,  1008.934631 
 126213664.000000, -0.471386 , 3.651447, 9.016156, 257743232.000000, -2.800000,  1.540000,  -1.960000, 0.000000,  0.000000 
 126233344.000000, -0.358923 , 3.756732, 9.154939, 257763552.000000, 4.060000,  0.560000,  0.140000, 0.000000,  0.000000 
 126253328.000000, -0.468993 , 3.981657, 8.934800, 257783216.000000, 5.390000,  -0.490000,  0.070000, 0.000000,  0.000000 
 126273360.000000, -0.490529 , 3.869194, 8.863015, 257803200.000000, 4.690000,  0.700000,  0.070000, 0.000000,  0.000000 
 126293312.000000, -0.320638 , 3.711268, 8.867801, 257823232.000000, -0.070000,  -0.280000,  0.140000, 0.000000,  0.000000 
 126313616.000000, -0.342174 , 3.675375, 8.932407, 257843184.000000, -2.940000,  -0.350000,  1.050000, 0.000000,  0.000000 
 126333280.000000, -0.442672 , 3.416951, 9.066404, 257863488.000000, -4.410000,  1.050000,  0.070000, 0.000000,  0.000000 
 126353440.000000, -0.325424 , 3.361916, 9.114261, 257883168.000000, -5.810000,  1.260000,  -0.350000, 0.000000,  0.000000 
 126373264.000000, -0.390030 , 3.402594, 9.047262, 257903312.000000, -3.220000,  0.560000,  0.070000, 0.000000,  0.000000 
 126393248.000000, -0.480957 , 3.493521, 9.028119, 257923136.000000, 0.770000,  0.700000,  -0.070000, 0.000000,  0.000000 
 126413552.000000, -0.401994 , 3.754339, 8.953942, 257943120.000000, 3.570000,  0.350000,  -0.420000, 0.000000,  0.000000 
 126433232.000000, -0.380459 , 3.857230, 8.946764, 257963424.000000, 4.970000,  -0.140000,  0.560000, 0.000000,  0.000000 
 126453216.000000, -0.323031 , 3.792624, 8.951550, 257983104.000000, 3.080000,  -0.210000,  0.630000, 0.000000,  0.000000 
 126473200.000000, -0.390030 , 3.732803, 9.049655, 258003088.000000, 3.080000,  -0.210000,  0.140000, 0.000000,  0.000000 
 126493200.000000, -0.421137 , 3.744767, 9.006584, 258023088.000000, -1.260000,  0.560000,  0.140000, 0.000000,  0.000000 
 126513488.000000, -0.416351 , 3.711268, 8.982656, 258043072.000000, -1.890000,  0.910000,  -0.420000, 0.000000,  0.000000 
 126533168.000000, -0.394816 , 3.644269, 8.992228, 258063376.000000, -2.310000,  0.770000,  -0.140000, 0.000000,  0.000000 
 126553168.000000, -0.509671 , 3.570091, 8.949157, 258083056.000000, -2.800000,  0.560000,  -0.140000, 0.000000,  0.000000 
 126573152.000000, -0.421137 , 3.500700, 8.973085, 258103040.000000, -2.940000,  0.420000,  -0.070000, 0.000000,  0.000000 
 126593136.000000, -0.361316 , 3.579663, 9.016156, 258123024.000000, -1.960000,  0.210000,  0.070000, 0.000000,  0.000000 
 126613440.000000, -0.378066 , 3.570091, 8.999406, 258143008.000000, -0.420000,  0.070000,  0.350000, 0.000000,  0.000000 
 126633120.000000, -0.380459 , 3.596412, 8.961121, 258163312.000000, 0.560000,  0.210000,  0.420000, 0.000000,  0.000000 
 126653104.000000, -0.370888 , 3.658626, 8.949157, 258182992.000000, 1.120000,  0.420000,  0.210000, 0.000000,  0.000000 
 126673088.000000, -0.368495 , 3.632305, 8.992228, 258202976.000000, 1.330000,  0.560000,  0.070000, 0.000000,  0.000000 
 126693088.000000, -0.390030 , 3.665804, 9.001799, 258222976.000000, 1.400000,  0.560000,  0.070000, 0.000000,  0.000000 
 126713392.000000, -0.392423 , 3.716053, 8.992228, 258242960.000000, 1.260000,  0.560000,  -0.070000, 0.000000,  0.000000 
 126733072.000000, -0.361316 , 3.742374, 9.044869, 258263264.000000, 0.840000,  0.420000,  -0.070000, 0.000000,  0.000000 
 126753056.000000, -0.373280 , 3.689733, 9.037691, 258282944.000000, 0.140000,  0.280000,  0.140000, 0.000000,  0.000000 
 126773040.000000, -0.421137 , 3.684947, 8.999406, 258302928.000000, -0.630000,  0.210000,  -0.070000, 0.000000,  0.000000 
 126793024.000000, -0.437887 , 3.720839, 8.944371, 258322912.000000, -0.770000,  0.420000,  -0.280000, 0.000000,  0.000000 
 126813328.000000, -0.423530 , 3.651447, 9.004191, 258342912.000000, -1.400000,  0.420000,  -0.140000, 0.000000,  0.000000 
 126833008.000000, -0.392423 , 3.517449, 8.987441, 258363216.000000, -3.010000,  0.350000,  0.350000, 0.000000,  0.000000 
 126852992.000000, -0.354138 , 3.476771, 8.977871, 258382880.000000, -3.150000,  0.350000,  0.140000, 0.000000,  0.000000 
 126872992.000000, -0.401994 , 3.567699, 8.989835, 258402880.000000, -1.540000,  0.210000,  0.210000, 0.000000,  0.000000 
 126892976.000000, -0.392423 , 3.644269, 8.968300, 258422864.000000, 0.420000,  0.280000,  0.140000, 0.000000,  0.000000 
 126913280.000000, -0.399601 , 3.663411, 8.961121, 258442848.000000, 1.120000,  0.490000,  -0.070000, 0.000000,  0.000000 
 126932960.000000, -0.370888 , 3.622734, 8.953942, 258463152.000000, 0.840000,  0.560000,  -0.070000, 0.000000,  0.000000 
 126952944.000000, -0.356531 , 3.620341, 8.970692, 258482832.000000, 0.210000,  0.350000,  0.210000, 0.000000,  0.000000 
 126972928.000000, -0.370888 , 3.637090, 8.951550, 258502816.000000, -0.210000,  0.490000,  0.070000, 0.000000,  0.000000 
 126992928.000000, -0.385244 , 3.613162, 9.008978, 258522816.000000, -0.280000,  0.490000,  0.070000, 0.000000,  0.000000 
 127013216.000000, -0.411566 , 3.699304, 9.035298, 258542800.000000, -0.280000,  0.280000,  0.140000, 0.000000,  0.000000 
 127032896.000000, -0.406780 , 3.670590, 8.992228, 258563104.000000, 0.350000,  0.420000,  0.140000, 0.000000,  0.000000 
 127052896.000000, -0.425922 , 3.696911, 8.956335, 258582784.000000, 0.350000,  0.630000,  -0.070000, 0.000000,  0.000000 
 127072880.000000, -0.349352 , 3.663411, 8.994620, 258602768.000000, -0.490000,  0.280000,  0.070000, 0.000000,  0.000000 
 127092864.000000, -0.428315 , 3.680161, 8.994620, 258622752.000000, -0.560000,  0.280000,  -0.070000, 0.000000,  0.000000 
 127113168.000000, -0.416351 , 3.629912, 9.006584, 258642736.000000, -0.770000,  0.560000,  -0.140000, 0.000000,  0.000000 
 127132848.000000, -0.378066 , 3.529413, 8.980263, 258663040.000000, -1.610000,  0.420000,  -0.140000, 0.000000,  0.000000 
 127152848.000000, -0.378066 , 3.510271, 8.992228, 258682736.000000, -1.890000,  0.070000,  0.140000, 0.000000,  0.000000 
 127172832.000000, -0.313460 , 3.632305, 8.989835, 258722704.000000, 0.560000,  0.280000,  0.070000, 258721968.000000,  1008.935059 
 127192816.000000, -0.385244 , 3.677768, 8.992228, 0.000000, 0.000000,  0.000000,  0.000000, 0.000000,  0.000000 
 127213104.000000, -0.416351 , 3.682554, 9.001799, 258742688.000000, 0.560000,  0.490000,  -0.140000, 0.000000,  0.000000 
 127232800.000000, -0.380459 , 3.677768, 8.989835, 258762992.000000, 0.560000,  0.420000,  -0.140000, 0.000000,  0.000000 
 127252784.000000, -0.387637 , 3.653840, 8.975478, 258782672.000000, -0.350000,  0.490000,  0.070000, 0.000000,  0.000000 
 127272816.000000, -0.387637 , 3.677768, 9.025726, 258802656.000000, -0.350000,  0.490000,  0.070000, 0.000000,  0.000000 
 127292768.000000, -0.351745 , 3.629912, 9.013763, 258822688.000000, -0.350000,  0.420000,  0.140000, 0.000000,  0.000000 
 127313056.000000, -0.361316 , 3.646662, 9.001799, 258842640.000000, -0.140000,  0.490000,  0.210000, 0.000000,  0.000000 
 127332736.000000, -0.356531 , 3.675375, 8.970692, 258862928.000000, 0.140000,  0.490000,  0.140000, 0.000000,  0.000000 
 127352736.000000, -0.390030 , 3.646662, 8.932407, 258882624.000000, 0.070000,  0.490000,  0.210000, 0.000000,  0.000000 
 127372720.000000, -0.421137 , 3.634698, 8.973085, 258902608.000000, -0.560000,  0.560000,  0.210000, 0.000000,  0.000000 
 127392704.000000, -0.378066 , 3.622734, 9.028119, 258922592.000000, -0.770000,  0.560000,  0.070000, 0.000000,  0.000000 
 127413008.000000, -0.358923 , 3.670590, 9.016156, 258942592.000000, -0.630000,  0.350000,  0.070000, 0.000000,  0.000000 
 127432688.000000, -0.387637 , 3.584448, 9.032906, 258962880.000000, -0.630000,  0.420000,  0.070000, 0.000000,  0.000000 
 127452672.000000, -0.421137 , 3.613162, 8.941978, 258982560.000000, -0.630000,  0.490000,  -0.210000, 0.000000,  0.000000 
 127472672.000000, -0.373280 , 3.610770, 9.016156, 259002544.000000, -0.630000,  0.280000,  0.070000, 0.000000,  0.000000 
 127492656.000000, -0.406780 , 3.625126, 9.011370, 259022544.000000, -0.560000,  0.140000,  0.140000, 0.000000,  0.000000 
 127512944.000000, -0.430708 , 3.706482, 9.056834, 259042528.000000, 0.210000,  0.350000,  0.140000, 0.000000,  0.000000 
 127532640.000000, -0.344566 , 3.680161, 9.008978, 259062832.000000, 0.700000,  0.350000,  0.140000, 0.000000,  0.000000 
 127552608.000000, -0.421137 , 3.675375, 8.961121, 259082512.000000, 0.350000,  0.070000,  0.210000, 0.000000,  0.000000 
 127572592.000000, -0.430708 , 3.754339, 8.977871, 259102496.000000, 0.210000,  0.560000,  -0.210000, 0.000000,  0.000000 
 127592592.000000, -0.368495 , 3.680161, 8.994620, 259122480.000000, -0.280000,  0.700000,  -0.070000, 0.000000,  0.000000 
 127612896.000000, -0.380459 , 3.579663, 9.001799, 259142464.000000, -1.820000,  0.210000,  0.350000, 0.000000,  0.000000 
 127632576.000000, -0.358923 , 3.577270, 9.049655, 259162768.000000, -1.960000,  0.140000,  0.350000, 0.000000,  0.000000 
 127652560.000000, -0.435494 , 3.625126, 8.992228, 259182448.000000, -0.560000,  0.420000,  0.070000, 0.000000,  0.000000 
 127672544.000000, -0.409173 , 3.656233, 9.004191, 259202432.000000, 0.350000,  0.700000,  -0.070000, 0.000000,  0.000000 
 127692528.000000, -0.404387 , 3.701697, 8.963513, 259222416.000000, 0.910000,  0.560000,  -0.140000, 0.000000,  0.000000 
 127712848.000000, -0.394816 , 3.651447, 8.975478, 259242416.000000, 0.560000,  0.280000,  0.140000, 0.000000,  0.000000 
 127732512.000000, -0.435494 , 3.610770, 9.018548, 259262720.000000, -0.420000,  0.210000,  0.140000, 0.000000,  0.000000 
 127752496.000000, -0.437887 , 3.615555, 8.999406, 259282400.000000, -0.910000,  0.560000,  -0.210000, 0.000000,  0.000000 
 127772496.000000, -0.433101 , 3.627519, 8.992228, 259302384.000000, -0.840000,  0.490000,  -0.210000, 0.000000,  0.000000 
 127792480.000000, -0.394816 , 3.629912, 8.970692, 259322368.000000, -0.840000,  0.070000,  0.070000, 0.000000,  0.000000 
 127812784.000000, -0.425922 , 3.644269, 8.968300, 259342352.000000, -0.420000,  0.140000,  0.070000, 0.000000,  0.000000 
 127832464.000000, -0.380459 , 3.617948, 9.011370, 259362672.000000, -0.070000,  0.490000,  0.070000, 0.000000,  0.000000 
 127852448.000000, -0.406780 , 3.680161, 8.985049, 259382336.000000, 0.140000,  0.140000,  0.140000, 0.000000,  0.000000 
 127872432.000000, -0.435494 , 3.665804, 9.011370, 259402320.000000, 0.280000,  0.210000,  0.140000, 0.000000,  0.000000 
 127892432.000000, -0.428315 , 3.627519, 8.989835, 259422320.000000, 0.280000,  0.560000,  -0.070000, 0.000000,  0.000000 
 127912736.000000, -0.370888 , 3.632305, 8.980263, 259442304.000000, -0.210000,  0.560000,  -0.070000, 0.000000,  0.000000 
 127932400.000000, -0.392423 , 3.605984, 9.013763, 259462608.000000, -0.840000,  0.210000,  0.140000, 0.000000,  0.000000 
 127952400.000000, -0.373280 , 3.586841, 8.997013, 259482288.000000, -0.910000,  0.140000,  0.280000, 0.000000,  0.000000 
 127972384.000000, -0.397209 , 3.677768, 9.008978, 259502272.000000, -0.420000,  0.420000,  0.280000, 0.000000,  0.000000 
 127992368.000000, -0.404387 , 3.613162, 8.965906, 259522256.000000, -0.490000,  0.560000,  -0.070000, 0.000000,  0.000000 
 128012688.000000, -0.378066 , 3.639483, 8.953942, 259542240.000000, -0.910000,  0.420000,  -0.140000, 0.000000,  0.000000 
 128032352.000000, -0.409173 , 3.625126, 9.001799, 259562560.000000, -0.770000,  0.210000,  -0.140000, 0.000000,  0.000000 
 128052336.000000, -0.390030 , 3.610770, 9.006584, 259582224.000000, -0.140000,  0.280000,  0.070000, 0.000000,  0.000000 
 128072320.000000, -0.361316 , 3.682554, 8.973085, 259602208.000000, 0.070000,  0.280000,  0.140000, 0.000000,  0.000000 
 128092320.000000, -0.423530 , 3.663411, 8.980263, 259622208.000000, 0.070000,  0.280000,  0.140000, 0.000000,  0.000000 
 128112624.000000, -0.416351 , 3.661019, 8.980263, 259642192.000000, -0.070000,  0.350000,  0.070000, 0.000000,  0.000000 
 128132288.000000, -0.394816 , 3.661019, 8.970692, 259662496.000000, -0.070000,  0.350000,  0.070000, 0.000000,  0.000000 
 128152288.000000, -0.394816 , 3.629912, 9.013763, 259682176.000000, -0.140000,  0.280000,  0.280000, 0.000000,  0.000000 
 128172272.000000, -0.401994 , 3.653840, 8.973085, 259702160.000000, -0.140000,  0.350000,  0.140000, 0.000000,  0.000000 
 128192256.000000, -0.356531 , 3.651447, 8.982656, 259722144.000000, -0.210000,  0.280000,  0.140000, 259721408.000000,  1008.934265 
 128212560.000000, -0.358923 , 3.665804, 8.963513, 259742144.000000, -0.140000,  0.280000,  0.070000, 0.000000,  0.000000 
 128232240.000000, -0.404387 , 3.613162, 9.006584, 259762432.000000, -0.280000,  0.420000,  -0.070000, 0.000000,  0.000000 
 128252224.000000, -0.411566 , 3.613162, 8.975478, 259782112.000000, -0.770000,  0.420000,  0.070000, 0.000000,  0.000000 
 128272256.000000, -0.442672 , 3.601198, 9.013763, 259802112.000000, -0.770000,  0.420000,  0.070000, 0.000000,  0.000000 
 128292208.000000, -0.361316 , 3.579663, 9.049655, 259822128.000000, -0.770000,  0.490000,  0.070000, 0.000000,  0.000000 
 128312512.000000, -0.342174 , 3.651447, 8.999406, 259862384.000000, 1.470000,  0.280000,  -0.140000, 0.000000,  0.000000 
 128332192.000000, -0.461815 , 3.795017, 8.980263, 0.000000, 0.000000,  0.000000,  0.000000, 0.000000,  0.000000 
 128352176.000000, -0.480957 , 3.747160, 8.930015, 259882064.000000, 1.610000,  0.420000,  -0.140000, 0.000000,  0.000000 
 128372160.000000, -0.397209 , 3.627519, 8.958728, 259902048.000000, 1.610000,  0.350000,  0.140000, 0.000000,  0.000000 
 128392144.000000, -0.318245 , 3.522235, 9.052048, 259922032.000000, -1.820000,  0.070000,  0.420000, 0.000000,  0.000000 
 128412560.000000, -0.361316 , 3.543770, 9.085547, 259942032.000000, -1.820000,  0.070000,  0.070000, 0.000000,  0.000000 
 128432128.000000, -0.368495 , 3.696911, 9.030513, 259962432.000000, 0.420000,  0.350000,  0.070000, 0.000000,  0.000000 
 128452112.000000, -0.368495 , 3.806981, 8.927622, 259982016.000000, 2.240000,  0.350000,  0.070000, 0.000000,  0.000000 
 128472112.000000, -0.361316 , 3.821337, 8.913264, 260002000.000000, 1.960000,  0.350000,  0.070000, 0.000000,  0.000000 
 128492096.000000, -0.413958 , 3.668197, 8.985049, 260021984.000000, -0.070000,  0.560000,  0.070000, 0.000000,  0.000000 
 128512400.000000, -0.385244 , 3.610770, 9.011370, 260041968.000000, -1.890000,  0.560000,  0.070000, 0.000000,  0.000000 
 128532080.000000, -0.382852 , 3.541377, 9.028119, 260062272.000000, -2.590000,  0.280000,  0.070000, 0.000000,  0.000000 
 128552064.000000, -0.382852 , 3.617948, 9.004191, 260081952.000000, -1.960000,  0.210000,  0.070000, 0.000000,  0.000000 
 128572048.000000, -0.423530 , 3.627519, 9.008978, 260101936.000000, -0.910000,  0.280000,  -0.070000, 0.000000,  0.000000 
 128592048.000000, -0.449851 , 3.584448, 8.973085, 260121936.000000, -0.070000,  0.350000,  0.140000, 0.000000,  0.000000 
 128612352.000000, -0.361316 , 3.627519, 8.941978, 260141920.000000, -0.210000,  0.350000,  0.070000, 0.000000,  0.000000 
 128632016.000000, -0.401994 , 3.627519, 8.980263, 260162224.000000, 0.140000,  0.280000,  0.070000, 0.000000,  0.000000 
 128652016.000000, -0.411566 , 3.761517, 8.992228, 260181904.000000, 0.700000,  0.210000,  0.140000, 0.000000,  0.000000 
 128672000.000000, -0.378066 , 3.663411, 8.944371, 260201888.000000, 0.700000,  0.140000,  0.070000, 0.000000,  0.000000 
 128691984.000000, -0.409173 , 3.656233, 8.953942, 260221872.000000, -0.140000,  0.210000,  0.070000, 0.000000,  0.000000 
 128712288.000000, -0.344566 , 3.591627, 8.999406, 260241872.000000, -1.120000,  0.210000,  -0.070000, 0.000000,  0.000000 
 128731968.000000, -0.363709 , 3.665804, 8.987441, 260281840.000000, -0.700000,  0.210000,  -0.070000, 0.000000,  0.000000 
 128751952.000000, -0.349352 , 3.658626, 8.973085, 0.000000, 0.000000,  0.000000,  0.000000, 0.000000,  0.000000 
 128771952.000000, -0.375673 , 3.663411, 9.011370, 260321824.000000, -0.560000,  0.490000,  -0.140000, 0.000000,  0.000000 
 128791936.000000, -0.373280 , 3.661019, 8.951550, 0.000000, 0.000000,  0.000000,  0.000000, 0.000000,  0.000000 
 128812240.000000, -0.346959 , 3.663411, 8.977871, 260341808.000000, -0.770000,  0.490000,  -0.070000, 0.000000,  0.000000 
 128831920.000000, -0.382852 , 3.570091, 9.006584, 260362112.000000, -1.190000,  0.420000,  -0.070000, 0.000000,  0.000000 
 128851904.000000, -0.373280 , 3.613162, 9.006584, 260381792.000000, -1.050000,  0.490000,  -0.140000, 0.000000,  0.000000 
 128871888.000000, -0.392423 , 3.668197, 8.997013, 260401776.000000, -0.560000,  0.490000,  -0.140000, 0.000000,  0.000000 
 128891872.000000, -0.406780 , 3.665804, 9.006584, 260421760.000000, -0.560000,  0.420000,  0.070000, 0.000000,  0.000000 
 128912176.000000, -0.368495 , 3.675375, 9.013763, 260441760.000000, -0.350000,  0.490000,  0.140000, 0.000000,  0.000000 
 128931856.000000, -0.313460 , 3.668197, 9.004191, 260462048.000000, -0.280000,  0.420000,  0.140000, 0.000000,  0.000000 
 128951856.000000, -0.363709 , 3.682554, 8.944371, 260481728.000000, -0.280000,  0.350000,  0.210000, 0.000000,  0.000000 
 128971840.000000, -0.457029 , 3.668197, 8.989835, 260501728.000000, -0.350000,  0.420000,  0.070000, 0.000000,  0.000000 
 128991824.000000, -0.404387 , 3.610770, 8.987441, 260521712.000000, -0.980000,  0.700000,  -0.140000, 0.000000,  0.000000 
 129012128.000000, -0.380459 , 3.594020, 9.030513, 260541712.000000, -1.330000,  0.420000,  0.070000, 0.000000,  0.000000 
 129031808.000000, -0.361316 , 3.605984, 9.013763, 260562000.000000, -0.770000,  0.350000,  0.140000, 0.000000,  0.000000 
 129051792.000000, -0.468993 , 3.696911, 8.997013, 260581680.000000, 0.140000,  0.490000,  -0.210000, 0.000000,  0.000000 
 129071792.000000, -0.433101 , 3.773481, 8.958728, 260601680.000000, 0.700000,  0.490000,  -0.490000, 0.000000,  0.000000 
 129091776.000000, -0.382852 , 3.661019, 8.925228, 260621664.000000, 0.420000,  0.140000,  -0.490000, 0.000000,  0.000000 
 129112064.000000, -0.418744 , 3.562913, 9.013763, 260641648.000000, -1.400000,  0.070000,  0.280000, 0.000000,  0.000000 
 129131760.000000, -0.373280 , 3.507878, 9.059227, 260661952.000000, -2.170000,  0.280000,  0.070000, 0.000000,  0.000000 
 129151744.000000, -0.291924 , 3.625126, 8.994620, 260681632.000000, -0.420000,  0.140000,  0.350000, 0.000000,  0.000000 
 129171728.000000, -0.330210 , 3.778267, 8.987441, 260721616.000000, 1.750000,  0.490000,  -0.070000, 260720880.000000,  1008.932312 
 129191712.000000, -0.382852 , 3.723232, 8.941978, 0.000000, 0.000000,  0.000000,  0.000000, 0.000000,  0.000000 
 129212016.000000, -0.370888 , 3.744767, 8.963513, 260741600.000000, 0.560000,  0.630000,  -0.280000, 0.000000,  0.000000 
 129231696.000000, -0.361316 , 3.641876, 8.985049, 260761888.000000, -0.840000,  0.420000,  -0.280000, 0.000000,  0.000000 
 129251680.000000, -0.411566 , 3.629912, 9.006584, 260781584.000000, -1.820000,  0.420000,  0.140000, 0.000000,  0.000000 
 129271712.000000, -0.356531 , 3.579663, 9.008978, 260801568.000000, -2.170000,  0.420000,  0.140000, 0.000000,  0.000000 
 129291664.000000, -0.392423 , 3.603590, 8.994620, 260821584.000000, -1.540000,  0.420000,  0.140000, 0.000000,  0.000000 
 129311968.000000, -0.394816 , 3.589234, 8.989835, 260841536.000000, -0.840000,  0.490000,  -0.140000, 0.000000,  0.000000 
 129331648.000000, -0.397209 , 3.598805, 8.965906, 260861840.000000, -0.350000,  0.490000,  -0.070000, 0.000000,  0.000000 
 129351632.000000, -0.404387 , 3.689733, 9.018548, 260881520.000000, -0.140000,  0.210000,  -0.070000, 0.000000,  0.000000 
 129371616.000000, -0.428315 , 3.646662, 8.992228, 260901504.000000, -0.140000,  0.280000,  -0.140000, 0.000000,  0.000000 
 129391600.000000, -0.406780 , 3.608376, 8.999406, 260921488.000000, -0.630000,  0.350000,  -0.140000, 0.000000,  0.000000 
 129411904.000000, -0.409173 , 3.594020, 8.985049, 260941472.000000, -1.120000,  0.280000,  -0.140000, 0.000000,  0.000000 
 129431584.000000, -0.325424 , 3.646662, 8.985049, 260961776.000000, -0.420000,  0.070000,  0.280000, 0.000000,  0.000000 
 129451568.000000, -0.354138 , 3.644269, 9.006584, 260981456.000000, 0.350000,  0.070000,  0.350000, 0.000000,  0.000000 
 129471552.000000, -0.397209 , 3.658626, 9.006584, 261001440.000000, 0.420000,  0.420000,  0.070000, 0.000000,  0.000000 
 129491552.000000, -0.406780 , 3.663411, 8.994620, 261021440.000000, 0.420000,  0.630000,  -0.210000, 0.000000,  0.000000 
 129511856.000000, -0.382852 , 3.675375, 8.997013, 261041424.000000, -0.420000,  0.420000,  -0.210000, 0.000000,  0.000000 
 129531536.000000, -0.406780 , 3.617948, 9.025726, 261061728.000000, -0.700000,  0.350000,  0.070000, 0.000000,  0.000000 
 129551520.000000, -0.378066 , 3.558127, 9.011370, 261081408.000000, -0.910000,  0.420000,  0.070000, 0.000000,  0.000000 
 129571504.000000, -0.390030 , 3.591627, 9.020942, 261101392.000000, -0.770000,  0.350000,  0.140000, 0.000000,  0.000000 
 129591488.000000, -0.409173 , 3.646662, 8.970692, 261121376.000000, -0.350000,  0.420000,  0.070000, 0.000000,  0.000000 
 129611808.000000, -0.416351 , 3.639483, 8.910872, 261141376.000000, 0.140000,  0.490000,  0.070000, 0.000000,  0.000000 
 129631472.000000, -0.358923 , 3.574877, 8.949157, 261161680.000000, -0.140000,  0.210000,  0.210000, 0.000000,  0.000000 
 129651456.000000, -0.380459 , 3.589234, 9.028119, 261181344.000000, -0.630000,  0.350000,  0.070000, 0.000000,  0.000000 
 129671440.000000, -0.346959 , 3.589234, 9.025726, 261201328.000000, -0.630000,  0.630000,  -0.070000, 0.000000,  0.000000 
 129691440.000000, -0.418744 , 3.584448, 8.980263, 261221328.000000, -0.210000,  0.630000,  -0.070000, 0.000000,  0.000000 
 129711744.000000, -0.375673 , 3.632305, 9.011370, 261241312.000000, 0.560000,  0.420000,  -0.210000, 0.000000,  0.000000 
 129731408.000000, -0.387637 , 3.749553, 9.028119, 261261632.000000, 1.610000,  0.280000,  0.140000, 0.000000,  0.000000 
 129751408.000000, -0.370888 , 3.689733, 9.006584, 261281296.000000, 1.050000,  0.280000,  0.350000, 0.000000,  0.000000 
 129771392.000000, -0.397209 , 3.735196, 8.987441, 261301280.000000, 0.560000,  0.420000,  -0.350000, 0.000000,  0.000000 
 129791376.000000, -0.428315 , 3.711268, 8.944371, 261321280.000000, -0.070000,  0.420000,  -0.350000, 0.000000,  0.000000 
 129811696.000000, -0.392423 , 3.577270, 9.001799, 261341264.000000, -0.840000,  0.350000,  -0.070000, 0.000000,  0.000000 
 129831360.000000, -0.380459 , 3.457629, 9.025726, 261361568.000000, -2.660000,  0.210000,  0.280000, 0.000000,  0.000000 
 129851344.000000, -0.356531 , 3.467200, 9.020942, 261381232.000000, -3.360000,  0.210000,  0.210000, 0.000000,  0.000000 
 129871344.000000, -0.363709 , 3.574877, 9.037691, 261401232.000000, -1.470000,  0.280000,  0.280000, 0.000000,  0.000000 
 129891328.000000, -0.390030 , 3.713661, 8.982656, 261421216.000000, 1.190000,  0.420000,  0.280000, 0.000000,  0.000000 
 129911632.000000, -0.390030 , 3.761517, 8.946764, 261441200.000000, 2.100000,  0.490000,  -0.070000, 0.000000,  0.000000 
 129931312.000000, -0.468993 , 3.704089, 8.953942, 261461520.000000, 1.260000,  0.560000,  -0.070000, 0.000000,  0.000000 
 129951296.000000, -0.397209 , 3.663411, 9.023334, 261481184.000000, -0.070000,  0.560000,  -0.070000, 0.000000,  0.000000 
 129971280.000000, -0.461815 , 3.622734, 9.035298, 261501168.000000, -0.910000,  0.490000,  0.070000, 0.000000,  0.000000 
 129991264.000000, -0.375673 , 3.598805, 9.047262, 261521152.000000, -1.120000,  0.350000,  0.070000, 0.000000,  0.000000 
 130011568.000000, -0.370888 , 3.565305, 8.994620, 261541152.000000, -0.700000,  0.140000,  0.210000, 0.000000,  0.000000 
 130031248.000000, -0.378066 , 3.656233, 8.997013, 261561456.000000, -0.070000,  0.210000,  0.280000, 0.000000,  0.000000 
 130051232.000000, -0.401994 , 3.646662, 8.970692, 261581136.000000, 0.350000,  0.350000,  0.140000, 0.000000,  0.000000 
 130071232.000000, -0.387637 , 3.704089, 9.001799, 261601120.000000, 0.350000,  0.420000,  -0.070000, 0.000000,  0.000000 
 130091216.000000, -0.437887 , 3.641876, 8.997013, 261621104.000000, 0.350000,  0.420000,  -0.070000, 0.000000,  0.000000 
 130111520.000000, -0.416351 , 3.658626, 8.982656, 261641088.000000, -0.490000,  0.420000,  -0.140000, 0.000000,  0.000000 
 130131200.000000, -0.375673 , 3.634698, 9.025726, 261661392.000000, -1.050000,  0.490000,  -0.070000, 0.000000,  0.000000 
 130151184.000000, -0.354138 , 3.570091, 9.008978, 261681072.000000, -1.120000,  0.350000,  0.140000, 0.000000,  0.000000 
 130171184.000000, -0.363709 , 3.639483, 9.011370, 261721056.000000, 0.490000,  0.280000,  0.140000, 261720320.000000,  1008.932617 
 130191168.000000, -0.344566 , 3.661019, 8.968300, 0.000000, 0.000000,  0.000000,  0.000000, 0.000000,  0.000000 
 130211456.000000, -0.358923 , 3.665804, 8.997013, 261741040.000000, 0.630000,  0.420000,  0.070000, 0.000000,  0.000000 
 130231152.000000, -0.409173 , 3.692125, 9.008978, 261761344.000000, 0.070000,  0.420000,  0.070000, 0.000000,  0.000000 
 130251136.000000, -0.442672 , 3.632305, 8.992228, 261781024.000000, -0.700000,  0.490000,  0.070000, 0.000000,  0.000000 
 130271152.000000, -0.366102 , 3.586841, 9.018548, 261801008.000000, -1.050000,  0.490000,  0.070000, 0.000000,  0.000000 
 130291104.000000, -0.385244 , 3.627519, 9.020942, 261821024.000000, -0.560000,  0.350000,  0.070000, 0.000000,  0.000000 
 130311408.000000, -0.356531 , 3.656233, 8.977871, 261840992.000000, -0.560000,  0.280000,  0.140000, 0.000000,  0.000000 
 130331088.000000, -0.428315 , 3.617948, 8.980263, 261861280.000000, 0.140000,  0.490000,  0.140000, 0.000000,  0.000000 
 130351232.000000, -0.380459 , 3.644269, 8.965906, 261880960.000000, 0.140000,  0.420000,  0.140000, 0.000000,  0.000000 
 130371056.000000, -0.425922 , 3.653840, 8.985049, 261901120.000000, -0.210000,  0.280000,  0.140000, 0.000000,  0.000000 
 130391056.000000, -0.358923 , 3.617948, 9.001799, 261920944.000000, -0.420000,  0.280000,  0.140000, 0.000000,  0.000000 
 130411360.000000, -0.421137 , 3.605984, 9.037691, 261940928.000000, -0.490000,  0.350000,  0.070000, 0.000000,  0.000000 
 130431024.000000, -0.375673 , 3.639483, 8.992228, 261961232.000000, -0.420000,  0.350000,  0.070000, 0.000000,  0.000000 
 130451024.000000, -0.401994 , 3.680161, 8.970692, 261980912.000000, 0.140000,  0.420000,  0.070000, 0.000000,  0.000000 
 130471008.000000, -0.380459 , 3.644269, 8.970692, 262000896.000000, 0.700000,  0.350000,  0.070000, 0.000000,  0.000000 
 130490992.000000, -0.361316 , 3.744767, 8.951550, 262020880.000000, 0.700000,  0.280000,  0.070000, 0.000000,  0.000000 
 130511296.000000, -0.437887 , 3.785445, 8.944371, 262040880.000000, 0.490000,  0.350000,  -0.140000, 0.000000,  0.000000 
 130530976.000000, -0.390030 , 3.651447, 9.011370, 262061168.000000, -0.630000,  0.490000,  -0.210000, 0.000000,  0.000000 
 130550960.000000, -0.373280 , 3.522235, 9.044869, 262080864.000000, -2.660000,  0.420000,  0.210000, 0.000000,  0.000000 
 130570960.000000, -0.397209 , 3.479164, 9.006584, 262100848.000000, -2.800000,  0.280000,  0.210000, 0.000000,  0.000000 
 130590944.000000, -0.354138 , 3.658626, 9.001799, 262140816.000000, 1.750000,  0.420000,  0.140000, 0.000000,  0.000000 
 130611248.000000, -0.416351 , 3.763910, 8.963513, 0.000000, 0.000000,  0.000000,  0.000000, 0.000000,  0.000000 
 130630928.000000, -0.435494 , 3.749553, 8.925228, 262161120.000000, 1.820000,  0.420000,  0.140000, 0.000000,  0.000000 
 130650912.000000, -0.387637 , 3.692125, 8.949157, 262180800.000000, 0.420000,  0.490000,  -0.070000, 0.000000,  0.000000 
 130670896.000000, -0.404387 , 3.608376, 9.025726, 262200784.000000, -0.910000,  0.350000,  0.070000, 0.000000,  0.000000 
 130690896.000000, -0.380459 , 3.639483, 9.056834, 262220768.000000, -1.470000,  0.350000,  0.070000, 0.000000,  0.000000 
 130711184.000000, -0.385244 , 3.627519, 9.023334, 262240768.000000, -1.120000,  0.280000,  0.070000, 0.000000,  0.000000 
 130730864.000000, -0.382852 , 3.684947, 9.001799, 262261072.000000, -0.210000,  0.210000,  0.070000, 0.000000,  0.000000 
 130750848.000000, -0.387637 , 3.689733, 8.958728, 262280752.000000, 0.770000,  0.210000,  0.070000, 0.000000,  0.000000 
 130770848.000000, -0.378066 , 3.670590, 8.944371, 262300736.000000, 0.770000,  0.280000,  0.070000, 0.000000,  0.000000 
 130790832.000000, -0.346959 , 3.644269, 9.001799, 262340720.000000, -0.280000,  0.210000,  0.070000, 0.000000,  0.000000 
 130811136.000000, -0.421137 , 3.661019, 9.028119, 262361008.000000, -0.210000,  0.420000,  -0.070000, 0.000000,  0.000000 
 130830816.000000, -0.430708 , 3.684947, 8.953942, 0.000000, 0.000000,  0.000000,  0.000000, 0.000000,  0.000000 
 130850800.000000, -0.394816 , 3.620341, 8.982656, 262380704.000000, -0.280000,  0.490000,  -0.070000, 0.000000,  0.000000 
 130870800.000000, -0.399601 , 3.629912, 8.946764, 262400688.000000, -0.490000,  0.140000,  0.140000, 0.000000,  0.000000 
 130890784.000000, -0.404387 , 3.665804, 8.963513, 262420672.000000, -0.280000,  0.140000,  0.210000, 0.000000,  0.000000 
 130911088.000000, -0.411566 , 3.670590, 9.011370, 262440656.000000, -0.070000,  0.280000,  0.070000, 0.000000,  0.000000 
 130930768.000000, -0.366102 , 3.639483, 8.999406, 262480640.000000, -0.420000,  0.420000,  -0.070000, 0.000000,  0.000000 
 130950752.000000, -0.385244 , 3.622734, 8.970692, 0.000000, 0.000000,  0.000000,  0.000000, 0.000000,  0.000000 
 130970736.000000, -0.363709 , 3.651447, 8.982656, 262500624.000000, -0.560000,  0.350000,  -0.070000, 0.000000,  0.000000 
 130990736.000000, -0.378066 , 3.656233, 9.013763, 262540608.000000, -0.070000,  0.210000,  0.210000, 0.000000,  0.000000 
 131011024.000000, -0.375673 , 3.675375, 8.997013, 0.000000, 0.000000,  0.000000,  0.000000, 0.000000,  0.000000 
 131030704.000000, -0.421137 , 3.680161, 8.994620, 262560912.000000, 0.210000,  0.210000,  0.140000, 0.000000,  0.000000 
 131050704.000000, -0.378066 , 3.668197, 8.932407, 262580592.000000, 0.420000,  0.350000,  0.140000, 0.000000,  0.000000 
 131070688.000000, -0.354138 , 3.641876, 8.961121, 262600576.000000, 0.210000,  0.490000,  0.140000, 0.000000,  0.000000 
 131090672.000000, -0.394816 , 3.680161, 8.989835, 262620560.000000, -0.070000,  0.350000,  0.140000, 0.000000,  0.000000 
 131110976.000000, -0.373280 , 3.646662, 8.985049, 262660848.000000, -0.350000,  0.350000,  0.070000, 0.000000,  0.000000 
 131130656.000000, -0.394816 , 3.687340, 8.997013, 0.000000, 0.000000,  0.000000,  0.000000, 0.000000,  0.000000 
 131150640.000000, -0.442672 , 3.665804, 8.999406, 262680528.000000, -0.350000,  0.420000,  0.070000, 0.000000,  0.000000 
 131170640.000000, -0.430708 , 3.670590, 8.985049, 262720512.000000, -0.210000,  0.420000,  0.070000, 262719776.000000,  1008.934143 
 131190608.000000, -0.392423 , 3.677768, 8.953942, 0.000000, 0.000000,  0.000000,  0.000000, 0.000000,  0.000000 
 131210912.000000, -0.370888 , 3.699304, 9.001799, 262740496.000000, 0.140000,  0.280000,  0.140000, 0.000000,  0.000000 
 131230592.000000, -0.337388 , 3.632305, 9.018548, 262760800.000000, 0.210000,  0.280000,  0.210000, 0.000000,  0.000000 
 131250576.000000, -0.452243 , 3.689733, 8.968300, 262780464.000000, -0.140000,  0.350000,  -0.140000, 0.000000,  0.000000 
 131270608.000000, -0.442672 , 3.749553, 8.930015, 262800448.000000, 0.070000,  0.490000,  -0.280000, 0.000000,  0.000000 
 131290560.000000, -0.409173 , 3.641876, 8.953942, 262820480.000000, -0.420000,  0.350000,  -0.280000, 0.000000,  0.000000 
 131310864.000000, -0.346959 , 3.550949, 9.006584, 262840432.000000, -1.890000,  0.140000,  0.350000, 0.000000,  0.000000 
 131330544.000000, -0.392423 , 3.570091, 9.016156, 262860736.000000, -1.960000,  0.210000,  0.210000, 0.000000,  0.000000 
 131350528.000000, -0.433101 , 3.656233, 8.992228, 262880416.000000, -1.960000,  0.280000,  0.070000, 0.000000,  0.000000 
 131370512.000000, -0.404387 , 3.787838, 8.937192, 262900400.000000, 1.260000,  0.210000,  0.070000, 0.000000,  0.000000 
 131390496.000000, -0.378066 , 3.711268, 8.956335, 262920384.000000, 0.560000,  0.210000,  -0.070000, 0.000000,  0.000000 
 131410816.000000, -0.387637 , 3.651447, 8.958728, 262940384.000000, -1.120000,  0.280000,  -0.140000, 0.000000,  0.000000 
 131430480.000000, -0.399601 , 3.651447, 8.992228, 262960688.000000, -2.030000,  0.420000,  -0.140000, 0.000000,  0.000000 
 131450464.000000, -0.425922 , 3.594020, 9.004191, 262980368.000000, -1.540000,  0.420000,  -0.140000, 0.000000,  0.000000 
 131470464.000000, -0.397209 , 3.627519, 9.006584, 263000352.000000, -0.840000,  0.210000,  -0.140000, 0.000000,  0.000000 
 131490448.000000, -0.394816 , 3.680161, 8.956335, 263020336.000000, -0.070000,  0.210000,  0.070000, 0.000000,  0.000000 
 131510768.000000, -0.380459 , 3.675375, 8.925228, 263040320.000000, 0.700000,  0.350000,  0.070000, 0.000000,  0.000000 
 131530432.000000, -0.375673 , 3.684947, 8.975478, 263060640.000000, 0.560000,  0.420000,  0.140000, 0.000000,  0.000000 
 131550416.000000, -0.385244 , 3.641876, 8.987441, 263080304.000000, -0.210000,  0.280000,  0.140000, 0.000000,  0.000000 
 131570400.000000, -0.382852 , 3.672983, 9.006584, 263100288.000000, -0.490000,  0.420000,  0.140000, 0.000000,  0.000000 
 131590400.000000, -0.411566 , 3.658626, 8.999406, 263120288.000000, -0.490000,  0.560000,  -0.070000, 0.000000,  0.000000 
 131610704.000000, -0.387637 , 3.627519, 8.997013, 263140272.000000, -0.490000,  0.280000,  0.140000, 0.000000,  0.000000 
 131630368.000000, -0.430708 , 3.617948, 8.968300, 263160576.000000, -0.210000,  0.210000,  0.210000, 0.000000,  0.000000 
 131650352.000000, -0.337388 , 3.668197, 8.975478, 263180256.000000, -0.140000,  0.280000,  0.140000, 0.000000,  0.000000 
 131670352.000000, -0.373280 , 3.672983, 8.992228, 263200240.000000, -0.140000,  0.350000,  0.070000, 0.000000,  0.000000 
 131690336.000000, -0.413958 , 3.668197, 8.999406, 263220224.000000, -0.140000,  0.420000,  0.070000, 0.000000,  0.000000 
 131710656.000000, -0.378066 , 3.687340, 8.968300, 263240208.000000, -0.280000,  0.420000,  -0.070000, 0.000000,  0.000000 
 131730320.000000, -0.378066 , 3.677768, 8.968300, 263260528.000000, -0.560000,  0.490000,  -0.070000, 0.000000,  0.000000 
 131750304.000000, -0.380459 , 3.644269, 9.011370, 263280192.000000, -0.630000,  0.420000,  -0.070000, 0.000000,  0.000000 
 131770288.000000, -0.430708 , 3.627519, 8.963513, 263300176.000000, -0.560000,  0.280000,  0.140000, 0.000000,  0.000000 
 131790288.000000, -0.382852 , 3.653840, 8.946764, 263320176.000000, -0.560000,  0.280000,  0.070000, 0.000000,  0.000000 
 131810592.000000, -0.366102 , 3.699304, 8.963513, 263340160.000000, -0.280000,  0.280000,  0.070000, 0.000000,  0.000000 
 131830272.000000, -0.375673 , 3.653840, 8.970692, 263360464.000000, -0.280000,  0.350000,  0.070000, 0.000000,  0.000000 
 131850256.000000, -0.378066 , 3.706482, 8.982656, 263380144.000000, 0.070000,  0.490000,  0.070000, 0.000000,  0.000000 
 131870240.000000, -0.390030 , 3.661019, 8.968300, 263400128.000000, 0.070000,  0.350000,  0.070000, 0.000000,  0.000000 
 131890224.000000, -0.370888 , 3.682554, 8.982656, 263420112.000000, -0.140000,  0.280000,  0.140000, 0.000000,  0.000000 
 131910528.000000, -0.411566 , 3.632305, 8.953942, 263440096.000000, -0.350000,  0.420000,  0.070000, 0.000000,  0.000000 
 131930208.000000, -0.392423 , 3.646662, 8.963513, 263460416.000000, -0.420000,  0.420000,  0.070000, 0.000000,  0.000000 
 131950192.000000, -0.380459 , 3.653840, 8.975478, 263480080.000000, -0.420000,  0.420000,  0.070000, 0.000000,  0.000000 
 131970192.000000, -0.373280 , 3.663411, 9.001799, 263500064.000000, -0.350000,  0.350000,  0.070000, 0.000000,  0.000000 
 131990176.000000, -0.392423 , 3.644269, 9.006584, 263520064.000000, -0.280000,  0.350000,  0.210000, 0.000000,  0.000000 
 132010480.000000, -0.382852 , 3.689733, 8.985049, 263540048.000000, -0.350000,  0.490000,  0.210000, 0.000000,  0.000000 
 132030160.000000, -0.445065 , 3.723232, 8.906086, 263560352.000000, -0.350000,  0.560000,  -0.350000, 0.000000,  0.000000 
 132050144.000000, -0.423530 , 3.677768, 8.925228, 263580032.000000, -0.350000,  0.490000,  -0.140000, 0.000000,  0.000000 
 132070128.000000, -0.373280 , 3.567699, 9.013763, 263600016.000000, -1.680000,  0.210000,  0.280000, 0.000000,  0.000000 
 132090112.000000, -0.334995 , 3.548556, 9.004191, 263620000.000000, -2.170000,  0.210000,  0.280000, 0.000000,  0.000000 
 132110416.000000, -0.404387 , 3.670590, 8.975478, 263640000.000000, -0.490000,  0.210000,  0.210000, 0.000000,  0.000000 
 132130096.000000, -0.370888 , 3.739982, 8.951550, 263660304.000000, 1.330000,  0.280000,  0.140000, 0.000000,  0.000000 
 132150080.000000, -0.404387 , 3.684947, 8.946764, 263679968.000000, 1.470000,  0.490000,  -0.070000, 0.000000,  0.000000 
 132170080.000000, -0.406780 , 3.680161, 8.934800, 263719952.000000, -1.050000,  0.210000,  0.070000, 263719216.000000,  1008.933838 
 132190064.000000, -0.358923 , 3.663411, 8.980263, 0.000000, 0.000000,  0.000000,  0.000000, 0.000000,  0.000000 
 132210368.000000, -0.363709 , 3.625126, 9.011370, 263739936.000000, -1.680000,  0.140000,  0.210000, 0.000000,  0.000000 
 132230048.000000, -0.404387 , 3.586841, 8.994620, 263760240.000000, -1.540000,  0.280000,  0.070000, 0.000000,  0.000000 
 132250032.000000, -0.385244 , 3.672983, 8.987441, 263779920.000000, -0.630000,  0.280000,  0.070000, 0.000000,  0.000000 
 132270064.000000, -0.358923 , 3.708875, 8.977871, 263799904.000000, 0.560000,  0.280000,  0.140000, 0.000000,  0.000000 
 132290016.000000, -0.401994 , 3.711268, 8.961121, 263819936.000000, 0.770000,  0.280000,  0.140000, 0.000000,  0.000000 
 132310304.000000, -0.382852 , 3.675375, 8.958728, 263839888.000000, -0.140000,  0.210000,  0.070000, 0.000000,  0.000000 
 132329984.000000, -0.378066 , 3.663411, 8.999406, 263860192.000000, -0.700000,  0.350000,  -0.070000, 0.000000,  0.000000 
 132349984.000000, -0.433101 , 3.649055, 9.032906, 263879872.000000, -0.980000,  0.560000,  -0.070000, 0.000000,  0.000000 
 132369968.000000, -0.373280 , 3.605984, 8.989835, 263899856.000000, -1.050000,  0.560000,  -0.070000, 0.000000,  0.000000 
 132389952.000000, -0.373280 , 3.634698, 8.982656, 263919840.000000, -0.700000,  0.210000,  0.210000, 0.000000,  0.000000 
 132410256.000000, -0.382852 , 3.668197, 8.977871, 263939824.000000, 0.140000,  0.070000,  0.210000, 0.000000,  0.000000 
 132429936.000000, -0.387637 , 3.732803, 8.992228, 263960128.000000, 0.490000,  0.280000,  0.070000, 0.000000,  0.000000 
 132449920.000000, -0.413958 , 3.716053, 8.989835, 263979808.000000, 0.490000,  0.490000,  -0.070000, 0.000000,  0.000000 
 132469904.000000, -0.418744 , 3.651447, 8.989835, 263999808.000000, -0.770000,  0.560000,  -0.070000, 0.000000,  0.000000 
 132489904.000000, -0.368495 , 3.622734, 8.982656, 264019792.000000, -0.980000,  0.420000,  -0.070000, 0.000000,  0.000000 
 132510208.000000, -0.404387 , 3.632305, 8.946764, 264039776.000000, -0.560000,  0.350000,  0.140000, 0.000000,  0.000000 
 132529888.000000, -0.409173 , 3.668197, 8.982656, 264060080.000000, -0.280000,  0.280000,  0.070000, 0.000000,  0.000000 
 132549872.000000, -0.406780 , 3.672983, 8.987441, 264079760.000000, -0.210000,  0.280000,  0.070000, 0.000000,  0.000000 
 132569856.000000, -0.375673 , 3.684947, 8.958728, 264099744.000000, -0.210000,  0.350000,  0.070000, 0.000000,  0.000000 
 132589856.000000, -0.399601 , 3.641876, 8.958728, 264119728.000000, -0.420000,  0.420000,  0.070000, 0.000000,  0.000000 
 132610144.000000, -0.406780 , 3.651447, 8.975478, 264139728.000000, -0.490000,  0.420000,  0.070000, 0.000000,  0.000000 
 132629840.000000, -0.449851 , 3.668197, 8.992228, 264160016.000000, -0.210000,  0.420000,  0.070000, 0.000000,  0.000000 
 132649824.000000, -0.399601 , 3.713661, 8.922836, 264179712.000000, 0.070000,  0.350000,  0.070000, 0.000000,  0.000000 
 132669808.000000, -0.392423 , 3.672983, 8.977871, 264199696.000000, -0.070000,  0.350000,  0.070000, 0.000000,  0.000000 
 132689792.000000, -0.449851 , 3.634698, 8.992228, 264219680.000000, -0.490000,  0.350000,  0.070000, 0.000000,  0.000000 
 132710096.000000, -0.428315 , 3.651447, 8.985049, 264239680.000000, -0.700000,  0.490000,  0.070000, 0.000000,  0.000000 
 132729792.000000, -0.375673 , 3.639483, 8.982656, 264259968.000000, -0.490000,  0.420000,  0.070000, 0.000000,  0.000000 
 132749760.000000, -0.385244 , 3.675375, 8.965906, 264279664.000000, -0.140000,  0.280000,  0.140000, 0.000000,  0.000000 
 132769760.000000, -0.363709 , 3.651447, 9.028119, 264299648.000000, -0.070000,  0.280000,  0.210000, 0.000000,  0.000000 
 132789744.000000, -0.423530 , 3.665804, 8.985049, 264319632.000000, -0.070000,  0.350000,  0.070000, 0.000000,  0.000000 
 132810032.000000, -0.449851 , 3.783052, 8.930015, 264339616.000000, 0.210000,  0.560000,  -0.280000, 0.000000,  0.000000 
 132829728.000000, -0.366102 , 3.699304, 8.937192, 264359920.000000, -0.350000,  0.420000,  -0.070000, 0.000000,  0.000000 
 132849712.000000, -0.346959 , 3.505485, 9.006584, 264379600.000000, -1.890000,  0.140000,  0.350000, 0.000000,  0.000000 
 132869696.000000, -0.368495 , 3.541377, 9.025726, 264399584.000000, -2.380000,  0.210000,  0.280000, 0.000000,  0.000000 
 132889680.000000, -0.323031 , 3.639483, 9.013763, 264419568.000000, -0.980000,  0.350000,  0.140000, 0.000000,  0.000000 
 132909984.000000, -0.413958 , 3.687340, 8.961121, 264439568.000000, 0.910000,  0.420000,  0.140000, 0.000000,  0.000000 
 132929664.000000, -0.430708 , 3.756732, 8.930015, 264459856.000000, 1.470000,  0.420000,  -0.070000, 0.000000,  0.000000 
 132949648.000000, -0.421137 , 3.716053, 8.985049, 264479552.000000, 0.630000,  0.420000,  -0.070000, 0.000000,  0.000000 
 132969648.000000, -0.428315 , 3.649055, 8.968300, 264499536.000000, -0.560000,  0.420000,  0.070000, 0.000000,  0.000000 
 132989632.000000, -0.368495 , 3.680161, 9.044869, 264519520.000000, -1.540000,  0.420000,  0.070000, 0.000000,  0.000000 
 133009936.000000, -0.390030 , 3.601198, 8.968300, 264539520.000000, -1.820000,  0.350000,  0.070000, 0.000000,  0.000000 
 133029600.000000, -0.368495 , 3.641876, 8.989835, 264559808.000000, -1.120000,  0.350000,  0.070000, 0.000000,  0.000000 
 133049584.000000, -0.380459 , 3.644269, 8.977871, 264579488.000000, -1.120000,  0.350000,  0.070000, 0.000000,  0.000000 
 133069584.000000, -0.361316 , 3.677768, 8.975478, 264599472.000000, 0.490000,  0.350000,  0.070000, 0.000000,  0.000000 
 133089568.000000, -0.399601 , 3.692125, 8.973085, 264619456.000000, 0.140000,  0.280000,  0.140000, 0.000000,  0.000000 
 133109872.000000, -0.428315 , 3.696911, 8.992228, 264639440.000000, -0.140000,  0.280000,  0.070000, 0.000000,  0.000000 
 133129552.000000, -0.397209 , 3.637090, 8.968300, 264659744.000000, -0.140000,  0.420000,  -0.140000, 0.000000,  0.000000 
 133149536.000000, -0.399601 , 3.641876, 8.973085, 264679424.000000, -0.350000,  0.420000,  -0.140000, 0.000000,  0.000000 
 133169520.000000, -0.378066 , 3.589234, 8.965906, 264719408.000000, -0.630000,  0.280000,  0.140000, 264718672.000000,  1008.933228 
 133189520.000000, -0.361316 , 3.651447, 8.961121, 0.000000, 0.000000,  0.000000,  0.000000, 0.000000,  0.000000 
 133209824.000000, -0.382852 , 3.632305, 8.965906, 264739392.000000, -0.350000,  0.490000,  0.140000, 0.000000,  0.000000 
 133229488.000000, -0.401994 , 3.608376, 8.997013, 264759696.000000, -0.910000,  0.210000,  0.140000, 0.000000,  0.000000 
 133249488.000000, -0.437887 , 3.649055, 8.987441, 264779376.000000, -0.700000,  0.070000,  -0.210000, 0.000000,  0.000000 
 133269504.000000, -0.361316 , 3.687340, 9.040084, 264799360.000000, 0.070000,  0.350000,  -0.070000, 0.000000,  0.000000 
 133289456.000000, -0.366102 , 3.720839, 9.013763, 264819392.000000, 0.280000,  0.350000,  -0.070000, 0.000000,  0.000000 
 133309776.000000, -0.382852 , 3.646662, 8.946764, 264839328.000000, -0.210000,  0.350000,  -0.070000, 0.000000,  0.000000 
 133329440.000000, -0.413958 , 3.641876, 8.951550, 264859648.000000, -0.770000,  0.420000,  -0.070000, 0.000000,  0.000000 
 133349424.000000, -0.411566 , 3.644269, 8.951550, 264879312.000000, -0.910000,  0.420000,  -0.210000, 0.000000,  0.000000 
 133369408.000000, -0.342174 , 3.641876, 9.047262, 264899296.000000, -0.490000,  0.420000,  0.350000, 0.000000,  0.000000 
 133389408.000000, -0.363709 , 3.656233, 9.035298, 264919296.000000, -0.490000,  0.420000,  0.350000, 0.000000,  0.000000 
 133409824.000000, -0.358923 , 3.680161, 8.989835, 264939280.000000, -0.490000,  0.420000,  0.070000, 0.000000,  0.000000 
 133429392.000000, -0.397209 , 3.663411, 8.956335, 264959696.000000, 0.280000,  0.490000,  0.070000, 0.000000,  0.000000 
 133449376.000000, -0.413958 , 3.711268, 8.963513, 264979264.000000, 0.070000,  0.490000,  0.070000, 0.000000,  0.000000 
 133469360.000000, -0.394816 , 3.682554, 9.001799, 264999248.000000, -0.280000,  0.420000,  0.070000, 0.000000,  0.000000 
 133489344.000000, -0.363709 , 3.639483, 8.944371, 265019232.000000, -0.630000,  0.280000,  0.070000, 0.000000,  0.000000 
 133509664.000000, -0.390030 , 3.620341, 8.994620, 265039232.000000, -0.770000,  0.350000,  0.140000, 0.000000,  0.000000 
 133529328.000000, -0.425922 , 3.596412, 8.985049, 265059536.000000, -0.770000,  0.560000,  0.140000, 0.000000,  0.000000 
 133549312.000000, -0.332602 , 3.627519, 8.982656, 265079200.000000, -0.490000,  0.490000,  0.070000, 0.000000,  0.000000 
 133569296.000000, -0.354138 , 3.639483, 8.985049, 265099200.000000, 0.070000,  0.280000,  0.140000, 0.000000,  0.000000 
 133589296.000000, -0.385244 , 3.641876, 8.989835, 265119184.000000, 0.490000,  0.280000,  0.210000, 0.000000,  0.000000 
 133609600.000000, -0.404387 , 3.677768, 8.977871, 265139168.000000, 0.280000,  0.350000,  0.140000, 0.000000,  0.000000 
 133629280.000000, -0.392423 , 3.694518, 8.958728, 265159472.000000, 0.280000,  0.420000,  0.070000, 0.000000,  0.000000 
 133649264.000000, -0.421137 , 3.687340, 9.008978, 265179152.000000, 0.070000,  0.420000,  -0.070000, 0.000000,  0.000000 
 133669248.000000, -0.397209 , 3.694518, 9.011370, 265199136.000000, -0.560000,  0.420000,  -0.070000, 0.000000,  0.000000 
 133689232.000000, -0.390030 , 3.589234, 8.997013, 265219136.000000, -1.610000,  0.280000,  0.210000, 0.000000,  0.000000 
 133709536.000000, -0.358923 , 3.622734, 8.953942, 265239120.000000, -1.610000,  0.070000,  0.210000, 0.000000,  0.000000 
 133729216.000000, -0.354138 , 3.634698, 9.035298, 265259424.000000, -0.350000,  0.210000,  0.210000, 0.000000,  0.000000 
 133749200.000000, -0.442672 , 3.708875, 8.973085, 265279088.000000, 0.700000,  0.420000,  0.070000, 0.000000,  0.000000 
 133769200.000000, -0.392423 , 3.684947, 8.961121, 265299088.000000, 0.700000,  0.490000,  0.070000, 0.000000,  0.000000 
 133789184.000000, -0.358923 , 3.692125, 8.958728, 265319072.000000, 0.280000,  0.350000,  0.070000, 0.000000,  0.000000 
 133809488.000000, -0.387637 , 3.694518, 9.008978, 265339056.000000, -0.280000,  0.280000,  0.140000, 0.000000,  0.000000 
 133829168.000000, -0.411566 , 3.632305, 9.059227, 265359360.000000, -1.120000,  0.420000,  0.140000, 0.000000,  0.000000 
 133849152.000000, -0.358923 , 3.617948, 9.020942, 265379040.000000, -1.400000,  0.420000,  -0.070000, 0.000000,  0.000000 
 133869136.000000, -0.361316 , 3.625126, 9.035298, 265399024.000000, -0.840000,  0.350000,  0.070000, 0.000000,  0.000000 
 133889136.000000, -0.421137 , 3.675375, 8.956335, 265419024.000000, -0.840000,  0.350000,  0.070000, 0.000000,  0.000000 
 133909440.000000, -0.358923 , 3.629912, 8.934800, 265439008.000000, 0.490000,  0.350000,  0.070000, 0.000000,  0.000000 
 133929104.000000, -0.327817 , 3.677768, 8.953942, 265459312.000000, 0.420000,  0.280000,  0.140000, 0.000000,  0.000000 
 133949104.000000, -0.411566 , 3.699304, 8.951550, 265478992.000000, 0.280000,  0.280000,  0.070000, 0.000000,  0.000000 
 133969088.000000, -0.401994 , 3.704089, 8.951550, 265498976.000000, -0.070000,  0.560000,  -0.070000, 0.000000,  0.000000 
 133989072.000000, -0.423530 , 3.608376, 8.989835, 265518960.000000, -0.840000,  0.490000,  0.070000, 0.000000,  0.000000 
 134009376.000000, -0.394816 , 3.668197, 8.975478, 265538944.000000, -0.840000,  0.350000,  0.140000, 0.000000,  0.000000 
 134029056.000000, -0.327817 , 3.634698, 8.987441, 265559248.000000, -0.210000,  0.210000,  0.210000, 0.000000,  0.000000 
 134049040.000000, -0.425922 , 3.680161, 8.980263, 265578928.000000, 0.350000,  0.280000,  0.140000, 0.000000,  0.000000 
 134069024.000000, -0.425922 , 3.670590, 8.982656, 265598912.000000, 0.420000,  0.490000,  -0.070000, 0.000000,  0.000000 
 134089024.000000, -0.411566 , 3.670590, 8.968300, 265618912.000000, 0.420000,  0.420000,  -0.070000, 0.000000,  0.000000 
 134109328.000000, -0.430708 , 3.656233, 9.013763, 265638896.000000, -0.420000,  0.350000,  0.070000, 0.000000,  0.000000 
 134129008.000000, -0.394816 , 3.610770, 8.987441, 265659200.000000, -0.560000,  0.420000,  0.070000, 0.000000,  0.000000 
 134148992.000000, -0.337388 , 3.665804, 8.997013, 265678880.000000, -0.210000,  0.350000,  0.140000, 0.000000,  0.000000 
 134168976.000000, -0.399601 , 3.704089, 8.975478, 265718864.000000, 0.980000,  0.350000,  0.140000, 265718128.000000,  1008.931458 
 134188960.000000, -0.425922 , 3.728018, 8.946764, 0.000000, 0.000000,  0.000000,  0.000000, 0.000000,  0.000000 
 134209264.000000, -0.425922 , 3.668197, 8.970692, 265738848.000000, 0.700000,  0.350000,  0.070000, 0.000000,  0.000000 
 134228944.000000, -0.397209 , 3.680161, 9.023334, 265759136.000000, 0.700000,  0.420000,  0.070000, 0.000000,  0.000000 
 134248928.000000, -0.404387 , 3.641876, 8.985049, 265778816.000000, -0.490000,  0.420000,  0.070000, 0.000000,  0.000000 
 134268960.000000, -0.344566 , 3.687340, 9.037691, 265798816.000000, -0.630000,  0.420000,  0.070000, 0.000000,  0.000000 
 134288912.000000, -0.401994 , 3.651447, 9.001799, 265818832.000000, -0.490000,  0.350000,  0.070000, 0.000000,  0.000000 
 134309216.000000, -0.435494 , 3.689733, 8.985049, 265838784.000000, -0.140000,  0.350000,  0.070000, 0.000000,  0.000000 
 134328896.000000, -0.337388 , 3.708875, 8.939585, 265859088.000000, 0.140000,  0.280000,  0.070000, 0.000000,  0.000000 
 134349040.000000, -0.366102 , 3.632305, 8.961121, 265878768.000000, -0.140000,  0.280000,  0.210000, 0.000000,  0.000000 
 134368864.000000, -0.337388 , 3.608376, 8.963513, 265898928.000000, -0.700000,  0.350000,  0.070000, 0.000000,  0.000000 
 134388848.000000, -0.401994 , 3.665804, 8.970692, 265918752.000000, -0.700000,  0.490000,  0.070000, 0.000000,  0.000000 
 134409152.000000, -0.418744 , 3.692125, 8.999406, 265938736.000000, -0.420000,  0.420000,  0.070000, 0.000000,  0.000000 
 134428848.000000, -0.342174 , 3.653840, 8.992228, 265959040.000000, -0.070000,  0.420000,  0.070000, 0.000000,  0.000000 
 134448832.000000, -0.363709 , 3.658626, 9.013763, 265978720.000000, 0.070000,  0.350000,  0.070000, 0.000000,  0.000000 
 134468816.000000, -0.399601 , 3.732803, 8.965906, 265998704.000000, 0.070000,  0.420000,  0.070000, 0.000000,  0.000000 
 134488816.000000, -0.445065 , 3.763910, 8.920443, 266018688.000000, 0.280000,  0.490000,  -0.210000, 0.000000,  0.000000 
 134509104.000000, -0.378066 , 3.658626, 8.946764, 266038688.000000, -0.280000,  0.350000,  -0.210000, 0.000000,  0.000000 
 134528784.000000, -0.397209 , 3.558127, 8.994620, 266058976.000000, -1.750000,  0.210000,  0.280000, 0.000000,  0.000000 
 134548784.000000, -0.392423 , 3.598805, 9.018548, 266078672.000000, -2.100000,  0.280000,  0.070000, 0.000000,  0.000000 
 134568768.000000, -0.373280 , 3.658626, 8.982656, 266098656.000000, -0.630000,  0.350000,  0.070000, 0.000000,  0.000000 
 134588752.000000, -0.363709 , 3.704089, 8.982656, 266118640.000000, 0.910000,  0.280000,  0.070000, 0.000000,  0.000000 
 134609040.000000, -0.366102 , 3.704089, 8.922836, 266138624.000000, 0.910000,  0.280000,  0.070000, 0.000000,  0.000000 
 134628736.000000, -0.423530 , 3.739982, 8.946764, 266158928.000000, 0.070000,  0.420000,  -0.070000, 0.000000,  0.000000 
 134648720.000000, -0.392423 , 3.706482, 8.941978, 266178608.000000, -0.560000,  0.350000,  0.070000, 0.000000,  0.000000 
 134668704.000000, -0.401994 , 3.656233, 8.994620, 266198592.000000, -1.120000,  0.350000,  0.070000, 0.000000,  0.000000 
 134688704.000000, -0.378066 , 3.598805, 8.961121, 266218592.000000, -1.540000,  0.420000,  -0.140000, 0.000000,  0.000000 
 134708992.000000, -0.423530 , 3.653840, 8.997013, 266238576.000000, -1.190000,  0.350000,  0.070000, 0.000000,  0.000000 
 134728688.000000, -0.339781 , 3.639483, 9.011370, 266258864.000000, -0.280000,  0.280000,  0.140000, 0.000000,  0.000000 
 134748656.000000, -0.394816 , 3.694518, 8.970692, 266278560.000000, 0.210000,  0.420000,  0.140000, 0.000000,  0.000000 
 134768656.000000, -0.351745 , 3.656233, 9.004191, 266298544.000000, -0.070000,  0.350000,  0.070000, 0.000000,  0.000000 
 134788640.000000, -0.421137 , 3.730411, 8.989835, 266318528.000000, -0.070000,  0.350000,  0.070000, 0.000000,  0.000000 
 134808944.000000, -0.380459 , 3.687340, 8.977871, 266338528.000000, -0.070000,  0.490000,  0.070000, 0.000000,  0.000000 
 134828608.000000, -0.418744 , 3.637090, 9.013763, 266358816.000000, -0.490000,  0.350000,  0.070000, 0.000000,  0.000000 
 134848608.000000, -0.373280 , 3.651447, 8.989835, 266378496.000000, -0.770000,  0.280000,  0.070000, 0.000000,  0.000000 
 134868592.000000, -0.361316 , 3.641876, 8.989835, 266398480.000000, -0.490000,  0.210000,  0.070000, 0.000000,  0.000000 
 134888576.000000, -0.399601 , 3.651447, 9.013763, 266418464.000000, -0.350000,  0.350000,  0.070000, 0.000000,  0.000000 
 134908880.000000, -0.404387 , 3.634698, 8.980263, 266438464.000000, -0.350000,  0.420000,  0.070000, 0.000000,  0.000000 
 134928560.000000, -0.361316 , 3.639483, 8.985049, 266458752.000000, -0.420000,  0.420000,  -0.070000, 0.000000,  0.000000 
 134948544.000000, -0.382852 , 3.687340, 8.987441, 266478432.000000, -0.420000,  0.420000,  0.070000, 0.000000,  0.000000 
 134968544.000000, -0.394816 , 3.704089, 8.992228, 266498416.000000, -0.350000,  0.420000,  0.070000, 0.000000,  0.000000 
 134988528.000000, -0.366102 , 3.639483, 8.958728, 266518416.000000, -0.560000,  0.350000,  0.070000, 0.000000,  0.000000 
 135008832.000000, -0.380459 , 3.649055, 8.977871, 266538400.000000, -0.770000,  0.280000,  0.070000, 0.000000,  0.000000 
 135028496.000000, -0.394816 , 3.632305, 8.968300, 266558720.000000, -0.770000,  0.350000,  0.070000, 0.000000,  0.000000 
 135048496.000000, -0.394816 , 3.661019, 9.004191, 266578384.000000, -0.630000,  0.490000,  -0.070000, 0.000000,  0.000000 
 135068480.000000, -0.404387 , 3.620341, 8.980263, 266598368.000000, -0.280000,  0.420000,  -0.070000, 0.000000,  0.000000 
 135088464.000000, -0.423530 , 3.653840, 8.997013, 266618352.000000, -0.140000,  0.420000,  -0.070000, 0.000000,  0.000000 
 135108784.000000, -0.363709 , 3.658626, 8.987441, 266638352.000000, -0.140000,  0.420000,  0.070000, 0.000000,  0.000000 
 135128448.000000, -0.387637 , 3.680161, 8.953942, 266658656.000000, -0.280000,  0.350000,  0.070000, 0.000000,  0.000000 
 135148432.000000, -0.385244 , 3.665804, 8.987441, 266678336.000000, -0.490000,  0.350000,  0.070000, 0.000000,  0.000000 
 135168432.000000, -0.390030 , 3.672983, 9.004191, 266698304.000000, -0.630000,  0.490000,  0.070000, 0.000000,  0.000000 
 135188416.000000, -0.457029 , 3.675375, 8.987441, 266718304.000000, -0.770000,  0.490000,  0.070000, 266717568.000000,  1008.933289 
 135208720.000000, -0.392423 , 3.622734, 9.016156, 266738288.000000, -0.630000,  0.420000,  0.140000, 0.000000,  0.000000 
 135228400.000000, -0.406780 , 3.641876, 9.013763, 266758608.000000, -0.280000,  0.280000,  0.140000, 0.000000,  0.000000 
 135248384.000000, -0.421137 , 3.672983, 8.982656, 266778272.000000, 0.280000,  0.350000,  0.140000, 0.000000,  0.000000 
 135268416.000000, -0.413958 , 3.756732, 8.922836, 266798256.000000, 0.840000,  0.490000,  -0.280000, 0.000000,  0.000000 
 135288352.000000, -0.404387 , 3.713661, 8.997013, 266818288.000000, 0.350000,  0.350000,  -0.070000, 0.000000,  0.000000 
 135308672.000000, -0.380459 , 3.574877, 9.028119, 266838240.000000, -1.400000,  0.210000,  0.280000, 0.000000,  0.000000 
 135328336.000000, -0.361316 , 3.555735, 9.030513, 266858544.000000, -2.310000,  0.280000,  0.140000, 0.000000,  0.000000 
 135348320.000000, -0.344566 , 3.605984, 9.001799, 266878224.000000, -0.910000,  0.350000,  0.140000, 0.000000,  0.000000 
 135368320.000000, -0.344566 , 3.737589, 8.975478, 266898208.000000, 0.980000,  0.280000,  0.140000, 0.000000,  0.000000 
 135388304.000000, -0.413958 , 3.751946, 8.944371, 266918192.000000, 1.400000,  0.350000,  -0.140000, 0.000000,  0.000000 
 135408608.000000, -0.430708 , 3.704089, 8.925228, 266938176.000000, 0.490000,  0.420000,  -0.140000, 0.000000,  0.000000 
 135428288.000000, -0.370888 , 3.637090, 9.028119, 266958480.000000, -0.980000,  0.420000,  -0.140000, 0.000000,  0.000000 
 135448272.000000, -0.425922 , 3.572484, 9.004191, 266978160.000000, -1.820000,  0.420000,  -0.070000, 0.000000,  0.000000 
 135468256.000000, -0.409173 , 3.610770, 9.013763, 266998144.000000, -1.610000,  0.420000,  -0.070000, 0.000000,  0.000000 
 135488256.000000, -0.397209 , 3.632305, 9.006584, 267018144.000000, -0.700000,  0.280000,  -0.070000, 0.000000,  0.000000 
 135508560.000000, -0.418744 , 3.694518, 8.970692, 267038128.000000, 0.350000,  0.280000,  0.070000, 0.000000,  0.000000 
 135528224.000000, -0.373280 , 3.665804, 8.989835, 267058432.000000, 0.560000,  0.350000,  0.140000, 0.000000,  0.000000 
 135548224.000000, -0.366102 , 3.677768, 8.973085, 267078112.000000, 0.490000,  0.420000,  0.070000, 0.000000,  0.000000 
 135568208.000000, -0.428315 , 3.701697, 8.958728, 267098096.000000, 0.490000,  0.280000,  0.070000, 0.000000,  0.000000 
 135588192.000000, -0.397209 , 3.708875, 8.985049, 267118080.000000, 0.070000,  0.350000,  0.070000, 0.000000,  0.000000 
 135608496.000000, -0.416351 , 3.646662, 8.941978, 267138080.000000, -0.210000,  0.490000,  0.070000, 0.000000,  0.000000 
 135628176.000000, -0.370888 , 3.692125, 8.975478, 267158368.000000, -0.630000,  0.350000,  0.070000, 0.000000,  0.000000 
 135648160.000000, -0.342174 , 3.677768, 8.968300, 267178048.000000, -0.700000,  0.210000,  0.280000, 0.000000,  0.000000 
 135668160.000000, -0.401994 , 3.680161, 8.997013, 267198032.000000, -0.420000,  0.280000,  0.210000, 0.000000,  0.000000 
 135688144.000000, -0.430708 , 3.670590, 8.951550, 267218032.000000, -0.420000,  0.420000,  0.210000, 0.000000,  0.000000 
 135708448.000000, -0.397209 , 3.677768, 8.970692, 267238016.000000, -0.350000,  0.490000,  -0.070000, 0.000000,  0.000000 
 135728112.000000, -0.361316 , 3.670590, 8.963513, 267258320.000000, -0.420000,  0.350000,  -0.070000, 0.000000,  0.000000 
 135748112.000000, -0.394816 , 3.668197, 8.997013, 267278000.000000, -0.350000,  0.280000,  -0.070000, 0.000000,  0.000000 
 135768096.000000, -0.397209 , 3.594020, 9.028119, 267297984.000000, -0.560000,  0.420000,  -0.070000, 0.000000,  0.000000 
 135788080.000000, -0.370888 , 3.651447, 9.018548, 267317968.000000, -0.560000,  0.350000,  -0.070000, 0.000000,  0.000000 
 135808384.000000, -0.378066 , 3.613162, 8.994620, 267337968.000000, -0.280000,  0.350000,  -0.070000, 0.000000,  0.000000 
 135828064.000000, -0.390030 , 3.687340, 8.977871, 267358272.000000, 0.070000,  0.280000,  0.070000, 0.000000,  0.000000 
 135848048.000000, -0.397209 , 3.620341, 8.977871, 267377952.000000, 0.070000,  0.350000,  0.070000, 0.000000,  0.000000 
 135868048.000000, -0.378066 , 3.670590, 9.008978, 267397920.000000, -0.140000,  0.350000,  0.070000, 0.000000,  0.000000 
 135888032.000000, -0.366102 , 3.653840, 8.982656, 267417920.000000, -0.070000,  0.350000,  0.070000, 0.000000,  0.000000 
 135908336.000000, -0.373280 , 3.627519, 9.020942, 267437904.000000, -0.210000,  0.350000,  0.070000, 0.000000,  0.000000 
 135928016.000000, -0.354138 , 3.677768, 8.994620, 267458208.000000, -0.420000,  0.350000,  0.070000, 0.000000,  0.000000 
 135948000.000000, -0.370888 , 3.663411, 8.975478, 267477888.000000, -0.490000,  0.490000,  -0.070000, 0.000000,  0.000000 
 135967984.000000, -0.440279 , 3.625126, 9.011370, 267497872.000000, -0.560000,  0.490000,  -0.070000, 0.000000,  0.000000 
 135987984.000000, -0.361316 , 3.651447, 8.992228, 267517872.000000, -0.280000,  0.350000,  -0.070000, 0.000000,  0.000000 
 136008272.000000, -0.356531 , 3.663411, 9.013763, 267537856.000000, -0.210000,  0.280000,  0.140000, 0.000000,  0.000000 
 136027952.000000, -0.387637 , 3.665804, 9.001799, 267558160.000000, -0.140000,  0.350000,  0.070000, 0.000000,  0.000000 
 136047952.000000, -0.418744 , 3.749553, 8.985049, 267577840.000000, 0.280000,  0.490000,  -0.280000, 0.000000,  0.000000 
 136067936.000000, -0.416351 , 3.687340, 8.944371, 267597824.000000, 0.280000,  0.490000,  -0.210000, 0.000000,  0.000000 
 136087920.000000, -0.380459 , 3.615555, 8.985049, 267617808.000000, -0.910000,  0.280000,  0.210000, 0.000000,  0.000000 
 136108224.000000, -0.330210 , 3.548556, 9.013763, 267637792.000000, -1.750000,  0.210000,  0.210000, 0.000000,  0.000000 
 136127904.000000, -0.361316 , 3.594020, 8.973085, 267658096.000000, -0.980000,  0.140000,  0.280000, 0.000000,  0.000000 
 136147888.000000, -0.354138 , 3.713661, 8.994620, 267677776.000000, 0.490000,  0.280000,  0.140000, 0.000000,  0.000000 
 136167888.000000, -0.418744 , 3.701697, 8.982656, 267697760.000000, 0.980000,  0.490000,  0.140000, 0.000000,  0.000000 
 136187872.000000, -0.356531 , 3.689733, 8.956335, 267717760.000000, 0.420000,  0.490000,  -0.070000, 267717024.000000,  1008.932251 
 136208176.000000, -0.370888 , 3.665804, 8.944371, 267737744.000000, -0.420000,  0.350000,  0.070000, 0.000000,  0.000000 
 136227856.000000, -0.421137 , 3.665804, 8.970692, 267758048.000000, -0.980000,  0.350000,  0.070000, 0.000000,  0.000000 
 136247840.000000, -0.394816 , 3.632305, 8.980263, 267777728.000000, -1.470000,  0.420000,  0.070000, 0.000000,  0.000000 
 136267872.000000, -0.392423 , 3.603590, 8.961121, 267797712.000000, -1.190000,  0.350000,  0.070000, 0.000000,  0.000000 
 136287824.000000, -0.397209 , 3.625126, 8.975478, 267817744.000000, -0.490000,  0.280000,  0.140000, 0.000000,  0.000000 
 136308112.000000, -0.368495 , 3.629912, 8.973085, 267837696.000000, 0.140000,  0.420000,  0.070000, 0.000000,  0.000000 
 136327792.000000, -0.346959 , 3.639483, 8.980263, 267857984.000000, 0.280000,  0.350000,  0.070000, 0.000000,  0.000000 
 136347792.000000, -0.387637 , 3.718446, 8.992228, 267877680.000000, 0.140000,  0.280000,  0.070000, 0.000000,  0.000000 
 136367776.000000, -0.382852 , 3.704089, 9.001799, 267897664.000000, 0.140000,  0.490000,  0.070000, 0.000000,  0.000000 
 136387760.000000, -0.397209 , 3.661019, 9.030513, 267917648.000000, -0.350000,  0.490000,  -0.070000, 0.000000,  0.000000 
 136408064.000000, -0.382852 , 3.644269, 8.982656, 267937632.000000, -0.910000,  0.350000,  0.070000, 0.000000,  0.000000 
 136427744.000000, -0.366102 , 3.653840, 9.016156, 267957936.000000, -0.770000,  0.210000,  0.280000, 0.000000,  0.000000 
 136447728.000000, -0.354138 , 3.682554, 9.018548, 267977616.000000, -0.280000,  0.210000,  0.210000, 0.000000,  0.000000 
 136467728.000000, -0.433101 , 3.656233, 8.997013, 267997616.000000, 0.140000,  0.420000,  0.210000, 0.000000,  0.000000 
 136487712.000000, -0.356531 , 3.663411, 8.982656, 268017600.000000, -0.070000,  0.420000,  -0.140000, 0.000000,  0.000000 
 136508000.000000, -0.404387 , 3.658626, 8.975478, 268037584.000000, -0.630000,  0.420000,  -0.070000, 0.000000,  0.000000 
 136527696.000000, -0.401994 , 3.644269, 9.004191, 268057888.000000, -0.910000,  0.350000,  -0.070000, 0.000000,  0.000000 
 136547680.000000, -0.394816 , 3.651447, 9.042477, 268077568.000000, -0.840000,  0.420000,  0.070000, 0.000000,  0.000000 
 136567664.000000, -0.404387 , 3.629912, 9.001799, 268097552.000000, -0.490000,  0.280000,  0.140000, 0.000000,  0.000000 
 136587648.000000, -0.401994 , 3.665804, 8.985049, 268117536.000000, -0.490000,  0.350000,  0.070000, 0.000000,  0.000000 
 136607952.000000, -0.382852 , 3.644269, 8.946764, 268137536.000000, 0.210000,  0.350000,  0.070000, 0.000000,  0.000000 
 136627632.000000, -0.399601 , 3.661019, 8.968300, 268157824.000000, -0.140000,  0.350000,  0.070000, 0.000000,  0.000000 
 136647616.000000, -0.363709 , 3.672983, 8.999406, 268177504.000000, -0.350000,  0.420000,  0.070000, 0.000000,  0.000000 
 136667600.000000, -0.409173 , 3.665804, 9.001799, 268197488.000000, -0.420000,  0.420000,  0.070000, 0.000000,  0.000000 
 136687584.000000, -0.382852 , 3.675375, 8.963513, 268217472.000000, -0.210000,  0.350000,  0.070000, 0.000000,  0.000000 
 136707888.000000, -0.409173 , 3.661019, 8.992228, 268237472.000000, -0.280000,  0.350000,  0.070000, 0.000000,  0.000000 
 136727568.000000, -0.392423 , 3.675375, 8.980263, 268257776.000000, -0.420000,  0.420000,  0.070000, 0.000000,  0.000000 
 136747552.000000, -0.378066 , 3.661019, 9.016156, 268277440.000000, -0.490000,  0.420000,  0.070000, 0.000000,  0.000000 
 136767552.000000, -0.375673 , 3.622734, 9.004191, 268297440.000000, -0.350000,  0.280000,  0.210000, 0.000000,  0.000000 
 136787536.000000, -0.390030 , 3.629912, 8.997013, 268317424.000000, -0.210000,  0.350000,  0.140000, 0.000000,  0.000000 
 136807856.000000, -0.351745 , 3.644269, 9.006584, 268337408.000000, -0.070000,  0.350000,  0.140000, 0.000000,  0.000000 
 136827520.000000, -0.416351 , 3.737589, 8.930015, 268357728.000000, 0.420000,  0.280000,  0.140000, 0.000000,  0.000000 
 136847504.000000, -0.375673 , 3.792624, 8.953942, 268377392.000000, 0.560000,  0.490000,  -0.210000, 0.000000,  0.000000 
 136867488.000000, -0.390030 , 3.656233, 8.997013, 268397376.000000, -0.490000,  0.490000,  -0.070000, 0.000000,  0.000000 
 136887472.000000, -0.378066 , 3.558127, 8.965906, 268417376.000000, -1.820000,  0.210000,  0.210000, 0.000000,  0.000000 
 136907792.000000, -0.344566 , 3.596412, 8.980263, 268437376.000000, -1.750000,  0.140000,  0.280000, 0.000000,  0.000000 
 136927472.000000, -0.409173 , 3.692125, 9.023334, 268457664.000000, -0.280000,  0.280000,  0.140000, 0.000000,  0.000000 
 136947632.000000, -0.418744 , 3.701697, 8.973085, 268477344.000000, 0.840000,  0.490000,  0.140000, 0.000000,  0.000000 
 136967440.000000, -0.394816 , 3.728018, 8.958728, 268497504.000000, 0.770000,  0.490000,  -0.140000, 0.000000,  0.000000 
 136987440.000000, -0.411566 , 3.692125, 8.973085, 268517312.000000, 0.210000,  0.350000,  -0.140000, 0.000000,  0.000000 
 137007728.000000, -0.397209 , 3.680161, 9.006584, 268537312.000000, -0.420000,  0.420000,  0.070000, 0.000000,  0.000000 
 137027408.000000, -0.375673 , 3.675375, 8.994620, 268557632.000000, -0.980000,  0.420000,  0.070000, 0.000000,  0.000000 
 137047408.000000, -0.449851 , 3.617948, 8.992228, 268577280.000000, -1.050000,  0.420000,  0.070000, 0.000000,  0.000000 
 137067376.000000, -0.385244 , 3.653840, 8.999406, 268597280.000000, -0.560000,  0.350000,  0.140000, 0.000000,  0.000000 
 137087376.000000, -0.370888 , 3.670590, 8.958728, 268617248.000000, 0.140000,  0.420000,  0.140000, 0.000000,  0.000000 
 137107696.000000, -0.368495 , 3.656233, 9.008978, 268637248.000000, 0.420000,  0.350000,  0.140000, 0.000000,  0.000000 
 137127344.000000, -0.375673 , 3.687340, 8.985049, 268657568.000000, 0.070000,  0.210000,  0.210000, 0.000000,  0.000000 
 137147344.000000, -0.416351 , 3.735196, 9.028119, 268677216.000000, 0.140000,  0.420000,  0.210000, 0.000000,  0.000000 
 137167344.000000, -0.399601 , 3.682554, 8.946764, 268697216.000000, 0.140000,  0.490000,  -0.070000, 0.000000,  0.000000 
 137187312.000000, -0.433101 , 3.649055, 8.968300, 268717216.000000, -0.490000,  0.350000,  0.140000, 268716480.000000,  1008.933044 
 137207632.000000, -0.349352 , 3.629912, 8.930015, 268737184.000000, -0.700000,  0.210000,  0.210000, 0.000000,  0.000000 
 137227312.000000, -0.390030 , 3.663411, 8.977871, 268757504.000000, -0.280000,  0.280000,  0.140000, 0.000000,  0.000000 
 137247280.000000, -0.416351 , 3.711268, 8.977871, 268777184.000000, -0.280000,  0.350000,  0.140000, 0.000000,  0.000000 
 137267312.000000, -0.361316 , 3.651447, 8.949157, 268797152.000000, -0.140000,  0.420000,  -0.070000, 0.000000,  0.000000 
 137287248.000000, -0.397209 , 3.663411, 8.951550, 268817184.000000, -0.420000,  0.420000,  -0.070000, 0.000000,  0.000000 
 137307568.000000, -0.354138 , 3.629912, 8.961121, 268837152.000000, -0.630000,  0.350000,  -0.070000, 0.000000,  0.000000 
 137327248.000000, -0.370888 , 3.632305, 8.985049, 268857440.000000, -0.560000,  0.350000,  0.070000, 0.000000,  0.000000 
 137347216.000000, -0.413958 , 3.670590, 9.032906, 268877120.000000, -0.350000,  0.350000,  0.140000, 0.000000,  0.000000 
 137367216.000000, -0.344566 , 3.639483, 8.994620, 268897120.000000, -0.140000,  0.350000,  0.140000, 0.000000,  0.000000 
 137387216.000000, -0.368495 , 3.704089, 8.963513, 268917088.000000, -0.140000,  0.420000,  0.070000, 0.000000,  0.000000 
 137407504.000000, -0.375673 , 3.670590, 8.927622, 268937088.000000, -0.210000,  0.420000,  0.070000, 0.000000,  0.000000 
 137427184.000000, -0.411566 , 3.716053, 9.004191, 268957376.000000, -0.420000,  0.350000,  0.070000, 0.000000,  0.000000 
 137447184.000000, -0.380459 , 3.672983, 8.989835, 268977056.000000, -0.350000,  0.420000,  0.070000, 0.000000,  0.000000 
 137467152.000000, -0.385244 , 3.680161, 8.980263, 268997056.000000, -0.140000,  0.420000,  0.140000, 0.000000,  0.000000 
 137487152.000000, -0.430708 , 3.675375, 8.963513, 269017056.000000, 0.070000,  0.350000,  0.140000, 0.000000,  0.000000 
 137507440.000000, -0.437887 , 3.692125, 8.961121, 269037024.000000, 0.070000,  0.350000,  0.070000, 0.000000,  0.000000 
 137527120.000000, -0.406780 , 3.684947, 8.941978, 269057344.000000, -0.070000,  0.490000,  0.070000, 0.000000,  0.000000 
 137547120.000000, -0.378066 , 3.634698, 8.958728, 269077024.000000, -0.420000,  0.420000,  0.070000, 0.000000,  0.000000 
 137567120.000000, -0.342174 , 3.598805, 8.989835, 269096992.000000, -0.630000,  0.350000,  0.140000, 0.000000,  0.000000 
 137587088.000000, -0.346959 , 3.656233, 8.982656, 269116992.000000, -0.560000,  0.350000,  0.140000, 0.000000,  0.000000 
 137607408.000000, -0.378066 , 3.704089, 8.965906, 269136960.000000, -0.140000,  0.350000,  0.140000, 0.000000,  0.000000 
 137627088.000000, -0.471386 , 3.716053, 8.965906, 269157280.000000, 0.700000,  0.490000,  -0.210000, 0.000000,  0.000000 
 137647056.000000, -0.390030 , 3.708875, 8.956335, 269176960.000000, 0.420000,  0.420000,  -0.140000, 0.000000,  0.000000 
 137667056.000000, -0.366102 , 3.565305, 9.023334, 269196928.000000, -1.120000,  0.280000,  0.280000, 0.000000,  0.000000 
 137687056.000000, -0.387637 , 3.527020, 9.011370, 269216928.000000, -2.240000,  0.210000,  0.210000, 0.000000,  0.000000 
 137707344.000000, -0.354138 , 3.620341, 8.997013, 269236928.000000, -1.190000,  0.280000,  0.070000, 0.000000,  0.000000 
 137727024.000000, -0.363709 , 3.749553, 8.968300, 269257216.000000, 0.560000,  0.350000,  0.070000, 0.000000,  0.000000 
 137747024.000000, -0.416351 , 3.701697, 8.949157, 269276896.000000, 1.050000,  0.420000,  0.070000, 0.000000,  0.000000 
 137766992.000000, -0.387637 , 3.725625, 8.956335, 269296896.000000, 0.490000,  0.490000,  -0.140000, 0.000000,  0.000000 
 137786992.000000, -0.351745 , 3.716053, 9.020942, 269316864.000000, -0.280000,  0.420000,  0.070000, 0.000000,  0.000000 
 137807280.000000, -0.394816 , 3.675375, 9.020942, 269336864.000000, -1.120000,  0.420000,  0.070000, 0.000000,  0.000000 
 137826960.000000, -0.413958 , 3.577270, 9.008978, 269357152.000000, -1.680000,  0.420000,  -0.070000, 0.000000,  0.000000 
 137846960.000000, -0.401994 , 3.601198, 8.973085, 269376832.000000, -1.120000,  0.350000,  0.070000, 0.000000,  0.000000 
 137866960.000000, -0.378066 , 3.649055, 9.011370, 269396832.000000, -0.140000,  0.350000,  0.070000, 0.000000,  0.000000 
 137886928.000000, -0.373280 , 3.694518, 8.980263, 269416832.000000, 0.420000,  0.350000,  0.210000, 0.000000,  0.000000 
 137907248.000000, -0.344566 , 3.672983, 8.965906, 269436800.000000, 0.420000,  0.280000,  0.140000, 0.000000,  0.000000 
 137926928.000000, -0.425922 , 3.725625, 8.989835, 269457120.000000, 0.140000,  0.280000,  0.070000, 0.000000,  0.000000 
 137946896.000000, -0.413958 , 3.682554, 8.961121, 269476800.000000, 0.140000,  0.490000,  -0.070000, 0.000000,  0.000000 
 137966896.000000, -0.356531 , 3.639483, 9.006584, 269496768.000000, -0.560000,  0.420000,  -0.070000, 0.000000,  0.000000 
 137986864.000000, -0.373280 , 3.596412, 8.987441, 269516768.000000, -0.840000,  0.280000,  0.140000, 0.000000,  0.000000 
 138007184.000000, -0.349352 , 3.634698, 8.958728, 269536768.000000, -0.420000,  0.280000,  0.070000, 0.000000,  0.000000 
 138026864.000000, -0.327817 , 3.706482, 8.937192, 269557056.000000, 0.070000,  0.280000,  0.070000, 0.000000,  0.000000 
 138046864.000000, -0.421137 , 3.694518, 8.946764, 269576736.000000, 0.070000,  0.350000,  0.070000, 0.000000,  0.000000 
 138066832.000000, -0.366102 , 3.649055, 8.977871, 269596736.000000, -0.420000,  0.490000,  -0.070000, 0.000000,  0.000000 
 138086832.000000, -0.370888 , 3.668197, 8.980263, 269616704.000000, -0.770000,  0.420000,  -0.070000, 0.000000,  0.000000 
 138107120.000000, -0.363709 , 3.644269, 9.013763, 269636704.000000, -0.910000,  0.420000,  -0.070000, 0.000000,  0.000000 
 138126800.000000, -0.401994 , 3.668197, 9.004191, 269656992.000000, -0.840000,  0.420000,  0.070000, 0.000000,  0.000000 
 138146800.000000, -0.380459 , 3.680161, 8.982656, 269676672.000000, -0.700000,  0.420000,  0.070000, 0.000000,  0.000000 
 138166800.000000, -0.378066 , 3.629912, 8.963513, 269696672.000000, -0.420000,  0.350000,  0.070000, 0.000000,  0.000000 
 138186768.000000, -0.375673 , 3.677768, 8.973085, 269716672.000000, -0.210000,  0.280000,  0.070000, 269715936.000000,  1008.934448 
 138207056.000000, -0.366102 , 3.699304, 8.968300, 269736640.000000, -0.140000,  0.350000,  0.070000, 0.000000,  0.000000 
 138226768.000000, -0.354138 , 3.665804, 8.989835, 269756960.000000, -0.140000,  0.350000,  0.070000, 0.000000,  0.000000 
 138246736.000000, -0.349352 , 3.637090, 8.977871, 269776640.000000, -0.210000,  0.280000,  0.140000, 0.000000,  0.000000 
 138266768.000000, -0.378066 , 3.651447, 8.975478, 269796608.000000, -0.210000,  0.350000,  0.140000, 0.000000,  0.000000 
 138286736.000000, -0.366102 , 3.682554, 8.963513, 269816640.000000, -0.210000,  0.420000,  0.070000, 0.000000,  0.000000 
 138307024.000000, -0.363709 , 3.632305, 8.992228, 269836608.000000, -0.350000,  0.420000,  0.070000, 0.000000,  0.000000 
 138326704.000000, -0.313460 , 3.661019, 9.004191, 269856896.000000, -0.420000,  0.350000,  0.070000, 0.000000,  0.000000 
 138346864.000000, -0.368495 , 3.658626, 9.028119, 269876576.000000, -0.280000,  0.280000,  0.210000, 0.000000,  0.000000 
 138366672.000000, -0.349352 , 3.653840, 8.999406, 269896736.000000, -0.070000,  0.350000,  0.140000, 0.000000,  0.000000 
 138386672.000000, -0.461815 , 3.751946, 8.903693, 269916544.000000, 0.350000,  0.560000,  -0.210000, 0.000000,  0.000000 
 138407056.000000, -0.401994 , 3.747160, 8.927622, 269936544.000000, 0.560000,  0.490000,  -0.210000, 0.000000,  0.000000 
 138426640.000000, -0.387637 , 3.644269, 8.956335, 269956960.000000, -0.700000,  0.350000,  0.210000, 0.000000,  0.000000 
 138446640.000000, -0.385244 , 3.572484, 9.035298, 269976512.000000, -2.240000,  0.280000,  0.210000, 0.000000,  0.000000 
 138466608.000000, -0.366102 , 3.586841, 9.028119, 269996512.000000, -1.750000,  0.280000,  0.140000, 0.000000,  0.000000 
 138486608.000000, -0.406780 , 3.701697, 8.992228, 270016480.000000, 0.210000,  0.210000,  0.210000, 0.000000,  0.000000 
 138506896.000000, -0.373280 , 3.725625, 8.932407, 270036480.000000, 1.330000,  0.350000,  -0.070000, 0.000000,  0.000000 
 138526576.000000, -0.411566 , 3.728018, 8.951550, 270056768.000000, 1.050000,  0.490000,  -0.140000, 0.000000,  0.000000 
 138546576.000000, -0.401994 , 3.672983, 9.006584, 270076448.000000, -0.140000,  0.420000,  -0.070000, 0.000000,  0.000000 
 138566544.000000, -0.404387 , 3.625126, 8.994620, 270096448.000000, -1.330000,  0.350000,  0.070000, 0.000000,  0.000000 
 138586544.000000, -0.358923 , 3.627519, 9.032906, 270116448.000000, -1.750000,  0.420000,  0.070000, 0.000000,  0.000000 
 138607056.000000, -0.399601 , 3.629912, 8.968300, 270136416.000000, -1.470000,  0.280000,  0.070000, 0.000000,  0.000000 
 138626512.000000, -0.378066 , 3.646662, 8.934800, 270156928.000000, -0.280000,  0.280000,  0.070000, 0.000000,  0.000000 
 138646512.000000, -0.337388 , 3.682554, 8.949157, 270176416.000000, 0.560000,  0.350000,  0.070000, 0.000000,  0.000000 
 138666512.000000, -0.385244 , 3.713661, 8.961121, 270196384.000000, 0.560000,  0.350000,  0.140000, 0.000000,  0.000000 
 138686480.000000, -0.394816 , 3.696911, 8.953942, 270216384.000000, 0.070000,  0.280000,  0.070000, 0.000000,  0.000000 
 138706800.000000, -0.445065 , 3.692125, 9.004191, 270236384.000000, -0.210000,  0.350000,  -0.070000, 0.000000,  0.000000 
 138726480.000000, -0.382852 , 3.649055, 8.975478, 270256672.000000, -0.560000,  0.490000,  -0.070000, 0.000000,  0.000000 
 138746448.000000, -0.370888 , 3.649055, 8.985049, 270276352.000000, -1.050000,  0.350000,  0.070000, 0.000000,  0.000000 
 138766448.000000, -0.373280 , 3.617948, 8.973085, 270296320.000000, -0.770000,  0.210000,  0.210000, 0.000000,  0.000000 
 138786448.000000, -0.385244 , 3.725625, 8.989835, 270316320.000000, -0.770000,  0.280000,  0.210000, 0.000000,  0.000000 
 138806736.000000, -0.404387 , 3.730411, 8.975478, 270336320.000000, 0.210000,  0.420000,  -0.070000, 0.000000,  0.000000 
 138826416.000000, -0.380459 , 3.665804, 8.934800, 270356640.000000, -0.140000,  0.420000,  -0.140000, 0.000000,  0.000000 
 138846416.000000, -0.380459 , 3.656233, 8.989835, 270376288.000000, -0.630000,  0.350000,  -0.070000, 0.000000,  0.000000 
 138866384.000000, -0.399601 , 3.670590, 9.030513, 270396288.000000, -0.770000,  0.350000,  0.070000, 0.000000,  0.000000 
 138886384.000000, -0.363709 , 3.627519, 9.025726, 270416256.000000, -0.770000,  0.490000,  0.070000, 0.000000,  0.000000 
 138906704.000000, -0.430708 , 3.661019, 8.973085, 270436256.000000, -0.560000,  0.350000,  0.070000, 0.000000,  0.000000 
 138926352.000000, -0.378066 , 3.689733, 8.941978, 270456576.000000, -0.070000,  0.280000,  0.070000, 0.000000,  0.000000 
 138946352.000000, -0.406780 , 3.711268, 8.949157, 270476256.000000, 0.140000,  0.350000,  0.070000, 0.000000,  0.000000 
 138966352.000000, -0.373280 , 3.675375, 8.989835, 270496224.000000, -0.210000,  0.350000,  0.070000, 0.000000,  0.000000 
 138986320.000000, -0.361316 , 3.661019, 8.992228, 270516224.000000, -0.630000,  0.350000,  0.070000, 0.000000,  0.000000 
 139006640.000000, -0.378066 , 3.672983, 8.987441, 270536192.000000, -0.630000,  0.490000,  -0.070000, 0.000000,  0.000000 
 139026320.000000, -0.366102 , 3.665804, 8.994620, 270556512.000000, -0.210000,  0.350000,  0.070000, 0.000000,  0.000000 
 139046288.000000, -0.378066 , 3.677768, 8.946764, 270576192.000000, -0.210000,  0.350000,  0.070000, 0.000000,  0.000000 
 139066288.000000, -0.430708 , 3.629912, 9.020942, 270596160.000000, -0.560000,  0.490000,  0.070000, 0.000000,  0.000000 
 139086288.000000, -0.394816 , 3.649055, 8.980263, 270616160.000000, -0.700000,  0.490000,  0.070000, 0.000000,  0.000000 
 139106576.000000, -0.354138 , 3.627519, 8.992228, 270636160.000000, -0.630000,  0.420000,  0.140000, 0.000000,  0.000000 
 139126256.000000, -0.332602 , 3.639483, 8.970692, 270656448.000000, -0.420000,  0.280000,  0.070000, 0.000000,  0.000000 
 139146224.000000, -0.330210 , 3.622734, 8.968300, 270676128.000000, -0.140000,  0.350000,  0.280000, 0.000000,  0.000000 
 139166224.000000, -0.390030 , 3.759124, 8.963513, 270696128.000000, 0.070000,  0.420000,  -0.140000, 0.000000,  0.000000 
 139186224.000000, -0.387637 , 3.759124, 8.953942, 270716096.000000, 0.420000,  0.560000,  -0.210000, 270715360.000000,  1008.934326 
 139206512.000000, -0.411566 , 3.620341, 8.989835, 270736096.000000, -0.560000,  0.280000,  0.210000, 0.000000,  0.000000 
 139226192.000000, -0.380459 , 3.548556, 8.992228, 270756384.000000, -2.100000,  0.210000,  0.210000, 0.000000,  0.000000 
 139246192.000000, -0.382852 , 3.594020, 9.028119, 270776064.000000, -1.750000,  0.210000,  0.280000, 0.000000,  0.000000 
 139266224.000000, -0.394816 , 3.687340, 9.008978, 270796064.000000, -0.140000,  0.210000,  0.210000, 0.000000,  0.000000 
 139286160.000000, -0.385244 , 3.735196, 9.008978, 270816096.000000, 1.050000,  0.420000,  0.210000, 0.000000,  0.000000 
 139306480.000000, -0.409173 , 3.742374, 8.951550, 270836032.000000, 1.050000,  0.490000,  -0.140000, 0.000000,  0.000000 
 139326128.000000, -0.385244 , 3.646662, 8.980263, 270856352.000000, 0.210000,  0.350000,  -0.140000, 0.000000,  0.000000 
 139346128.000000, -0.437887 , 3.613162, 8.980263, 270876032.000000, -0.770000,  0.350000,  -0.140000, 0.000000,  0.000000 
 139366128.000000, -0.363709 , 3.639483, 9.011370, 270896000.000000, -1.260000,  0.420000,  -0.140000, 0.000000,  0.000000 
 139386096.000000, -0.378066 , 3.625126, 9.006584, 270916000.000000, -1.610000,  0.420000,  -0.140000, 0.000000,  0.000000 
 139406416.000000, -0.406780 , 3.629912, 9.004191, 270936000.000000, -1.190000,  0.350000,  0.070000, 0.000000,  0.000000 
 139426096.000000, -0.404387 , 3.677768, 9.001799, 270956288.000000, -0.280000,  0.420000,  0.070000, 0.000000,  0.000000 
 139446064.000000, -0.392423 , 3.680161, 8.989835, 270975968.000000, 0.280000,  0.420000,  0.070000, 0.000000,  0.000000 
 139466064.000000, -0.370888 , 3.708875, 8.949157, 270995968.000000, 0.210000,  0.350000,  0.070000, 0.000000,  0.000000 
 139486064.000000, -0.385244 , 3.701697, 8.997013, 271015936.000000, 0.210000,  0.350000,  0.070000, 0.000000,  0.000000 
 139506352.000000, -0.382852 , 3.658626, 8.992228, 271035936.000000, 0.210000,  0.420000,  -0.070000, 0.000000,  0.000000 
 139526032.000000, -0.397209 , 3.672983, 8.989835, 271056224.000000, -0.560000,  0.490000,  -0.070000, 0.000000,  0.000000 
 139546032.000000, -0.375673 , 3.637090, 9.011370, 271075904.000000, -0.980000,  0.350000,  0.140000, 0.000000,  0.000000 
 139566000.000000, -0.349352 , 3.658626, 9.018548, 271095904.000000, -0.560000,  0.140000,  0.280000, 0.000000,  0.000000 
 139586000.000000, -0.366102 , 3.689733, 8.997013, 271115904.000000, 0.070000,  0.280000,  0.140000, 0.000000,  0.000000 
 139606288.000000, -0.375673 , 3.694518, 8.937192, 271135872.000000, 0.210000,  0.420000,  -0.140000, 0.000000,  0.000000 
 139625968.000000, -0.399601 , 3.658626, 8.975478, 271156160.000000, -0.140000,  0.420000,  -0.140000, 0.000000,  0.000000 
 139645968.000000, -0.373280 , 3.651447, 8.970692, 271175872.000000, -0.630000,  0.350000,  -0.070000, 0.000000,  0.000000 
 139665968.000000, -0.366102 , 3.651447, 9.025726, 271195840.000000, -0.770000,  0.420000,  -0.070000, 0.000000,  0.000000 
 139685936.000000, -0.430708 , 3.637090, 8.992228, 271215840.000000, -0.560000,  0.350000,  0.140000, 0.000000,  0.000000 
 139706256.000000, -0.370888 , 3.696911, 8.930015, 271235808.000000, -0.210000,  0.350000,  0.070000, 0.000000,  0.000000 
 139725936.000000, -0.375673 , 3.670590, 8.953942, 271256128.000000, 0.070000,  0.350000,  -0.070000, 0.000000,  0.000000 
 139745904.000000, -0.409173 , 3.649055, 8.941978, 271275808.000000, -0.140000,  0.420000,  -0.070000, 0.000000,  0.000000 
 139765904.000000, -0.433101 , 3.641876, 9.020942, 271315776.000000, -0.700000,  0.420000,  0.070000, 0.000000,  0.000000 
 139785904.000000, -0.358923 , 3.596412, 9.008978, 0.000000, 0.000000,  0.000000,  0.000000, 0.000000,  0.000000 
 139806192.000000, -0.421137 , 3.639483, 8.975478, 271335776.000000, -0.280000,  0.420000,  0.070000, 0.000000,  0.000000 
 139825872.000000, -0.394816 , 3.684947, 8.961121, 271356064.000000, 0.140000,  0.420000,  0.070000, 0.000000,  0.000000 
 139845840.000000, -0.368495 , 3.677768, 8.982656, 271375744.000000, 0.350000,  0.350000,  0.070000, 0.000000,  0.000000 
 139865840.000000, -0.375673 , 3.689733, 8.963513, 271395744.000000, -0.140000,  0.280000,  0.140000, 0.000000,  0.000000 
 139885840.000000, -0.435494 , 3.672983, 8.977871, 271415744.000000, -0.560000,  0.420000,  0.070000, 0.000000,  0.000000 
 139906128.000000, -0.394816 , 3.615555, 8.999406, 271435712.000000, -0.840000,  0.420000,  0.070000, 0.000000,  0.000000 
 139925808.000000, -0.411566 , 3.649055, 8.963513, 271456000.000000, -0.560000,  0.420000,  0.140000, 0.000000,  0.000000 
 139945808.000000, -0.366102 , 3.629912, 9.011370, 271475712.000000, -0.560000,  0.350000,  0.140000, 0.000000,  0.000000 
 139965808.000000, -0.363709 , 3.692125, 8.977871, 271495680.000000, 0.350000,  0.350000,  0.210000, 0.000000,  0.000000 
 139985776.000000, -0.435494 , 3.711268, 8.980263, 271515680.000000, 0.420000,  0.420000,  0.210000, 0.000000,  0.000000 
 140006064.000000, -0.437887 , 3.756732, 8.918050, 271535680.000000, 0.420000,  0.630000,  -0.280000, 0.000000,  0.000000 
 140025776.000000, -0.399601 , 3.629912, 8.965906, 271555968.000000, -0.630000,  0.420000,  0.070000, 0.000000,  0.000000 
 140045744.000000, -0.373280 , 3.534199, 8.977871, 271575648.000000, -2.030000,  0.140000,  0.350000, 0.000000,  0.000000 
 140065744.000000, -0.358923 , 3.522235, 9.008978, 271595616.000000, -1.680000,  0.070000,  0.280000, 0.000000,  0.000000 
 140085744.000000, -0.382852 , 3.699304, 9.008978, 271615616.000000, 0.210000,  0.210000,  0.280000, 0.000000,  0.000000 
 140106032.000000, -0.433101 , 3.763910, 8.980263, 271635616.000000, 1.540000,  0.420000,  0.070000, 0.000000,  0.000000 
 140125712.000000, -0.394816 , 3.761517, 8.913264, 271655904.000000, 1.260000,  0.420000,  -0.070000, 0.000000,  0.000000 
 140145712.000000, -0.406780 , 3.723232, 8.992228, 271675584.000000, 0.350000,  0.280000,  0.070000, 0.000000,  0.000000 
 140165680.000000, -0.356531 , 3.661019, 8.975478, 271715552.000000, -1.330000,  0.420000,  0.070000, 271714816.000000,  1008.936340 
 140185680.000000, -0.390030 , 3.663411, 9.018548, 0.000000, 0.000000,  0.000000,  0.000000, 0.000000,  0.000000 
 140205968.000000, -0.368495 , 3.601198, 9.059227, 271735552.000000, -1.330000,  0.350000,  0.070000, 0.000000,  0.000000 
 140225648.000000, -0.375673 , 3.646662, 8.994620, 271755840.000000, -0.560000,  0.350000,  0.140000, 0.000000,  0.000000 
 140245648.000000, -0.399601 , 3.689733, 8.970692, 271775552.000000, 0.210000,  0.350000,  0.070000, 0.000000,  0.000000 
 140265680.000000, -0.392423 , 3.661019, 8.949157, 271795520.000000, 0.350000,  0.350000,  0.140000, 0.000000,  0.000000 
 140285616.000000, -0.349352 , 3.668197, 8.982656, 271815552.000000, -0.070000,  0.280000,  0.140000, 0.000000,  0.000000 
 140305904.000000, -0.382852 , 3.668197, 9.023334, 271835488.000000, -0.210000,  0.420000,  0.140000, 0.000000,  0.000000 
 140325584.000000, -0.351745 , 3.711268, 8.982656, 271855808.000000, -0.140000,  0.490000,  -0.070000, 0.000000,  0.000000 
 140345584.000000, -0.416351 , 3.663411, 8.963513, 271875456.000000, -0.350000,  0.350000,  0.070000, 0.000000,  0.000000 
 140365584.000000, -0.363709 , 3.646662, 8.987441, 271895456.000000, -0.420000,  0.280000,  0.140000, 0.000000,  0.000000 
 140385552.000000, -0.366102 , 3.663411, 8.999406, 271915456.000000, -0.210000,  0.210000,  0.140000, 0.000000,  0.000000 
 140405872.000000, -0.366102 , 3.658626, 8.970692, 271935424.000000, -0.140000,  0.350000,  0.140000, 0.000000,  0.000000 
 140425552.000000, -0.361316 , 3.651447, 8.949157, 271955744.000000, -0.210000,  0.420000,  -0.070000, 0.000000,  0.000000 
 140445520.000000, -0.380459 , 3.689733, 8.973085, 271975424.000000, -0.350000,  0.350000,  -0.070000, 0.000000,  0.000000 
 140465520.000000, -0.361316 , 3.670590, 8.987441, 271995392.000000, -0.560000,  0.350000,  -0.070000, 0.000000,  0.000000 
 140485488.000000, -0.390030 , 3.677768, 8.989835, 272015392.000000, -0.630000,  0.420000,  0.070000, 0.000000,  0.000000 
 140505808.000000, -0.375673 , 3.661019, 8.956335, 272035392.000000, -0.490000,  0.350000,  0.070000, 0.000000,  0.000000 
 140525488.000000, -0.394816 , 3.696911, 8.977871, 272055680.000000, -0.350000,  0.280000,  0.140000, 0.000000,  0.000000 
 140545456.000000, -0.406780 , 3.653840, 8.985049, 272075360.000000, -0.280000,  0.350000,  0.070000, 0.000000,  0.000000 
 140565456.000000, -0.409173 , 3.658626, 8.999406, 272095360.000000, -0.350000,  0.420000,  0.070000, 0.000000,  0.000000 
 140585456.000000, -0.356531 , 3.653840, 8.977871, 272115328.000000, -0.350000,  0.350000,  0.070000, 0.000000,  0.000000 
 140605776.000000, -0.378066 , 3.637090, 9.001799, 272135328.000000, -0.210000,  0.350000,  0.070000, 0.000000,  0.000000 
 140625424.000000, -0.416351 , 3.682554, 9.016156, 272155648.000000, 0.070000,  0.420000,  0.140000, 0.000000,  0.000000 
 140645424.000000, -0.366102 , 3.696911, 8.987441, 272175296.000000, 0.070000,  0.350000,  0.070000, 0.000000,  0.000000 
 140665392.000000, -0.382852 , 3.730411, 8.949157, 272195296.000000, -0.140000,  0.350000,  0.140000, 0.000000,  0.000000 
 140685392.000000, -0.382852 , 3.670590, 9.004191, 272215296.000000, -0.420000,  0.420000,  0.070000, 0.000000,  0.000000 
 140705712.000000, -0.392423 , 3.622734, 8.963513, 272235264.000000, -0.700000,  0.490000,  0.070000, 0.000000,  0.000000 
 140725360.000000, -0.392423 , 3.665804, 8.977871, 272255584.000000, -0.770000,  0.490000,  0.070000, 0.000000,  0.000000 
 140745360.000000, -0.425922 , 3.670590, 9.025726, 272275264.000000, -0.490000,  0.420000,  0.140000, 0.000000,  0.000000 
 140765360.000000, -0.392423 , 3.663411, 9.011370, 272295232.000000, -0.070000,  0.350000,  0.210000, 0.000000,  0.000000 
 140785328.000000, -0.323031 , 3.684947, 9.006584, 272315232.000000, 0.210000,  0.420000,  0.210000, 0.000000,  0.000000 
 140805648.000000, -0.447458 , 3.783052, 8.903693, 272355520.000000, 0.280000,  0.350000,  -0.070000, 0.000000,  0.000000 
 140825328.000000, -0.411566 , 3.751946, 8.934800, 0.000000, 0.000000,  0.000000,  0.000000, 0.000000,  0.000000 
 140845296.000000, -0.452243 , 3.596412, 9.025726, 272375200.000000, -1.610000,  0.280000,  0.280000, 0.000000,  0.000000 
 140865296.000000, -0.390030 , 3.553342, 9.032906, 272395168.000000, -2.590000,  0.280000,  0.140000, 0.000000,  0.000000 
 140885296.000000, -0.323031 , 3.589234, 9.025726, 272415168.000000, -1.190000,  0.280000,  0.070000, 0.000000,  0.000000 
 140905584.000000, -0.378066 , 3.732803, 8.970692, 272435168.000000, 1.050000,  0.350000,  0.070000, 0.000000,  0.000000 
 140925264.000000, -0.375673 , 3.766303, 8.951550, 272455456.000000, 1.680000,  0.350000,  0.070000, 0.000000,  0.000000 
 140945264.000000, -0.406780 , 3.651447, 8.958728, 272475136.000000, 0.630000,  0.490000,  -0.070000, 0.000000,  0.000000 
 140965232.000000, -0.411566 , 3.694518, 9.001799, 272495136.000000, -0.840000,  0.490000,  -0.070000, 0.000000,  0.000000 
 140985232.000000, -0.394816 , 3.601198, 8.982656, 272515104.000000, -1.610000,  0.420000,  0.070000, 0.000000,  0.000000 
 141005520.000000, -0.394816 , 3.562913, 9.037691, 272535104.000000, -1.750000,  0.350000,  -0.070000, 0.000000,  0.000000 
 141025200.000000, -0.401994 , 3.641876, 8.968300, 272555392.000000, -0.910000,  0.280000,  -0.070000, 0.000000,  0.000000 
 141045200.000000, -0.401994 , 3.675375, 8.977871, 272575072.000000, 0.140000,  0.280000,  0.070000, 0.000000,  0.000000 
 141065168.000000, -0.430708 , 3.680161, 8.949157, 272595072.000000, 0.490000,  0.420000,  0.070000, 0.000000,  0.000000 
 141085168.000000, -0.370888 , 3.680161, 8.985049, 272615072.000000, 0.140000,  0.350000,  0.070000, 0.000000,  0.000000 
 141105488.000000, -0.401994 , 3.692125, 8.977871, 272635040.000000, -0.140000,  0.350000,  0.070000, 0.000000,  0.000000 
 141125168.000000, -0.390030 , 3.713661, 8.973085, 272655360.000000, -0.210000,  0.490000,  -0.070000, 0.000000,  0.000000 
 141145136.000000, -0.390030 , 3.651447, 8.982656, 272675040.000000, -0.560000,  0.490000,  0.070000, 0.000000,  0.000000 
 141165136.000000, -0.378066 , 3.656233, 8.970692, 272715008.000000, -0.490000,  0.280000,  0.140000, 272714272.000000,  1008.939270 
 141185104.000000, -0.301496 , 3.668197, 9.004191, 0.000000, 0.000000,  0.000000,  0.000000, 0.000000,  0.000000 
 141205424.000000, -0.387637 , 3.675375, 9.025726, 272735008.000000, -0.140000,  0.350000,  0.070000, 0.000000,  0.000000 
 141225104.000000, -0.404387 , 3.677768, 9.001799, 272755296.000000, -0.280000,  0.490000,  0.070000, 0.000000,  0.000000 
 141245072.000000, -0.385244 , 3.653840, 8.992228, 272774976.000000, -0.560000,  0.490000,  0.070000, 0.000000,  0.000000 
 141265104.000000, -0.416351 , 3.716053, 8.963513, 272794976.000000, -0.630000,  0.350000,  0.070000, 0.000000,  0.000000 
 141285072.000000, -0.430708 , 3.668197, 8.963513, 272814976.000000, -0.490000,  0.350000,  0.070000, 0.000000,  0.000000 
 141305360.000000, -0.387637 , 3.639483, 9.020942, 272834944.000000, -0.630000,  0.420000,  0.070000, 0.000000,  0.000000 
 141325040.000000, -0.351745 , 3.639483, 9.011370, 272855232.000000, -0.770000,  0.350000,  0.070000, 0.000000,  0.000000 
 141345040.000000, -0.411566 , 3.677768, 8.961121, 272874912.000000, -0.560000,  0.280000,  0.070000, 0.000000,  0.000000 
 141365008.000000, -0.370888 , 3.670590, 8.977871, 272894912.000000, -0.350000,  0.420000,  0.070000, 0.000000,  0.000000 
 141385008.000000, -0.392423 , 3.689733, 8.999406, 272914912.000000, -0.280000,  0.350000,  0.070000, 0.000000,  0.000000 
 141405296.000000, -0.363709 , 3.692125, 8.970692, 272934880.000000, -0.070000,  0.420000,  0.070000, 0.000000,  0.000000 
 141424976.000000, -0.370888 , 3.701697, 8.980263, 272955200.000000, 0.070000,  0.350000,  0.070000, 0.000000,  0.000000 
 141444976.000000, -0.404387 , 3.708875, 8.985049, 272974880.000000, 0.070000,  0.280000,  0.070000, 0.000000,  0.000000 
 141464976.000000, -0.368495 , 3.665804, 8.934800, 272994848.000000, -0.210000,  0.350000,  0.070000, 0.000000,  0.000000 
 141484944.000000, -0.430708 , 3.661019, 9.011370, 273014848.000000, -0.490000,  0.420000,  0.070000, 0.000000,  0.000000 
 141505264.000000, -0.378066 , 3.634698, 8.944371, 273034848.000000, -0.560000,  0.350000,  0.070000, 0.000000,  0.000000 
 141524944.000000, -0.385244 , 3.677768, 9.013763, 273055136.000000, -0.420000,  0.420000,  0.070000, 0.000000,  0.000000 
 141544912.000000, -0.318245 , 3.672983, 9.004191, 273074816.000000, -0.140000,  0.350000,  0.140000, 0.000000,  0.000000 
 141564912.000000, -0.378066 , 3.706482, 9.016156, 273094816.000000, 0.140000,  0.350000,  0.210000, 0.000000,  0.000000 
 141584912.000000, -0.440279 , 3.756732, 8.939585, 273114784.000000, 0.420000,  0.490000,  -0.210000, 0.000000,  0.000000 
 141605200.000000, -0.373280 , 3.761517, 8.910872, 273134784.000000, 0.350000,  0.560000,  -0.350000, 0.000000,  0.000000 
 141624880.000000, -0.392423 , 3.615555, 8.982656, 273155072.000000, -0.700000,  0.280000,  0.140000, 0.000000,  0.000000 
 141644880.000000, -0.378066 , 3.546163, 9.016156, 273174752.000000, -2.240000,  0.210000,  0.350000, 0.000000,  0.000000 
 141664848.000000, -0.411566 , 3.550949, 9.025726, 273194752.000000, -2.030000,  0.350000,  0.070000, 0.000000,  0.000000 
 141684848.000000, -0.375673 , 3.728018, 8.963513, 273214720.000000, 0.070000,  0.280000,  0.210000, 0.000000,  0.000000 
 141705136.000000, -0.404387 , 3.756732, 8.939585, 273234720.000000, 1.680000,  0.210000,  0.210000, 0.000000,  0.000000 
 141724848.000000, -0.390030 , 3.728018, 8.915657, 273255040.000000, 1.330000,  0.490000,  -0.210000, 0.000000,  0.000000 
 141744816.000000, -0.378066 , 3.720839, 8.965906, 273274720.000000, -0.140000,  0.420000,  -0.070000, 0.000000,  0.000000 
 141764816.000000, -0.363709 , 3.637090, 9.004191, 273294688.000000, -1.470000,  0.280000,  0.140000, 0.000000,  0.000000 
 141784784.000000, -0.368495 , 3.558127, 8.973085, 273314688.000000, -1.960000,  0.350000,  0.140000, 0.000000,  0.000000 
 141805104.000000, -0.399601 , 3.632305, 8.961121, 273334688.000000, -1.330000,  0.350000,  0.140000, 0.000000,  0.000000 
 141824784.000000, -0.418744 , 3.661019, 8.941978, 273354976.000000, -0.070000,  0.280000,  0.070000, 0.000000,  0.000000 
 141844752.000000, -0.399601 , 3.706482, 8.973085, 273374656.000000, 0.630000,  0.350000,  0.070000, 0.000000,  0.000000 
 141864752.000000, -0.375673 , 3.701697, 8.930015, 273394656.000000, 0.350000,  0.350000,  0.070000, 0.000000,  0.000000 
 141884752.000000, -0.370888 , 3.675375, 9.013763, 273414624.000000, -0.210000,  0.210000,  0.070000, 0.000000,  0.000000 
 141905040.000000, -0.406780 , 3.708875, 8.975478, 273434624.000000, -0.280000,  0.420000,  0.070000, 0.000000,  0.000000 
 141924720.000000, -0.423530 , 3.663411, 9.018548, 273454912.000000, -0.280000,  0.490000,  -0.140000, 0.000000,  0.000000 
 141944720.000000, -0.390030 , 3.653840, 8.970692, 273474592.000000, -0.560000,  0.350000,  -0.140000, 0.000000,  0.000000 
 141964688.000000, -0.354138 , 3.672983, 8.999406, 273494592.000000, -0.560000,  0.140000,  0.210000, 0.000000,  0.000000 
 141984688.000000, -0.351745 , 3.677768, 9.016156, 273514560.000000, -0.140000,  0.210000,  0.140000, 0.000000,  0.000000 
 142004976.000000, -0.406780 , 3.732803, 8.982656, 273534560.000000, -0.140000,  0.420000,  0.140000, 0.000000,  0.000000 
 142024656.000000, -0.380459 , 3.663411, 8.961121, 273554848.000000, -0.420000,  0.490000,  -0.070000, 0.000000,  0.000000 
 142044656.000000, -0.375673 , 3.641876, 8.953942, 273574560.000000, -0.630000,  0.420000,  -0.070000, 0.000000,  0.000000 
 142064656.000000, -0.416351 , 3.670590, 8.970692, 273594528.000000, -0.420000,  0.350000,  0.070000, 0.000000,  0.000000 
 142084624.000000, -0.356531 , 3.653840, 8.973085, 273614528.000000, -0.350000,  0.350000,  0.070000, 0.000000,  0.000000 
 142104944.000000, -0.401994 , 3.668197, 8.989835, 273634496.000000, -0.420000,  0.350000,  0.070000, 0.000000,  0.000000 
 142124592.000000, -0.392423 , 3.696911, 8.977871, 273654816.000000, -0.280000,  0.350000,  0.070000, 0.000000,  0.000000 
 142144592.000000, -0.380459 , 3.706482, 8.963513, 273674496.000000, -0.070000,  0.350000,  0.070000, 0.000000,  0.000000 
 142164592.000000, -0.385244 , 3.689733, 8.956335, 273714464.000000, -0.210000,  0.350000,  0.070000, 273713728.000000,  1008.936462 
 142184560.000000, -0.409173 , 3.639483, 9.025726, 0.000000, 0.000000,  0.000000,  0.000000, 0.000000,  0.000000 
 142204880.000000, -0.425922 , 3.706482, 8.975478, 273734464.000000, -0.140000,  0.350000,  0.070000, 0.000000,  0.000000 
 142224560.000000, -0.406780 , 3.682554, 8.973085, 273754752.000000, -0.070000,  0.420000,  0.070000, 0.000000,  0.000000 
 142244528.000000, -0.387637 , 3.672983, 8.927622, 273774432.000000, -0.210000,  0.280000,  0.070000, 0.000000,  0.000000 
 142264560.000000, -0.370888 , 3.639483, 8.946764, 273794400.000000, -0.560000,  0.350000,  0.070000, 0.000000,  0.000000 
 142284528.000000, -0.394816 , 3.634698, 8.968300, 273814432.000000, -0.560000,  0.420000,  0.070000, 0.000000,  0.000000 
 142304816.000000, -0.401994 , 3.661019, 8.999406, 273834400.000000, -0.490000,  0.490000,  0.070000, 0.000000,  0.000000 
 142324496.000000, -0.433101 , 3.677768, 8.992228, 273854688.000000, -0.210000,  0.350000,  0.070000, 0.000000,  0.000000 
 142344656.000000, -0.373280 , 3.687340, 9.004191, 273874368.000000, -0.070000,  0.280000,  0.210000, 0.000000,  0.000000 
 142364464.000000, -0.380459 , 3.735196, 8.944371, 273894528.000000, 0.070000,  0.350000,  0.070000, 0.000000,  0.000000 
 142384464.000000, -0.428315 , 3.763910, 8.944371, 273914336.000000, 0.420000,  0.560000,  -0.210000, 0.000000,  0.000000 
 142404784.000000, -0.425922 , 3.737589, 8.930015, 273934336.000000, 0.070000,  0.490000,  -0.140000, 0.000000,  0.000000 
 142424432.000000, -0.378066 , 3.601198, 9.032906, 273954656.000000, -1.400000,  0.210000,  0.140000, 0.000000,  0.000000 
 142444432.000000, -0.356531 , 3.577270, 9.020942, 273974304.000000, -2.170000,  0.210000,  0.140000, 0.000000,  0.000000 
 142464400.000000, -0.368495 , 3.663411, 9.016156, 273994304.000000, -0.980000,  0.210000,  0.280000, 0.000000,  0.000000 
 142484400.000000, -0.358923 , 3.701697, 8.989835, 274014304.000000, 0.490000,  0.280000,  0.070000, 0.000000,  0.000000 
 142504720.000000, -0.399601 , 3.713661, 8.953942, 274034272.000000, 0.840000,  0.490000,  -0.070000, 0.000000,  0.000000 
 142524400.000000, -0.358923 , 3.768696, 8.927622, 274054592.000000, 0.560000,  0.560000,  -0.140000, 0.000000,  0.000000 
 142544368.000000, -0.349352 , 3.735196, 8.980263, 274074272.000000, -0.350000,  0.350000,  -0.140000, 0.000000,  0.000000 
 142564368.000000, -0.366102 , 3.665804, 9.011370, 274094240.000000, -1.120000,  0.420000,  -0.140000, 0.000000,  0.000000 
 142584336.000000, -0.385244 , 3.620341, 9.023334, 274114240.000000, -1.610000,  0.490000,  -0.070000, 0.000000,  0.000000 
 142604656.000000, -0.368495 , 3.677768, 9.008978, 274134240.000000, -1.120000,  0.350000,  -0.070000, 0.000000,  0.000000 
 142624336.000000, -0.401994 , 3.639483, 9.011370, 274154528.000000, -0.210000,  0.350000,  0.070000, 0.000000,  0.000000 
 142644304.000000, -0.380459 , 3.677768, 8.975478, 274174208.000000, 0.280000,  0.420000,  0.070000, 0.000000,  0.000000 
 142664304.000000, -0.368495 , 3.651447, 8.999406, 274194208.000000, 0.280000,  0.350000,  0.070000, 0.000000,  0.000000 
 142684304.000000, -0.421137 , 3.656233, 8.970692, 274214176.000000, 0.280000,  0.280000,  0.070000, 0.000000,  0.000000 
 142704592.000000, -0.375673 , 3.680161, 8.965906, 274234176.000000, 0.280000,  0.490000,  -0.070000, 0.000000,  0.000000 
 142724272.000000, -0.404387 , 3.675375, 8.992228, 274254464.000000, -0.210000,  0.490000,  0.070000, 0.000000,  0.000000 
 142744272.000000, -0.356531 , 3.627519, 8.934800, 274274144.000000, -0.700000,  0.280000,  0.210000, 0.000000,  0.000000 
 142764240.000000, -0.342174 , 3.694518, 8.930015, 274294144.000000, -0.560000,  0.140000,  0.210000, 0.000000,  0.000000 
 142784240.000000, -0.411566 , 3.656233, 8.975478, 274314112.000000, -0.140000,  0.280000,  0.140000, 0.000000,  0.000000 
 142804560.000000, -0.440279 , 3.696911, 8.953942, 274334112.000000, -0.140000,  0.420000,  0.070000, 0.000000,  0.000000 
 142824208.000000, -0.380459 , 3.625126, 9.004191, 274354432.000000, -0.210000,  0.490000,  -0.140000, 0.000000,  0.000000 
 142844208.000000, -0.344566 , 3.634698, 9.006584, 274374112.000000, -0.490000,  0.420000,  -0.140000, 0.000000,  0.000000 
 142864208.000000, -0.373280 , 3.663411, 8.985049, 274394080.000000, -0.630000,  0.420000,  -0.140000, 0.000000,  0.000000 
 142884176.000000, -0.399601 , 3.644269, 9.023334, 274414080.000000, -0.840000,  0.420000,  -0.140000, 0.000000,  0.000000 
 142904496.000000, -0.363709 , 3.665804, 8.977871, 274434048.000000, -0.630000,  0.350000,  0.070000, 0.000000,  0.000000 
 142924176.000000, -0.370888 , 3.670590, 8.963513, 274474048.000000, -0.140000,  0.420000,  0.070000, 0.000000,  0.000000 
 142944144.000000, -0.378066 , 3.696911, 8.997013, 0.000000, 0.000000,  0.000000,  0.000000, 0.000000,  0.000000 
 142964144.000000, -0.440279 , 3.677768, 8.992228, 274494016.000000, -0.140000,  0.420000,  0.070000, 0.000000,  0.000000 
 142984144.000000, -0.394816 , 3.687340, 9.032906, 274514016.000000, -0.350000,  0.420000,  0.070000, 0.000000,  0.000000 
 143004432.000000, -0.370888 , 3.668197, 9.011370, 274534016.000000, -0.140000,  0.420000,  0.070000, 0.000000,  0.000000 
 143024112.000000, -0.387637 , 3.689733, 8.982656, 274554304.000000, -0.140000,  0.420000,  0.070000, 0.000000,  0.000000 
 143044112.000000, -0.437887 , 3.694518, 8.934800, 274573984.000000, -0.210000,  0.280000,  0.070000, 0.000000,  0.000000 
 143064080.000000, -0.378066 , 3.682554, 8.989835, 274593984.000000, -0.420000,  0.490000,  0.070000, 0.000000,  0.000000 
 143084080.000000, -0.327817 , 3.629912, 8.999406, 274613952.000000, -0.560000,  0.490000,  0.070000, 0.000000,  0.000000 
 143104368.000000, -0.339781 , 3.735196, 9.004191, 274633952.000000, -0.420000,  0.350000,  0.140000, 0.000000,  0.000000 
 143124048.000000, -0.342174 , 3.689733, 9.013763, 274654240.000000, -0.070000,  0.350000,  0.140000, 0.000000,  0.000000 
 143144048.000000, -0.370888 , 3.625126, 8.989835, 274673920.000000, -0.140000,  0.350000,  0.140000, 0.000000,  0.000000 
 143164048.000000, -0.358923 , 3.744767, 8.934800, 274693920.000000, -0.140000,  0.350000,  0.140000, 0.000000,  0.000000 
 143184016.000000, -0.464208 , 3.737589, 8.951550, 274713920.000000, 0.070000,  0.490000,  -0.280000, 274713184.000000,  1008.934631 
 143204336.000000, -0.399601 , 3.625126, 8.970692, 274733888.000000, 0.140000,  0.490000,  -0.140000, 0.000000,  0.000000 
 143224016.000000, -0.358923 , 3.543770, 9.006584, 274754208.000000, -1.050000,  0.350000,  0.210000, 0.000000,  0.000000 
 143243984.000000, -0.334995 , 3.565305, 9.018548, 274773888.000000, -1.890000,  0.140000,  0.210000, 0.000000,  0.000000 
 143264016.000000, -0.378066 , 3.579663, 8.989835, 274793856.000000, -1.120000,  0.210000,  0.210000, 0.000000,  0.000000 
 143283984.000000, -0.423530 , 3.744767, 9.025726, 274813888.000000, 0.490000,  0.350000,  0.140000, 0.000000,  0.000000 
 143304272.000000, -0.433101 , 3.768696, 8.953942, 274833856.000000, 1.120000,  0.490000,  -0.070000, 0.000000,  0.000000 
 143323952.000000, -0.387637 , 3.732803, 8.992228, 274854144.000000, 0.840000,  0.420000,  -0.070000, 0.000000,  0.000000 
 143343920.000000, -0.399601 , 3.701697, 8.953942, 274873824.000000, 0.070000,  0.350000,  0.070000, 0.000000,  0.000000 
 143363920.000000, -0.421137 , 3.658626, 9.008978, 274893824.000000, -0.630000,  0.420000,  0.140000, 0.000000,  0.000000 
 143383920.000000, -0.397209 , 3.622734, 9.023334, 274913792.000000, -1.260000,  0.420000,  0.140000, 0.000000,  0.000000 
 143404336.000000, -0.399601 , 3.627519, 8.977871, 274933792.000000, -1.190000,  0.350000,  0.140000, 0.000000,  0.000000 
 143423888.000000, -0.435494 , 3.641876, 8.970692, 274954208.000000, -0.490000,  0.350000,  0.070000, 0.000000,  0.000000 
 143443888.000000, -0.390030 , 3.665804, 8.953942, 274973760.000000, 0.070000,  0.420000,  0.070000, 0.000000,  0.000000 
 143463856.000000, -0.354138 , 3.682554, 8.982656, 274993760.000000, 0.140000,  0.350000,  0.070000, 0.000000,  0.000000 
 143483856.000000, -0.382852 , 3.728018, 8.963513, 275013760.000000, 0.070000,  0.350000,  0.070000, 0.000000,  0.000000 
 143504144.000000, -0.435494 , 3.706482, 9.004191, 275033728.000000, 0.420000,  0.420000,  -0.070000, 0.000000,  0.000000 
 143523856.000000, -0.361316 , 3.682554, 8.946764, 275054048.000000, 0.140000,  0.420000,  -0.070000, 0.000000,  0.000000 
 143543824.000000, -0.390030 , 3.627519, 8.953942, 275073728.000000, -0.490000,  0.210000,  0.140000, 0.000000,  0.000000 
 143563824.000000, -0.370888 , 3.675375, 8.965906, 275093696.000000, -0.560000,  0.140000,  0.280000, 0.000000,  0.000000 
 143583824.000000, -0.346959 , 3.680161, 8.994620, 275113696.000000, -0.210000,  0.280000,  0.210000, 0.000000,  0.000000 
 143604112.000000, -0.361316 , 3.684947, 8.985049, 275133696.000000, -0.070000,  0.420000,  0.070000, 0.000000,  0.000000 
 143623792.000000, -0.437887 , 3.684947, 9.011370, 275153984.000000, -0.140000,  0.420000,  -0.070000, 0.000000,  0.000000 
 143643792.000000, -0.430708 , 3.699304, 8.944371, 275173664.000000, -0.280000,  0.350000,  -0.070000, 0.000000,  0.000000 
 143663760.000000, -0.354138 , 3.692125, 8.977871, 275193664.000000, -0.350000,  0.350000,  0.070000, 0.000000,  0.000000 
 143683760.000000, -0.428315 , 3.646662, 9.011370, 275213632.000000, -0.630000,  0.420000,  0.070000, 0.000000,  0.000000 
 143704048.000000, -0.363709 , 3.637090, 8.989835, 275233632.000000, -0.770000,  0.420000,  0.070000, 0.000000,  0.000000 
 143723728.000000, -0.397209 , 3.675375, 8.977871, 275253920.000000, -0.630000,  0.350000,  0.070000, 0.000000,  0.000000 
 143743728.000000, -0.346959 , 3.658626, 8.999406, 275273600.000000, -0.210000,  0.420000,  0.070000, 0.000000,  0.000000 
 143763696.000000, -0.363709 , 3.646662, 8.985049, 275293600.000000, -0.140000,  0.420000,  0.070000, 0.000000,  0.000000 
 143783696.000000, -0.399601 , 3.634698, 8.994620, 275333568.000000, -0.070000,  0.420000,  0.070000, 0.000000,  0.000000 
 143803984.000000, -0.368495 , 3.708875, 8.987441, 0.000000, 0.000000,  0.000000,  0.000000, 0.000000,  0.000000 
 143823696.000000, -0.366102 , 3.680161, 8.939585, 275353888.000000, 0.140000,  0.280000,  0.070000, 0.000000,  0.000000 
 143843664.000000, -0.373280 , 3.694518, 8.963513, 275373568.000000, 0.140000,  0.280000,  0.140000, 0.000000,  0.000000 
 143863664.000000, -0.363709 , 3.677768, 8.982656, 275393536.000000, -0.280000,  0.420000,  0.070000, 0.000000,  0.000000 
 143883632.000000, -0.373280 , 3.644269, 8.970692, 275413536.000000, -0.490000,  0.560000,  0.070000, 0.000000,  0.000000 
 143903952.000000, -0.373280 , 3.675375, 9.001799, 275433536.000000, -0.560000,  0.490000,  0.070000, 0.000000,  0.000000 
 143923600.000000, -0.351745 , 3.692125, 8.977871, 275453824.000000, -0.210000,  0.350000,  0.140000, 0.000000,  0.000000 
 143943600.000000, -0.342174 , 3.665804, 9.004191, 275473504.000000, 0.070000,  0.280000,  0.280000, 0.000000,  0.000000 
 143963600.000000, -0.442672 , 3.725625, 8.982656, 275493472.000000, 0.140000,  0.490000,  -0.140000, 0.000000,  0.000000 
 143983568.000000, -0.433101 , 3.775874, 8.898908, 275513472.000000, 0.490000,  0.630000,  -0.350000, 0.000000,  0.000000 
 144003888.000000, -0.375673 , 3.687340, 8.989835, 275533472.000000, -0.350000,  0.350000,  0.140000, 0.000000,  0.000000 
 144023568.000000, -0.382852 , 3.572484, 8.977871, 275553760.000000, -1.960000,  0.210000,  0.280000, 0.000000,  0.000000 
 144043536.000000, -0.373280 , 3.555735, 8.989835, 275573440.000000, -1.960000,  0.280000,  0.140000, 0.000000,  0.000000 
 144063536.000000, -0.399601 , 3.684947, 8.989835, 275593408.000000, -0.140000,  0.280000,  0.210000, 0.000000,  0.000000 
 144083536.000000, -0.401994 , 3.720839, 8.934800, 275613408.000000, 1.330000,  0.350000,  0.070000, 0.000000,  0.000000 
 144103824.000000, -0.399601 , 3.718446, 8.939585, 275633408.000000, 1.050000,  0.420000,  -0.070000, 0.000000,  0.000000 
 144123504.000000, -0.440279 , 3.692125, 8.918050, 275653728.000000, -0.070000,  0.420000,  -0.070000, 0.000000,  0.000000 
 144143504.000000, -0.421137 , 3.661019, 8.973085, 275673376.000000, -0.980000,  0.420000,  0.140000, 0.000000,  0.000000 
 144163472.000000, -0.416351 , 3.610770, 9.032906, 275713344.000000, -1.540000,  0.350000,  -0.070000, 275712640.000000,  1008.937134 
 144183472.000000, -0.433101 , 3.608376, 9.016156, 0.000000, 0.000000,  0.000000,  0.000000, 0.000000,  0.000000 
 144203792.000000, -0.394816 , 3.668197, 8.963513, 275733344.000000, -0.560000,  0.280000,  0.070000, 0.000000,  0.000000 
 144223440.000000, -0.411566 , 3.711268, 8.997013, 275753664.000000, 0.350000,  0.350000,  0.070000, 0.000000,  0.000000 
 144243440.000000, -0.387637 , 3.677768, 8.958728, 275773344.000000, 0.420000,  0.350000,  0.140000, 0.000000,  0.000000 
 144263472.000000, -0.370888 , 3.677768, 8.985049, 275793312.000000, 0.420000,  0.210000,  0.210000, 0.000000,  0.000000 
 144283408.000000, -0.421137 , 3.747160, 9.001799, 275813344.000000, -0.140000,  0.420000,  0.210000, 0.000000,  0.000000 
 144303728.000000, -0.382852 , 3.665804, 9.023334, 275833280.000000, -0.280000,  0.560000,  -0.070000, 0.000000,  0.000000 
 144323408.000000, -0.361316 , 3.637090, 8.994620, 275853600.000000, -0.560000,  0.420000,  0.070000, 0.000000,  0.000000 
 144343376.000000, -0.334995 , 3.617948, 8.977871, 275873280.000000, -0.630000,  0.210000,  0.210000, 0.000000,  0.000000 
 144363376.000000, -0.368495 , 3.713661, 8.958728, 275893248.000000, -0.280000,  0.210000,  0.140000, 0.000000,  0.000000 
 144383376.000000, -0.397209 , 3.701697, 8.989835, 275913248.000000, -0.140000,  0.350000,  0.070000, 0.000000,  0.000000 
 144403664.000000, -0.397209 , 3.692125, 8.992228, 275933248.000000, -0.420000,  0.490000,  -0.070000, 0.000000,  0.000000 
 144423344.000000, -0.361316 , 3.677768, 8.977871, 275953536.000000, -0.630000,  0.490000,  -0.070000, 0.000000,  0.000000 
 144443344.000000, -0.404387 , 3.680161, 9.004191, 275973216.000000, -0.630000,  0.420000,  -0.070000, 0.000000,  0.000000 
 144463312.000000, -0.392423 , 3.730411, 9.018548, 275993216.000000, -0.630000,  0.350000,  -0.070000, 0.000000,  0.000000 
 144483312.000000, -0.370888 , 3.694518, 8.970692, 276013184.000000, -0.770000,  0.350000,  -0.070000, 0.000000,  0.000000 
 144503600.000000, -0.373280 , 3.658626, 8.970692, 276033184.000000, -0.490000,  0.280000,  0.070000, 0.000000,  0.000000 
 144523280.000000, -0.399601 , 3.651447, 8.980263, 276053472.000000, -0.140000,  0.280000,  0.070000, 0.000000,  0.000000 
