Acc_timestamp,Accx,Accy,Accz,Gyro_timestamp,Gyrox,Gyroy,Gyroz,Baro_timestamp,Pressure_Reading
41709824.000000, -8.927622 , 0.081356, -1.136591, 1467252224.000000, 46.689999,  -217.490005,  -25.410000, 0.000000,  0.000000 
 41729792.000000, -7.470392 , 0.928415, -1.885544, 1467271680.000000, 58.590000,  -195.720001,  -4.830000, 0.000000,  0.000000 
 41749760.000000, -5.795416 , 1.155733, -2.397608, 1467291648.000000, 56.630001,  -176.119995,  12.040000, 0.000000,  0.000000 
 41769984.000000, -5.070391 , 0.658026, -2.179861, 1467311616.000000, 26.460001,  -154.000000,  20.790001, 0.000000,  0.000000 
 41790208.000000, -5.690133 , 0.346959, -1.883151, 1467331840.000000, -24.710001,  -112.139999,  21.280001, 0.000000,  0.000000 
 41809664.000000, -6.675975 , -0.066999, -1.390230, 1467352064.000000, -71.050003,  -63.980000,  17.990000, 0.000000,  0.000000 
 41829632.000000, -7.331609 , -0.500100, -0.708275, 1467371520.000000, -94.639999,  -24.219999,  16.379999, 0.000000,  0.000000 
 41849600.000000, -8.166703 , -1.026521, -0.303888, 1467391488.000000, -87.989998,  6.440000,  18.480000, 0.000000,  0.000000 
 41870080.000000, -9.284152 , -1.172483, -0.758525, 1467411456.000000, -57.119999,  38.709999,  23.240000, 0.000000,  0.000000 
 41890304.000000, -10.269995 , -0.844666, -1.658226, 1467431936.000000, -11.690000,  71.260002,  31.710001, 0.000000,  0.000000 
 41909760.000000, -11.200804 , -0.514457, -1.591227, 1467452160.000000, 25.690001,  102.480003,  39.689999, 0.000000,  0.000000 
 41929728.000000, -11.882757 , -0.535992, -0.882952, 1467471616.000000, 38.220001,  138.669998,  40.389999, 0.000000,  0.000000 
 41949696.000000, -13.062418 , -0.239282, -0.200997, 1467491584.000000, 39.340000,  175.979996,  38.570000, 0.000000,  0.000000 
 41969920.000000, -14.091332 , 0.031107, 0.660419, 1467511552.000000, 38.920002,  221.059998,  32.900002, 0.000000,  0.000000 
 41990656.000000, -14.471791 , 0.126820, 2.062613, 1467531776.000000, 47.320000,  261.589996,  28.139999, 0.000000,  0.000000 
 42009600.000000, -15.677773 , -0.937986, 3.371487, 1467552512.000000, 74.830002,  287.839996,  27.090000, 0.000000,  0.000000 
 42029568.000000, -16.867006 , -2.261217, 4.627719, 1467571456.000000, 126.000000,  311.779999,  22.680000, 0.000000,  0.000000 
 42049536.000000, -15.866807 , -2.785245, 3.833302, 1467591424.000000, 219.380005,  314.440002,  20.160000, 0.000000,  0.000000 
 42070016.000000, -13.383057 , -1.258625, -0.279960, 1467611392.000000, 358.959991,  268.799988,  12.040000, 0.000000,  0.000000 
 42090240.000000, -12.088539 , 1.710868, -2.914458, 1467631872.000000, 480.899994,  194.320007,  -13.160000, 0.000000,  0.000000 
 42109440.000000, -11.468799 , 5.300103, -3.943372, 1467652096.000000, 516.739990,  129.430008,  -48.020000, 0.000000,  0.000000 
 42129408.000000, -10.303494 , 8.221739, -3.369094, 1467671296.000000, 449.260010,  73.919998,  -72.590004, 0.000000,  0.000000 
 42149632.000000, -9.226725 , 8.829515, -1.768296, 1467691264.000000, 287.910004,  39.970001,  -89.669998, 0.000000,  0.000000 
 42169856.000000, -9.705289 , 6.936793, -0.066999, 1467711488.000000, 77.489998,  42.209999,  -111.720001, 0.000000,  0.000000 
 42190080.000000, -10.949556 , 4.273581, 1.069592, 1467731712.000000, -124.669998,  73.360001,  -135.940002, 0.000000,  0.000000 
 42209536.000000, -11.514263 , 1.859223, 1.720440, 1467751936.000000, -274.540009,  104.790001,  -145.949997, 0.000000,  0.000000 
 42229504.000000, -11.363515 , 0.650848, 2.696711, 1467771392.000000, -338.309998,  119.629997,  -140.839996, 0.000000,  0.000000 
 42249472.000000, -11.042876 , -0.129212, 3.376273, 1467791360.000000, -314.089996,  121.099998,  -108.919998, 0.000000,  0.000000 
 42269696.000000, -11.490334 , -0.480957, 4.541577, 1467831552.000000, -153.720001,  118.580002,  -53.689999, 3729415168.000000,  1005.681213 
 42289920.000000, -11.621940 , -0.179462, 5.678168, 0.000000, 0.000000,  0.000000,  0.000000, 0.000000,  0.000000 
 42309376.000000, -11.686546 , 0.516850, 6.833901, 1467851776.000000, -50.259998,  108.919998,  -33.810001, 0.000000,  0.000000 
 42329344.000000, -13.148561 , 0.969093, 7.372287, 1467871232.000000, 63.000000,  96.250000,  -23.870001, 0.000000,  0.000000 
 42349312.000000, -15.230316 , 1.351945, 5.266603, 1467891200.000000, 189.279999,  89.459999,  -17.639999, 0.000000,  0.000000 
 42369792.000000, -16.474585 , 3.402594, 2.529213, 1467911168.000000, 327.250000,  70.070000,  -5.320000, 0.000000,  0.000000 
 42392064.000000, -15.893128 , 5.948557, 0.452243, 1467931648.000000, 412.720001,  23.799999,  10.570000, 0.000000,  0.000000 
 42409472.000000, -15.002998 , 8.300702, -0.244068, 1467953920.000000, 414.959991,  -28.700001,  31.290001, 0.000000,  0.000000 
 42429440.000000, -16.127625 , 9.133404, -0.480957, 1467971328.000000, 350.000000,  -60.619999,  48.369999, 0.000000,  0.000000 
 42449408.000000, -15.833307 , 7.609176, -0.775275, 1467991296.000000, 257.670013,  -60.619999,  56.349998, 0.000000,  0.000000 
 42469632.000000, -12.681960 , 5.211568, -0.677169, 1468011264.000000, 168.210007,  -68.599998,  84.209999, 0.000000,  0.000000 
 42489856.000000, -10.537991 , 3.754339, -0.447458, 1468031488.000000, 89.529999,  -90.930000,  118.300003, 0.000000,  0.000000 
 42509312.000000, -10.169496 , 3.172883, 0.007178, 1468051712.000000, 33.250000,  -91.070000,  140.630005, 0.000000,  0.000000 
 42529280.000000, -11.100305 , 2.801995, 0.497707, 1468071168.000000, -3.220000,  -77.840004,  152.669998, 0.000000,  0.000000 
 42549248.000000, -12.648461 , 2.407180, 1.093520, 1468091136.000000, -26.670000,  -61.740002,  156.449997, 0.000000,  0.000000 
 42569728.000000, -13.871193 , 1.797010, 1.356731, 1468111104.000000, -39.619999,  -43.680000,  160.649994, 0.000000,  0.000000 
 42589952.000000, -13.457234 , 0.729811, 1.179662, 1468131584.000000, -39.619999,  -34.720001,  171.080002, 0.000000,  0.000000 
 42609152.000000, -12.533605 , -0.069392, 0.954736, 1468151808.000000, -32.900002,  -39.270000,  188.300003, 0.000000,  0.000000 
 42629376.000000, -12.023933 , -0.093320, 0.464208, 1468171008.000000, -25.410000,  -46.200001,  205.729996, 0.000000,  0.000000 
 42649344.000000, -11.777473 , 0.143569, -0.078963, 1468191232.000000, -27.160000,  -51.450001,  220.500000, 0.000000,  0.000000 
 42669568.000000, -11.978470 , 0.162712, -0.251246, 1468211200.000000, -50.400002,  -58.029999,  226.380005, 0.000000,  0.000000 
 42689792.000000, -12.512069 , 0.122034, 0.153141, 1468231424.000000, -93.449997,  -65.029999,  219.940002, 0.000000,  0.000000 
 42709248.000000, -13.239488 , -0.241675, 0.102891, 1468251648.000000, -143.779999,  -73.639999,  204.539993, 0.000000,  0.000000 
 42729216.000000, -13.024135 , -1.184447, -0.708275, 1468271104.000000, -185.500000,  -84.279999,  184.589996, 0.000000,  0.000000 
 42749184.000000, -12.234503 , -1.971686, -0.990629, 1468291072.000000, -224.839996,  -104.230003,  158.690002, 0.000000,  0.000000 
 42769408.000000, -11.387443 , -1.897508, -2.100898, 1468311040.000000, -268.170013,  -126.980003,  124.180000, 0.000000,  0.000000 
 42789888.000000, -9.927821 , -1.567299, -3.036492, 1468331264.000000, -294.559998,  -140.630005,  90.370003, 0.000000,  0.000000 
 42809088.000000, -9.513863 , -2.543570, -2.569891, 1468351744.000000, -319.970001,  -151.970001,  46.410000, 0.000000,  0.000000 
 42829056.000000, -10.542776 , -3.529413, -0.698704, 1468390912.000000, -272.579987,  -97.440002,  -31.430000, 0.000000,  0.000000 
 42849024.000000, -10.016356 , -3.249453, 0.430708, 0.000000, 0.000000,  0.000000,  0.000000, 0.000000,  0.000000 
 42869504.000000, -8.188239 , -2.000400, 0.502493, 1468410880.000000, -149.520004,  -86.730003,  -44.380001, 0.000000,  0.000000 
 42889728.000000, -8.293523 , 0.016750, -0.318245, 1468431360.000000, -13.300000,  -81.059998,  -43.680000, 0.000000,  0.000000 
 42909184.000000, -10.059426 , 2.074577, -3.469593, 1468451584.000000, 93.519997,  -42.000000,  -52.220001, 0.000000,  0.000000 
 42929152.000000, -11.291731 , 3.270989, -5.754738, 1468471040.000000, 165.059998,  -5.040000,  -61.040001, 0.000000,  0.000000 
 42949120.000000, -10.813165 , 3.359523, -5.611169, 1468491008.000000, 164.360001,  13.160000,  -73.849998, 0.000000,  0.000000 
 42969344.000000, -10.451849 , 3.335595, -3.672983, 1468510976.000000, 89.739998,  31.290001,  -96.809998, 0.000000,  0.000000 
 42989568.000000, -11.289338 , 2.493321, -1.598405, 1468531200.000000, 22.750000,  64.120003,  -101.290001, 0.000000,  0.000000 
 43009024.000000, -11.349157 , 1.521835, -0.736989, 1468551424.000000, -21.280001,  110.809998,  -109.830002, 0.000000,  0.000000 
 43028992.000000, -11.064411 , 1.540978, -0.698704, 1468570880.000000, -30.450001,  140.490005,  -106.470001, 0.000000,  0.000000 
 43048960.000000, -12.019149 , 1.995614, -0.528814, 1468590848.000000, -3.920000,  160.930008,  -91.629997, 0.000000,  0.000000 
 43069440.000000, -13.488340 , 2.751746, -0.150748, 1468610816.000000, 17.639999,  184.520004,  -89.669998, 0.000000,  0.000000 
 43089664.000000, -13.622340 , 2.608176, 0.193819, 1468631296.000000, 26.460001,  197.750000,  -82.879997, 0.000000,  0.000000 
 43109120.000000, -11.949757 , 2.151148, 0.930808, 1468651520.000000, 29.889999,  186.830002,  -72.660004, 0.000000,  0.000000 
 43129088.000000, -10.382458 , 2.505285, 1.476372, 1468670976.000000, 16.799999,  166.460007,  -58.310001, 0.000000,  0.000000 
 43149056.000000, -9.769895 , 3.926622, 1.454836, 1468690944.000000, 12.110000,  158.690002,  -42.840000, 0.000000,  0.000000 
 43169280.000000, -10.238889 , 4.450650, 1.459622, 1468710912.000000, 9.030000,  160.930008,  -30.240000, 0.000000,  0.000000 
 43189504.000000, -11.315658 , 3.780660, 1.801795, 1468731136.000000, -21.490000,  171.570007,  -29.049999, 0.000000,  0.000000 
 43208960.000000, -12.102897 , 3.184847, 2.148755, 1468751360.000000, -68.879997,  185.570007,  -29.330000, 0.000000,  0.000000 
 43228928.000000, -13.079168 , 3.019742, 2.524428, 1468770816.000000, -92.330002,  191.380005,  -21.559999, 0.000000,  0.000000 
 43248896.000000, -13.691730 , 2.979064, 2.799603, 1468790784.000000, -99.750000,  199.289993,  -15.610000, 0.000000,  0.000000 
 43269376.000000, -13.679767 , 2.732604, 3.125026, 1468831232.000000, -98.000000,  209.789993,  5.670000, 3730414592.000000,  1005.683044 
 43289600.000000, -13.428520 , 2.333002, 3.531806, 0.000000, 0.000000,  0.000000,  0.000000, 0.000000,  0.000000 
 43308800.000000, -14.325829 , 2.447858, 4.792823, 1468851456.000000, -93.800003,  208.949997,  10.360000, 0.000000,  0.000000 
 43328768.000000, -15.132210 , 2.778067, 7.142576, 1468870656.000000, -72.800003,  213.360001,  11.550000, 0.000000,  0.000000 
 43348992.000000, -15.144175 , 2.835495, 8.724231, 1468890624.000000, -18.760000,  202.930008,  14.560000, 0.000000,  0.000000 
 43369216.000000, -14.658432 , 2.268396, 8.262416, 1468910848.000000, 63.700001,  174.509995,  23.799999, 0.000000,  0.000000 
 43391488.000000, -15.895520 , 2.483750, 9.372685, 1468931072.000000, 135.729996,  132.649994,  29.960001, 0.000000,  0.000000 
 43408896.000000, -15.771093 , 3.998406, 10.372886, 1468953344.000000, 182.559998,  93.660004,  22.820000, 0.000000,  0.000000 
 43428864.000000, -13.706088 , 5.642276, 8.652447, 1468970752.000000, 247.100006,  33.459999,  23.309999, 0.000000,  0.000000 
 43448832.000000, -13.064812 , 7.860423, 5.723632, 1468990720.000000, 315.420013,  -54.040001,  24.430000, 0.000000,  0.000000 
 43469056.000000, -13.390236 , 8.874979, 4.127619, 1469010688.000000, 305.760010,  -108.779999,  38.430000, 0.000000,  0.000000 
 43489280.000000, -13.940585 , 9.004191, 3.945765, 1469030912.000000, 217.350006,  -131.250000,  63.420002, 0.000000,  0.000000 
 43508736.000000, -14.189439 , 8.176274, 3.416951, 1469051136.000000, 124.389999,  -151.270004,  93.519997, 0.000000,  0.000000 
 43528704.000000, -15.802199 , 6.697510, 2.325824, 1469070592.000000, 84.349998,  -167.089996,  113.120003, 0.000000,  0.000000 
 43548672.000000, -19.250257 , 4.929214, 0.997807, 1469090560.000000, 7.000000,  -195.580002,  117.180000, 0.000000,  0.000000 
 43569152.000000, -21.686153 , 3.192025, 0.275175, 1469110528.000000, -64.330002,  -204.610001,  114.590004, 0.000000,  0.000000 
 43589376.000000, -21.712473 , 2.584249, 0.323031, 1469131008.000000, -115.430000,  -219.660004,  104.860001, 0.000000,  0.000000 
 43608832.000000, -19.829321 , 2.263610, -0.035892, 1469151232.000000, -135.380005,  -260.750000,  102.760002, 0.000000,  0.000000 
 43628800.000000, -17.783459 , 1.371087, -1.100698, 1469170688.000000, -128.029999,  -307.579987,  105.279999, 0.000000,  0.000000 
 43648768.000000, -16.340586 , 0.650848, -1.335195, 1469190656.000000, -122.010002,  -328.860016,  96.949997, 0.000000,  0.000000 
 43668992.000000, -15.275781 , 0.940379, -1.349552, 1469210624.000000, -123.199997,  -331.940002,  81.269997, 0.000000,  0.000000 
 43689216.000000, -14.388042 , 0.459422, -1.440479, 1469230848.000000, -115.430000,  -329.630005,  73.360001, 0.000000,  0.000000 
 43708672.000000, -13.495520 , 0.100499, -1.464408, 1469251072.000000, -113.330002,  -318.920013,  63.980000, 0.000000,  0.000000 
 43728640.000000, -12.325430 , 0.385244, -2.189433, 1469270528.000000, -119.000000,  -302.119995,  57.119999, 0.000000,  0.000000 
 43748608.000000, -10.667203 , 0.514457, -3.017349, 1469290496.000000, -118.510002,  -281.820007,  60.970001, 0.000000,  0.000000 
 43768832.000000, -9.152546 , 0.021535, -2.962314, 1469310464.000000, -125.580002,  -259.910004,  60.340000, 0.000000,  0.000000 
 43789312.000000, -8.295916 , -0.476172, -2.419144, 1469330688.000000, -134.330002,  -229.669998,  53.130001, 0.000000,  0.000000 
 43808512.000000, -7.858029 , 0.031107, -2.280360, 1469351168.000000, -127.190002,  -191.169998,  43.470001, 0.000000,  0.000000 
 43828480.000000, -6.891330 , 0.815953, -2.263610, 1469370368.000000, -98.910004,  -154.839996,  38.360001, 0.000000,  0.000000 
 43848704.000000, -5.462814 , 0.710668, -3.115455, 1469390336.000000, -62.299999,  -125.230003,  40.810001, 0.000000,  0.000000 
 43868928.000000, -4.615755 , 0.753739, -2.560320, 1469410560.000000, -40.740002,  -92.050003,  39.130001, 0.000000,  0.000000 
 43889152.000000, -5.838487 , 1.052842, -1.899901, 1469430784.000000, -42.770000,  -47.810001,  28.840000, 0.000000,  0.000000 
 43908608.000000, -7.740781 , 0.823131, -2.517249, 1469451008.000000, -37.029999,  8.680000,  14.700000, 0.000000,  0.000000 
 43928576.000000, -8.939585 , -0.110070, -3.101098, 1469470464.000000, -21.000000,  57.260002,  9.660000, 0.000000,  0.000000 
 43948544.000000, -10.291530 , -0.763310, -2.871387, 1469490432.000000, -4.550000,  95.129997,  12.040000, 0.000000,  0.000000 
 43968768.000000, -12.318252 , -0.760918, -1.806581, 1469510400.000000, 7.070000,  134.610001,  14.630000, 0.000000,  0.000000 
 43988992.000000, -14.189439 , -0.653241, -0.933201, 1469530624.000000, 18.830000,  185.430008,  20.299999, 0.000000,  0.000000 
 44008448.000000, -14.914464 , -0.447458, -0.725025, 1469550848.000000, 37.170002,  222.949997,  25.480000, 0.000000,  0.000000 
 44028416.000000, -15.572490 , -0.323031, -0.756132, 1469570304.000000, 56.770000,  251.160004,  24.500000, 0.000000,  0.000000 
 44048384.000000, -16.788044 , 0.033500, 0.236889, 1469590272.000000, 63.209999,  280.140015,  13.230000, 0.000000,  0.000000 
 44068864.000000, -17.082361 , 1.284946, 3.256632, 1469610240.000000, 61.110001,  307.929993,  -2.870000, 0.000000,  0.000000 
 44089088.000000, -16.130018 , 1.103091, 3.168097, 1469630720.000000, 68.879997,  308.070007,  -21.139999, 0.000000,  0.000000 
 44108544.000000, -15.062819 , 1.122234, 2.273181, 1469650944.000000, 101.500000,  288.820007,  -38.009998, 0.000000,  0.000000 
 44128512.000000, -14.352149 , 3.151347, 0.138784, 1469670400.000000, 126.559998,  254.169998,  -59.290001, 0.000000,  0.000000 
 44148480.000000, -13.064812 , 4.453043, 0.380459, 1469690368.000000, 97.580002,  204.889999,  -68.599998, 0.000000,  0.000000 
 44168704.000000, -11.832507 , 3.232704, 2.155933, 1469710336.000000, -38.500000,  163.940002,  -80.919998, 0.000000,  0.000000 
 44188928.000000, -12.710674 , 0.727418, 3.385844, 1469730560.000000, -199.990005,  154.000000,  -78.889999, 0.000000,  0.000000 
 44208384.000000, -14.273187 , -0.832702, 3.780660, 1469750784.000000, -308.000000,  172.970001,  -67.550003, 0.000000,  0.000000 
 44228352.000000, -14.443078 , -1.878366, 3.672983, 1469770240.000000, -331.589996,  190.889999,  -26.809999, 0.000000,  0.000000 
 44248320.000000, -13.777873 , -2.072184, 3.974478, 1469790208.000000, -286.299988,  187.529999,  22.049999, 0.000000,  0.000000 
 44268800.000000, -13.579268 , -1.442872, 4.630112, 1469830656.000000, -156.309998,  182.279999,  100.309998, 3731414016.000000,  1005.680908 
 44289024.000000, -13.732409 , -1.397408, 5.745167, 0.000000, 0.000000,  0.000000,  0.000000, 0.000000,  0.000000 
 44308224.000000, -14.237295 , -1.787439, 7.219146, 1469850880.000000, -114.449997,  187.460007,  118.510002, 0.000000,  0.000000 
 44328448.000000, -15.404992 , -2.251646, 10.224532, 1469870080.000000, -73.639999,  192.430008,  122.150002, 0.000000,  0.000000 
 44348416.000000, -15.804593 , -3.165704, 12.660425, 1469890304.000000, -20.020000,  194.880005,  115.430000, 0.000000,  0.000000 
 44368640.000000, -14.129619 , -3.897908, 11.344372, 1469910272.000000, 66.570000,  172.970001,  105.629997, 0.000000,  0.000000 
 44390912.000000, -12.856635 , -1.189233, 9.320045, 1469930496.000000, 182.000000,  113.050003,  82.180000, 0.000000,  0.000000 
 44408320.000000, -12.533605 , 2.852244, 9.389436, 1469952768.000000, 240.729996,  41.230000,  34.860001, 0.000000,  0.000000 
 44428288.000000, -13.428520 , 4.103691, 9.434900, 1469970176.000000, 213.710007,  -12.040000,  -2.590000, 0.000000,  0.000000 
 44448256.000000, -14.624931 , 1.785046, 8.736196, 1469990144.000000, 135.660004,  -53.760002,  -29.260000, 0.000000,  0.000000 
 44468736.000000, -14.940784 , 1.143769, 6.668797, 1470010112.000000, 62.720001,  -85.959999,  -39.689999, 0.000000,  0.000000 
 44488960.000000, -14.263616 , 1.505085, 5.103891, 1470030592.000000, 36.680000,  -123.550003,  -23.170000, 0.000000,  0.000000 
 44508160.000000, -14.206188 , 1.311267, 4.249653, 1470050816.000000, 30.100000,  -164.009995,  -6.510000, 0.000000,  0.000000 
 44528128.000000, -15.622739 , 0.792024, 3.172883, 1470070016.000000, 18.620001,  -194.389999,  -3.640000, 0.000000,  0.000000 
 44548096.000000, -17.977276 , 0.464208, 2.663212, 1470089984.000000, 2.240000,  -209.089996,  -7.560000, 0.000000,  0.000000 
 44568576.000000, -18.814764 , 0.555135, 2.155933, 1470130432.000000, -7.630000,  -246.610001,  -18.129999, 0.000000,  0.000000 
 44588800.000000, -17.314465 , 0.722632, 1.619941, 0.000000, 0.000000,  0.000000,  0.000000, 0.000000,  0.000000 
 44608256.000000, -15.792630 , 1.213161, 1.060020, 1470150656.000000, 1.610000,  -278.459991,  -22.190001, 0.000000,  0.000000 
 44628224.000000, -15.060425 , 1.385444, 0.691526, 1470170112.000000, -1.750000,  -293.929993,  -34.650002, 0.000000,  0.000000 
 44648192.000000, -14.258829 , 0.631705, 0.057428, 1470190080.000000, -21.280001,  -298.200012,  -54.599998, 0.000000,  0.000000 
 44668416.000000, -13.105491 , -0.363709, -0.409173, 1470210048.000000, -39.900002,  -300.929993,  -71.470001, 0.000000,  0.000000 
 44688640.000000, -11.942577 , -1.127020, -0.514457, 1470230272.000000, -43.189999,  -299.600006,  -78.330002, 0.000000,  0.000000 
 44708096.000000, -11.050055 , -1.076770, -0.244068, 1470250496.000000, -24.850000,  -290.079987,  -72.800003, 0.000000,  0.000000 
 44728064.000000, -10.332209 , -0.727418, -0.703490, 1470269952.000000, 7.140000,  -274.329987,  -57.889999, 0.000000,  0.000000 
 44748032.000000, -9.841680 , -0.562313, -1.418944, 1470289920.000000, 38.779999,  -255.500000,  -38.220001, 0.000000,  0.000000 
 44768512.000000, -9.272188 , -0.205783, -1.799403, 1470309888.000000, 58.799999,  -227.850006,  -17.710001, 0.000000,  0.000000 
 44788736.000000, -9.372685 , 0.232104, -1.533799, 1470330368.000000, 72.660004,  -197.259995,  7.280000, 0.000000,  0.000000 
 44808192.000000, -10.104890 , 0.574277, -1.414158, 1470350592.000000, 68.949997,  -160.160004,  28.350000, 0.000000,  0.000000 
 44828160.000000, -9.760324 , 0.533599, -2.222932, 1470370048.000000, 43.189999,  -121.730003,  42.139999, 0.000000,  0.000000 
 44848128.000000, -8.274381 , 0.088534, -3.735196, 1470390016.000000, 8.680000,  -98.349998,  52.990002, 0.000000,  0.000000 
 44868352.000000, -7.326823 , -0.392423, -3.232704, 1470409984.000000, -35.840000,  -77.489998,  51.029999, 0.000000,  0.000000 
 44888576.000000, -8.776874 , -0.203390, -2.825923, 1470430208.000000, -87.709999,  -41.790001,  32.759998, 0.000000,  0.000000 
 44908032.000000, -11.258230 , 0.098106, -3.495914, 1470450432.000000, -114.379997,  6.020000,  5.810000, 0.000000,  0.000000 
 44928000.000000, -12.540783 , -0.684347, -1.988436, 1470469888.000000, -113.260002,  57.750000,  -16.870001, 0.000000,  0.000000 
 44947968.000000, -13.737194 , -1.239482, -0.571885, 1470489856.000000, -90.860001,  95.830002,  -21.490000, 0.000000,  0.000000 
 44968192.000000, -14.031512 , -0.370888, -0.552742, 1470509824.000000, -25.969999,  142.520004,  -2.800000, 0.000000,  0.000000 
 44988672.000000, -12.978670 , 0.311067, -0.753739, 1470530048.000000, 49.139999,  180.809998,  27.440001, 0.000000,  0.000000 
 45007872.000000, -13.237095 , 0.990629, -0.387637, 1470550528.000000, 98.840004,  206.919998,  43.189999, 0.000000,  0.000000 
 45027840.000000, -14.431112 , 1.725225, 1.304088, 1470569728.000000, 111.860001,  234.220001,  40.599998, 0.000000,  0.000000 
 45048064.000000, -14.608182 , 2.344966, 2.878566, 1470589696.000000, 98.000000,  254.029999,  31.010000, 0.000000,  0.000000 
 45068288.000000, -13.239488 , 2.400001, 2.806781, 1470609920.000000, 93.800003,  247.660004,  21.350000, 0.000000,  0.000000 
 45088512.000000, -11.708081 , 3.847659, 2.636890, 1470630144.000000, 106.050003,  221.270004,  6.510000, 0.000000,  0.000000 
 45107968.000000, -9.879964 , 4.517649, 1.361516, 1470650368.000000, 113.750000,  189.279999,  0.910000, 0.000000,  0.000000 
 45127936.000000, -8.566305 , 4.570292, 0.815953, 1470669824.000000, 91.910004,  157.220001,  0.210000, 0.000000,  0.000000 
 45147904.000000, -8.762517 , 4.445865, 0.954736, 1470689792.000000, 11.830000,  142.100006,  -4.340000, 0.000000,  0.000000 
 45168128.000000, -10.604989 , 3.290131, 1.421337, 1470709760.000000, -90.860001,  153.509995,  0.980000, 0.000000,  0.000000 
 45188352.000000, -12.787244 , 1.763510, 1.457229, 1470729984.000000, -185.779999,  177.169998,  6.020000, 0.000000,  0.000000 
 45207808.000000, -14.495720 , 0.543171, 1.143769, 1470750208.000000, -245.419998,  194.809998,  16.030001, 0.000000,  0.000000 
 45227776.000000, -14.708681 , -0.279960, 1.768296, 1470769664.000000, -263.059998,  203.979996,  36.889999, 0.000000,  0.000000 
 45247744.000000, -14.033905 , -0.806381, 2.878566, 1470789632.000000, -257.110016,  208.250000,  67.340004, 0.000000,  0.000000 
 45268224.000000, -14.802001 , -1.222732, 4.833502, 1470830080.000000, -193.759995,  237.020004,  123.550003, 3732413440.000000,  1005.677795 
 45288448.000000, -17.745173 , -2.012364, 8.769694, 0.000000, 0.000000,  0.000000,  0.000000, 0.000000,  0.000000 
 45307904.000000, -20.429918 , -4.103691, 13.284950, 1470850304.000000, -119.000000,  256.899994,  142.100006, 0.000000,  0.000000 
 45327872.000000, -17.352751 , -6.419943, 9.832108, 1470869760.000000, 5.180000,  247.729996,  157.430008, 0.000000,  0.000000 
 45347840.000000, -12.794422 , -2.443072, 7.424929, 1470889728.000000, 138.250000,  170.940002,  131.669998, 0.000000,  0.000000 
 45368064.000000, -10.779665 , 3.464807, 6.893722, 1470909696.000000, 211.820007,  65.239998,  80.849998, 0.000000,  0.000000 
 45390336.000000, -10.949556 , 2.801995, 7.724032, 1470929920.000000, 154.350006,  7.000000,  18.549999, 0.000000,  0.000000 
 45407744.000000, -11.921042 , -0.040678, 8.944371, 1470952192.000000, 16.940001,  -12.810000,  -48.369999, 0.000000,  0.000000 
 45427712.000000, -12.059827 , -0.622134, 8.398808, 1470969600.000000, -31.430000,  -22.540001,  -83.019997, 0.000000,  0.000000 
 45447680.000000, -12.500106 , -0.212961, 6.798009, 1470989568.000000, -40.740002,  -52.849998,  -76.510002, 0.000000,  0.000000 
 45467904.000000, -13.533805 , -0.911665, 6.142376, 1471009536.000000, 4.830000,  -81.970001,  -56.490002, 0.000000,  0.000000 
 45488640.000000, -13.962120 , -1.036092, 5.836094, 1471029760.000000, 14.910000,  -99.540001,  -48.930000, 0.000000,  0.000000 
 45507584.000000, -14.481362 , -0.564706, 4.570292, 1471050496.000000, 15.890000,  -118.650002,  -39.549999, 0.000000,  0.000000 
 45527552.000000, -16.034306 , -0.196211, 3.651447, 1471069440.000000, 33.810001,  -151.410004,  -28.770000, 0.000000,  0.000000 
 45547776.000000, -18.089739 , -0.301496, 3.189633, 1471089408.000000, 37.450001,  -174.509995,  -36.259998, 0.000000,  0.000000 
 45568000.000000, -17.639889 , 0.586242, 2.423929, 1471109632.000000, 42.139999,  -197.259995,  -50.470001, 0.000000,  0.000000 
 45588224.000000, -16.383656 , 1.447658, 1.411765, 1471129856.000000, 63.840000,  -240.309998,  -57.680000, 0.000000,  0.000000 
 45607680.000000, -15.900306 , 1.294517, 0.595813, 1471150080.000000, 73.989998,  -272.510010,  -69.230003, 0.000000,  0.000000 
 45627648.000000, -15.290136 , 1.256232, 0.323031, 1471169536.000000, 53.760002,  -284.410004,  -92.680000, 0.000000,  0.000000 
 45647616.000000, -14.591432 , 1.476372, 0.586242, 1471189504.000000, 29.750000,  -295.190002,  -111.510002, 0.000000,  0.000000 
 45667840.000000, -13.744373 , 1.356731, 0.672383, 1471209472.000000, 17.080000,  -303.239990,  -122.080002, 0.000000,  0.000000 
 45688064.000000, -12.739388 , 0.425922, 0.330210, 1471229696.000000, 16.660000,  -307.230011,  -120.820000, 0.000000,  0.000000 
 45707520.000000, -11.643474 , -0.069392, 0.358923, 1471249920.000000, 29.049999,  -302.049988,  -109.900002, 0.000000,  0.000000 
 45727488.000000, -10.688738 , 0.145962, 0.069392, 1471269376.000000, 45.570000,  -287.769989,  -87.709999, 0.000000,  0.000000 
 45747456.000000, -9.741181 , 1.313660, -1.294517, 1471289344.000000, 61.250000,  -267.190002,  -58.939999, 0.000000,  0.000000 
 45767936.000000, -8.267202 , 2.218147, -2.270789, 1471309312.000000, 72.309998,  -242.619995,  -28.700001, 0.000000,  0.000000 
 45788160.000000, -6.637690 , 2.108077, -2.675175, 1471329792.000000, 72.660004,  -217.770004,  -0.770000, 0.000000,  0.000000 
 45807616.000000, -6.070591 , 1.505085, -1.971686, 1471350016.000000, 45.009998,  -188.300003,  18.549999, 0.000000,  0.000000 
 45827584.000000, -6.673582 , 1.107877, -1.677369, 1471369472.000000, -10.010000,  -139.440002,  27.020000, 0.000000,  0.000000 
 45847552.000000, -7.121039 , 0.758525, -1.627119, 1471389440.000000, -61.250000,  -87.500000,  27.510000, 0.000000,  0.000000 
 45867776.000000, -7.319644 , -0.062213, -1.210768, 1471409408.000000, -90.860001,  -46.200001,  26.809999, 0.000000,  0.000000 
 45888000.000000, -8.705089 , -0.866202, -0.875773, 1471429632.000000, -99.610001,  -5.880000,  29.469999, 0.000000,  0.000000 
 45907456.000000, -10.640882 , -1.225125, -1.299303, 1471449856.000000, -91.000000,  46.759998,  30.450001, 0.000000,  0.000000 
 45927424.000000, -12.559926 , -1.335195, -2.203789, 1471469312.000000, -55.860001,  93.870003,  39.410000, 0.000000,  0.000000 
 45947392.000000, -13.026526 , -1.737189, -1.835295, 1471489280.000000, -11.550000,  136.149994,  56.139999, 0.000000,  0.000000 
 45968384.000000, -12.942777 , -1.471586, -1.014557, 1471509248.000000, 17.219999,  167.860001,  72.029999, 0.000000,  0.000000 
 45988096.000000, -13.962120 , -0.339781, -0.239282, 1471530240.000000, 33.810001,  200.690002,  82.110001, 0.000000,  0.000000 
 46008064.000000, -14.991035 , -0.373280, -0.971486, 1471549952.000000, 42.279999,  237.020004,  81.620003, 0.000000,  0.000000 
 46027776.000000, -14.756538 , -0.808774, -0.459422, 1471569920.000000, 45.360001,  258.720001,  70.910004, 0.000000,  0.000000 
 46047744.000000, -13.832907 , -0.210568, 1.493121, 1471589632.000000, 37.590000,  262.709991,  50.540001, 0.000000,  0.000000 
 46068224.000000, -14.105689 , 0.835095, 3.373880, 1471609600.000000, 47.810001,  257.809998,  33.459999, 0.000000,  0.000000 
 46088448.000000, -14.024333 , 0.732204, 2.510071, 1471630080.000000, 78.050003,  251.440002,  7.140000, 0.000000,  0.000000 
 46108160.000000, -12.516854 , 1.040878, 0.715454, 1471650304.000000, 114.169998,  236.740005,  -10.220000, 0.000000,  0.000000 
 46128128.000000, -10.736595 , 1.773082, -0.411566, 1471670016.000000, 126.699997,  204.259995,  -14.210000, 0.000000,  0.000000 
 46148096.000000, -9.915856 , 2.254039, -0.129212, 1471689984.000000, 92.190002,  180.809998,  -12.880000, 0.000000,  0.000000 
 46168576.000000, -10.997414 , 1.964507, 0.985843, 1471709952.000000, 17.570000,  181.789993,  -12.180000, 0.000000,  0.000000 
 46188800.000000, -12.949955 , 1.361516, 1.852045, 1471730432.000000, -66.220001,  202.369995,  -15.890000, 0.000000,  0.000000 
 46208256.000000, -14.287544 , 0.636491, 2.206182, 1471750656.000000, -120.680000,  220.919998,  -10.150000, 0.000000,  0.000000 
 46228224.000000, -14.182260 , 0.021535, 2.644069, 1471770112.000000, -132.229996,  225.680008,  5.600000, 0.000000,  0.000000 
 46248192.000000, -14.234902 , -0.138784, 3.582055, 1471790080.000000, -117.389999,  223.649994,  30.940001, 0.000000,  0.000000 
 46268672.000000, -14.895321 , 0.356531, 4.931608, 1471810048.000000, -96.599998,  228.550003,  51.099998, 0.000000,  0.000000 
 46288896.000000, -15.378671 , 1.277767, 6.441479, 1471830528.000000, -70.629997,  234.430008,  63.560001, 3733413888.000000,  1005.674927 
 46308096.000000, -15.464812 , 1.261017, 8.367701, 1471850752.000000, -36.889999,  224.839996,  65.449997, 0.000000,  0.000000 
 46329344.000000, -14.782858 , 0.442672, 10.238889, 1471869952.000000, 0.560000,  202.160004,  57.540001, 0.000000,  0.000000 
 46349312.000000, -13.287343 , 0.425922, 8.989835, 1471891200.000000, 52.570000,  158.690002,  46.340000, 0.000000,  0.000000 
 46369536.000000, -12.524034 , 2.519642, 7.082755, 1471911168.000000, 102.760002,  93.519997,  26.740000, 0.000000,  0.000000 
 46391808.000000, -13.720445 , 4.285545, 5.601598, 1471931392.000000, 131.600006,  37.590000,  6.300000, 0.000000,  0.000000 
 46409216.000000, -15.658630 , 4.012764, 4.957928, 1471953664.000000, 131.740005,  2.100000,  -8.540000, 0.000000,  0.000000 
 46429184.000000, -16.565512 , 2.981457, 4.469792, 1471971072.000000, 100.660004,  -27.020000,  -17.430000, 0.000000,  0.000000 
 46449152.000000, -15.677773 , 2.407180, 3.218346, 1471991040.000000, 70.349998,  -67.760002,  -5.390000, 0.000000,  0.000000 
 46469632.000000, -13.210773 , 2.218147, 2.053042, 1472011008.000000, 51.730000,  -117.459999,  20.230000, 0.000000,  0.000000 
 46489856.000000, -12.208181 , 1.945365, 1.679761, 1472031488.000000, 29.889999,  -166.949997,  38.570000, 0.000000,  0.000000 
 46509312.000000, -13.404593 , 1.337588, 1.820938, 1472051712.000000, 2.100000,  -192.220001,  40.320000, 0.000000,  0.000000 
 46529280.000000, -15.524633 , 1.234696, 1.892723, 1472071168.000000, -17.500000,  -195.860001,  30.100000, 0.000000,  0.000000 
 46549248.000000, -16.682758 , 1.663012, 1.744368, 1472091136.000000, -16.590000,  -204.750000,  19.879999, 0.000000,  0.000000 
 46569728.000000, -15.795023 , 2.522035, 0.947558, 1472111104.000000, -6.020000,  -230.089996,  12.320000, 0.000000,  0.000000 
 46589696.000000, -13.701303 , 2.196611, 0.287139, 1472131584.000000, -5.740000,  -264.040009,  8.190000, 0.000000,  0.000000 
 46609152.000000, -12.167502 , 2.048256, 0.220140, 1472151552.000000, -24.150000,  -288.470001,  -2.170000, 0.000000,  0.000000 
 46629120.000000, -11.274981 , 1.909473, 0.169890, 1472171008.000000, -47.740002,  -297.779999,  -17.080000, 0.000000,  0.000000 
 46649088.000000, -10.535598 , 1.469193, 0.337388, 1472190976.000000, -59.709999,  -299.179993,  -27.510000, 0.000000,  0.000000 
 46669568.000000, -9.731609 , 0.691526, 0.337388, 1472210944.000000, -62.020000,  -297.989990,  -34.160000, 0.000000,  0.000000 
 46689792.000000, -9.250652 , -0.193819, -0.256032, 1472231424.000000, -54.670002,  -288.890015,  -29.469999, 0.000000,  0.000000 
 46708992.000000, -9.209974 , -0.801596, -0.007178, 1472251648.000000, -44.590000,  -266.769989,  -19.740000, 0.000000,  0.000000 
 46728960.000000, -9.628718 , -1.098306, 1.038485, 1472270848.000000, -29.750000,  -234.500000,  -3.080000, 0.000000,  0.000000 
 46748928.000000, -10.643275 , -1.167697, 1.744368, 1472290816.000000, -6.020000,  -198.380005,  16.730000, 0.000000,  0.000000 
 46769408.000000, -12.026326 , -0.863809, 1.304088, 1472310784.000000, 27.580000,  -163.240005,  36.750000, 0.000000,  0.000000 
 46789632.000000, -12.930815 , -0.842274, 0.313460, 1472331264.000000, 57.889999,  -129.710007,  55.790001, 0.000000,  0.000000 
 46809088.000000, -12.765708 , -1.002593, -1.899901, 1472351488.000000, 72.099998,  -99.750000,  68.809998, 0.000000,  0.000000 
 46829056.000000, -10.951948 , -0.588634, -4.089334, 1472390912.000000, 46.759998,  -82.879997,  66.290001, 0.000000,  0.000000 
 46849024.000000, -9.399008 , 0.172283, -4.240082, 0.000000, 0.000000,  0.000000,  0.000000, 0.000000,  0.000000 
 46869248.000000, -8.798409 , 0.315853, -4.747360, 1472410880.000000, 0.140000,  -68.040001,  46.759998, 0.000000,  0.000000 
 46889472.000000, -10.214959 , -0.090927, -4.668397, 1472431104.000000, -57.049999,  -40.810001,  11.130000, 0.000000,  0.000000 
 46908928.000000, -13.143774 , -0.198604, -2.610569, 1472451328.000000, -112.559998,  12.950000,  -29.469999, 0.000000,  0.000000 
 46928896.000000, -14.653646 , -0.040678, -1.060020, 1472470784.000000, -127.820000,  68.669998,  -52.990002, 0.000000,  0.000000 
 46948864.000000, -12.191431 , -0.835095, -0.591027, 1472490752.000000, -98.000000,  98.699997,  -43.400002, 0.000000,  0.000000 
 46969088.000000, -10.470992 , -0.251246, -0.902094, 1472510720.000000, -59.570000,  118.860001,  -17.150000, 0.000000,  0.000000 
 46989568.000000, -11.490334 , 2.038685, -1.701297, 1472530944.000000, -25.690001,  159.250000,  1.260000, 0.000000,  0.000000 
 47008768.000000, -13.079168 , 3.201597, 0.224925, 1472551424.000000, -9.450000,  206.360001,  4.480000, 0.000000,  0.000000 
 47028736.000000, -14.945570 , 1.646262, 1.696511, 1472570624.000000, -9.800000,  235.199997,  -4.970000, 0.000000,  0.000000 
 47048704.000000, -15.586846 , 0.212961, 1.435694, 1472590592.000000, 34.160000,  242.759995,  -4.410000, 0.000000,  0.000000 
 47069184.000000, -12.375679 , 1.672583, 0.703490, 1472610560.000000, 90.510002,  225.470001,  11.760000, 0.000000,  0.000000 
 47089408.000000, -8.812766 , 4.137190, -0.057428, 1472631040.000000, 129.919998,  185.149994,  52.290001, 0.000000,  0.000000 
 47108864.000000, -8.181061 , 5.048856, -0.435494, 1472651264.000000, 182.139999,  159.320007,  79.800003, 0.000000,  0.000000 
 47128832.000000, -9.054441 , 4.852644, -0.244068, 1472670720.000000, 174.720001,  166.809998,  47.880001, 0.000000,  0.000000 
 47148800.000000, -10.478169 , 3.708875, 0.002393, 1472690688.000000, 88.550003,  188.580002,  14.910000, 0.000000,  0.000000 
 47169024.000000, -11.916256 , 1.986043, 0.902094, 1472710656.000000, -22.330000,  208.809998,  -7.840000, 0.000000,  0.000000 
 47189248.000000, -12.646068 , 1.399801, 1.447658, 1472730880.000000, -110.669998,  225.750000,  -23.379999, 0.000000,  0.000000 
 47208704.000000, -12.949955 , 1.081556, 1.964507, 1472751104.000000, -141.190002,  234.430008,  -14.560000, 0.000000,  0.000000 
 47228672.000000, -13.708481 , 0.988236, 2.557927, 1472770560.000000, -139.509995,  243.809998,  -2.310000, 0.000000,  0.000000 
 47248640.000000, -15.113067 , 1.110270, 3.720839, 1472790528.000000, -124.739998,  259.839996,  8.610000, 0.000000,  0.000000 
 47269120.000000, -16.981861 , 1.361516, 6.034698, 1472830976.000000, -35.420002,  270.059998,  33.529999, 3734414336.000000,  1005.673401 
 47289344.000000, -17.740387 , 1.497907, 8.394022, 0.000000, 0.000000,  0.000000,  0.000000, 0.000000,  0.000000 
 47308800.000000, -15.838093 , 1.631905, 8.238488, 1472851200.000000, 50.049999,  242.759995,  51.939999, 0.000000,  0.000000 
 47328768.000000, -13.744373 , 3.471986, 5.553742, 1472870656.000000, 133.490005,  179.550003,  63.840000, 0.000000,  0.000000 
 47348736.000000, -13.263416 , 6.948757, 5.173282, 1472890624.000000, 159.529999,  102.340004,  49.000000, 0.000000,  0.000000 
 47368960.000000, -13.261024 , 6.620940, 6.606583, 1472910592.000000, 101.709999,  44.310001,  14.140000, 0.000000,  0.000000 
 47391232.000000, -14.024333 , 3.220739, 7.645068, 1472930816.000000, -10.570000,  1.960000,  -21.139999, 0.000000,  0.000000 
 47408640.000000, -13.904692 , 1.808974, 6.496514, 1472953088.000000, -64.190002,  -24.850000,  -28.420000, 0.000000,  0.000000 
 47428608.000000, -12.078968 , 3.067599, 4.539185, 1472970496.000000, -16.030001,  -70.629997,  -4.690000, 0.000000,  0.000000 
 47448576.000000, -10.939985 , 4.094120, 3.416951, 1472990464.000000, 53.619999,  -122.849998,  22.190001, 0.000000,  0.000000 
 47468800.000000, -11.753544 , 3.464807, 3.031706, 1473010432.000000, 71.120003,  -155.820007,  26.320000, 0.000000,  0.000000 
 47489280.000000, -14.347364 , 2.924029, 2.849852, 1473030656.000000, 43.259998,  -167.930008,  21.980000, 0.000000,  0.000000 
 47508480.000000, -17.103895 , 3.201597, 2.481357, 1473051136.000000, 22.680000,  -172.899994,  17.920000, 0.000000,  0.000000 
 47528448.000000, -17.386250 , 3.787838, 1.141376, 1473070336.000000, 28.280001,  -191.589996,  16.870001, 0.000000,  0.000000 
 47548416.000000, -15.184854 , 3.342773, 0.212961, 1473090304.000000, 33.880001,  -231.910004,  23.170000, 0.000000,  0.000000 
 47568896.000000, -13.641481 , 3.175276, 0.026321, 1473110272.000000, 9.240000,  -274.470001,  22.889999, 0.000000,  0.000000 
 47589120.000000, -13.019348 , 3.294917, -0.186640, 1473130752.000000, -31.219999,  -297.570007,  9.940000, 0.000000,  0.000000 
 47608576.000000, -12.705888 , 2.675175, -0.354138, 1473150976.000000, -72.660004,  -311.640015,  -8.330000, 0.000000,  0.000000 
 47628544.000000, -12.306287 , 1.459622, -0.308674, 1473170432.000000, -114.800003,  -319.130005,  -29.400000, 0.000000,  0.000000 
 47648512.000000, -11.925828 , 0.588634, 0.090927, 1473190400.000000, -137.619995,  -316.470001,  -45.430000, 0.000000,  0.000000 
 47668736.000000, -11.734402 , 0.303888, 0.602991, 1473210368.000000, -132.720001,  -304.010010,  -54.529999, 0.000000,  0.000000 
 47688960.000000, -11.507084 , -0.093320, 0.693919, 1473230592.000000, -118.720001,  -287.000000,  -52.570000, 0.000000,  0.000000 
 47708416.000000, -10.846665 , -0.114855, -0.200997, 1473250816.000000, -72.870003,  -277.200012,  -47.040001, 0.000000,  0.000000 
 47728384.000000, -9.958927 , 0.263210, -0.480957, 1473270272.000000, -19.670000,  -256.269989,  -28.139999, 0.000000,  0.000000 
 47748352.000000, -9.530612 , 0.643669, -1.572084, 1473290240.000000, 26.670000,  -231.559998,  -3.850000, 0.000000,  0.000000 
 47768832.000000, -8.896514 , 2.072184, -2.093720, 1473310208.000000, 51.310001,  -204.750000,  15.540000, 0.000000,  0.000000 
 47789056.000000, -8.494520 , 2.065006, -2.512464, 1473330688.000000, 45.990002,  -169.889999,  29.120001, 0.000000,  0.000000 
 47808512.000000, -7.554141 , 1.536192, -2.330609, 1473350912.000000, 9.380000,  -134.750000,  35.910000, 0.000000,  0.000000 
 47828480.000000, -7.458428 , 0.947558, -1.569692, 1473370368.000000, -40.950001,  -93.239998,  38.290001, 0.000000,  0.000000 
 47848448.000000, -8.755339 , 0.220140, -1.227518, 1473390336.000000, -77.349998,  -45.500000,  35.209999, 0.000000,  0.000000 
 47868672.000000, -11.016556 , -0.725025, -2.694318, 1473410304.000000, -90.510002,  7.490000,  34.439999, 0.000000,  0.000000 
 47888896.000000, -13.124631 , -1.600798, -4.285545, 1473430528.000000, -88.340004,  59.500000,  34.439999, 0.000000,  0.000000 
 47908352.000000, -12.789637 , -2.009971, -3.993621, 1473450752.000000, -87.709999,  105.209999,  35.209999, 0.000000,  0.000000 
 47928320.000000, -12.978670 , -0.990629, -2.545963, 1473470208.000000, -90.230003,  138.809998,  37.660000, 0.000000,  0.000000 
 47948288.000000, -14.208582 , -0.382852, -2.651247, 1473490176.000000, -80.919998,  182.279999,  44.799999, 0.000000,  0.000000 
 47968768.000000, -14.419148 , -0.516850, -0.270389, 1473510144.000000, -74.129997,  228.550003,  48.860001, 0.000000,  0.000000 
 47989760.000000, -14.976677 , -0.102891, -1.098306, 1473530624.000000, -75.879997,  252.559998,  48.860001, 0.000000,  0.000000 
 48008448.000000, -15.139388 , 0.296710, 0.969093, 1473551616.000000, -34.580002,  271.880005,  51.170002, 0.000000,  0.000000 
 48029184.000000, -16.950754 , 0.574277, 3.129812, 1473570304.000000, 20.299999,  280.070007,  37.310001, 0.000000,  0.000000 
 48049152.000000, -16.170694 , 1.052842, 1.725225, 1473591040.000000, 102.900002,  279.299988,  15.190001, 0.000000,  0.000000 
 48069376.000000, -12.748959 , 2.426322, -0.133998, 1473611008.000000, 187.949997,  250.669998,  16.520000, 0.000000,  0.000000 
 48089856.000000, -10.152746 , 3.608376, -0.406780, 1473631232.000000, 223.930008,  195.089996,  15.610000, 0.000000,  0.000000 
 48109056.000000, -9.683753 , 3.775874, 0.526421, 1473651712.000000, 191.520004,  168.699997,  3.780000, 0.000000,  0.000000 
 48129536.000000, -10.387242 , 3.493521, 1.115055, 1473670912.000000, 120.260002,  176.470001,  -16.379999, 0.000000,  0.000000 
 48149504.000000, -11.581261 , 2.754139, 1.696511, 1473691392.000000, 50.750000,  189.490005,  -36.750000, 0.000000,  0.000000 
 48169728.000000, -13.198811 , 1.942972, 2.701497, 1473711360.000000, 4.550000,  197.680008,  -49.139999, 0.000000,  0.000000 
 48190208.000000, -13.682159 , 1.753939, 3.081956, 1473731584.000000, -30.870001,  202.440002,  -51.799999, 0.000000,  0.000000 
 48209408.000000, -13.064812 , 2.469393, 3.026921, 1473752064.000000, -44.730000,  203.279999,  -27.650000, 0.000000,  0.000000 
 48229888.000000, -12.909278 , 2.435893, 3.893122, 1473771264.000000, -37.590000,  202.440002,  3.220000, 0.000000,  0.000000 
 48249856.000000, -13.186846 , 2.431108, 5.367101, 1473791744.000000, -34.509998,  209.720001,  16.379999, 0.000000,  0.000000 
 48270080.000000, -14.146368 , 3.002992, 7.176075, 1473811712.000000, -25.900000,  212.869995,  23.030001, 0.000000,  0.000000 
 48290304.000000, -15.007784 , 3.294917, 9.195618, 1473831936.000000, 6.930000,  208.180008,  29.120001, 3735415296.000000,  1005.670166 
 48309760.000000, -14.122439 , 2.928815, 8.762517, 1473852160.000000, 63.840000,  185.430008,  38.080002, 0.000000,  0.000000 
 48329472.000000, -13.581660 , 3.081956, 7.372287, 1473871616.000000, 130.759995,  130.619995,  46.130001, 0.000000,  0.000000 
 48350720.000000, -13.794623 , 4.845466, 7.039684, 1473891328.000000, 171.850006,  70.000000,  42.279999, 0.000000,  0.000000 
 48371200.000000, -12.780065 , 6.297909, 7.051648, 1473912576.000000, 166.389999,  13.510000,  30.450001, 0.000000,  0.000000 
 48393472.000000, -13.335200 , 6.070591, 6.967900, 1473933056.000000, 138.880005,  -50.330002,  26.809999, 0.000000,  0.000000 
 48410880.000000, -15.074783 , 4.465007, 6.044270, 1473955328.000000, 108.080002,  -87.430000,  22.750000, 0.000000,  0.000000 
 48430848.000000, -16.053448 , 3.127419, 4.816752, 1473972736.000000, 85.959999,  -112.209999,  30.380001, 0.000000,  0.000000 
 48450816.000000, -16.479370 , 2.677568, 3.282953, 1473992704.000000, 76.300003,  -147.279999,  49.000000, 0.000000,  0.000000 
 48471040.000000, -16.816757 , 2.459821, 1.902294, 1474012672.000000, 77.629997,  -179.270004,  77.279999, 0.000000,  0.000000 
 48491264.000000, -18.465412 , 2.344966, 1.390230, 1474032896.000000, 75.180000,  -206.220001,  102.340004, 0.000000,  0.000000 
 48510720.000000, -20.944376 , 2.648855, 0.433101, 1474053120.000000, 62.510002,  -215.389999,  118.440002, 0.000000,  0.000000 
 48530688.000000, -20.853449 , 2.818745, -0.667598, 1474072576.000000, 48.230000,  -218.889999,  133.350006, 0.000000,  0.000000 
 48550656.000000, -18.965511 , 2.251646, -1.751546, 1474092544.000000, 17.150000,  -250.110001,  144.270004, 0.000000,  0.000000 
 48570880.000000, -17.682961 , 1.430908, -2.017149, 1474112512.000000, -41.930000,  -277.760010,  143.850006, 0.000000,  0.000000 
 48591360.000000, -16.364515 , 1.548156, -2.007578, 1474132736.000000, -115.500000,  -288.049988,  124.320000, 0.000000,  0.000000 
 48610560.000000, -14.943177 , 1.268196, -2.009971, 1474153216.000000, -179.130005,  -302.329987,  95.690002, 0.000000,  0.000000 
 48630784.000000, -13.488340 , 0.050249, -1.428515, 1474172416.000000, -224.000000,  -316.820007,  56.560001, 0.000000,  0.000000 
 48650752.000000, -12.157932 , -1.143769, -0.248854, 1474192640.000000, -247.380005,  -318.220001,  17.990000, 0.000000,  0.000000 
 48670976.000000, -11.169697 , -1.459622, 0.294317, 1474212608.000000, -238.070007,  -313.950012,  -10.290000, 0.000000,  0.000000 
 48691200.000000, -10.923235 , -1.782653, -0.248854, 1474232832.000000, -194.809998,  -302.750000,  -19.320000, 0.000000,  0.000000 
 48710656.000000, -10.597812 , -1.380659, -1.801795, 1474253056.000000, -137.830002,  -279.649994,  -16.940001, 0.000000,  0.000000 
 48730624.000000, -8.982656 , -0.263210, -2.658426, 1474272512.000000, -85.050003,  -255.710007,  -7.700000, 0.000000,  0.000000 
 48750592.000000, -6.831509 , 0.172283, -2.660819, 1474292480.000000, -43.049999,  -238.770004,  12.110000, 0.000000,  0.000000 
 48770816.000000, -5.888737 , 0.504886, -2.242075, 1474312448.000000, -27.440001,  -219.729996,  21.980000, 0.000000,  0.000000 
 48791296.000000, -5.699703 , 0.902094, -2.617748, 1474332672.000000, -37.520000,  -173.039993,  23.450001, 0.000000,  0.000000 
 48810496.000000, -5.888737 , 0.488136, -2.612962, 1474353152.000000, -56.139999,  -125.090004,  24.290001, 0.000000,  0.000000 
 48830464.000000, -7.877172 , -0.136391, -1.605584, 1474372352.000000, -85.050003,  -77.209999,  21.280001, 0.000000,  0.000000 
 48850432.000000, -9.820145 , 0.047856, -0.959522, 1474392320.000000, -111.650002,  -15.330000,  10.500000, 0.000000,  0.000000 
 48870912.000000, -9.190832 , 0.177069, -2.565106, 1474412288.000000, -102.550003,  34.790001,  3.990000, 0.000000,  0.000000 
 48891136.000000, -8.700303 , -0.155533, -3.692125, 1474432768.000000, -60.900002,  53.060001,  14.840000, 0.000000,  0.000000 
 48910336.000000, -10.250853 , -0.658026, -2.055435, 1474452992.000000, -33.599998,  93.239998,  11.760000, 0.000000,  0.000000 
 48930560.000000, -13.117454 , -0.698704, -0.760918, 1474472192.000000, -14.770000,  149.869995,  7.070000, 0.000000,  0.000000 
 48950528.000000, -13.942977 , -0.203390, -0.385244, 1474492416.000000, 14.490000,  205.660004,  12.110000, 0.000000,  0.000000 
 48970752.000000, -13.294522 , 0.421137, -0.497707, 1474512384.000000, 43.889999,  237.229996,  22.469999, 0.000000,  0.000000 
 48990976.000000, -14.696717 , -0.009571, 0.708275, 1474532608.000000, 52.080002,  258.510010,  25.620001, 0.000000,  0.000000 
 49010432.000000, -16.115660 , -1.607977, 2.883351, 1474552832.000000, 31.290001,  297.429993,  13.650000, 0.000000,  0.000000 
 49030400.000000, -15.306887 , -2.282753, 3.893122, 1474572288.000000, 25.620001,  320.390015,  14.350000, 0.000000,  0.000000 
 49050368.000000, -14.148761 , -0.476172, 4.022335, 1474592256.000000, 82.529999,  309.820007,  23.309999, 0.000000,  0.000000 
 49070592.000000, -14.184652 , 3.491128, 2.311467, 1474612224.000000, 175.279999,  283.989990,  24.639999, 0.000000,  0.000000 
 49090816.000000, -13.110275 , 6.439085, -0.557528, 1474632448.000000, 228.270004,  247.940002,  7.210000, 0.000000,  0.000000 
 49110272.000000, -11.418550 , 6.506085, -0.988236, 1474652672.000000, 179.339996,  203.419998,  -11.270000, 0.000000,  0.000000 
 49130240.000000, -11.631511 , 4.151547, 0.751346, 1474672128.000000, 35.349998,  181.789993,  -28.630001, 0.000000,  0.000000 
 49150208.000000, -13.763516 , 1.301696, 2.792424, 1474692096.000000, -126.279999,  203.350006,  -31.710001, 0.000000,  0.000000 
 49170688.000000, -15.428921 , 0.057428, 3.866802, 1474712064.000000, -224.210007,  230.649994,  -15.190001, 0.000000,  0.000000 
 49190912.000000, -15.854843 , -0.464208, 4.304688, 1474732544.000000, -225.820007,  231.839996,  15.820000, 0.000000,  0.000000 
 49210368.000000, -15.270994 , -0.574277, 5.022535, 1474752768.000000, -167.020004,  218.680008,  45.500000, 0.000000,  0.000000 
 49230336.000000, -15.251851 , 0.081356, 5.742774, 1474772224.000000, -106.330002,  210.770004,  69.019997, 0.000000,  0.000000 
 49250304.000000, -15.742380 , 0.646062, 6.740582, 1474812160.000000, -16.799999,  212.240005,  87.709999, 0.000000,  0.000000 
 49270528.000000, -15.184854 , 0.698704, 8.039884, 1474832384.000000, 29.400000,  189.350006,  80.150002, 3736416000.000000,  1005.673157 
 49290752.000000, -14.397614 , 1.292124, 8.889337, 0.000000, 0.000000,  0.000000,  0.000000, 0.000000,  0.000000 
 49310208.000000, -13.684553 , 1.942972, 8.293523, 1474852608.000000, 86.730003,  154.419998,  67.410004, 0.000000,  0.000000 
 49330176.000000, -13.110275 , 2.689533, 7.025328, 1474872064.000000, 139.720001,  108.360001,  47.810001, 0.000000,  0.000000 
 49350144.000000, -13.210773 , 3.842873, 5.264209, 1474892032.000000, 154.910004,  53.270000,  19.740000, 0.000000,  0.000000 
 49370368.000000, -13.435699 , 4.347759, 4.220939, 1474912000.000000, 114.730003,  5.390000,  -5.320000, 0.000000,  0.000000 
 49392640.000000, -13.694124 , 2.615355, 3.797409, 1474932224.000000, 33.880001,  -36.470001,  -16.450001, 0.000000,  0.000000 
 49410048.000000, -14.117653 , 0.586242, 3.077170, 1474954496.000000, -43.540001,  -66.290001,  -13.370000, 0.000000,  0.000000 
 49430016.000000, -13.938192 , 0.189033, 2.969493, 1474971904.000000, -79.169998,  -100.309998,  -5.880000, 0.000000,  0.000000 
 49450240.000000, -12.933208 , 0.282353, 3.306881, 1474991872.000000, -76.860001,  -136.710007,  4.060000, 0.000000,  0.000000 
 49470464.000000, -12.545568 , -0.212961, 3.639483, 1475012096.000000, -68.739998,  -170.520004,  10.430000, 0.000000,  0.000000 
 49490688.000000, -13.708481 , -0.574277, 3.589234, 1475032320.000000, -74.199997,  -183.820007,  8.470000, 0.000000,  0.000000 
 49510144.000000, -14.581861 , -1.007378, 3.388237, 1475052544.000000, -77.840004,  -180.250000,  -2.520000, 0.000000,  0.000000 
 49530112.000000, -14.100904 , -0.552742, 3.498307, 1475072000.000000, -60.480000,  -188.089996,  -19.389999, 0.000000,  0.000000 
 49550080.000000, -13.057633 , 1.282553, 2.878566, 1475091968.000000, -17.290001,  -211.470001,  -38.990002, 0.000000,  0.000000 
 49570304.000000, -12.236896 , 1.962115, 0.746561, 1475111936.000000, 28.139999,  -239.399994,  -57.750000, 0.000000,  0.000000 
 49590528.000000, -11.368300 , 0.885344, -0.246461, 1475132160.000000, 37.939999,  -259.000000,  -80.779999, 0.000000,  0.000000 
 49609984.000000, -10.968699 , 0.279960, 0.380459, 1475152384.000000, 5.950000,  -273.350006,  -106.680000, 0.000000,  0.000000 
 49629952.000000, -11.595619 , 1.390230, 1.380659, 1475171840.000000, -16.660000,  -277.130005,  -120.959999, 0.000000,  0.000000 
 49649920.000000, -11.724831 , 0.882952, 0.394816, 1475191808.000000, -15.820000,  -274.399994,  -112.000000, 0.000000,  0.000000 
 49670400.000000, -10.741381 , -0.299103, -0.466600, 1475211776.000000, -11.270000,  -271.739990,  -95.410004, 0.000000,  0.000000 
 49690624.000000, -9.638289 , -0.083749, -1.612763, 1475232256.000000, -18.969999,  -265.720001,  -73.779999, 0.000000,  0.000000 
 49710080.000000, -8.793623 , 0.830309, -1.938186, 1475252480.000000, -10.010000,  -242.339996,  -42.630001, 0.000000,  0.000000 
 49730048.000000, -8.417950 , 1.004985, -1.471586, 1475271936.000000, -0.210000,  -208.529999,  -10.920000, 0.000000,  0.000000 
 49750016.000000, -9.145369 , 0.780060, -1.158126, 1475291904.000000, -3.850000,  -172.270004,  8.330000, 0.000000,  0.000000 
 49770240.000000, -10.138390 , 0.665205, -1.473979, 1475311872.000000, -20.299999,  -127.120003,  20.020000, 0.000000,  0.000000 
 49790464.000000, -9.645468 , 0.244068, -1.361516, 1475332096.000000, -41.160000,  -81.199997,  27.930000, 0.000000,  0.000000 
 49809920.000000, -8.140383 , 0.047856, -0.373280, 1475352320.000000, -53.830002,  -50.540001,  30.030001, 0.000000,  0.000000 
 49829888.000000, -8.767302 , 0.545564, -0.267996, 1475371776.000000, -43.330002,  -23.450001,  26.740000, 0.000000,  0.000000 
 49849856.000000, -11.976077 , 0.969093, -2.117648, 1475391744.000000, -5.320000,  24.639999,  23.030001, 0.000000,  0.000000 
 49870080.000000, -14.584253 , 0.088534, -3.165704, 1475411712.000000, 33.950001,  86.800003,  24.570000, 0.000000,  0.000000 
 49890560.000000, -14.450255 , -0.559920, -3.663411, 1475431936.000000, 43.119999,  130.830002,  28.280001, 0.000000,  0.000000 
 49909760.000000, -13.241880 , 0.468993, -2.971886, 1475452416.000000, 39.759998,  144.830002,  40.389999, 0.000000,  0.000000 
 49929984.000000, -14.019548 , 0.160319, -2.201397, 1475471616.000000, 22.190001,  166.110001,  57.260002, 0.000000,  0.000000 
 49949952.000000, -14.766108 , -0.677169, -1.780260, 1475491840.000000, -9.030000,  203.699997,  55.439999, 0.000000,  0.000000 
 49970176.000000, -14.053047 , -0.832702, -1.153341, 1475511808.000000, -26.600000,  223.580002,  45.150002, 0.000000,  0.000000 
 49990400.000000, -13.646267 , -0.624527, -0.093320, 1475532032.000000, -3.640000,  226.449997,  39.689999, 0.000000,  0.000000 
 50010624.000000, -13.624733 , -0.655633, 0.586242, 1475552256.000000, 50.119999,  231.419998,  23.100000, 0.000000,  0.000000 
 50029824.000000, -12.772887 , -0.691526, 0.935594, 1475572480.000000, 114.379997,  231.979996,  3.010000, 0.000000,  0.000000 
 50050816.000000, -11.169697 , 0.102891, 0.392423, 1475591680.000000, 175.000000,  218.470001,  -9.940000, 0.000000,  0.000000 
 50071040.000000, -9.573684 , 1.038485, -0.423530, 1475612672.000000, 214.690002,  192.149994,  -17.010000, 0.000000,  0.000000 
 50091264.000000, -8.788837 , 1.490728, -0.674776, 1475632896.000000, 205.449997,  171.570007,  -28.350000, 0.000000,  0.000000 
 50110720.000000, -9.817751 , 1.816152, 0.090927, 1475653120.000000, 149.380005,  170.520004,  -44.869999, 0.000000,  0.000000 
 50130688.000000, -11.925828 , 2.469393, 0.780060, 1475672576.000000, 79.519997,  186.479996,  -62.020000, 0.000000,  0.000000 
 50151168.000000, -13.268202 , 2.522035, 1.323231, 1475692544.000000, 29.260000,  198.169998,  -67.550003, 0.000000,  0.000000 
 50171392.000000, -13.359130 , 2.311467, 2.392823, 1475713024.000000, -6.720000,  194.669998,  -63.910000, 0.000000,  0.000000 
 50191616.000000, -13.670196 , 3.634698, 3.294917, 1475733248.000000, -46.549999,  190.750000,  -54.459999, 0.000000,  0.000000 
 50211072.000000, -14.261222 , 4.716253, 4.644469, 1475753472.000000, -99.400002,  199.850006,  -42.490002, 0.000000,  0.000000 
 50231040.000000, -15.223137 , 2.524428, 6.585048, 1475772928.000000, -174.440002,  207.130005,  -35.630001, 0.000000,  0.000000 
 50251520.000000, -15.821342 , -0.677169, 9.128618, 1475792896.000000, -234.570007,  203.699997,  -30.030001, 0.000000,  0.000000 
 50271744.000000, -14.840286 , -1.478764, 10.423136, 1475833600.000000, -84.139999,  105.769997,  -1.960000, 3737416960.000000,  1005.674561 
 50291968.000000, -13.332808 , 0.507278, 8.855836, 0.000000, 0.000000,  0.000000,  0.000000, 0.000000,  0.000000 
 50311424.000000, -12.380465 , 2.830709, 7.161718, 1475853824.000000, 33.389999,  31.150000,  -0.210000, 0.000000,  0.000000 
 50331392.000000, -12.224932 , 3.775874, 6.104091, 1475873280.000000, 66.080002,  -25.410000,  -9.730000, 0.000000,  0.000000 
 50351104.000000, -12.535997 , 2.397608, 6.106483, 1475893248.000000, 29.190001,  -63.139999,  -22.540001, 0.000000,  0.000000 
 50372608.000000, -13.294522 , 0.378066, 6.707082, 1475912960.000000, -1.050000,  -76.720001,  -29.260000, 0.000000,  0.000000 
 50394880.000000, -14.292330 , -0.593420, 6.056234, 1475934464.000000, -52.779999,  -106.889999,  -34.369999, 0.000000,  0.000000 
 50412544.000000, -15.170495 , -1.170090, 4.441079, 1475956736.000000, -24.639999,  -129.710007,  -16.660000, 0.000000,  0.000000 
 50432256.000000, -15.974483 , -1.117448, 2.840281, 1475974400.000000, 24.010000,  -152.669998,  8.470000, 0.000000,  0.000000 
 50452480.000000, -17.022539 , -0.734596, 1.981257, 1475994112.000000, 65.449997,  -172.830002,  35.840000, 0.000000,  0.000000 
 50472704.000000, -18.439091 , -0.502493, 1.485943, 1476014336.000000, 78.540001,  -185.779999,  60.549999, 0.000000,  0.000000 
 50492928.000000, -18.709480 , -0.887737, 0.583849, 1476034560.000000, 65.730003,  -193.270004,  77.209999, 0.000000,  0.000000 
 50512384.000000, -16.912472 , -0.981057, -0.095713, 1476054784.000000, 43.049999,  -211.470001,  83.160004, 0.000000,  0.000000 
 50532352.000000, -14.998212 , -0.215354, -0.155533, 1476074240.000000, 17.500000,  -237.860001,  76.720001, 0.000000,  0.000000 
 50552320.000000, -13.686946 , 0.526421, -0.399601, 1476094208.000000, -17.080000,  -255.779999,  50.330002, 0.000000,  0.000000 
 50572800.000000, -12.593425 , -0.033500, -0.593420, 1476114176.000000, -55.020000,  -266.839996,  10.780000, 0.000000,  0.000000 
 50592768.000000, -11.705689 , -0.794417, -0.203390, 1476134656.000000, -86.169998,  -274.399994,  -31.080000, 0.000000,  0.000000 
 50612224.000000, -11.636297 , 0.088534, 1.148555, 1476154624.000000, -94.919998,  -277.200012,  -65.239998, 0.000000,  0.000000 
 50632192.000000, -12.911672 , -0.050249, 2.065006, 1476174080.000000, -93.800003,  -278.950012,  -77.000000, 0.000000,  0.000000 
 50652416.000000, -14.120047 , -0.174676, 1.234696, 1476194048.000000, -80.220001,  -276.010010,  -87.919998, 0.000000,  0.000000 
 50672640.000000, -14.340185 , -0.289532, -0.535992, 1476214272.000000, -49.770000,  -268.239990,  -76.860001, 0.000000,  0.000000 
 50692864.000000, -14.009976 , -0.385244, -1.048056, 1476234496.000000, -14.280000,  -269.360016,  -48.580002, 0.000000,  0.000000 
 50712320.000000, -13.000205 , -0.519243, -1.600798, 1476254720.000000, -5.740000,  -270.619995,  -16.520000, 0.000000,  0.000000 
 50732288.000000, -11.892329 , 0.301496, -2.715853, 1476274176.000000, -26.180000,  -265.860016,  9.730000, 0.000000,  0.000000 
 50752256.000000, -9.970891 , 2.055435, -3.907479, 1476294144.000000, -55.930000,  -254.729996,  23.660000, 0.000000,  0.000000 
 50772480.000000, -6.939186 , 2.091327, -4.914857, 1476314112.000000, -82.669998,  -238.210007,  32.619999, 0.000000,  0.000000 
 50792704.000000, -4.613362 , 0.397209, -4.163511, 1476334336.000000, -128.589996,  -225.960007,  23.240000, 0.000000,  0.000000 
 50812160.000000, -4.857430 , -1.351945, -1.471586, 1476354560.000000, -187.740005,  -161.350006,  -10.920000, 0.000000,  0.000000 
 50832128.000000, -7.554141 , -1.859223, -0.090927, 1476374016.000000, -195.300003,  -65.379997,  -38.150002, 0.000000,  0.000000 
 50852096.000000, -10.638489 , -1.481157, -0.550349, 1476393984.000000, -103.949997,  20.510000,  -32.270000, 0.000000,  0.000000 
 50872320.000000, -11.863614 , -1.038485, -1.677369, 1476413952.000000, 29.120001,  86.379997,  -2.590000, 0.000000,  0.000000 
 50892800.000000, -12.212967 , -0.102891, -2.818745, 1476434176.000000, 116.340004,  139.509995,  26.040001, 0.000000,  0.000000 
 50912256.000000, -11.787045 , 0.423530, -3.402594, 1476454656.000000, 132.440002,  192.080002,  44.029999, 0.000000,  0.000000 
 50932224.000000, -11.322837 , 0.559920, -2.924029, 1476474112.000000, 104.510002,  232.470001,  48.369999, 0.000000,  0.000000 
 50952192.000000, -12.679568 , -0.110070, -2.711068, 1476494080.000000, 65.309998,  265.649994,  46.060001, 0.000000,  0.000000 
 50972416.000000, -15.263817 , 0.550349, 0.480957, 1476514048.000000, 23.170000,  301.350006,  34.790001, 0.000000,  0.000000 
 50992640.000000, -16.721045 , 1.189233, 4.766503, 1476534272.000000, -22.120001,  327.390015,  27.090000, 0.000000,  0.000000 
 51012096.000000, -15.266209 , -0.002393, 3.716053, 1476554496.000000, -34.369999,  322.279999,  38.430000, 0.000000,  0.000000 
 51032064.000000, -13.021741 , -0.011964, 2.060220, 1476573952.000000, 23.660000,  298.410004,  56.910000, 0.000000,  0.000000 
 51052032.000000, -11.693724 , 1.763510, 1.615155, 1476593920.000000, 91.840004,  268.799988,  68.879997, 0.000000,  0.000000 
 51072256.000000, -11.196017 , 3.187240, 2.053042, 1476613888.000000, 116.199997,  251.089996,  66.709999, 0.000000,  0.000000 
 51092480.000000, -12.717852 , 2.672783, 2.517249, 1476634112.000000, 71.889999,  248.990005,  55.650002, 0.000000,  0.000000 
 51111936.000000, -15.093925 , 0.964308, 3.342773, 1476654336.000000, -2.240000,  264.600006,  36.889999, 0.000000,  0.000000 
 51131904.000000, -16.814365 , 0.162712, 4.876573, 1476673792.000000, -43.610001,  272.369995,  29.469999, 0.000000,  0.000000 
 51151872.000000, -16.634903 , 0.997807, 4.876573, 1476693760.000000, -24.710001,  256.690002,  35.840000, 0.000000,  0.000000 
 51172096.000000, -16.003199 , 1.387837, 4.886144, 1476713728.000000, 29.820000,  231.630005,  46.830002, 0.000000,  0.000000 
 51192576.000000, -17.001005 , 0.897308, 6.257231, 1476733952.000000, 53.760002,  215.320007,  45.709999, 0.000000,  0.000000 
 51211776.000000, -17.989241 , 1.165305, 8.039884, 1476754432.000000, 54.110001,  213.779999,  39.689999, 0.000000,  0.000000 
 51231744.000000, -16.199409 , 1.950150, 8.343772, 1476773632.000000, 79.730003,  197.750000,  36.119999, 0.000000,  0.000000 
 51251968.000000, -13.758730 , 2.670390, 8.075776, 1476793600.000000, 127.400002,  150.360001,  31.570000, 0.000000,  0.000000 
 51272192.000000, -12.007183 , 3.596412, 7.393822, 1476834048.000000, 146.789993,  48.650002,  9.380000, 3738417408.000000,  1005.677490 
 51292416.000000, -12.198609 , 5.673382, 7.262216, 0.000000, 0.000000,  0.000000,  0.000000, 0.000000,  0.000000 
 51311872.000000, -12.768101 , 6.367301, 6.786045, 1476854272.000000, 108.779999,  11.340000,  -3.010000, 0.000000,  0.000000 
 51331840.000000, -13.643874 , 4.486543, 6.977471, 1476873728.000000, 44.939999,  -24.850000,  -1.960000, 0.000000,  0.000000 
 51351808.000000, -15.328422 , 2.383251, 6.613762, 1476893696.000000, -25.129999,  -50.750000,  6.580000, 0.000000,  0.000000 
 51372032.000000, -15.663417 , 1.804188, 5.587241, 1476913664.000000, -57.540001,  -75.739998,  27.090000, 0.000000,  0.000000 
 51394304.000000, -13.789837 , 1.849652, 4.034299, 1476933888.000000, -61.529999,  -119.840004,  50.820000, 0.000000,  0.000000 
 51411712.000000, -13.801801 , 0.928415, 3.263810, 1476956160.000000, -63.840000,  -171.500000,  67.059998, 0.000000,  0.000000 
 51431680.000000, -16.354942 , 0.485743, 3.567699, 1476973568.000000, -88.480003,  -191.940002,  55.580002, 0.000000,  0.000000 
 51451648.000000, -18.900908 , 0.710668, 2.852244, 1476993536.000000, -102.340004,  -197.190002,  36.889999, 0.000000,  0.000000 
 51472128.000000, -18.357735 , 0.514457, 1.732404, 1477013504.000000, -79.730003,  -216.720001,  22.400000, 0.000000,  0.000000 
 51492352.000000, -15.842879 , 0.885344, 1.605584, 1477054208.000000, -52.849998,  -282.940002,  -3.150000, 0.000000,  0.000000 
 51511808.000000, -14.244473 , 1.674976, 1.287339, 0.000000, 0.000000,  0.000000,  0.000000, 0.000000,  0.000000 
 51531776.000000, -13.347164 , 1.416551, 0.614955, 1477073664.000000, -52.849998,  -297.779999,  -22.960001, 0.000000,  0.000000 
 51551744.000000, -12.574283 , 0.114855, 0.315853, 1477093632.000000, -63.910000,  -306.880005,  -47.250000, 0.000000,  0.000000 
 51571968.000000, -12.093326 , -0.655633, 0.387637, 1477113600.000000, -73.220001,  -312.690002,  -66.709999, 0.000000,  0.000000 
 51592192.000000, -12.150753 , -0.574277, 0.483350, 1477133824.000000, -64.330002,  -309.750000,  -71.330002, 0.000000,  0.000000 
 51611648.000000, -11.990433 , -0.514457, -0.107677, 1477154048.000000, -40.599998,  -296.170013,  -63.770000, 0.000000,  0.000000 
 51631616.000000, -11.602797 , -1.009771, -0.813560, 1477173504.000000, -14.070000,  -279.720001,  -47.950001, 0.000000,  0.000000 
 51651584.000000, -11.392227 , -0.959522, -1.148555, 1477213440.000000, 10.430000,  -234.500000,  -15.960000, 0.000000,  0.000000 
 51672064.000000, -11.071590 , -0.198604, -1.414158, 0.000000, 0.000000,  0.000000,  0.000000, 0.000000,  0.000000 
 51692288.000000, -10.167104 , 0.878166, -2.368894, 1477233920.000000, 11.340000,  -207.690002,  1.400000, 0.000000,  0.000000 
 51711488.000000, -8.551948 , 1.138984, -2.909672, 1477254144.000000, 1.050000,  -187.460007,  14.140000, 0.000000,  0.000000 
 51731712.000000, -6.843473 , 0.385244, -3.670590, 1477273344.000000, -29.820000,  -165.690002,  17.219999, 0.000000,  0.000000 
 51751680.000000, -5.855237 , 0.306281, -1.947758, 1477293568.000000, -70.279999,  -135.940002,  10.430000, 0.000000,  0.000000 
 51771904.000000, -6.644868 , 1.560120, 0.591027, 1477313536.000000, -116.340004,  -90.160004,  -7.700000, 0.000000,  0.000000 
 51792128.000000, -7.826923 , 2.629712, 1.110270, 1477333760.000000, -118.020004,  -33.040001,  -22.610001, 0.000000,  0.000000 
 51811584.000000, -9.049655 , 1.038485, -0.373280, 1477353984.000000, -65.800003,  -3.220000,  -21.000000, 0.000000,  0.000000 
 51831552.000000, -10.360922 , -0.897308, -1.124627, 1477373440.000000, -14.280000,  28.630001,  -13.510000, 0.000000,  0.000000 
 51851520.000000, -10.746166 , -0.473779, -1.356731, 1477393408.000000, 20.370001,  78.610001,  -6.300000, 0.000000,  0.000000 
 51871744.000000, -10.588240 , 1.000200, -0.399601, 1477413376.000000, 62.439999,  121.169998,  19.320000, 0.000000,  0.000000 
 51892224.000000, -10.985448 , 1.339981, 0.363709, 1477433600.000000, 86.169998,  162.399994,  45.290001, 0.000000,  0.000000 
 51911424.000000, -12.284752 , 1.167697, 1.086342, 1477454080.000000, 81.620003,  207.619995,  48.090000, 0.000000,  0.000000 
 51931392.000000, -13.138988 , 0.839881, 1.215554, 1477473280.000000, 72.309998,  252.000000,  38.779999, 0.000000,  0.000000 
 51951360.000000, -13.387842 , 0.839881, 1.500300, 1477493248.000000, 72.519997,  285.040009,  34.860001, 0.000000,  0.000000 
 51971840.000000, -14.146368 , -0.686740, 2.062613, 1477513216.000000, 83.090004,  304.779999,  26.880001, 0.000000,  0.000000 
 51992064.000000, -15.337994 , -0.653241, 2.349752, 1477533696.000000, 121.520004,  316.399994,  17.570000, 0.000000,  0.000000 
 52011520.000000, -14.514862 , 0.401994, 2.160719, 1477553920.000000, 190.190002,  316.750000,  10.150000, 0.000000,  0.000000 
 52031488.000000, -13.124631 , 3.450450, 1.514657, 1477573376.000000, 254.589996,  287.630005,  10.150000, 0.000000,  0.000000 
 52051456.000000, -12.045469 , 5.469993, -0.770489, 1477593344.000000, 258.299988,  240.520004,  -22.750000, 0.000000,  0.000000 
 52072960.000000, -10.884951 , 3.840480, -0.641276, 1477613312.000000, 157.639999,  200.479996,  -48.439999, 0.000000,  0.000000 
 52092672.000000, -11.638690 , 1.512264, 0.861416, 1477634816.000000, -41.930000,  179.270004,  -73.989998, 0.000000,  0.000000 
 52111872.000000, -13.739587 , 0.619741, 2.605784, 1477654528.000000, -222.110001,  184.520004,  -77.139999, 0.000000,  0.000000 
 52131840.000000, -14.601004 , -0.557528, 3.505485, 1477673728.000000, -309.610016,  182.630005,  -62.860001, 0.000000,  0.000000 
 52151808.000000, -14.220546 , -1.478764, 4.443472, 1477693696.000000, -322.910004,  162.889999,  -46.060001, 0.000000,  0.000000 
 52172544.000000, -13.631909 , -1.619941, 5.843273, 1477713664.000000, -292.739990,  147.350006,  -18.620001, 0.000000,  0.000000 
 52192768.000000, -13.225130 , -1.435694, 7.298109, 1477734400.000000, -238.770004,  147.419998,  14.000000, 0.000000,  0.000000 
 52212224.000000, -13.418950 , -1.182054, 8.472985, 1477754624.000000, -166.949997,  151.270004,  41.860001, 0.000000,  0.000000 
 52232448.000000, -13.665410 , -0.787239, 9.738789, 1477774080.000000, -85.050003,  154.279999,  56.490002, 0.000000,  0.000000 
 52252160.000000, -13.450057 , -0.442672, 9.571291, 1477794304.000000, -14.490000,  146.229996,  59.360001, 0.000000,  0.000000 
 52273152.000000, -14.019548 , -0.122034, 10.188639, 1477814016.000000, 42.910000,  120.260002,  52.920002, 0.000000,  0.000000 
 52293120.000000, -14.744574 , 1.012164, 10.167104, 1477835008.000000, 83.510002,  83.510002,  34.930000, 3739418368.000000,  1005.674622 
 52312576.000000, -15.153747 , 1.773082, 9.616754, 1477854976.000000, 92.680000,  34.580002,  19.110001, 0.000000,  0.000000 
 52332544.000000, -15.964913 , 1.184447, 7.767102, 1477874432.000000, 64.190002,  -15.470000,  7.840000, 0.000000,  0.000000 
 52352512.000000, -15.354744 , 0.993021, 5.355137, 1477894400.000000, 22.960001,  -61.529999,  -2.590000, 0.000000,  0.000000 
 52372736.000000, -13.127025 , 0.593420, 4.766503, 1477914368.000000, -16.660000,  -113.120003,  -11.550000, 0.000000,  0.000000 
 52396032.000000, -12.311072 , -0.411566, 4.529613, 1477934592.000000, -59.920002,  -163.729996,  -24.639999, 0.000000,  0.000000 
 52413696.000000, -14.041083 , -1.359123, 4.536791, 1477957888.000000, -85.820000,  -189.350006,  -45.360001, 0.000000,  0.000000 
 52433664.000000, -16.979469 , -1.543371, 4.151547, 1477975552.000000, -71.470001,  -193.830002,  -64.120003, 0.000000,  0.000000 
 52453632.000000, -18.680767 , -0.815953, 3.084348, 1477995520.000000, -19.320000,  -193.690002,  -70.419998, 0.000000,  0.000000 
 52473856.000000, -16.601404 , 0.732204, 2.084148, 1478015488.000000, 37.310001,  -207.830002,  -65.099998, 0.000000,  0.000000 
 52494080.000000, -14.091332 , 2.143969, 1.359123, 1478035712.000000, 65.309998,  -240.449997,  -52.570000, 0.000000,  0.000000 
 52513536.000000, -12.947563 , 2.373680, 1.598405, 1478055936.000000, 43.470001,  -268.589996,  -52.080002, 0.000000,  0.000000 
 52533760.000000, -12.555140 , 2.225325, 1.871187, 1478075392.000000, -15.400000,  -284.059998,  -68.809998, 0.000000,  0.000000 
 52553472.000000, -11.904292 , 1.808974, 2.000400, 1478095616.000000, -71.610001,  -297.290009,  -85.050003, 0.000000,  0.000000 
 52573952.000000, -12.021541 , 0.710668, 1.684547, 1478115328.000000, -109.830002,  -307.299988,  -94.150002, 0.000000,  0.000000 
 52594176.000000, -12.445071 , -0.433101, 1.117448, 1478135808.000000, -123.760002,  -299.809998,  -98.629997, 0.000000,  0.000000 
 52613632.000000, -12.189038 , -1.251446, 0.631705, 1478156032.000000, -112.349998,  -282.730011,  -94.919998, 0.000000,  0.000000 
 52633600.000000, -11.361122 , -1.284946, -0.011964, 1478175488.000000, -80.989998,  -265.089996,  -84.559998, 0.000000,  0.000000 
 52653568.000000, -10.030712 , -0.526421, -0.014357, 1478195456.000000, -35.139999,  -239.050003,  -68.949997, 0.000000,  0.000000 
 52673792.000000, -8.999406 , -0.038285, -0.564706, 1478215424.000000, 14.840000,  -209.720001,  -50.750000, 0.000000,  0.000000 
 52694016.000000, -8.654840 , 0.526421, -1.320838, 1478235648.000000, 57.260002,  -175.350006,  -34.930000, 0.000000,  0.000000 
 52713472.000000, -7.984849 , 0.607777, -1.945365, 1478255872.000000, 74.269997,  -135.940002,  -22.260000, 0.000000,  0.000000 
 52733440.000000, -6.733403 , 0.662812, -2.079363, 1478275328.000000, 68.879997,  -105.209999,  -9.170000, 0.000000,  0.000000 
 52753408.000000, -5.833702 , 0.370888, -1.328017, 1478295296.000000, 52.290001,  -79.029999,  1.680000, 0.000000,  0.000000 
 52773888.000000, -6.745367 , 0.138784, -0.110070, 1478315264.000000, 38.009998,  -40.599998,  7.000000, 0.000000,  0.000000 
 52794112.000000, -8.267202 , -0.071785, -0.859023, 1478335744.000000, 41.930000,  11.130000,  6.440000, 0.000000,  0.000000 
 52813312.000000, -9.600004 , -0.681954, -1.806581, 1478355968.000000, 70.419998,  53.060001,  15.890000, 0.000000,  0.000000 
 52833536.000000, -10.717452 , -0.873380, -1.663012, 1478375168.000000, 87.220001,  93.730003,  27.160000, 0.000000,  0.000000 
 52853504.000000, -11.437693 , -0.552742, -0.275175, 1478395392.000000, 90.510002,  138.809998,  38.779999, 0.000000,  0.000000 
 52873728.000000, -12.090932 , -0.028714, 0.122034, 1478415360.000000, 95.269997,  179.059998,  47.880001, 0.000000,  0.000000 
 52893952.000000, -11.851650 , 0.260818, 0.098106, 1478435584.000000, 104.370003,  215.809998,  47.320000, 0.000000,  0.000000 
 52913408.000000, -12.275180 , 0.696311, 0.311067, 1478455808.000000, 111.720001,  235.130005,  35.139999, 0.000000,  0.000000 
 52933376.000000, -14.258829 , 1.244268, 1.119841, 1478475264.000000, 110.320000,  256.690002,  14.350000, 0.000000,  0.000000 
 52953344.000000, -15.163318 , 0.746561, 2.048256, 1478495232.000000, 103.949997,  270.339996,  -3.570000, 0.000000,  0.000000 
 52973568.000000, -14.115260 , -0.200997, 2.857030, 1478515200.000000, 80.779999,  285.809998,  -11.130000, 0.000000,  0.000000 
 52993792.000000, -13.091133 , -0.449851, 2.940779, 1478535424.000000, 75.110001,  271.040009,  -22.540001, 0.000000,  0.000000 
 53013248.000000, -12.720245 , 0.354138, 2.514857, 1478555648.000000, 117.459999,  242.479996,  -31.920000, 0.000000,  0.000000 
 53033472.000000, -12.260822 , 3.153740, 1.292124, 1478575104.000000, 176.889999,  210.350006,  -49.139999, 0.000000,  0.000000 
 53053184.000000, -11.332408 , 4.594220, -0.064606, 1478595328.000000, 199.080002,  168.279999,  -66.430000, 0.000000,  0.000000 
 53073408.000000, -10.061819 , 4.019942, 0.394816, 1478615040.000000, 140.279999,  128.520004,  -83.160004, 0.000000,  0.000000 
 53093888.000000, -10.521241 , 2.907279, 1.464408, 1478635264.000000, 8.330000,  114.660004,  -96.599998, 0.000000,  0.000000 
 53113088.000000, -12.189038 , 1.777867, 2.550749, 1478655744.000000, -107.520004,  134.330002,  -95.480003, 0.000000,  0.000000 
 53133056.000000, -13.234701 , 0.547956, 3.247060, 1478674944.000000, -167.789993,  155.259995,  -87.080002, 0.000000,  0.000000 
 53153280.000000, -12.705888 , -0.019143, 3.823731, 1478694912.000000, -172.550003,  159.110001,  -72.169998, 0.000000,  0.000000 
 53173504.000000, -11.839686 , 0.117248, 4.304688, 1478715136.000000, -132.509995,  153.440002,  -47.180000, 0.000000,  0.000000 
 53193728.000000, -12.557532 , 0.643669, 5.570491, 1478735360.000000, -71.959999,  159.389999,  -21.840000, 0.000000,  0.000000 
 53213184.000000, -14.380865 , 1.684547, 6.898508, 1478755584.000000, -10.500000,  183.680008,  -6.370000, 0.000000,  0.000000 
 53233152.000000, -14.847464 , 2.845066, 7.731210, 1478775040.000000, 59.010002,  200.479996,  5.670000, 0.000000,  0.000000 
 53253120.000000, -14.538791 , 4.374080, 7.446464, 1478795008.000000, 133.770004,  186.410004,  13.930000, 0.000000,  0.000000 
 53273344.000000, -14.237295 , 5.381458, 6.283553, 1478814976.000000, 193.550003,  147.559998,  17.290001, 0.000000,  0.000000 
 53293568.000000, -13.737194 , 6.453443, 4.716253, 1478835200.000000, 197.190002,  99.610001,  16.660000, 3740418816.000000,  1005.674866 
 53313024.000000, -13.004992 , 7.018148, 4.386044, 1478855424.000000, 144.270004,  51.099998,  22.190001, 0.000000,  0.000000 
 53332992.000000, -13.174881 , 6.130411, 5.285746, 1478874880.000000, 58.099998,  4.410000,  31.430000, 0.000000,  0.000000 
 53352960.000000, -14.067404 , 4.316652, 5.491528, 1478894848.000000, -25.760000,  -24.850000,  39.060001, 0.000000,  0.000000 
 53373440.000000, -14.191832 , 2.861816, 4.352544, 1478914816.000000, -72.309998,  -53.410000,  46.689999, 0.000000,  0.000000 
 53395456.000000, -13.493127 , 1.706082, 3.412165, 1478935296.000000, -90.790001,  -90.790001,  58.380001, 0.000000,  0.000000 
 53413120.000000, -13.397413 , 1.052842, 3.263810, 1478957312.000000, -99.820000,  -126.629997,  68.250000, 0.000000,  0.000000 
 53433088.000000, -14.718252 , 0.880559, 3.390630, 1478974976.000000, -99.470001,  -146.930008,  71.470001, 0.000000,  0.000000 
 53453056.000000, -16.409977 , 0.461815, 2.782853, 1478994944.000000, -81.269997,  -156.240005,  71.330002, 0.000000,  0.000000 
 53473280.000000, -16.338192 , 0.325424, 1.954936, 1479014912.000000, -52.080002,  -165.899994,  69.370003, 0.000000,  0.000000 
 53493504.000000, -14.237295 , 1.038485, 1.043271, 1479035136.000000, -28.350000,  -188.440002,  73.500000, 0.000000,  0.000000 
 53512960.000000, -12.449856 , 1.196411, 0.114855, 1479074816.000000, -31.990000,  -238.070007,  69.930000, 0.000000,  0.000000 
 53532928.000000, -11.425728 , 0.655633, -0.100499, 0.000000, 0.000000,  0.000000,  0.000000, 0.000000,  0.000000 
 53552896.000000, -11.112268 , 0.078963, 0.124427, 1479094784.000000, -67.830002,  -246.610001,  48.860001, 0.000000,  0.000000 
 53573120.000000, -11.375479 , -0.124427, 0.339781, 1479114752.000000, -95.199997,  -249.339996,  24.570000, 0.000000,  0.000000 
 53593600.000000, -11.815758 , -0.344566, 0.193819, 1479134976.000000, -98.840004,  -248.360001,  2.450000, 0.000000,  0.000000 
 53612800.000000, -11.949757 , -0.928415, -0.107677, 1479174656.000000, -66.639999,  -239.259995,  -17.360001, 0.000000,  0.000000 
 53633024.000000, -11.684153 , -1.287339, -0.133998, 0.000000, 0.000000,  0.000000,  0.000000, 0.000000,  0.000000 
 53652992.000000, -10.722239 , -1.177269, -0.129212, 1479194880.000000, -49.630001,  -229.320007,  -15.540000, 0.000000,  0.000000 
 53673216.000000, -10.437491 , -0.169890, -0.926022, 1479214848.000000, -28.700001,  -223.160004,  -9.730000, 0.000000,  0.000000 
 53693440.000000, -10.511670 , 1.203590, -2.952743, 1479235072.000000, -14.280000,  -212.800003,  -9.800000, 0.000000,  0.000000 
 53712896.000000, -8.346166 , 1.780260, -4.177868, 1479255296.000000, -19.600000,  -189.139999,  -8.400000, 0.000000,  0.000000 
 53732864.000000, -5.749953 , 1.421337, -3.917051, 1479274752.000000, -53.760002,  -183.470001,  -10.010000, 0.000000,  0.000000 
 53752832.000000, -4.476971 , 0.629312, -2.263610, 1479294720.000000, -108.220001,  -163.309998,  -17.219999, 0.000000,  0.000000 
 53773056.000000, -6.455836 , 0.253639, 0.483350, 1479314688.000000, -155.119995,  -105.489998,  -31.920000, 0.000000,  0.000000 
 53793280.000000, -10.013963 , -0.224925, 1.098306, 1479334912.000000, -166.809998,  -21.420000,  -44.450001, 0.000000,  0.000000 
 53812736.000000, -11.703296 , -1.062413, -0.399601, 1479355136.000000, -118.300003,  48.930000,  -36.540001, 0.000000,  0.000000 
 53832704.000000, -11.554940 , -1.251446, -1.232304, 1479374592.000000, -48.160000,  86.029999,  -10.920000, 0.000000,  0.000000 
 53852672.000000, -11.456835 , -0.870987, -1.119841, 1479394560.000000, 6.160000,  119.910004,  17.430000, 0.000000,  0.000000 
 53873152.000000, -12.045469 , -0.342174, -0.088534, 1479414528.000000, 41.090000,  159.600006,  35.070000, 0.000000,  0.000000 
 53893376.000000, -12.112469 , 0.294317, 1.210768, 1479435008.000000, 63.279999,  197.470001,  43.959999, 0.000000,  0.000000 
 53912832.000000, -12.067005 , 1.253839, 2.024328, 1479455232.000000, 82.529999,  215.669998,  45.430000, 0.000000,  0.000000 
 53932800.000000, -13.014563 , 1.373480, 2.139183, 1479474688.000000, 100.730003,  224.210007,  40.810001, 0.000000,  0.000000 
 53952768.000000, -13.969299 , 1.454836, 2.483750, 1479494656.000000, 111.300003,  233.869995,  29.889999, 0.000000,  0.000000 
 53972992.000000, -13.490734 , 2.076970, 2.275574, 1479514624.000000, 125.160004,  229.389999,  23.309999, 0.000000,  0.000000 
 53993216.000000, -11.822936 , 2.928815, 1.856830, 1479534848.000000, 152.669998,  201.039993,  21.840000, 0.000000,  0.000000 
 54012672.000000, -9.745967 , 3.747160, 1.459622, 1479555072.000000, 161.770004,  163.869995,  13.300000, 0.000000,  0.000000 
 54032640.000000, -8.061419 , 4.115655, 1.103091, 1479574528.000000, 136.289993,  133.350006,  1.190000, 0.000000,  0.000000 
 54052608.000000, -7.597212 , 3.519842, 0.990629, 1479594496.000000, 80.150002,  117.389999,  -19.180000, 0.000000,  0.000000 
 54073088.000000, -8.752945 , 2.493321, 1.091127, 1479614464.000000, 5.600000,  124.180000,  -40.180000, 0.000000,  0.000000 
 54093312.000000, -10.336994 , 1.634298, 1.667797, 1479634944.000000, -61.599998,  144.970001,  -52.709999, 0.000000,  0.000000 
 54112512.000000, -11.956935 , 1.569692, 2.170290, 1479655168.000000, -100.730003,  160.720001,  -54.950001, 0.000000,  0.000000 
 54132736.000000, -12.392428 , 1.038485, 1.988436, 1479674368.000000, -105.070000,  167.720001,  -41.439999, 0.000000,  0.000000 
 54152704.000000, -12.052648 , 0.437887, 2.263610, 1479694592.000000, -88.620003,  168.350006,  -16.309999, 0.000000,  0.000000 
 54172928.000000, -11.830115 , 0.708275, 3.043670, 1479714560.000000, -72.239998,  171.500000,  8.540000, 0.000000,  0.000000 
 54193152.000000, -12.437892 , 1.222732, 4.120440, 1479734784.000000, -60.549999,  186.690002,  29.960001, 0.000000,  0.000000 
 54212608.000000, -13.739587 , 1.529014, 5.824130, 1479755008.000000, -48.160000,  205.380005,  38.220001, 0.000000,  0.000000 
 54232576.000000, -14.761322 , 1.758725, 7.972885, 1479774464.000000, -18.620001,  211.750000,  36.820000, 0.000000,  0.000000 
 54252544.000000, -14.376079 , 1.868794, 8.492127, 1479814400.000000, 120.889999,  154.070007,  43.470001, 0.000000,  0.000000 
 54273024.000000, -13.234701 , 1.880759, 7.149754, 1479834880.000000, 176.050003,  85.120003,  39.480000, 3741418240.000000,  1005.674377 
 54293248.000000, -12.892529 , 3.381058, 4.993821, 0.000000, 0.000000,  0.000000,  0.000000, 0.000000,  0.000000 
 54312448.000000, -13.777873 , 6.271588, 3.878766, 1479855104.000000, 166.389999,  26.670000,  24.430000, 0.000000,  0.000000 
 54332416.000000, -15.306887 , 6.788438, 4.091727, 1479874304.000000, 117.040001,  -13.020000,  16.170000, 0.000000,  0.000000 
 54352384.000000, -15.381063 , 4.548756, 4.177868, 1479894272.000000, 49.700001,  -44.029999,  2.590000, 0.000000,  0.000000 
 54372864.000000, -14.541183 , 2.636890, 3.479164, 1479914240.000000, -8.400000,  -86.169998,  -0.980000, 0.000000,  0.000000 
 54395136.000000, -13.196418 , 2.065006, 2.646462, 1479934720.000000, -37.520000,  -124.949997,  7.840000, 0.000000,  0.000000 
 54412544.000000, -12.696317 , 1.564906, 2.344966, 1479956992.000000, -49.139999,  -156.729996,  17.430000, 0.000000,  0.000000 
 54432512.000000, -14.167902 , 0.957129, 2.483750, 1479974400.000000, -51.310001,  -173.880005,  20.020000, 0.000000,  0.000000 
 54452480.000000, -16.465012 , 0.782453, 2.323431, 1479994368.000000, -42.000000,  -171.360001,  18.480000, 0.000000,  0.000000 
 54472960.000000, -16.936398 , 1.282553, 1.761117, 1480034816.000000, 13.300000,  -188.580002,  38.360001, 0.000000,  0.000000 
 54492928.000000, -14.567505 , 1.409373, 1.239482, 0.000000, 0.000000,  0.000000,  0.000000, 0.000000,  0.000000 
 54512384.000000, -12.492928 , 1.885544, 0.701097, 1480054784.000000, 24.360001,  -219.380005,  54.670002, 0.000000,  0.000000 
 54532352.000000, -11.542977 , 2.108077, 0.260818, 1480074240.000000, 17.570000,  -236.600006,  57.400002, 0.000000,  0.000000 
 54552320.000000, -10.956735 , 1.739582, -0.028714, 1480094208.000000, -2.380000,  -241.779999,  45.709999, 0.000000,  0.000000 
 54572800.000000, -10.578669 , 1.112662, -0.088534, 1480114176.000000, -28.980000,  -246.470001,  29.400000, 0.000000,  0.000000 
 54593024.000000, -10.432706 , 0.392423, -0.026321, 1480134656.000000, -47.670002,  -248.710007,  12.460000, 0.000000,  0.000000 
 54612480.000000, -10.310673 , -0.449851, 0.031107, 1480154880.000000, -54.110001,  -244.930008,  -1.470000, 0.000000,  0.000000 
 54632448.000000, -10.418350 , -0.990629, 0.088534, 1480174336.000000, -47.599998,  -235.410004,  -10.220000, 0.000000,  0.000000 
 54652416.000000, -10.415956 , -1.050449, 0.203390, 1480194304.000000, -28.139999,  -219.309998,  -12.180000, 0.000000,  0.000000 
 54672640.000000, -9.906286 , -0.961915, 0.480957, 1480214272.000000, 0.910000,  -201.110001,  -6.300000, 0.000000,  0.000000 
 54692864.000000, -9.111869 , -0.811167, 0.169890, 1480234496.000000, 31.080000,  -187.880005,  4.620000, 0.000000,  0.000000 
 54712320.000000, -8.377272 , -0.318245, -0.961915, 1480254720.000000, 55.230000,  -175.699997,  15.050000, 0.000000,  0.000000 
 54732288.000000, -7.984849 , 0.394816, -2.301895, 1480274176.000000, 58.869999,  -158.619995,  23.590000, 0.000000,  0.000000 
 54752256.000000, -7.982457 , 0.985843, -2.727818, 1480294144.000000, 31.780001,  -138.180008,  25.690001, 0.000000,  0.000000 
 54772480.000000, -7.262216 , 0.902094, -2.146362, 1480314112.000000, -23.309999,  -105.209999,  21.070000, 0.000000,  0.000000 
 54792960.000000, -6.905686 , 0.177069, -1.928615, 1480334336.000000, -86.309998,  -80.779999,  8.120000, 0.000000,  0.000000 
 54812160.000000, -8.520842 , -0.440279, -1.832902, 1480354816.000000, -129.990005,  -46.130001,  -7.140000, 0.000000,  0.000000 
 54832128.000000, -10.250853 , -1.294517, -1.203590, 1480374016.000000, -160.720001,  14.770000,  -22.889999, 0.000000,  0.000000 
 54852096.000000, -10.817951 , -1.844866, -0.098106, 1480393984.000000, -171.009995,  46.900002,  -26.740000, 0.000000,  0.000000 
 54872576.000000, -10.703095 , -1.651048, 1.249053, 1480413952.000000, -172.199997,  97.090004,  -22.400000, 0.000000,  0.000000 
 54892800.000000, -10.686346 , -1.521835, 1.397408, 1480434432.000000, -141.960007,  136.360001,  -2.310000, 0.000000,  0.000000 
 54912256.000000, -10.674382 , -1.459622, 1.478764, 1480454656.000000, -88.480003,  180.180008,  21.629999, 0.000000,  0.000000 
 54932224.000000, -11.306087 , -0.430708, 2.163112, 1480474112.000000, -20.090000,  221.619995,  37.170002, 0.000000,  0.000000 
 54952192.000000, -13.813765 , 0.885344, 2.251646, 1480494080.000000, 48.509998,  254.029999,  42.630001, 0.000000,  0.000000 
 54972416.000000, -16.551155 , 2.792424, 1.373480, 1480514048.000000, 116.900002,  282.940002,  45.709999, 0.000000,  0.000000 
 54992640.000000, -16.019949 , 3.649055, 1.038485, 1480534272.000000, 153.229996,  285.320007,  37.520000, 0.000000,  0.000000 
 55012096.000000, -13.241880 , 3.093920, 1.600798, 1480554496.000000, 106.820000,  238.839996,  20.510000, 0.000000,  0.000000 
 55032064.000000, -10.930414 , 2.763710, 2.383251, 1480573952.000000, 23.520000,  193.059998,  11.340000, 0.000000,  0.000000 
 55052032.000000, -9.566505 , 2.536392, 2.636890, 1480593920.000000, -26.950001,  164.639999,  11.340000, 0.000000,  0.000000 
 55072512.000000, -9.437292 , 2.249253, 2.266003, 1480613888.000000, -50.189999,  142.869995,  -20.090000, 0.000000,  0.000000 
 55092736.000000, -9.640682 , 1.670190, 1.914258, 1480634368.000000, -78.750000,  129.430008,  -36.470001, 0.000000,  0.000000 
 55112192.000000, -9.734003 , 0.823131, 1.785046, 1480654592.000000, -117.459999,  119.070000,  -39.549999, 0.000000,  0.000000 
 55132160.000000, -10.052249 , -0.071785, 1.907080, 1480674048.000000, -154.210007,  111.300003,  -33.810001, 0.000000,  0.000000 
 55152128.000000, -10.485349 , -0.796810, 2.359323, 1480694016.000000, -171.779999,  110.949997,  -21.139999, 0.000000,  0.000000 
 55172352.000000, -10.461421 , -1.012164, 2.945565, 1480713984.000000, -165.830002,  116.340004,  -3.220000, 0.000000,  0.000000 
 55192576.000000, -10.332209 , -1.189233, 3.668197, 1480734208.000000, -146.160004,  122.709999,  21.770000, 0.000000,  0.000000 
 55212032.000000, -10.669596 , -1.392623, 4.833502, 1480754432.000000, -125.370003,  138.250000,  46.130001, 0.000000,  0.000000 
 55232000.000000, -11.466407 , -1.744368, 6.412765, 1480773888.000000, -99.120003,  158.830002,  66.290001, 0.000000,  0.000000 
 55251968.000000, -12.827922 , -1.897508, 8.396415, 1480793856.000000, -50.330002,  173.880005,  81.199997, 0.000000,  0.000000 
 55272448.000000, -14.708681 , -1.246661, 9.198010, 1480834304.000000, 105.769997,  167.020004,  92.330002, 3742417664.000000,  1005.675903 
 55292672.000000, -15.275781 , -0.397209, 7.874779, 0.000000, 0.000000,  0.000000,  0.000000, 0.000000,  0.000000 
 55311872.000000, -13.588840 , 1.148555, 6.075377, 1480854528.000000, 173.529999,  123.059998,  87.290001, 0.000000,  0.000000 
 55331840.000000, -11.755937 , 3.175276, 5.546563, 1480873728.000000, 182.979996,  46.619999,  66.989998, 0.000000,  0.000000 
 55352064.000000, -10.995021 , 4.661219, 5.785845, 1480893696.000000, 120.330002,  -11.550000,  34.090000, 0.000000,  0.000000 
 55372288.000000, -12.849458 , 3.079563, 6.539584, 1480913920.000000, 24.850000,  -49.139999,  -1.610000, 0.000000,  0.000000 
 55394560.000000, -15.481563 , 0.382852, 6.582655, 1480934144.000000, -61.459999,  -62.790001,  -43.820000, 0.000000,  0.000000 
 55411968.000000, -16.177874 , -1.387837, 5.192425, 1480956416.000000, -103.739998,  -79.029999,  -63.420002, 0.000000,  0.000000 
 55431936.000000, -14.950355 , -1.631905, 3.895515, 1480973824.000000, -83.440002,  -116.830002,  -55.650002, 0.000000,  0.000000 
 55451904.000000, -13.761123 , -0.937986, 3.436093, 1480993792.000000, -36.330002,  -155.680008,  -38.220001, 0.000000,  0.000000 
 55472128.000000, -14.148761 , -0.356531, 3.189633, 1481013760.000000, 7.420000,  -176.889999,  -23.940001, 0.000000,  0.000000 
 55492352.000000, -15.883555 , 0.026321, 3.017349, 1481033984.000000, 35.420002,  -179.479996,  -21.000000, 0.000000,  0.000000 
 55511808.000000, -16.912472 , 0.064606, 2.258825, 1481054208.000000, 51.730000,  -175.699997,  -19.530001, 0.000000,  0.000000 
 55531776.000000, -15.546168 , 0.421137, 1.521835, 1481073664.000000, 64.470001,  -185.639999,  -14.910000, 0.000000,  0.000000 
 55551744.000000, -13.579268 , 0.906880, 1.191626, 1481093632.000000, 64.820000,  -213.500000,  -9.730000, 0.000000,  0.000000 
 55572224.000000, -12.849458 , 1.024128, 1.124627, 1481113600.000000, 45.849998,  -236.180008,  -11.690000, 0.000000,  0.000000 
 55592448.000000, -12.308680 , 0.734596, 1.239482, 1481134080.000000, 16.660000,  -241.220001,  -26.250000, 0.000000,  0.000000 
 55611904.000000, -11.657832 , -0.019143, 1.007378, 1481154304.000000, -5.810000,  -246.540009,  -43.330002, 0.000000,  0.000000 
 55631872.000000, -11.411370 , -0.588634, 0.894916, 1481173760.000000, -8.680000,  -253.399994,  -55.580002, 0.000000,  0.000000 
 55651840.000000, -11.698510 , -0.602991, 0.614955, 1481193728.000000, 2.240000,  -250.180008,  -59.779999, 0.000000,  0.000000 
 55672064.000000, -11.806188 , -0.689133, -0.138784, 1481213696.000000, 21.139999,  -240.100006,  -52.990002, 0.000000,  0.000000 
 55692288.000000, -11.251052 , -0.842274, -0.480957, 1481233920.000000, 35.840000,  -229.110001,  -39.900002, 0.000000,  0.000000 
 55711744.000000, -10.301102 , -0.641276, -0.655633, 1481254144.000000, 40.529999,  -219.660004,  -26.880001, 0.000000,  0.000000 
 55731712.000000, -9.236296 , 0.119641, -1.581656, 1481273600.000000, 39.830002,  -209.930008,  -15.050000, 0.000000,  0.000000 
 55751680.000000, -7.630712 , 1.308874, -3.548556, 1481293568.000000, 35.279999,  -196.979996,  -6.300000, 0.000000,  0.000000 
 55771904.000000, -5.034499 , 1.177269, -4.436293, 1481313536.000000, 21.280001,  -186.619995,  2.870000, 0.000000,  0.000000 
 55792384.000000, -3.421736 , 0.818345, -3.146562, 1481333760.000000, -23.379999,  -169.539993,  2.030000, 0.000000,  0.000000 
 55811584.000000, -4.173083 , 0.009571, -1.356731, 1481354240.000000, -91.209999,  -121.870003,  -12.390000, 0.000000,  0.000000 
 55831808.000000, -6.943972 , -0.629312, 0.442672, 1481373440.000000, -137.339996,  -51.029999,  -25.129999, 0.000000,  0.000000 
 55851776.000000, -9.738789 , -0.631705, 0.629312, 1481393664.000000, -135.940002,  18.690001,  -28.980000, 0.000000,  0.000000 
 55872000.000000, -10.901700 , -0.729811, -0.964308, 1481413632.000000, -80.290001,  69.160004,  -12.530000, 0.000000,  0.000000 
 55892224.000000, -11.174481 , -1.289732, -1.402194, 1481433856.000000, 2.030000,  100.660004,  21.629999, 0.000000,  0.000000 
 55911680.000000, -12.043077 , -1.323231, -1.172483, 1481454080.000000, 62.580002,  142.240005,  46.200001, 0.000000,  0.000000 
 55931648.000000, -13.540984 , -0.461815, 0.165105, 1481493504.000000, 130.410004,  237.509995,  61.950001, 0.000000,  0.000000 
 55951616.000000, -14.677574 , 0.413958, 1.780260, 0.000000, 0.000000,  0.000000,  0.000000, 0.000000,  0.000000 
 55971840.000000, -15.005391 , 0.789631, 2.823531, 1481513472.000000, 147.630005,  272.720001,  60.270000, 0.000000,  0.000000 
 55992320.000000, -16.015162 , 1.215554, 3.486342, 1481533696.000000, 169.750000,  290.079987,  49.910000, 0.000000,  0.000000 
 56011520.000000, -16.307087 , 1.548156, 1.593620, 1481554176.000000, 204.820007,  297.220001,  35.279999, 0.000000,  0.000000 
 56031488.000000, -14.517255 , 2.610569, -0.047856, 1481573376.000000, 252.350006,  272.860016,  27.650000, 0.000000,  0.000000 
 56051456.000000, -12.315859 , 5.517848, -1.538585, 1481593344.000000, 272.299988,  208.110001,  5.740000, 0.000000,  0.000000 
 56071936.000000, -9.669396 , 7.814958, -1.899901, 1481613312.000000, 238.139999,  148.680008,  -12.320000, 0.000000,  0.000000 
 56092160.000000, -7.695317 , 7.345965, -1.615155, 1481633792.000000, 128.520004,  111.510002,  -26.320000, 0.000000,  0.000000 
 56111616.000000, -8.003991 , 5.575277, -1.299303, 1481654016.000000, -12.670000,  109.550003,  -47.110001, 0.000000,  0.000000 
 56131584.000000, -9.774680 , 3.349952, -0.421137, 1481673472.000000, -149.240005,  135.589996,  -62.369999, 0.000000,  0.000000 
 56151552.000000, -11.803794 , 0.928415, 0.825524, 1481693440.000000, -266.839996,  165.059998,  -66.360001, 0.000000,  0.000000 
 56171776.000000, -13.746766 , -1.012164, 2.060220, 1481713408.000000, -343.209991,  180.740005,  -59.570000, 0.000000,  0.000000 
 56192000.000000, -14.203795 , -1.753939, 3.005385, 1481733632.000000, -360.010010,  183.399994,  -41.299999, 0.000000,  0.000000 
 56211456.000000, -12.887742 , -1.880759, 3.847659, 1481753856.000000, -316.540009,  172.550003,  -2.170000, 0.000000,  0.000000 
 56231424.000000, -12.043077 , -1.698904, 4.524827, 1481773312.000000, -243.600006,  162.539993,  42.770000, 0.000000,  0.000000 
 56251392.000000, -12.361321 , -1.263410, 5.036892, 1481793280.000000, -160.720001,  172.550003,  73.010002, 0.000000,  0.000000 
 56271872.000000, -13.220345 , -0.708275, 6.142376, 1481813248.000000, -68.180000,  191.100006,  93.239998, 0.000000,  0.000000 
 56292096.000000, -13.837693 , -0.131605, 7.984849, 1481833728.000000, 23.520000,  202.229996,  98.769997, 3743417088.000000,  1005.675476 
 56311296.000000, -13.995619 , 0.047856, 9.698111, 1481853952.000000, 112.770004,  198.100006,  96.529999, 0.000000,  0.000000 
 56331520.000000, -13.672589 , 0.148355, 7.647461, 1481873152.000000, 198.240005,  169.889999,  88.830002, 0.000000,  0.000000 
 56351488.000000, -13.100704 , 3.134598, 4.510471, 1481893376.000000, 248.710007,  112.419998,  64.610001, 0.000000,  0.000000 
 56371712.000000, -13.560125 , 6.991827, 2.957529, 1481913344.000000, 239.190002,  49.490002,  36.959999, 0.000000,  0.000000 
 56393984.000000, -14.155938 , 7.621140, 2.258825, 1481933568.000000, 178.360001,  2.940000,  18.760000, 0.000000,  0.000000 
 56411392.000000, -13.258631 , 4.929214, 2.143969, 1481955840.000000, 82.040001,  -34.439999,  -2.380000, 0.000000,  0.000000 
 56431360.000000, -12.409179 , 2.967100, 1.792224, 1481973248.000000, -14.420000,  -75.320000,  -10.290000, 0.000000,  0.000000 
 56451328.000000, -11.648260 , 1.732404, 1.840081, 1481993216.000000, -79.800003,  -112.910004,  -11.270000, 0.000000,  0.000000 
 56471552.000000, -11.621940 , 1.253839, 2.711068, 1482013184.000000, -115.220001,  -145.669998,  -17.920000, 0.000000,  0.000000 
 56492032.000000, -12.880564 , 0.497707, 3.529413, 1482033408.000000, -122.150002,  -169.680008,  -26.460001, 0.000000,  0.000000 
 56511232.000000, -15.390635 , -0.220140, 4.101298, 1482053888.000000, -105.980003,  -182.979996,  -37.660000, 0.000000,  0.000000 
 56531200.000000, -17.180466 , -0.614955, 3.742374, 1482073088.000000, -68.389999,  -189.070007,  -46.900002, 0.000000,  0.000000 
 56551168.000000, -16.146767 , -0.220140, 2.455036, 1482093056.000000, -0.420000,  -208.039993,  -45.990002, 0.000000,  0.000000 
 56571648.000000, -14.411970 , 0.722632, 1.160519, 1482113024.000000, 80.290001,  -241.360001,  -32.410000, 0.000000,  0.000000 
 56591872.000000, -13.220345 , 1.462015, 0.184247, 1482133504.000000, 137.690002,  -260.190002,  -20.860001, 0.000000,  0.000000 
 56611328.000000, -12.411572 , 1.741975, -0.760918, 1482153728.000000, 159.250000,  -265.579987,  -16.660000, 0.000000,  0.000000 
 56631296.000000, -11.564510 , 1.584049, -1.237089, 1482173184.000000, 150.080002,  -270.130005,  -15.120000, 0.000000,  0.000000 
 56651264.000000, -10.851451 , 1.421337, -0.930808, 1482193152.000000, 113.120003,  -270.690002,  -14.210000, 0.000000,  0.000000 
 56671488.000000, -10.607382 , 1.325624, -0.526421, 1482213120.000000, 64.190002,  -262.850006,  -12.740000, 0.000000,  0.000000 
 56691712.000000, -9.951750 , 0.619741, -0.653241, 1482233344.000000, 24.850000,  -248.220001,  -6.930000, 0.000000,  0.000000 
 56711168.000000, -9.812965 , -0.100499, -0.452243, 1482253568.000000, -1.820000,  -238.770004,  3.220000, 0.000000,  0.000000 
 56731136.000000, -9.820145 , -0.449851, -0.143569, 1482273024.000000, -26.180000,  -217.210007,  8.330000, 0.000000,  0.000000 
 56751104.000000, -9.437292 , -0.421137, -0.399601, 1482292992.000000, -32.759998,  -203.699997,  13.580000, 0.000000,  0.000000 
 56771584.000000, -8.791230 , 0.138784, -0.818345, 1482312960.000000, -38.150002,  -184.100006,  25.830000, 0.000000,  0.000000 
 56791808.000000, -8.520842 , 0.339781, -1.306481, 1482333440.000000, -41.930000,  -168.770004,  33.250000, 0.000000,  0.000000 
 56811264.000000, -8.039884 , 0.174676, -1.756332, 1482353664.000000, -52.500000,  -150.430008,  38.920002, 0.000000,  0.000000 
 56831232.000000, -7.489535 , -0.239282, -1.947758, 1482373120.000000, -77.209999,  -124.669998,  38.009998, 0.000000,  0.000000 
 56851200.000000, -7.013363 , -0.777667, -1.593620, 1482393088.000000, -117.180000,  -98.000000,  26.250000, 0.000000,  0.000000 
 56871424.000000, -7.475177 , -0.909273, -0.265603, 1482413056.000000, -149.380005,  -66.849998,  10.010000, 0.000000,  0.000000 
 56891648.000000, -9.334401 , -0.452243, 0.985843, 1482433280.000000, -158.970001,  -21.910000,  -5.530000, 0.000000,  0.000000 
 56911104.000000, -10.817951 , -0.473779, 0.679562, 1482453504.000000, -137.899994,  28.280001,  -12.390000, 0.000000,  0.000000 
 56931072.000000, -10.935200 , -1.026521, -0.050249, 1482472960.000000, -92.889999,  63.560001,  -5.390000, 0.000000,  0.000000 
 56951040.000000, -11.057234 , -1.249053, -0.277567, 1482492928.000000, -43.889999,  93.379997,  10.640000, 0.000000,  0.000000 
 56971264.000000, -11.696117 , -0.969093, 0.421137, 1482512896.000000, -0.980000,  137.619995,  27.090000, 0.000000,  0.000000 
 56991744.000000, -12.564712 , 0.078963, 2.287539, 1482533120.000000, 25.059999,  185.430008,  39.270000, 0.000000,  0.000000 
 57010944.000000, -12.691531 , 0.765703, 3.342773, 1482553600.000000, 43.259998,  227.149994,  49.420002, 0.000000,  0.000000 
 57030912.000000, -12.373285 , 0.717847, 3.031706, 1482572800.000000, 79.309998,  249.479996,  60.900002, 0.000000,  0.000000 
 57051136.000000, -12.409179 , 0.311067, 2.433501, 1482592768.000000, 120.260002,  253.330002,  60.410000, 0.000000,  0.000000 
 57071360.000000, -13.440485 , 0.404387, 2.275574, 1482612992.000000, 153.160004,  252.210007,  55.090000, 0.000000,  0.000000 
 57091584.000000, -13.646267 , 1.607977, 1.572084, 1482633216.000000, 183.820007,  248.360001,  39.480000, 0.000000,  0.000000 
 57111040.000000, -12.373285 , 3.192025, 0.301496, 1482653440.000000, 217.000000,  216.860001,  25.410000, 0.000000,  0.000000 
 57131008.000000, -10.581062 , 4.177868, -0.504886, 1482672896.000000, 221.550003,  163.380005,  3.990000, 0.000000,  0.000000 
 57150976.000000, -9.217153 , 4.359723, -0.686740, 1482692864.000000, 176.190002,  120.680000,  -16.590000, 0.000000,  0.000000 
 57171200.000000, -8.784052 , 3.821337, -0.488136, 1482712832.000000, 96.949997,  101.220001,  -33.740002, 0.000000,  0.000000 
 57191424.000000, -9.528220 , 3.108276, -0.088534, 1482733056.000000, 8.960000,  102.269997,  -47.459999, 0.000000,  0.000000 
 57210880.000000, -10.296316 , 2.318645, 0.588634, 1482753280.000000, -71.470001,  113.050003,  -55.720001, 0.000000,  0.000000 
 57230848.000000, -10.999805 , 1.282553, 1.696511, 1482772736.000000, -138.809998,  120.610001,  -59.360001, 0.000000,  0.000000 
 57250816.000000, -11.473583 , 0.227318, 3.129812, 1482792704.000000, -184.169998,  126.000000,  -61.110001, 0.000000,  0.000000 
 57271296.000000, -11.473583 , -0.370888, 4.331009, 1482833152.000000, -182.910004,  135.380005,  -38.709999, 3744416512.000000,  1005.675232 
 57291520.000000, -10.741381 , -0.533599, 4.900501, 0.000000, 0.000000,  0.000000,  0.000000, 0.000000,  0.000000 
 57310976.000000, -10.260423 , -0.399601, 5.324030, 1482853376.000000, -135.800003,  138.740005,  -17.290001, 0.000000,  0.000000 
 57330944.000000, -10.547562 , -0.076570, 5.871986, 1482872832.000000, -67.830002,  146.300003,  0.070000, 0.000000,  0.000000 
 57350912.000000, -11.337193 , 0.806381, 6.618547, 1482892800.000000, 17.920000,  152.460007,  11.200000, 0.000000,  0.000000 
 57371136.000000, -12.232110 , 1.751546, 7.216753, 1482912768.000000, 106.400002,  148.680008,  16.870001, 0.000000,  0.000000 
 57393408.000000, -12.775280 , 2.873780, 5.838487, 1482932992.000000, 182.419998,  129.850006,  22.400000, 0.000000,  0.000000 
 57410816.000000, -12.547962 , 3.728018, 4.110869, 1482955264.000000, 223.790009,  89.879997,  22.469999, 0.000000,  0.000000 
 57430784.000000, -12.382857 , 4.565506, 3.089134, 1482972672.000000, 205.100006,  38.849998,  17.010000, 0.000000,  0.000000 
 57450752.000000, -13.105491 , 5.630312, 2.691926, 1482992640.000000, 149.729996,  -0.420000,  13.300000, 0.000000,  0.000000 
 57470976.000000, -15.122640 , 5.685347, 2.947958, 1483012608.000000, 88.129997,  -26.389999,  12.390000, 0.000000,  0.000000 
 57491456.000000, -16.333406 , 4.378866, 2.632105, 1483032832.000000, 38.080002,  -42.840000,  11.130000, 0.000000,  0.000000 
 57510656.000000, -14.792429 , 2.593820, 1.837688, 1483053312.000000, 6.020000,  -78.190002,  17.780001, 0.000000,  0.000000 
 57530880.000000, -12.928421 , 1.476372, 1.390230, 1483072512.000000, -15.750000,  -131.600006,  33.599998, 0.000000,  0.000000 
 57550848.000000, -12.562319 , 1.110270, 1.612763, 1483092736.000000, -29.260000,  -167.369995,  41.790001, 0.000000,  0.000000 
 57571072.000000, -13.813765 , 0.847059, 2.215754, 1483112704.000000, -38.990002,  -178.289993,  41.790001, 0.000000,  0.000000 
 57591296.000000, -16.144375 , 0.634098, 2.907279, 1483132928.000000, -37.660000,  -175.770004,  38.990002, 0.000000,  0.000000 
 57610752.000000, -17.058434 , 0.574277, 2.866602, 1483153152.000000, -14.700000,  -171.430008,  39.130001, 0.000000,  0.000000 
 57630720.000000, -15.014962 , 0.495314, 1.715654, 1483172608.000000, 26.180000,  -184.240005,  48.790001, 0.000000,  0.000000 
 57650688.000000, -12.763316 , 0.378066, 0.796810, 1483192576.000000, 58.730000,  -210.210007,  65.800003, 0.000000,  0.000000 
 57670912.000000, -11.696117 , 0.679562, -0.074178, 1483212544.000000, 62.860001,  -218.330002,  71.050003, 0.000000,  0.000000 
 57691136.000000, -10.899307 , 0.887737, -0.794417, 1483232768.000000, 50.540001,  -216.860001,  68.739998, 0.000000,  0.000000 
 57710592.000000, -10.090532 , 0.782453, -1.136591, 1483252992.000000, 25.620001,  -219.729996,  61.810001, 0.000000,  0.000000 
 57730560.000000, -9.566505 , 0.440279, -1.138984, 1483272448.000000, -6.860000,  -222.040009,  51.099998, 0.000000,  0.000000 
 57750528.000000, -9.473185 , -0.023928, -0.880559, 1483292416.000000, -33.740002,  -217.139999,  42.490002, 0.000000,  0.000000 
 57771008.000000, -9.781858 , -0.416351, -0.227318, 1483312384.000000, -55.299999,  -205.660004,  35.770000, 0.000000,  0.000000 
 57791232.000000, -9.985250 , -0.641276, 0.296710, 1483332864.000000, -69.230003,  -188.860001,  32.759998, 0.000000,  0.000000 
 57810688.000000, -9.789038 , -0.844666, 0.457029, 1483353088.000000, -69.230003,  -174.789993,  35.000000, 0.000000,  0.000000 
 57830656.000000, -9.430114 , -0.976272, 0.035892, 1483372544.000000, -63.490002,  -167.300003,  39.340000, 0.000000,  0.000000 
 57850624.000000, -9.549755 , -0.502493, -1.110270, 1483392512.000000, -60.830002,  -159.039993,  43.189999, 0.000000,  0.000000 
 57870848.000000, -8.810372 , -0.083749, -3.414558, 1483412480.000000, -65.309998,  -141.960007,  44.099998, 0.000000,  0.000000 
 57891072.000000, -7.025328 , 0.011964, -4.046263, 1483432704.000000, -85.820000,  -129.500000,  41.720001, 0.000000,  0.000000 
 57910528.000000, -6.305088 , -0.330210, -3.132205, 1483452928.000000, -135.869995,  -115.989998,  29.540001, 0.000000,  0.000000 
 57930496.000000, -8.126025 , -0.727418, -1.655833, 1483472384.000000, -191.380005,  -71.050003,  2.450000, 0.000000,  0.000000 
 57950464.000000, -10.882557 , -1.337588, -0.679562, 1483492352.000000, -227.570007,  -2.660000,  -24.850000, 0.000000,  0.000000 
 57970944.000000, -12.217752 , -2.029114, 0.658026, 1483512320.000000, -234.009995,  55.650002,  -35.980000, 0.000000,  0.000000 
 57991168.000000, -11.978470 , -1.892723, 1.646262, 1483532800.000000, -202.229996,  96.529999,  -21.000000, 0.000000,  0.000000 
 58010368.000000, -11.633904 , -1.186840, 1.610370, 1483553024.000000, -134.119995,  131.320007,  14.280000, 0.000000,  0.000000 
 58030592.000000, -11.581261 , -0.172283, 2.208575, 1483572224.000000, -63.279999,  175.419998,  45.080002, 0.000000,  0.000000 
 58050560.000000, -11.720046 , 0.490529, 2.325824, 1483592448.000000, -9.800000,  209.440002,  61.389999, 0.000000,  0.000000 
 58070784.000000, -12.660425 , 0.253639, 2.294717, 1483612416.000000, 35.980000,  229.320007,  70.419998, 0.000000,  0.000000 
 58091008.000000, -14.009976 , -0.229711, 2.603391, 1483632640.000000, 73.779999,  236.880005,  69.510002, 0.000000,  0.000000 
 58110464.000000, -14.091332 , 0.004786, 2.888137, 1483652864.000000, 109.059998,  233.169998,  63.980000, 0.000000,  0.000000 
 58130432.000000, -12.385249 , 1.117448, 2.813959, 1483672320.000000, 137.759995,  205.729996,  54.880001, 0.000000,  0.000000 
 58150400.000000, -10.609775 , 2.488536, 2.543570, 1483692288.000000, 155.750000,  169.820007,  48.509998, 0.000000,  0.000000 
 58170624.000000, -9.188439 , 3.467200, 2.419144, 1483712256.000000, 155.889999,  142.100006,  33.950001, 0.000000,  0.000000 
 58191104.000000, -8.370094 , 3.598805, 2.143969, 1483732480.000000, 128.800003,  122.290001,  12.250000, 0.000000,  0.000000 
 58210304.000000, -8.573483 , 2.699104, 1.653440, 1483752960.000000, 74.690002,  113.120003,  -9.730000, 0.000000,  0.000000 
 58230272.000000, -9.229117 , 1.629512, 1.459622, 1483772160.000000, 5.390000,  115.080002,  -23.730000, 0.000000,  0.000000 
 58250240.000000, -9.911072 , 0.926022, 1.663012, 1483792128.000000, -59.779999,  121.800003,  -27.160000, 0.000000,  0.000000 
 58270720.000000, -10.746166 , 0.978664, 2.222932, 1483832576.000000, -102.830002,  143.289993,  -6.650000, 3745415936.000000,  1005.675720 
 58290944.000000, -10.877771 , 0.674776, 2.581856, 0.000000, 0.000000,  0.000000,  0.000000, 0.000000,  0.000000 
 58310400.000000, -10.502099 , 0.260818, 3.378666, 1483852800.000000, -88.059998,  153.300003,  12.880000, 0.000000,  0.000000 
 58330368.000000, -10.590633 , 0.399601, 4.517649, 1483872256.000000, -69.300003,  164.500000,  27.650000, 0.000000,  0.000000 
 58350336.000000, -11.377872 , 0.746561, 5.917450, 1483892224.000000, -45.009998,  183.399994,  39.410000, 0.000000,  0.000000 
 58370560.000000, -12.698709 , 1.134198, 7.855636, 1483912192.000000, -4.410000,  196.630005,  46.759998, 0.000000,  0.000000 
 58392832.000000, -14.340185 , 1.354338, 9.119047, 1483932416.000000, 65.870003,  195.369995,  49.070000, 0.000000,  0.000000 
 58410240.000000, -14.478970 , 1.907080, 7.491928, 1483954688.000000, 166.250000,  174.580002,  52.430000, 0.000000,  0.000000 
 58430208.000000, -12.344571 , 2.368894, 4.931608, 1483972096.000000, 250.180008,  116.270004,  55.160000, 0.000000,  0.000000 
 58450176.000000, -11.337193 , 4.378866, 3.440879, 1483992064.000000, 246.190002,  35.209999,  42.700001, 0.000000,  0.000000 
 58470656.000000, -12.404392 , 5.747560, 2.562713, 1484012032.000000, 169.259995,  -9.800000,  23.240000, 0.000000,  0.000000 
 58490880.000000, -14.711074 , 5.374279, 3.268596, 1484032512.000000, 95.620003,  -25.900000,  6.020000, 0.000000,  0.000000 
 58510336.000000, -15.914663 , 3.505485, 4.252046, 1484052736.000000, 52.150002,  -46.830002,  -4.480000, 0.000000,  0.000000 
 58530304.000000, -15.565310 , 1.849652, 3.139383, 1484072192.000000, 33.810001,  -83.790001,  0.770000, 0.000000,  0.000000 
 58550272.000000, -14.651253 , 1.765903, 2.167897, 1484092160.000000, 30.100000,  -123.129997,  20.160000, 0.000000,  0.000000 
 58570752.000000, -13.423735 , 1.856830, 2.213361, 1484112128.000000, 33.459999,  -146.229996,  41.650002, 0.000000,  0.000000 
 58590720.000000, -13.445271 , 1.476372, 2.739782, 1484132608.000000, 35.209999,  -169.680008,  56.910000, 0.000000,  0.000000 
 58610176.000000, -14.912071 , 1.296910, 2.672783, 1484152576.000000, 28.210001,  -178.220001,  61.389999, 0.000000,  0.000000 
 58630144.000000, -15.981662 , 1.550549, 1.914258, 1484172032.000000, 25.620001,  -173.740005,  61.599998, 0.000000,  0.000000 
 58650112.000000, -14.782858 , 1.471586, 0.906880, 1484192000.000000, 30.799999,  -173.529999,  62.860001, 0.000000,  0.000000 
 58670336.000000, -12.727424 , 0.945165, 0.303888, 1484211968.000000, 45.639999,  -185.360001,  69.790001, 0.000000,  0.000000 
 58690816.000000, -11.911470 , 0.710668, -0.291924, 1484232192.000000, 45.290001,  -205.100006,  77.070000, 0.000000,  0.000000 
 58710016.000000, -10.734202 , 0.478565, -0.325424, 1484252672.000000, 20.860001,  -214.479996,  75.669998, 0.000000,  0.000000 
 58729984.000000, -10.054641 , 0.421137, -0.263210, 1484271872.000000, -21.139999,  -217.419998,  66.570000, 0.000000,  0.000000 
 58750208.000000, -9.772287 , 0.196211, -0.167498, 1484291840.000000, -58.240002,  -220.360001,  52.570000, 0.000000,  0.000000 
 58770432.000000, -9.657433 , -0.208176, -0.028714, 1484312064.000000, -79.660004,  -221.970001,  35.000000, 0.000000,  0.000000 
 58790656.000000, -9.724431 , -0.624527, 0.004786, 1484332288.000000, -88.620003,  -218.399994,  20.719999, 0.000000,  0.000000 
 58810112.000000, -9.954143 , -0.823131, 0.224925, 1484352512.000000, -88.199997,  -207.410004,  13.580000, 0.000000,  0.000000 
 58830080.000000, -9.853643 , -0.937986, 0.382852, 1484371968.000000, -79.449997,  -191.309998,  11.900000, 0.000000,  0.000000 
 58850048.000000, -9.576077 , -1.019342, 0.133998, 1484391936.000000, -62.580002,  -177.729996,  14.840000, 0.000000,  0.000000 
 58870272.000000, -9.202796 , -0.512064, -1.753939, 1484411904.000000, -42.840000,  -166.110001,  21.980000, 0.000000,  0.000000 
 58890496.000000, -8.362915 , 0.019143, -3.304488, 1484432128.000000, -32.130001,  -154.630005,  27.160000, 0.000000,  0.000000 
 58909952.000000, -7.180861 , 0.342174, -3.768696, 1484452352.000000, -50.049999,  -137.059998,  29.750000, 0.000000,  0.000000 
 58929920.000000, -6.242875 , 0.284746, -3.156133, 1484471808.000000, -100.870003,  -115.290001,  20.440001, 0.000000,  0.000000 
 58949888.000000, -6.417551 , -0.157926, -1.349552, 1484491776.000000, -159.880005,  -83.019997,  -2.450000, 0.000000,  0.000000 
 58970368.000000, -7.798209 , -0.399601, 0.490529, 1484511744.000000, -195.160004,  -31.639999,  -25.270000, 0.000000,  0.000000 
 58990592.000000, -9.552148 , -0.734596, 0.576670, 1484532224.000000, -190.680008,  25.900000,  -35.490002, 0.000000,  0.000000 
 59010048.000000, -10.820344 , -1.457229, 0.050249, 1484552448.000000, -146.580002,  68.599998,  -24.570000, 0.000000,  0.000000 
 59030016.000000, -11.612368 , -1.887937, 0.004786, 1484571904.000000, -86.870003,  114.309998,  -2.100000, 0.000000,  0.000000 
 59049984.000000, -12.148360 , -1.485943, 0.461815, 1484591872.000000, -22.540001,  163.169998,  27.510000, 0.000000,  0.000000 
 59070208.000000, -12.770494 , -0.330210, 1.849652, 1484611840.000000, 33.250000,  206.779999,  53.549999, 0.000000,  0.000000 
 59090432.000000, -13.727623 , 0.545564, 3.479164, 1484632064.000000, 78.330002,  247.100006,  69.510002, 0.000000,  0.000000 
 59109888.000000, -14.869000 , 0.449851, 4.118048, 1484652288.000000, 136.919998,  271.459991,  78.889999, 0.000000,  0.000000 
 59129856.000000, -15.601204 , -0.064606, 3.909872, 1484671744.000000, 221.479996,  279.790009,  78.610001, 0.000000,  0.000000 
 59149824.000000, -14.912071 , 1.222732, 3.072384, 1484691712.000000, 317.380005,  268.029999,  67.760002, 0.000000,  0.000000 
 59170048.000000, -12.583855 , 3.933800, 1.263410, 1484711680.000000, 392.980011,  223.509995,  48.369999, 0.000000,  0.000000 
 59190528.000000, -10.269995 , 6.307480, -0.320638, 1484731904.000000, 407.470001,  157.220001,  25.969999, 0.000000,  0.000000 
 59209728.000000, -8.755339 , 6.934400, -0.748954, 1484752384.000000, 329.700012,  94.639999,  -13.090000, 0.000000,  0.000000 
 59229696.000000, -8.226524 , 6.307480, -0.117248, 1484771584.000000, 174.580002,  52.500000,  -58.240002, 0.000000,  0.000000 
 59249920.000000, -8.908479 , 4.481757, 0.413958, 1484791552.000000, -7.840000,  34.230000,  -91.769997, 0.000000,  0.000000 
 59270144.000000, -9.265009 , 2.703890, 1.186840, 1484811776.000000, -158.479996,  34.020000,  -106.120003, 0.000000,  0.000000 
 59290368.000000, -9.061620 , 1.244268, 1.768296, 1484832000.000000, -262.500000,  36.889999,  -111.510002, 3746415360.000000,  1005.677856 
 59309824.000000, -9.097511 , 0.191426, 2.455036, 1484852224.000000, -307.720001,  44.869999,  -102.410004, 0.000000,  0.000000 
 59329792.000000, -9.087940 , -0.504886, 3.172883, 1484871680.000000, -301.839996,  62.160000,  -84.279999, 0.000000,  0.000000 
 59349760.000000, -8.712267 , -0.818345, 3.773481, 1484891648.000000, -258.089996,  81.059998,  -55.230000, 0.000000,  0.000000 
 59369984.000000, -8.360522 , -0.739382, 4.395615, 1484911616.000000, -185.500000,  96.809998,  -20.860001, 0.000000,  0.000000 
 59392256.000000, -8.396415 , 0.088534, 4.883751, 1484931840.000000, -97.650002,  115.010002,  6.580000, 0.000000,  0.000000 
 59409664.000000, -9.415757 , 1.677369, 5.977271, 1484954112.000000, -13.790000,  135.169998,  24.010000, 0.000000,  0.000000 
 59429632.000000, -11.260624 , 2.450250, 7.800602, 1484971520.000000, 49.209999,  154.910004,  28.420000, 0.000000,  0.000000 
 59449600.000000, -13.459626 , 2.656033, 8.726624, 1484991488.000000, 99.190002,  165.339996,  25.620001, 0.000000,  0.000000 
 59470080.000000, -15.371492 , 2.280360, 7.532606, 1485011456.000000, 166.949997,  154.839996,  25.690001, 0.000000,  0.000000 
 59490304.000000, -16.089338 , 3.617948, 5.761917, 1485031936.000000, 251.160004,  113.610001,  31.430000, 0.000000,  0.000000 
 59509760.000000, -15.397814 , 6.029913, 4.323831, 1485052160.000000, 277.410004,  46.549999,  35.349998, 0.000000,  0.000000 
 59529728.000000, -16.120445 , 7.305287, 3.467200, 1485071616.000000, 216.720001,  -17.290001,  46.270000, 0.000000,  0.000000 
 59549696.000000, -16.512869 , 5.687739, 3.170490, 1485091584.000000, 113.820000,  -55.720001,  43.610001, 0.000000,  0.000000 
 59569920.000000, -15.309279 , 3.254239, 2.924029, 1485111552.000000, 18.340000,  -89.389999,  38.920002, 0.000000,  0.000000 
 59590144.000000, -13.792230 , 2.014757, 2.787638, 1485131776.000000, -47.880001,  -126.770004,  42.560001, 0.000000,  0.000000 
 59609600.000000, -13.024135 , 1.485943, 2.522035, 1485152000.000000, -81.410004,  -154.699997,  50.400002, 0.000000,  0.000000 
 59629568.000000, -13.277774 , 1.172483, 2.273181, 1485171456.000000, -90.510002,  -172.130005,  52.849998, 0.000000,  0.000000 
 59649536.000000, -14.486149 , 0.748954, 2.416751, 1485191424.000000, -86.239998,  -181.160004,  52.779999, 0.000000,  0.000000 
 59670016.000000, -15.134604 , 0.485743, 2.282753, 1485211392.000000, -76.930000,  -178.850006,  51.380001, 0.000000,  0.000000 
 59690240.000000, -13.854443 , 0.303888, 1.651048, 1485231872.000000, -59.290001,  -180.389999,  54.950001, 0.000000,  0.000000 
 59709440.000000, -12.067005 , 0.279960, 1.141376, 1485252096.000000, -33.320000,  -194.389999,  62.860001, 0.000000,  0.000000 
 59729664.000000, -10.743774 , 0.265603, 0.612563, 1485271296.000000, -13.650000,  -207.410004,  65.449997, 0.000000,  0.000000 
 59749632.000000, -9.901501 , 0.483350, 0.380459, 1485291520.000000, -8.960000,  -212.660004,  61.110001, 0.000000,  0.000000 
 59769856.000000, -9.549755 , 0.394816, 0.232104, 1485311488.000000, -18.760000,  -215.250000,  51.029999, 0.000000,  0.000000 
 59790080.000000, -9.324830 , 0.124427, 0.260818, 1485331712.000000, -34.020000,  -213.779999,  38.920002, 0.000000,  0.000000 
 59809536.000000, -9.186047 , -0.401994, 0.294317, 1485351936.000000, -49.279999,  -209.020004,  27.860001, 0.000000,  0.000000 
 59829504.000000, -8.975478 , -0.629312, 0.339781, 1485371392.000000, -59.920002,  -200.270004,  19.809999, 0.000000,  0.000000 
 59849472.000000, -8.937192 , -0.715454, 0.306281, 1485391360.000000, -62.860001,  -188.160004,  15.470000, 0.000000,  0.000000 
 59869696.000000, -8.863015 , -0.947558, 0.461815, 1485411328.000000, -56.630001,  -172.550003,  15.190001, 0.000000,  0.000000 
 59889920.000000, -8.470592 , -0.748954, -0.179462, 1485431552.000000, -45.639999,  -157.149994,  15.050000, 0.000000,  0.000000 
 59909376.000000, -7.676175 , 0.102891, -1.854438, 1485451776.000000, -31.920000,  -147.979996,  16.870001, 0.000000,  0.000000 
 59929344.000000, -6.714260 , 0.607777, -2.443072, 1485471232.000000, -24.990000,  -137.410004,  21.139999, 0.000000,  0.000000 
 59949312.000000, -6.151947 , 0.421137, -2.770889, 1485491200.000000, -47.740002,  -121.099998,  21.559999, 0.000000,  0.000000 
 59969792.000000, -6.271588 , -0.040678, -2.179861, 1485511168.000000, -98.840004,  -87.779999,  11.270000, 0.000000,  0.000000 
 59990016.000000, -7.164111 , -0.504886, -1.107877, 1485531648.000000, -151.339996,  -45.570000,  -2.660000, 0.000000,  0.000000 
 60009472.000000, -8.480164 , -0.875773, -0.272782, 1485551872.000000, -170.729996,  2.450000,  -10.780000, 0.000000,  0.000000 
 60029440.000000, -9.906286 , -1.112662, -0.988236, 1485571328.000000, -154.910004,  51.099998,  -8.540000, 0.000000,  0.000000 
 60049408.000000, -11.150554 , -1.258625, -1.153341, 1485591296.000000, -115.360001,  91.769997,  4.830000, 0.000000,  0.000000 
 60069632.000000, -12.110075 , -1.514657, -0.191426, 1485611264.000000, -74.970001,  140.910004,  21.420000, 0.000000,  0.000000 
 60089856.000000, -13.421343 , -1.466800, 0.045464, 1485631488.000000, -31.990000,  196.070007,  37.660000, 0.000000,  0.000000 
 60109312.000000, -14.763715 , -0.559920, 0.397209, 1485651712.000000, 11.130000,  254.380005,  48.160000, 0.000000,  0.000000 
 60129280.000000, -16.603796 , 0.205783, 4.792823, 1485671168.000000, 50.189999,  304.149994,  54.320000, 0.000000,  0.000000 
 60149248.000000, -18.242880 , -0.655633, 6.216553, 1485691136.000000, 113.820000,  335.720001,  55.930000, 0.000000,  0.000000 
 60169728.000000, -16.352549 , -1.031307, 3.546163, 1485711104.000000, 249.410004,  332.149994,  63.980000, 0.000000,  0.000000 
 60189952.000000, -13.505091 , 1.715654, 1.423729, 1485731584.000000, 377.860016,  272.929993,  48.860001, 0.000000,  0.000000 
 60209152.000000, -11.947363 , 5.704489, 0.339781, 1485751808.000000, 377.089996,  201.880005,  25.760000, 0.000000,  0.000000 
 60229376.000000, -11.619547 , 7.200003, 0.071785, 1485771008.000000, 261.799988,  146.020004,  -12.110000, 0.000000,  0.000000 
 60249344.000000, -10.616954 , 6.412765, 0.806381, 1485791232.000000, 114.590004,  107.520004,  -67.900002, 0.000000,  0.000000 
 60269568.000000, -9.611969 , 4.400401, 1.387837, 1485831424.000000, -104.510002,  64.820000,  -111.650002, 3747415040.000000,  1005.680603 
 60289792.000000, -9.293723 , 2.055435, 1.627119, 0.000000, 0.000000,  0.000000,  0.000000, 0.000000,  0.000000 
 60309248.000000, -9.528220 , -0.196211, 1.634298, 1485851648.000000, -159.740005,  68.809998,  -116.129997, 0.000000,  0.000000 
