Acc_timestamp,Accx,Accy,Accz,Gyro_timestamp,Gyrox,Gyroy,Gyroz,Baro_timestamp,Pressure_Reading
 54230400.000000, -2.732604 , -2.062613, 9.561719, 0.000000, 0.000000,  0.000000,  0.000000, 0.000000,  0.000000
 19968.000000, -1.083949 , -1.313660, 9.556933, 0.000000, 0.000000,  0.000000,  0.000000, 0.000000,  0.000000
 39936.000000, -1.612763 , -1.299303, 9.542577, 0.000000, 0.000000,  0.000000,  0.000000, 0.000000,  0.000000 
 60288.000000, -1.966900 , -1.435694, 9.671788, 0.000000, 0.000000,  0.000000,  0.000000, 0.000000,  0.000000 
 81152.000000, -1.923829 , -1.306481, 9.777073, 1841609728.000000, -8.190000,  -8.260000,  -4.830000, 0.000000,  0.000000 
 100352.000000, -1.737189 , -1.210768, 9.681360, 1841630464.000000, -8.190000,  -8.260000,  -4.830000, 0.000000,  0.000000 
 120320.000000, -1.639083 , -1.158126, 9.796216, 1841649664.000000, 15.190001,  0.350000,  3.710000, 0.000000,  0.000000 
 140288.000000, -1.966900 , -1.198804, 9.891929, 1841669632.000000, 27.650000,  -9.170000,  1.190000, 0.000000,  0.000000 
 160256.000000, -2.132005 , -1.100698, 9.894321, 1841689600.000000, 25.340000,  -2.800000,  4.480000, 0.000000,  0.000000 
 183168.000000, -2.007578 , -0.952343, 10.006784, 1841709696.000000, 24.219999,  -1.260000,  9.170000, 0.000000,  0.000000 
 200192.000000, -1.942972 , -0.832702, 9.930215, 1841732480.000000, 16.590000,  -6.790000,  10.570000, 1842199936.000000,  1008.549744 
 220288.000000, -1.866402 , -0.775275, 9.887143, 1841749632.000000, 7.140000,  -9.100000,  11.620000, 0.000000,  0.000000 
 240256.000000, -1.481157 , -0.559920, 9.793823, 1841769600.000000, 3.710000,  -13.930000,  9.100000, 0.000000,  0.000000 
 260224.000000, -1.263410 , -0.277567, 9.671788, 1841789568.000000, 9.660000,  -19.740000,  5.810000, 0.000000,  0.000000 
 281088.000000, -1.380659 , -0.074178, 9.568897, 1841809536.000000, 14.350000,  -21.210001,  -0.420000, 0.000000,  0.000000 
 300160.000000, -1.399801 , 0.203390, 9.413363, 1841830528.000000, 17.990000,  -19.110001,  -4.550000, 0.000000,  0.000000 
 320128.000000, -1.380659 , 0.404387, 9.083155, 1841849600.000000, 21.840000,  -17.570000,  -6.090000, 0.000000,  0.000000 
 340224.000000, -1.361516 , 0.602991, 9.035298, 1841869568.000000, 22.750000,  -17.780001,  -7.000000, 0.000000,  0.000000 
 360192.000000, -1.249053 , 0.885344, 8.901299, 1841889536.000000, 22.190001,  -17.990000,  -7.630000, 0.000000,  0.000000 
 381056.000000, -1.342373 , 1.275374, 8.750552, 1841909504.000000, 24.710001,  -17.430000,  -8.960000, 0.000000,  0.000000 
 400128.000000, -1.725225 , 1.447658, 8.796017, 1841930368.000000, 19.180000,  -14.000000,  -11.270000, 0.000000,  0.000000 
 420096.000000, -2.333002 , 1.406980, 8.458629, 1841949440.000000, 8.050000,  -10.010000,  -10.500000, 0.000000,  0.000000 
 440064.000000, -3.259024 , 1.643869, 8.130811, 1841969536.000000, 0.350000,  0.140000,  -6.930000, 0.000000,  0.000000 
 460160.000000, -4.429115 , 1.737189, 7.724032, 1841989504.000000, -9.100000,  11.760000,  -6.440000, 0.000000,  0.000000 
 481024.000000, -5.407779 , 1.275374, 6.271588, 1842009472.000000, -32.130001,  19.320000,  -4.760000, 0.000000,  0.000000 
 500096.000000, -5.419744 , 0.610170, 4.213760, 1842030336.000000, -76.019997,  29.049999,  7.000000, 0.000000,  0.000000 
 520064.000000, -4.543970 , -0.478565, 2.249253, 1842049408.000000, -157.220001,  27.230000,  23.170000, 0.000000,  0.000000 
 540032.000000, -3.756732 , -1.868794, 1.392623, 1842069376.000000, -271.809998,  18.690001,  32.130001, 0.000000,  0.000000 
 560000.000000, -3.141776 , -3.172883, 1.050449, 1842089472.000000, -384.089996,  22.889999,  33.529999, 0.000000,  0.000000 
 580992.000000, -2.677568 , -4.165904, 1.421337, 1842109440.000000, -467.390015,  26.670000,  27.510000, 0.000000,  0.000000 
 600064.000000, -2.428715 , -5.230711, 2.979064, 1842130304.000000, -518.349976,  26.809999,  29.680000, 0.000000,  0.000000 
 620032.000000, -2.263610 , -5.383851, 5.615955, 1842149376.000000, -530.109985,  31.360001,  45.430000, 0.000000,  0.000000 
 640000.000000, -1.627119 , -5.225924, 8.126025, 1842169344.000000, -491.959991,  37.450001,  69.790001, 0.000000,  0.000000 
 659968.000000, -0.787239 , -6.427122, 7.948956, 1842189312.000000, -379.959991,  35.000000,  104.720001, 0.000000,  0.000000 
 680832.000000, 0.071785 , -7.724032, 7.518249, 1842209408.000000, -187.880005,  10.570000,  127.610001, 0.000000,  0.000000 
 699904.000000, -0.866202 , -11.971292, 9.004191, 1842230272.000000, -35.209999,  -8.680000,  140.490005, 0.000000,  0.000000 
 720000.000000, -3.672983 , -19.377077, 4.747360, 1842249344.000000, -13.090000,  -2.520000,  129.430008, 0.000000,  0.000000 
 739968.000000, -14.924035 , -43.824543, 2.155933, 1842269312.000000, -136.570007,  39.970001,  101.849998, 0.000000,  0.000000 
 759936.000000, -16.785650 , -58.224552, 7.307681, 1842289280.000000, -372.470001,  72.029999,  15.680000, 0.000000,  0.000000 
 780800.000000, -12.696317 , -46.703114, 2.770889, 1842309248.000000, -407.119995,  -142.029999,  -136.500000, 0.000000,  0.000000 
 799872.000000, -13.818550 , -34.703106, -1.258625, 1842330240.000000, -199.360001,  -71.050003,  -140.839996, 0.000000,  0.000000 
 819840.000000, -8.315059 , -20.750557, -3.967300, 1842349312.000000, -19.040001,  -44.799999,  -228.339996, 0.000000,  0.000000 
 839936.000000, -5.015356 , -9.994821, -2.342573, 1842369280.000000, 30.100000,  -31.500000,  -207.690002, 0.000000,  0.000000 
 859904.000000, -1.864009 , -2.952743, 1.091127, 1842389248.000000, 23.940001,  -47.180000,  -200.059998, 0.000000,  0.000000 
 880768.000000, 2.120041 , 2.019542, 2.177469, 1842409216.000000, 56.279999,  -68.180000,  -158.059998, 0.000000,  0.000000 
 899840.000000, 3.840480 , 10.277173, 0.684347, 1842430208.000000, 172.550003,  -104.510002,  -94.639999, 0.000000,  0.000000 
 919808.000000, 8.063812 , 16.118053, -4.141976, 1842449280.000000, 339.570007,  -164.570007,  -96.599998, 0.000000,  0.000000 
 939776.000000, 5.312066 , 15.670596, -6.020342, 1842469248.000000, 498.190002,  -92.959999,  -39.900002, 0.000000,  0.000000 
 959872.000000, 1.004985 , 10.798808, -5.778666, 1842489216.000000, 314.510010,  75.180000,  53.689999, 0.000000,  0.000000 
 980736.000000, -0.571885 , 7.463214, -6.532406, 1842509184.000000, 73.010002,  141.889999,  111.370003, 0.000000,  0.000000 
 999808.000000, -0.830309 , 4.551149, -5.781059, 1842530048.000000, -49.209999,  119.840004,  108.010002, 0.000000,  0.000000 
 1019776.000000, -0.524028 , 2.507678, -4.390830, 1842549120.000000, -121.449997,  61.599998,  81.760002, 0.000000,  0.000000 
 1039744.000000, 0.428315 , 1.165305, -2.926422, 1842569216.000000, -158.410004,  1.330000,  87.150002, 0.000000,  0.000000 
 1059712.000000, 0.318245 , 0.337388, -2.517249, 1842589184.000000, -164.850006,  -21.700001,  113.610001, 0.000000,  0.000000 
 1080704.000000, -0.277567 , -0.215354, -1.655833, 1842609152.000000, -154.490005,  -10.640000,  102.970001, 0.000000,  0.000000 
 1099776.000000, -0.961915 , -0.473779, -0.634098, 1842630016.000000, -137.550003,  11.550000,  93.590004, 0.000000,  0.000000 
 1119744.000000, -0.949951 , -0.878166, -0.277567, 1842649088.000000, -120.120003,  4.270000,  92.540001, 0.000000,  0.000000 
 1139712.000000, -0.284746 , -1.316052, -0.200997, 1842669056.000000, -84.699997,  -17.219999,  88.690002, 0.000000,  0.000000 
 1159680.000000, 0.294317 , -1.574477, -0.200997, 1842689152.000000, -51.240002,  -33.599998,  80.360001, 0.000000,  0.000000 
 1182592.000000, 0.715454 , -1.356731, 0.890130, 1842709120.000000, -39.549999,  -37.520000,  73.709999, 0.000000,  0.000000 
 1199744.000000, 0.610170 , -1.871187, 1.610370, 1842731904.000000, -35.349998,  -26.110001,  77.279999, 1843199488.000000,  1008.549255 
 1219712.000000, -0.669990 , -2.916851, 2.782853, 1842749056.000000, -10.710000,  -7.630000,  79.940002, 0.000000,  0.000000 
 1239680.000000, -2.517249 , -5.326423, 1.701297, 1842769024.000000, -15.680000,  29.610001,  80.639999, 0.000000,  0.000000 
 1259648.000000, -6.752545 , -15.718451, -2.811567, 1842789120.000000, -73.360001,  63.700001,  82.809998, 0.000000,  0.000000 
 1280512.000000, -56.336613 , -67.755165, -21.930218, 1842809088.000000, -137.479996,  36.330002,  91.279999, 0.000000,  0.000000 
 1299584.000000, -18.089739 , -57.970917, -12.887742, 1842829952.000000, -256.269989,  -73.080002,  38.849998, 0.000000,  0.000000 
 1319680.000000, -14.574683 , -42.556351, -0.911665, 1842849024.000000, -439.529999,  -107.099998,  16.730000, 0.000000,  0.000000 
 1339648.000000, -14.500504 , -30.996626, -2.330609, 1842868992.000000, -301.209991,  10.570000,  -187.600006, 0.000000,  0.000000 
 1359616.000000, -17.474783 , -30.594629, -5.812167, 1842888960.000000, -70.419998,  156.449997,  -178.430008, 0.000000,  0.000000 
 1380480.000000, -13.646267 , -26.660830, -3.768696, 1842908928.000000, 21.910000,  176.539993,  -168.350006, 0.000000,  0.000000 
 1399552.000000, -7.231110 , -17.577675, -0.681954, 1842929920.000000, 35.349998,  123.129997,  -146.789993, 0.000000,  0.000000 
 1419520.000000, -5.261817 , -11.595619, 1.127020, 1842948992.000000, 20.930000,  62.299999,  -134.539993, 0.000000,  0.000000 
 1439616.000000, -4.003192 , -6.695118, 2.593820, 1842968960.000000, 36.959999,  1.750000,  -134.119995, 0.000000,  0.000000 
 1459584.000000, -1.739582 , -2.880959, 1.462015, 1842988928.000000, 122.290001,  -24.150000,  -76.300003, 0.000000,  0.000000 
 1480448.000000, -0.595813 , 0.078963, 0.538385, 1843008896.000000, 195.789993,  -45.779999,  -1.540000, 0.000000,  0.000000 
 1499520.000000, -0.102891 , 2.376073, -1.337588, 1843029888.000000, 229.250000,  -73.500000,  26.040001, 0.000000,  0.000000 
 1519488.000000, -0.052642 , 4.398008, -2.505285, 1843048960.000000, 226.029999,  -94.989998,  33.670002, 0.000000,  0.000000 
 1539456.000000, 0.160319 , 5.764310, -1.940579, 1843068928.000000, 195.229996,  -94.709999,  52.150002, 0.000000,  0.000000 
 1559552.000000, 0.368495 , 5.706882, -1.550549, 1843088896.000000, 142.660004,  -69.930000,  81.269997, 0.000000,  0.000000 
 1580416.000000, 1.313660 , 5.137390, -2.199004, 1843108864.000000, 89.180000,  -28.840000,  73.849998, 0.000000,  0.000000 
 1599488.000000, 2.955136 , 5.010571, -2.057827, 1843129728.000000, 26.880001,  -36.259998,  51.450001, 0.000000,  0.000000 
 1619456.000000, 4.457829 , 3.761517, -2.933600, 1843148800.000000, -23.520000,  -75.320000,  56.910000, 0.000000,  0.000000 
 1639424.000000, 4.074977 , 2.175076, -2.701497, 1843168896.000000, -49.209999,  -76.580002,  73.430000, 0.000000,  0.000000 
 1659392.000000, 2.799603 , 0.787239, -1.191626, 1843188864.000000, -80.989998,  -42.490002,  86.590004, 0.000000,  0.000000 
 1680384.000000, 1.531406 , -0.150748, 0.095713, 1843208832.000000, -93.800003,  4.340000,  103.529999, 0.000000,  0.000000 
 1699456.000000, 0.866202 , -0.736989, -0.052642, 1843229696.000000, -76.090004,  25.200001,  100.029999, 0.000000,  0.000000 
 1719424.000000, 1.057628 , -0.705883, -0.574277, 1843248768.000000, -43.610001,  18.690001,  89.599998, 0.000000,  0.000000 
 1739392.000000, 1.088734 , -0.428315, -0.270389, 1843268736.000000, -11.970000,  7.910000,  80.709999, 0.000000,  0.000000 
 1759360.000000, 0.880559 , -0.538385, 0.787239, 1843288832.000000, 0.210000,  8.610000,  68.739998, 0.000000,  0.000000 
 1780352.000000, 0.210568 , -1.251446, 1.734797, 1843308800.000000, -0.910000,  25.410000,  68.320000, 0.000000,  0.000000 
 1799424.000000, -0.339781 , -1.505085, 1.251446, 1843329792.000000, -15.260000,  43.540001,  64.330002, 0.000000,  0.000000 
 1819392.000000, -0.705883 , -2.971886, 1.232304, 1843348736.000000, -41.090000,  50.820000,  62.230000, 0.000000,  0.000000 
 1839360.000000, -2.069792 , -6.769295, 2.660819, 1843368704.000000, -63.560001,  51.939999,  59.709999, 0.000000,  0.000000 
 1859328.000000, -4.235296 , -21.320049, -0.717847, 1843388672.000000, -77.840004,  44.099998,  53.480000, 0.000000,  0.000000 
 1880192.000000, -26.543583 , -50.632130, -2.242075, 1843408640.000000, -33.529999,  47.740002,  48.790001, 0.000000,  0.000000 
 1899264.000000, -25.691738 , -46.418365, -6.226124, 1843429632.000000, -118.300003,  78.470001,  25.690001, 0.000000,  0.000000 
 1919232.000000, -19.757536 , -34.801212, -3.711268, 1843448704.000000, -115.220001,  8.680000,  27.090000, 0.000000,  0.000000 
 1939328.000000, -16.764114 , -24.674786, -0.124427, 1843468672.000000, -4.900000,  -31.080000,  3.220000, 0.000000,  0.000000 
 1959296.000000, -18.556339 , -26.206194, 0.026321, 1843488640.000000, -32.759998,  19.460001,  -190.190002, 0.000000,  0.000000 
 1980160.000000, -18.680767 , -28.764122, -2.529213, 1843508608.000000, -66.430000,  73.709999,  -183.470001, 0.000000,  0.000000 
 1999488.000000, -16.362122 , -24.536003, -2.191825, 1843529600.000000, -2.450000,  96.879997,  -179.899994, 0.000000,  0.000000 
 2019200.000000, -11.227123 , -16.481762, -1.320838, 1843548800.000000, 72.800003,  71.680000,  -149.029999, 0.000000,  0.000000 
 2039168.000000, -7.470392 , -11.583653, 0.614955, 1843568640.000000, 83.720001,  30.170000,  -144.899994, 0.000000,  0.000000 
 2059264.000000, -5.400600 , -7.807780, 1.660619, 1843588608.000000, 29.889999,  -7.840000,  -140.139999, 0.000000,  0.000000 
 2080128.000000, -2.943172 , -5.977271, 2.828316, 1843608576.000000, 6.860000,  -14.070000,  -108.779999, 0.000000,  0.000000 
 2099200.000000, -0.732204 , -2.395216, 2.648855, 1843629440.000000, 77.000000,  -48.299999,  -46.270000, 0.000000,  0.000000 
 2119168.000000, 0.466600 , 1.306481, 0.787239, 1843648512.000000, 177.449997,  -60.340000,  -8.820000, 0.000000,  0.000000 
 2139136.000000, 1.127020 , 4.199404, -1.804188, 1843668608.000000, 241.710007,  -49.349998,  4.200000, 0.000000,  0.000000 
 2159104.000000, 1.615155 , 6.479764, -2.995814, 1843688576.000000, 276.360016,  -42.910000,  8.820000, 0.000000,  0.000000 
 2182016.000000, 1.782653 , 6.891330, -2.794817, 1843708544.000000, 232.259995,  -23.030001,  0.350000, 0.000000,  0.000000 
 2199168.000000, 2.076970 , 5.266603, -2.632105, 1843731456.000000, 152.949997,  1.330000,  0.770000, 1844198912.000000,  1008.546814 
 2219136.000000, 2.368894 , 3.814159, -3.369094, 1843748480.000000, 71.820000,  7.700000,  11.620000, 0.000000,  0.000000 
 2239104.000000, 2.663212 , 3.232704, -3.419343, 1843768448.000000, 11.060000,  -13.510000,  5.040000, 0.000000,  0.000000 
 2259072.000000, 2.895315 , 2.880959, -2.746960, 1843788544.000000, -24.219999,  -41.299999,  6.160000, 0.000000,  0.000000 
 2280064.000000, 2.478964 , 2.132005, -2.206182, 1843808512.000000, -43.119999,  -49.000000,  23.660000, 0.000000,  0.000000 
 2299136.000000, 1.593620 , 1.292124, -2.323431, 1843829376.000000, -45.709999,  -31.639999,  34.439999, 0.000000,  0.000000 
 2319104.000000, 0.806381 , 1.004985, -2.316252, 1843848448.000000, -36.330002,  -13.230000,  37.310001, 0.000000,  0.000000 
 2339072.000000, 0.483350 , 0.909273, -2.021935, 1843868416.000000, -30.799999,  -2.730000,  42.770000, 0.000000,  0.000000 
 2359040.000000, 0.519243 , 0.765703, -1.756332, 1843888384.000000, -31.780001,  0.630000,  47.740002, 0.000000,  0.000000 
 2379904.000000, 0.842274 , 0.220140, -1.342373, 1843908480.000000, -35.980000,  0.700000,  48.720001, 0.000000,  0.000000 
 2398976.000000, 1.088734 , -0.064606, -0.612563, 1843929344.000000, -35.770000,  7.770000,  52.009998, 0.000000,  0.000000 
 2419072.000000, 1.007378 , -0.117248, -0.313460, 1843948416.000000, -36.119999,  26.460001,  55.439999, 0.000000,  0.000000 
 2439040.000000, 0.373280 , -2.574677, 0.937986, 1843968384.000000, -42.349998,  56.980000,  58.029999, 0.000000,  0.000000 
 2459008.000000, -2.871387 , -15.694524, -1.258625, 1843988352.000000, -80.220001,  99.260002,  66.430000, 0.000000,  0.000000 
 2479872.000000, -24.799213 , -56.724255, -1.373480, 1844008320.000000, -137.550003,  120.400002,  90.370003, 0.000000,  0.000000 
 2498944.000000, -20.305492 , -45.255451, -5.680561, 1844029312.000000, -263.480011,  282.799988,  96.669998, 0.000000,  0.000000 
 2518912.000000, -20.051853 , -40.634914, 1.134198, 1844048384.000000, -60.130001,  -33.040001,  105.769997, 0.000000,  0.000000 
 2539008.000000, -11.042876 , -30.427134, 3.110669, 1844068352.000000, -152.039993,  41.160000,  -94.989998, 0.000000,  0.000000 
 2558976.000000, -18.678373 , -33.382267, 2.818745, 1844088320.000000, -71.190002,  116.270004,  -116.059998, 0.000000,  0.000000 
 2579840.000000, -14.598611 , -28.716265, 1.375873, 1844108288.000000, 18.410000,  129.500000,  -151.550003, 0.000000,  0.000000 
 2598912.000000, -10.368099 , -21.119051, 2.199004, 1844129280.000000, 100.099998,  96.459999,  -120.610001, 0.000000,  0.000000 
 2618880.000000, -6.671190 , -14.335401, 1.598405, 1844148352.000000, 87.360001,  17.639999,  -147.699997, 0.000000,  0.000000 
 2638848.000000, -3.515057 , -9.207582, 1.196411, 1844168320.000000, 29.049999,  -60.619999,  -144.059998, 0.000000,  0.000000 
 2658944.000000, -0.818345 , -5.919843, 1.962115, 1844188288.000000, 11.270000,  -103.250000,  -125.160004, 0.000000,  0.000000 
 2679808.000000, 1.545763 , -3.249453, 1.234696, 1844208256.000000, 58.660000,  -108.080002,  -66.709999, 0.000000,  0.000000 
 2698880.000000, 1.890330 , -0.911665, -0.447458, 1844229120.000000, 122.080002,  -83.930000,  -0.910000, 0.000000,  0.000000 
 2718848.000000, 1.344766 , 1.280160, -2.249253, 1844248192.000000, 146.160004,  -38.639999,  24.570000, 0.000000,  0.000000 
 2738816.000000, 0.110070 , 2.280360, -2.562713, 1844268288.000000, 146.160004,  -3.850000,  56.279999, 0.000000,  0.000000 
 2758784.000000, -1.026521 , 2.344966, -2.330609, 1844288256.000000, 120.820000,  31.290001,  74.900002, 0.000000,  0.000000 
 2780544.000000, -1.392623 , 2.407180, -2.579463, 1844308224.000000, 77.980003,  58.240002,  76.440002, 0.000000,  0.000000 
 2798848.000000, -0.361316 , 2.541178, -2.172683, 1844329856.000000, 52.920002,  52.080002,  48.369999, 0.000000,  0.000000 
 2818816.000000, 1.777867 , 3.043670, -1.677369, 1844348288.000000, 37.450001,  -4.970000,  8.260000, 0.000000,  0.000000 
 2838912.000000, 3.309274 , 3.081956, -2.199004, 1844368256.000000, 8.190000,  -72.940002,  6.160000, 0.000000,  0.000000 
 2858880.000000, 2.349752 , 1.947758, -3.038885, 1844388224.000000, -13.300000,  -92.330002,  15.120000, 0.000000,  0.000000 
 2879744.000000, 0.160319 , 0.827917, -2.263610, 1844408192.000000, -29.960001,  -54.670002,  16.870001, 0.000000,  0.000000 
 2898816.000000, -1.591227 , -0.401994, -1.253839, 1844429184.000000, -50.680000,  -2.730000,  28.350000, 0.000000,  0.000000 
 2918912.000000, -2.349752 , -1.131805, -0.906880, 1844448256.000000, -52.570000,  5.950000,  36.330002, 0.000000,  0.000000 
 2938880.000000, -1.196411 , -1.007378, -0.634098, 1844468224.000000, -43.259998,  -20.580000,  34.439999, 0.000000,  0.000000 
 2958848.000000, 0.210568 , -0.715454, -0.081356, 1844488192.000000, -24.920000,  -51.380001,  31.850000, 0.000000,  0.000000 
 2979712.000000, 1.579263 , -0.289532, 0.693919, 1844508160.000000, -10.430000,  -74.059998,  21.139999, 0.000000,  0.000000 
 2998784.000000, 2.409572 , -0.167498, 1.335195, 1844529152.000000, -14.140000,  -64.680000,  19.879999, 0.000000,  0.000000 
 3018752.000000, 2.500499 , -0.507278, 1.416551, 1844548096.000000, -23.870001,  -28.350000,  23.590000, 0.000000,  0.000000 
 3038848.000000, 1.823331 , -2.600998, 2.383251, 1844568192.000000, -28.980000,  18.760000,  19.950001, 0.000000,  0.000000 
 3058688.000000, 1.306481 , -6.070591, 3.536592, 1844588160.000000, -38.360001,  65.870003,  2.380000, 0.000000,  0.000000 
 3079680.000000, 3.275774 , -11.882757, 2.720639, 1844608128.000000, -91.980003,  68.529999,  -23.379999, 0.000000,  0.000000 
 3098752.000000, 7.795816 , -35.813377, -4.809574, 1844628992.000000, -152.809998,  -20.370001,  4.270000, 0.000000,  0.000000 
 3118720.000000, -18.575481 , -66.558754, 2.924029, 1844648064.000000, -167.020004,  -42.349998,  171.710007, 0.000000,  0.000000 
 3138816.000000, -12.284752 , -40.534412, -6.704689, 1844668160.000000, -323.540009,  220.500000,  57.680000, 0.000000,  0.000000 
 3158656.000000, -7.410572 , -36.957146, 1.033699, 1844688128.000000, 34.439999,  -61.459999,  -61.670002, 0.000000,  0.000000 
 3181568.000000, -8.685946 , -28.917261, 3.763910, 1844731008.000000, -2.730000,  79.519997,  -189.070007, 1845198464.000000,  1008.546204 
 3198720.000000, -10.047462 , -28.735407, 3.002992, 0.000000, 0.000000,  0.000000,  0.000000, 0.000000,  0.000000 
 3218688.000000, -8.963513 , -25.016960, 0.885344, 1844748032.000000, 87.500000,  89.250000,  -158.059998, 0.000000,  0.000000 
 3238784.000000, -6.592227 , -18.565910, 0.208176, 1844768128.000000, 142.380005,  63.000000,  -150.710007, 0.000000,  0.000000 
 3258624.000000, -5.845665 , -13.672589, -1.009771, 1844788096.000000, 118.090004,  -8.680000,  -156.449997, 0.000000,  0.000000 
 3280000.000000, -4.737789 , -9.497113, 0.368495, 1844808064.000000, 53.900002,  -63.209999,  -158.550003, 0.000000,  0.000000 
 3298560.000000, -2.868994 , -7.180861, 1.801795, 1844829440.000000, 26.600000,  -88.480003,  -114.730003, 0.000000,  0.000000 
 3319552.000000, -1.227518 , -4.539185, 0.337388, 1844848000.000000, 91.279999,  -97.720001,  -62.860001, 0.000000,  0.000000 
 3339392.000000, -0.564706 , -1.572084, -1.122234, 1844868864.000000, 191.380005,  -84.910004,  -30.240000, 0.000000,  0.000000 
 3359360.000000, -0.844666 , 0.497707, -2.483750, 1844888832.000000, 256.619995,  -51.450001,  -13.720000, 0.000000,  0.000000 
 3380352.000000, -1.387837 , 3.278167, -3.053242, 1844908800.000000, 270.899994,  -8.960000,  -6.230000, 0.000000,  0.000000 
 3399424.000000, -1.990828 , 4.888536, -4.101298, 1844929792.000000, 252.630005,  41.230000,  12.110000, 0.000000,  0.000000 
 3419904.000000, -2.476572 , 4.895715, -4.917251, 1844948736.000000, 231.000000,  79.870003,  34.369999, 0.000000,  0.000000 
 3439744.000000, -1.459622 , 3.926622, -4.223332, 1844969216.000000, 164.779999,  83.440002,  23.590000, 0.000000,  0.000000 
 3459712.000000, 0.540778 , 2.885744, -2.648855, 1844989184.000000, 58.660000,  29.120001,  10.990000, 0.000000,  0.000000 
 3480704.000000, 2.179861 , 2.005185, -2.433501, 1845009152.000000, -13.580000,  -48.720001,  25.059999, 0.000000,  0.000000 
 3499776.000000, 3.598805 , 1.246661, -2.749353, 1845030016.000000, -31.990000,  -97.370003,  50.400002, 0.000000,  0.000000 
 3520256.000000, 3.637090 , 1.617548, -2.467000, 1845049088.000000, -26.320000,  -84.279999,  80.989998, 0.000000,  0.000000 
 3540096.000000, 2.005185 , 2.196611, -3.103491, 1845069568.000000, -19.250000,  -24.920000,  90.019997, 0.000000,  0.000000 
 3560064.000000, 0.287139 , 1.753939, -2.801995, 1845089536.000000, -8.750000,  28.630001,  78.400002, 0.000000,  0.000000 
 3581056.000000, -1.055235 , 1.390230, -1.868794, 1845109504.000000, -15.470000,  58.450001,  72.239998, 0.000000,  0.000000 
 3600000.000000, -1.115055 , 1.375873, -1.543371, 1845130368.000000, -62.369999,  46.340000,  71.680000, 0.000000,  0.000000 
 3619840.000000, -0.512064 , -0.440279, -0.574277, 1845169280.000000, -113.470001,  -60.619999,  70.769997, 0.000000,  0.000000 
 3641088.000000, 0.172283 , -0.696311, -0.138784, 0.000000, 0.000000,  0.000000,  0.000000, 0.000000,  0.000000 
 3661184.000000, 1.031307 , -3.582055, 0.260818, 1845190528.000000, -137.479996,  -72.800003,  82.669998, 0.000000,  0.000000 
 3682048.000000, 0.626920 , -12.897314, 3.627519, 1845210496.000000, -129.990005,  -21.629999,  97.510002, 0.000000,  0.000000 
 3701120.000000, -0.904487 , -35.138599, -0.122034, 1845231488.000000, -143.360001,  -5.600000,  79.099998, 0.000000,  0.000000 
 3721216.000000, -8.865408 , -45.092743, 4.905287, 1845250432.000000, -178.289993,  -6.020000,  113.540001, 0.000000,  0.000000 
 3741056.000000, -14.804394 , -42.759739, 5.029713, 1845270528.000000, -287.910004,  155.539993,  85.120003, 0.000000,  0.000000 
 3761152.000000, -3.756732 , -30.719057, 6.238089, 1845290496.000000, -80.500000,  46.130001,  -42.630001, 0.000000,  0.000000 
 3782016.000000, -5.113462 , -27.419355, 10.578669, 1845310464.000000, 37.520000,  56.070000,  -8.190000, 0.000000,  0.000000 
 3800960.000000, -7.934600 , -36.177086, 10.987842, 1845331456.000000, 59.849998,  99.330002,  -76.930000, 0.000000,  0.000000 
 3821056.000000, -10.112068 , -44.925243, 8.934800, 1845350400.000000, 30.799999,  118.090004,  -83.090004, 0.000000,  0.000000 
 3841024.000000, -9.458827 , -44.082970, 5.216353, 1845370368.000000, 31.780001,  41.020000,  -124.389999, 0.000000,  0.000000 
 3860992.000000, -7.633104 , -33.126236, 1.864009, 1845390336.000000, 43.889999,  -39.060001,  -175.000000, 0.000000,  0.000000 
 3881856.000000, -5.106283 , -23.205593, 16.673187, 1845410304.000000, 63.980000,  -61.389999,  -232.540009, 0.000000,  0.000000 
 3900928.000000, -3.108276 , -21.623938, 2.696711, 1845431296.000000, 105.769997,  -58.240002,  -241.639999, 0.000000,  0.000000 
 3920896.000000, -0.471386 , -3.644269, -9.468399, 1845450368.000000, 648.619995,  -81.830002,  -130.550003, 0.000000,  0.000000 
 3940992.000000, -3.433701 , 16.481762, -4.393222, 1845470336.000000, 743.609985,  -83.440002,  -13.720000, 0.000000,  0.000000 
 3960960.000000, -0.995414 , 7.307681, -1.686940, 1845490304.000000, 300.230011,  -16.870001,  -179.410004, 0.000000,  0.000000 
 3981824.000000, -1.639083 , 3.723232, -2.811567, 1845510272.000000, 1.680000,  -29.469999,  -173.460007, 0.000000,  0.000000 
 4000896.000000, -0.856631 , 3.629912, -4.412365, 1845531136.000000, -189.210007,  -155.539993,  -89.599998, 0.000000,  0.000000 
 4020864.000000, -2.273181 , 4.362115, -5.680561, 1845550336.000000, -118.650002,  -38.849998,  -3.920000, 0.000000,  0.000000 
 4040832.000000, -3.201597 , 5.630312, -7.606783, 1845570304.000000, 73.709999,  100.519997,  -19.670000, 0.000000,  0.000000 
 4060928.000000, -0.626920 , 4.922036, -10.004392, 1845610240.000000, 259.910004,  19.809999,  64.330002, 0.000000,  0.000000 
 4081792.000000, 0.935594 , 5.848059, -9.511470, 0.000000, 0.000000,  0.000000,  0.000000, 0.000000,  0.000000 
 4100864.000000, 3.108276 , 4.424329, -7.757531, 1845631104.000000, 121.940002,  -76.090004,  79.099998, 0.000000,  0.000000 
 4120832.000000, 2.589034 , 0.153141, -4.618148, 1845650176.000000, -27.510000,  -76.930000,  95.480003, 0.000000,  0.000000 
 4140800.000000, 1.459622 , -3.175276, -2.309074, 1845670272.000000, -150.149994,  -14.210000,  75.389999, 0.000000,  0.000000 
 4160768.000000, 0.344566 , -4.646862, -0.863809, 1845690240.000000, -216.229996,  42.349998,  65.800003, 0.000000,  0.000000 
 4183680.000000, -0.447458 , -4.328616, -0.380459, 1845732992.000000, -135.520004,  35.700001,  31.500000, 1846200576.000000,  1008.542664 
 4200832.000000, -0.631705 , -1.529014, 0.177069, 0.000000, 0.000000,  0.000000,  0.000000, 0.000000,  0.000000 
 4220800.000000, -0.349352 , 0.346959, 0.282353, 1845750144.000000, -75.180000,  9.870000,  15.190001, 0.000000,  0.000000 
 4240768.000000, 0.057428 , 0.780060, 0.442672, 1845770112.000000, -42.070000,  -11.900000,  17.010000, 0.000000,  0.000000 
 4260736.000000, 0.186640 , 0.167498, 0.141177, 1845790208.000000, -28.490000,  -10.570000,  26.600000, 0.000000,  0.000000 
 4281600.000000, 0.251246 , 0.581456, 0.777667, 1845810176.000000, -18.830000,  6.720000,  32.549999, 0.000000,  0.000000 
 4300800.000000, 0.251246 , 0.681954, 1.797010, 1845831040.000000, -21.910000,  20.440001,  32.970001, 0.000000,  0.000000 
 4320768.000000, -0.244068 , 0.047856, 3.546163, 1845850112.000000, -17.710001,  15.400000,  38.009998, 0.000000,  0.000000 
 4340736.000000, -0.440279 , -0.949951, 4.436293, 1845870080.000000, -14.700000,  18.340000,  57.820000, 0.000000,  0.000000 
 4360704.000000, -0.509671 , -3.838088, 6.049056, 1845890048.000000, -12.110000,  28.980000,  67.760002, 0.000000,  0.000000 
 4381568.000000, -0.105284 , -13.954943, 2.797210, 1845910144.000000, -28.910000,  50.750000,  66.989998, 0.000000,  0.000000 
 4400640.000000, 0.160319 , -21.970896, 1.686940, 1845931008.000000, -100.029999,  18.620001,  48.369999, 0.000000,  0.000000 
 4420736.000000, 0.361316 , -54.283577, 1.095913, 1845950080.000000, -236.669998,  -133.979996,  107.660004, 0.000000,  0.000000 
 4440704.000000, -18.893728 , -55.496738, 5.163712, 1845970048.000000, -461.720001,  -14.910000,  298.130005, 0.000000,  0.000000 
 4460672.000000, -6.376873 , -42.312283, 13.698910, 1845990016.000000, -432.110016,  203.000000,  74.199997, 0.000000,  0.000000 
 4481536.000000, 5.012963 , -36.117264, 11.332408, 1846009984.000000, -119.559998,  1.960000,  -7.490000, 0.000000,  0.000000 
 4500608.000000, -0.385244 , -37.196426, 11.152946, 1846030976.000000, 129.779999,  11.480000,  26.320000, 0.000000,  0.000000 
 4520576.000000, -6.620940 , -41.960541, 8.707481, 1846050048.000000, 152.250000,  94.709999,  -96.040001, 0.000000,  0.000000 
 4540672.000000, -6.199803 , -35.387455, 6.652047, 1846070016.000000, 61.389999,  155.330002,  -114.449997, 0.000000,  0.000000 
 4560640.000000, -3.945765 , -26.402405, 4.649254, 1846089984.000000, 53.130001,  22.889999,  -174.720001, 0.000000,  0.000000 
 4581504.000000, -3.486342 , -16.651653, -0.198604, 1846109952.000000, 73.430000,  -43.750000,  -208.880005, 0.000000,  0.000000 
 4600576.000000, -1.852045 , -8.585447, -0.626920, 1846130816.000000, 129.710007,  -14.000000,  -195.160004, 0.000000,  0.000000 
 4620544.000000, 0.626920 , -4.208975, -0.923629, 1846149888.000000, 175.979996,  -17.150000,  -161.279999, 0.000000,  0.000000 
 4640512.000000, -0.062213 , 1.636691, -0.789631, 1846169984.000000, 177.169998,  -30.030001,  -132.089996, 0.000000,  0.000000 
 4660608.000000, -2.041078 , 7.401000, -3.594020, 1846189952.000000, 181.930008,  -16.030001,  -128.520004, 0.000000,  0.000000 
 4681472.000000, -3.110669 , 12.148360, -3.873980, 1846209920.000000, 210.279999,  15.750000,  -66.639999, 0.000000,  0.000000 
 4700544.000000, -4.809574 , 11.913863, -4.307081, 1846230784.000000, 200.059998,  85.120003,  10.500000, 0.000000,  0.000000 
 4720512.000000, -4.967500 , 10.346564, -4.603791, 1846249856.000000, 190.889999,  113.750000,  39.060001, 0.000000,  0.000000 
 4740480.000000, -0.954736 , 7.948956, -4.130012, 1846269824.000000, 105.910004,  25.200001,  17.710001, 0.000000,  0.000000 
 4760448.000000, 1.849652 , 5.864808, -3.826123, 1846289920.000000, 28.420000,  -55.439999,  12.880000, 0.000000,  0.000000 
 4781440.000000, 3.792624 , 2.514857, -3.340380, 1846309888.000000, -26.740000,  -107.730003,  28.280001, 0.000000,  0.000000 
 4800512.000000, 4.374080 , -0.722632, -2.404787, 1846330752.000000, -73.010002,  -131.949997,  83.790001, 0.000000,  0.000000 
 4820480.000000, 2.811567 , -3.938586, -0.289532, 1846349824.000000, -103.809998,  -93.099998,  123.129997, 0.000000,  0.000000 
 4840576.000000, 0.200997 , -6.262017, -0.239282, 1846369920.000000, -98.629997,  -1.050000,  122.150002, 0.000000,  0.000000 
 4861184.000000, -1.435694 , -6.656832, -0.440279, 1846390016.000000, -83.440002,  42.209999,  98.349998, 0.000000,  0.000000 
 4881408.000000, -2.088934 , -5.630312, -0.296710, 1846410496.000000, -73.150002,  43.400002,  64.400002, 0.000000,  0.000000 
 4900480.000000, -0.492921 , -3.261417, 0.205783, 1846430720.000000, -56.420002,  -5.740000,  26.320000, 0.000000,  0.000000 
 4920448.000000, 1.115055 , -1.823331, 0.940379, 1846449920.000000, -59.920002,  -52.080002,  4.060000, 0.000000,  0.000000 
 4941312.000000, 1.969293 , -0.780060, 1.426122, 1846469888.000000, -67.340004,  -59.360001,  -16.940001, 0.000000,  0.000000 
 4961280.000000, 2.084148 , -0.327817, 1.536192, 1846490752.000000, -49.490002,  -25.340000,  -29.680000, 0.000000,  0.000000 
 4982144.000000, 1.438086 , 0.074178, 1.667797, 1846510720.000000, -3.570000,  22.750000,  -28.490000, 0.000000,  0.000000 
 5001344.000000, 0.820738 , 0.425922, 2.646462, 1846531584.000000, 35.139999,  52.430000,  -30.309999, 0.000000,  0.000000 
 5021312.000000, 1.141376 , -0.045464, 3.247060, 1846550784.000000, 48.020000,  56.840000,  -20.510000, 0.000000,  0.000000 
 5041792.000000, 3.866802 , -3.065206, 5.950950, 1846570624.000000, 47.180000,  42.000000,  -3.220000, 0.000000,  0.000000 
 5061632.000000, 13.462020 , -11.758330, 3.156133, 1846591104.000000, 6.930000,  -13.930000,  1.050000, 0.000000,  0.000000 
 5082496.000000, 20.662024 , -23.830120, 1.780260, 1846611072.000000, -95.340004,  -181.509995,  54.320000, 0.000000,  0.000000 
 5101696.000000, -1.785046 , -55.235916, -5.058427, 1846631936.000000, -254.589996,  -67.550003,  326.480011, 0.000000,  0.000000 
 5121664.000000, -22.504498 , -62.780491, 8.044669, 1846651008.000000, -461.440002,  237.930008,  167.369995, 0.000000,  0.000000 
 5142016.000000, 1.600798 , -44.090149, 10.576276, 1846670976.000000, -347.690002,  265.860016,  -26.809999, 0.000000,  0.000000 
 5161984.000000, 6.259624 , -39.531822, 12.684352, 1846691456.000000, 56.139999,  5.600000,  29.750000, 0.000000,  0.000000 
 5184768.000000, 2.730211 , -32.784061, 15.237494, 1846711296.000000, 117.529999,  -12.250000,  -108.639999, 0.000000,  0.000000 
 5202048.000000, -4.711468 , -27.354748, 10.408779, 1846734208.000000, 139.509995,  94.989998,  -155.889999, 1847201664.000000,  1008.541992 
 5221888.000000, -7.183254 , -17.481962, 5.525027, 1846751360.000000, 175.070007,  117.669998,  -206.360001, 0.000000,  0.000000 
 5241728.000000, -6.628119 , -9.616754, 0.131605, 1846771328.000000, 214.759995,  46.759998,  -186.759995, 0.000000,  0.000000 
 5262976.000000, -3.787838 , -7.494320, -3.117848, 1846791168.000000, 189.559998,  -80.150002,  -147.630005, 0.000000,  0.000000 
 5283840.000000, -0.349352 , -7.568498, -1.170090, 1846812416.000000, 117.599998,  -131.320007,  -80.290001, 0.000000,  0.000000 
 5303040.000000, 1.787439 , -7.551748, 0.011964, 1846833280.000000, 17.150000,  -126.209999,  -57.680000, 0.000000,  0.000000 
 5323008.000000, 1.799403 , -2.311467, 0.758525, 1846852480.000000, 52.360001,  -82.459999,  -65.870003, 0.000000,  0.000000 
 5342976.000000, 0.466600 , 4.110869, -1.138984, 1846872320.000000, 163.169998,  -23.030001,  -47.389999, 0.000000,  0.000000 
 5362944.000000, -0.409173 , 10.346564, -1.653440, 1846892416.000000, 242.550003,  32.759998,  -37.660000, 0.000000,  0.000000 
 5383808.000000, -1.648655 , 12.282358, -4.326223, 1846912384.000000, 310.519989,  81.340004,  -3.640000, 0.000000,  0.000000 
 5403008.000000, -3.876373 , 9.966106, -5.233103, 1846933248.000000, 292.459991,  123.340004,  50.750000, 0.000000,  0.000000 
 5422848.000000, -3.163311 , 6.604190, -4.991428, 1846952448.000000, 96.180000,  112.770004,  79.099998, 0.000000,  0.000000 
 5442944.000000, -1.392623 , 3.460021, -4.290331, 1846972288.000000, -61.670002,  32.689999,  69.580002, 0.000000,  0.000000 
 5462912.000000, -0.124427 , 1.201197, -4.036692, 1846992384.000000, -103.879997,  -50.259998,  60.900002, 0.000000,  0.000000 
 5483776.000000, 1.143769 , -1.189233, -3.263810, 1847012352.000000, -115.080002,  -96.320000,  102.340004, 0.000000,  0.000000 
 5502976.000000, 1.344766 , -3.775874, -2.632105, 1847033216.000000, -118.650002,  -86.099998,  136.850006, 0.000000,  0.000000 
 5522944.000000, 1.380659 , -5.005785, -2.577070, 1847052288.000000, -103.459999,  -51.730000,  109.059998, 0.000000,  0.000000 
 5542912.000000, 1.349552 , -3.909872, -2.100898, 1847072256.000000, -64.889999,  -38.009998,  87.639999, 0.000000,  0.000000 
 5562880.000000, 1.452443 , -2.112862, -1.938186, 1847092352.000000, -19.320000,  -35.770000,  78.470001, 0.000000,  0.000000 
 5583744.000000, 1.670190 , -0.863809, -1.701297, 1847112192.000000, 10.570000,  -30.030001,  65.870003, 0.000000,  0.000000 
 5602944.000000, 1.899901 , -0.361316, -1.462015, 1847133056.000000, 9.520000,  -18.690001,  51.660000, 0.000000,  0.000000 
 5622784.000000, 2.103291 , -0.019143, -0.409173, 1847152256.000000, -15.540000,  5.530000,  41.160000, 0.000000,  0.000000 
 5642880.000000, 2.093720 , -1.277767, 2.060220, 1847172224.000000, -43.959999,  40.250000,  36.540001, 0.000000,  0.000000 
 5662720.000000, 2.201397 , -3.407379, 4.831109, 1847192320.000000, -48.160000,  61.459999,  39.549999, 0.000000,  0.000000 
 5683712.000000, 3.991228 , -8.800802, 6.474977, 1847212160.000000, -71.540001,  84.070000,  43.820000, 0.000000,  0.000000 
 5702912.000000, 9.212367 , -21.346373, 3.412165, 1847233024.000000, -101.709999,  64.330002,  46.340000, 0.000000,  0.000000 
 5722752.000000, 9.095119 , -38.730225, 9.528220, 1847252224.000000, -214.619995,  2.590000,  108.989998, 0.000000,  0.000000 
 5742848.000000, -7.355537 , -51.247082, 9.501899, 1847272192.000000, -361.339996,  87.290001,  198.449997, 0.000000,  0.000000 
 5762816.000000, -11.296515 , -35.899517, 8.130811, 1847292160.000000, -234.360001,  265.230011,  20.370001, 0.000000,  0.000000 
 5783680.000000, -1.225125 , -30.711880, 13.380664, 1847312128.000000, 26.880001,  208.389999,  -38.990002, 0.000000,  0.000000 
 5802752.000000, 3.842873 , -28.161129, 15.890735, 1847332992.000000, 45.290001,  -1.400000,  -76.370003, 0.000000,  0.000000 
 5822720.000000, 2.806781 , -31.384262, 14.086546, 1847352192.000000, 63.980000,  -38.080002,  -121.309998, 0.000000,  0.000000 
 5842688.000000, -2.880959 , -31.939396, 12.088539, 1847372160.000000, 87.080002,  13.720000,  -145.110001, 0.000000,  0.000000 
 5862656.000000, -4.472186 , -25.406990, 8.886944, 1847392000.000000, 71.470001,  55.369999,  -170.380005, 0.000000,  0.000000 
 5883520.000000, -1.887937 , -18.405592, 5.213961, 1847411968.000000, 99.330002,  -9.450000,  -177.869995, 0.000000,  0.000000 
 5902592.000000, 0.107677 , -14.297115, 3.141776, 1847432960.000000, 104.720001,  -107.309998,  -184.589996, 0.000000,  0.000000 
 5922560.000000, 0.430708 , -11.045268, 0.753739, 1847452032.000000, 104.790001,  -122.430000,  -182.210007, 0.000000,  0.000000 
 5942656.000000, -0.189033 , -7.322037, -1.064806, 1847472000.000000, 118.510002,  -90.440002,  -173.039993, 0.000000,  0.000000 
 5962624.000000, -1.184447 , -3.699304, -1.172483, 1847491968.000000, 144.199997,  -48.720001,  -127.750000, 0.000000,  0.000000 
 5983488.000000, -1.780260 , -0.157926, -1.603191, 1847511936.000000, 156.940002,  -11.130000,  -68.809998, 0.000000,  0.000000 
 6002688.000000, -2.402394 , 2.801995, -3.285345, 1847532800.000000, 156.589996,  13.090000,  -20.299999, 0.000000,  0.000000 
 6022528.000000, -2.768496 , 5.673382, -4.192225, 1847552128.000000, 162.539993,  29.120001,  13.930000, 0.000000,  0.000000 
 6042496.000000, -2.447858 , 7.489535, -4.534399, 1847571968.000000, 154.490005,  62.369999,  44.660000, 0.000000,  0.000000 
 6062464.000000, -1.741975 , 6.711867, -4.498507, 1847591936.000000, 126.279999,  95.900002,  64.820000, 0.000000,  0.000000 
 6083456.000000, -0.679562 , 5.264209, -4.019942, 1847611904.000000, 90.019997,  90.650002,  46.900002, 0.000000,  0.000000 
 6102528.000000, 0.471386 , 4.677969, -3.232704, 1847651840.000000, -20.510000,  43.259998,  54.040001, 0.000000,  0.000000 
 6122496.000000, 1.986043 , 3.929015, -3.168097, 0.000000, 0.000000,  0.000000,  0.000000, 0.000000,  0.000000 
 6142464.000000, 2.790031 , 3.062813, -3.510271, 1847671808.000000, -66.570000,  14.210000,  95.269997, 0.000000,  0.000000 
 6162432.000000, 2.385644 , 1.509871, -1.665405, 1847691904.000000, -100.239998,  0.840000,  114.870003, 0.000000,  0.000000 
 6185344.000000, 1.306481 , 0.373280, 0.490529, 1847711872.000000, -111.020004,  16.379999,  124.040001, 0.000000,  0.000000 
 6202496.000000, -0.033500 , -0.497707, -0.320638, 1847734656.000000, -102.410004,  41.650002,  141.680008, 1848202112.000000,  1008.540344 
 6222464.000000, -1.196411 , -0.559920, -1.938186, 1847751808.000000, -84.699997,  59.010002,  133.279999, 0.000000,  0.000000 
 6242432.000000, -1.261017 , -0.172283, -2.404787, 1847771776.000000, -91.209999,  56.700001,  111.090004, 0.000000,  0.000000 
 6262400.000000, -0.404387 , -0.457029, -1.622334, 1847791872.000000, -111.230003,  20.160000,  105.629997, 0.000000,  0.000000 
 6283264.000000, 0.741775 , -1.272982, 0.169890, 1847811840.000000, -127.750000,  -22.889999,  105.279999, 0.000000,  0.000000 
 6302336.000000, 1.143769 , -3.395415, 0.892523, 1847832704.000000, -151.059998,  -28.770000,  102.480003, 0.000000,  0.000000 
 6322432.000000, 0.813560 , -7.527820, 2.361716, 1847851776.000000, -158.270004,  6.720000,  93.169998, 0.000000,  0.000000 
 6342400.000000, 0.650848 , -17.096718, 3.026921, 1847871744.000000, -168.630005,  72.029999,  74.340004, 0.000000,  0.000000 
 6362368.000000, -0.239282 , -43.269409, 2.199004, 1847891712.000000, -181.580002,  52.080002,  70.629997, 0.000000,  0.000000 
 6383232.000000, -7.635497 , -40.249672, -1.921437, 1847911680.000000, -135.240005,  40.110001,  125.020004, 0.000000,  0.000000 
 6402304.000000, -14.069797 , -35.705700, 2.141576, 1847932672.000000, -100.239998,  154.490005,  68.669998, 0.000000,  0.000000 
 6422272.000000, -3.012564 , -33.171700, 12.224932, 1847951744.000000, -194.529999,  112.559998,  -28.630001, 0.000000,  0.000000 
 6442368.000000, 2.773281 , -32.528030, 13.840086, 1847971712.000000, -216.860001,  54.389999,  -56.980000, 0.000000,  0.000000 
 6462336.000000, -2.825923 , -33.343983, 9.236296, 1847991680.000000, -10.780000,  56.980000,  -60.060001, 0.000000,  0.000000 
 6483200.000000, -8.348558 , -38.517265, 5.352744, 1848011648.000000, 61.040001,  87.080002,  -117.459999, 0.000000,  0.000000 
 6502272.000000, -6.245267 , -33.157345, 7.054041, 1848032512.000000, -20.790001,  87.010002,  -140.000000, 0.000000,  0.000000 
 6522240.000000, -1.734797 , -23.480768, 4.682754, 1848051584.000000, -8.750000,  -16.100000,  -174.229996, 0.000000,  0.000000 
 6542208.000000, -0.863809 , -14.534004, 1.837688, 1848071680.000000, 106.400002,  -62.090000,  -200.619995, 0.000000,  0.000000 
 6562176.000000, -0.531207 , -9.678967, 1.646262, 1848091648.000000, 185.500000,  -42.070000,  -199.990005, 0.000000,  0.000000 
 6583168.000000, -0.193819 , -7.056434, 1.871187, 1848111616.000000, 200.059998,  -12.740000,  -158.619995, 0.000000,  0.000000 
 6602240.000000, -0.751346 , -4.642076, 1.004985, 1848132480.000000, 181.930008,  -1.190000,  -121.449997, 0.000000,  0.000000 
 6622208.000000, -1.959722 , -2.000400, 0.057428, 1848151552.000000, 185.430008,  4.480000,  -102.269997, 0.000000,  0.000000 
 6642176.000000, -2.849852 , 0.933201, -2.333002, 1848171520.000000, 210.000000,  15.540000,  -73.430000, 0.000000,  0.000000 
 6662144.000000, -3.481557 , 4.682754, -4.364508, 1848191616.000000, 257.459991,  25.059999,  -28.840000, 0.000000,  0.000000 
 6683136.000000, -3.902694 , 8.537591, -6.922436, 1848211584.000000, 290.010010,  30.170000,  14.070000, 0.000000,  0.000000 
 6702208.000000, -2.950350 , 9.958927, -9.176475, 1848232448.000000, 277.760010,  22.960001,  45.290001, 0.000000,  0.000000 
 6722176.000000, -1.270589 , 8.039884, -7.113862, 1848251520.000000, 210.630005,  14.420000,  54.180000, 0.000000,  0.000000 
 6742144.000000, 0.212961 , 4.417150, -4.814359, 1848271488.000000, 89.389999,  -17.639999,  46.340000, 0.000000,  0.000000 
 6762112.000000, 1.670190 , 2.842674, -4.649254, 1848291456.000000, -32.130001,  -56.420002,  57.680000, 0.000000,  0.000000 
 6783104.000000, 2.737389 , 1.378266, -4.833502, 1848311552.000000, -127.120003,  -65.870003,  93.660004, 0.000000,  0.000000 
 6802048.000000, 2.524428 , -0.380459, -3.960121, 1848332544.000000, -147.350006,  -65.099998,  124.809998, 0.000000,  0.000000 
 6822144.000000, 1.550549 , -1.782653, -2.179861, 1848351488.000000, -154.070007,  -47.880001,  126.629997, 0.000000,  0.000000 
 6842112.000000, 0.186640 , -2.727818, -1.057628, 1848371456.000000, -144.550003,  -3.500000,  114.449997, 0.000000,  0.000000 
 6863744.000000, -0.478565 , -2.581856, -1.265803, 1848391424.000000, -124.110001,  28.210001,  96.809998, 0.000000,  0.000000 
 6883968.000000, -0.291924 , -1.584049, -1.112662, 1848413184.000000, -75.389999,  24.150000,  74.970001, 0.000000,  0.000000 
 6903040.000000, 0.284746 , -0.720240, -0.569492, 1848433280.000000, -43.820000,  0.560000,  64.330002, 0.000000,  0.000000 
 6923136.000000, 1.055235 , -0.244068, 0.366102, 1848452480.000000, -29.680000,  -19.670000,  54.599998, 0.000000,  0.000000 
 6943104.000000, 1.792224 , -0.502493, 1.490728, 1848472448.000000, -45.570000,  -12.950000,  52.290001, 0.000000,  0.000000 
 6963456.000000, 2.117648 , -3.601198, 2.885744, 1848492416.000000, -59.990002,  9.520000,  55.930000, 0.000000,  0.000000 
 6984320.000000, 3.022135 , -13.287343, 3.594020, 1848512896.000000, -79.590004,  34.509998,  57.049999, 0.000000,  0.000000 
 7003392.000000, 1.258625 , -38.519657, -3.058028, 1848533632.000000, -159.809998,  17.080000,  76.580002, 0.000000,  0.000000 
 7023488.000000, -14.467006 , -65.615982, 7.125826, 1848552832.000000, -315.839996,  8.050000,  189.419998, 0.000000,  0.000000 
 7043456.000000, -13.682159 , -41.910290, 0.306281, 1848572800.000000, -492.869995,  262.920013,  121.660004, 0.000000,  0.000000 
 7063808.000000, -1.363909 , -33.016167, 6.841080, 1848592768.000000, -245.490005,  171.779999,  -30.940001, 0.000000,  0.000000 
 7084672.000000, 0.198604 , -26.378477, 11.961720, 1848613248.000000, -15.190001,  13.650000,  -31.219999, 0.000000,  0.000000 
 7103744.000000, -1.600798 , -25.737200, 11.148161, 1848633984.000000, 51.660000,  65.169998,  -89.459999, 0.000000,  0.000000 
 7123840.000000, -4.941179 , -24.339790, 7.841280, 1848653056.000000, 77.629997,  106.889999,  -79.029999, 0.000000,  0.000000 
 7143680.000000, -3.854837 , -20.705093, 6.673582, 1848673152.000000, 96.459999,  107.379997,  -91.910004, 0.000000,  0.000000 
 7163520.000000, -2.309074 , -20.169102, 5.544170, 1848693120.000000, 74.900002,  32.200001,  -75.459999, 0.000000,  0.000000 
 7187584.000000, 0.126820 , -15.704096, 3.321238, 1848712832.000000, 23.520000,  -84.699997,  -70.699997, 0.000000,  0.000000 
 7204736.000000, -0.705883 , -10.631311, 1.682154, 1848737024.000000, 51.939999,  -108.779999,  -64.400002, 1849204480.000000,  1008.537354 
 7224832.000000, -0.897308 , -6.247660, 0.923629, 1848754176.000000, 132.089996,  -59.360001,  -56.630001, 0.000000,  0.000000 
 7244800.000000, -0.478565 , -2.919244, -0.294317, 1848774272.000000, 174.440002,  -28.490000,  -38.570000, 0.000000,  0.000000 
 7264896.000000, -0.768096 , 0.461815, -2.005185, 1848794112.000000, 205.520004,  -16.870001,  -25.620001, 0.000000,  0.000000 
 7285632.000000, -0.686740 , 3.574877, -3.893122, 1848814208.000000, 230.580002,  0.280000,  -26.670000, 0.000000,  0.000000 
 7304704.000000, -0.794417 , 5.888737, -4.859823, 1848835072.000000, 243.250000,  32.340000,  -15.680000, 0.000000,  0.000000 
 7324800.000000, -0.911665 , 5.955735, -5.324030, 1848854144.000000, 210.559998,  62.090000,  -11.620000, 0.000000,  0.000000 
 7344768.000000, -0.390030 , 3.840480, -5.175675, 1848874240.000000, 176.119995,  72.660004,  -7.770000, 0.000000,  0.000000 
 7364736.000000, 0.294317 , 2.337788, -4.476971, 1848894080.000000, 89.110001,  61.740002,  -7.840000, 0.000000,  0.000000 
 7385600.000000, 1.653440 , 1.926222, -3.936193, 1848914176.000000, 7.770000,  16.520000,  -12.600000, 0.000000,  0.000000 
 7404672.000000, 2.122434 , 1.840081, -3.737589, 1848934912.000000, -42.630001,  -26.530001,  2.240000, 0.000000,  0.000000 
 7424768.000000, 2.598605 , 1.435694, -3.601198, 1848954112.000000, -65.309998,  -47.950001,  15.260000, 0.000000,  0.000000 
 7444736.000000, 2.136791 , 1.021735, -3.414558, 1848974080.000000, -64.400002,  -33.740002,  18.549999, 0.000000,  0.000000 
 7464704.000000, 0.937986 , 0.342174, -2.763710, 1848994048.000000, -53.689999,  -1.890000,  19.809999, 0.000000,  0.000000 
 7485568.000000, -0.078963 , 0.184247, -1.933401, 1849014016.000000, -35.420002,  26.180000,  19.320000, 0.000000,  0.000000 
 7504640.000000, -0.483350 , 0.519243, -2.519642, 1849034880.000000, -26.950001,  33.599998,  16.170000, 0.000000,  0.000000 
 7524736.000000, -0.196211 , 0.497707, -2.266003, 1849053952.000000, -28.630001,  17.570000,  12.950000, 0.000000,  0.000000 
 7544576.000000, 0.500100 , 0.189033, -0.406780, 1849074048.000000, -45.080002,  4.480000,  13.650000, 0.000000,  0.000000 
 7564672.000000, 2.069792 , -2.086541, 3.897908, 1849094016.000000, -76.090004,  2.870000,  19.950001, 0.000000,  0.000000 
 7585536.000000, 4.086941 , -11.397014, 4.374080, 1849114112.000000, -101.639999,  4.830000,  24.430000, 0.000000,  0.000000 
 7604608.000000, 4.993821 , -30.865019, 2.825923, 1849134848.000000, -136.850006,  -54.389999,  62.439999, 0.000000,  0.000000 
 7624576.000000, -7.750352 , -56.982677, -1.469193, 1849153920.000000, -233.729996,  10.220000,  207.130005, 0.000000,  0.000000 
 7644544.000000, -22.332212 , -54.611389, 7.554141, 1849174016.000000, -338.239990,  318.079987,  106.680000, 0.000000,  0.000000 
 7664640.000000, -0.567099 , -43.932220, 12.131610, 1849193984.000000, -283.220001,  128.800003,  -50.540001, 0.000000,  0.000000 
 7685376.000000, -4.833502 , -30.683165, 10.468598, 1849213952.000000, -4.480000,  33.040001,  35.630001, 0.000000,  0.000000 
 7704448.000000, -6.563512 , -23.279772, 10.700702, 1849234816.000000, 136.990005,  109.340004,  -97.650002, 0.000000,  0.000000 
 7724544.000000, -3.251846 , -16.960327, 9.382257, 1849253888.000000, 132.440002,  104.930000,  -93.309998, 0.000000,  0.000000 
 7744512.000000, 0.184247 , -14.730216, 5.302495, 1849273984.000000, 88.269997,  -56.209999,  -85.330002, 0.000000,  0.000000 
 7764992.000000, 1.825724 , -11.341980, 3.239882, 1849293824.000000, 69.860001,  -150.500000,  -53.689999, 0.000000,  0.000000 
 7785344.000000, 2.170290 , -10.935200, 2.435893, 1849314304.000000, 18.270000,  -150.919998,  -33.880001, 0.000000,  0.000000 
 7804416.000000, 0.686740 , -9.332008, 1.543371, 1849334784.000000, 30.520000,  -101.430000,  -8.750000, 0.000000,  0.000000 
 7824512.000000, -0.823131 , -6.135197, -0.552742, 1849353856.000000, 86.309998,  -39.340000,  7.350000, 0.000000,  0.000000 
 7844480.000000, -1.272982 , -2.727818, -1.744368, 1849373952.000000, 141.050003,  -4.130000,  26.460001, 0.000000,  0.000000 
 7864448.000000, -1.548156 , 0.026321, -2.244468, 1849393792.000000, 159.389999,  10.640000,  51.939999, 0.000000,  0.000000 
 7885312.000000, -1.823331 , 2.177469, -2.301895, 1849413888.000000, 150.710007,  16.730000,  58.939999, 0.000000,  0.000000 
 7904384.000000, -1.373480 , 2.679961, -2.907279, 1849434624.000000, 128.589996,  38.779999,  48.369999, 0.000000,  0.000000 
 7924352.000000, -0.263210 , 2.861816, -2.837888, 1849453696.000000, 132.369995,  49.349998,  30.520000, 0.000000,  0.000000 
 7944320.000000, 1.493121 , 4.125226, -3.089134, 1849473664.000000, 130.410004,  10.780000,  5.320000, 0.000000,  0.000000 
 7964288.000000, 3.495914 , 5.134997, -3.555735, 1849493632.000000, 102.550003,  -46.549999,  -9.100000, 0.000000,  0.000000 
 7985152.000000, 4.563113 , 4.211368, -3.433701, 1849513728.000000, 54.250000,  -86.449997,  2.030000, 0.000000,  0.000000 
 8004224.000000, 3.553342 , 1.885544, -2.610569, 1849534592.000000, -17.780001,  -74.340004,  27.020000, 0.000000,  0.000000 
 8024320.000000, 1.971686 , 0.150748, -1.363909, 1849553664.000000, -80.360001,  -21.770000,  41.090000, 0.000000,  0.000000 
 8044288.000000, 0.559920 , -0.921237, -1.210768, 1849573632.000000, -97.300003,  18.480000,  43.610001, 0.000000,  0.000000 
 8064256.000000, -0.315853 , -1.399801, -1.399801, 1849593600.000000, -71.260002,  26.809999,  38.009998, 0.000000,  0.000000 
 8085120.000000, -0.600598 , -0.961915, -1.253839, 1849613568.000000, -48.020000,  25.830000,  31.430000, 0.000000,  0.000000 
 8104192.000000, -0.421137 , -0.973879, -0.370888, 1849634560.000000, -53.200001,  21.139999,  24.360001, 0.000000,  0.000000 
 8124160.000000, -0.009571 , -1.533799, 1.435694, 1849653632.000000, -69.720001,  15.680000,  14.350000, 0.000000,  0.000000 
 8144256.000000, 0.138784 , -3.696911, 3.000600, 1849673600.000000, -90.930000,  11.900000,  8.330000, 0.000000,  0.000000 
 8164224.000000, 2.093720 , -8.757731, 3.541377, 1849693568.000000, -104.580002,  19.670000,  10.570000, 0.000000,  0.000000 
 8187008.000000, 3.670590 , -22.729424, 4.989035, 1849736448.000000, -151.899994,  -59.010002,  52.430000, 1850203904.000000,  1008.535034 
 8204160.000000, 1.150948 , -44.417969, 6.845865, 0.000000, 0.000000,  0.000000,  0.000000, 0.000000,  0.000000 
 8224128.000000, -18.329021 , -56.023155, 7.592427, 1849753600.000000, -236.669998,  62.720001,  157.289993, 0.000000,  0.000000 
 8244224.000000, -13.820943 , -40.962734, 9.860823, 1849773568.000000, -240.520004,  297.500000,  37.730000, 0.000000,  0.000000 
 8264192.000000, -3.357130 , -34.959141, 12.574283, 1849793536.000000, 15.610000,  43.470001,  -30.309999, 0.000000,  0.000000 
 8285056.000000, -7.970492 , -27.168108, 9.999605, 1849813504.000000, 91.209999,  -3.150000,  -56.700001, 0.000000,  0.000000 
 8304128.000000, -9.157332 , -22.176682, 6.474977, 1849834368.000000, 127.050003,  39.060001,  -107.590004, 0.000000,  0.000000 
 8324096.000000, -3.448057 , -19.338793, 6.226124, 1849853440.000000, 52.080002,  -3.010000,  -76.160004, 0.000000,  0.000000 
 8344448.000000, 0.284746 , -16.453049, 5.656632, 1849873536.000000, -24.570000,  -166.600006,  -96.459999, 0.000000,  0.000000 
 8364032.000000, 1.466800 , -11.291731, 3.455236, 1849893760.000000, -0.210000,  -198.869995,  -105.980003, 0.000000,  0.000000 
 8385024.000000, 1.414158 , -5.804988, 1.146162, 1849913472.000000, 88.059998,  -138.389999,  -85.120003, 0.000000,  0.000000 
 8404096.000000, 1.765903 , -2.775674, 0.011964, 1849934336.000000, 138.809998,  -80.779999,  -71.470001, 0.000000,  0.000000 
 8424064.000000, 1.462015 , -0.153141, -0.363709, 1849953408.000000, 175.839996,  -48.020000,  -60.830002, 0.000000,  0.000000 
 8444032.000000, 0.227318 , 1.713261, -1.957329, 1849973376.000000, 186.410004,  -12.740000,  -59.360001, 0.000000,  0.000000 
 8464000.000000, -1.308874 , 2.732604, -3.840480, 1849993472.000000, 186.759995,  46.060001,  -63.420002, 0.000000,  0.000000 
 8484992.000000, -2.478964 , 3.522235, -4.220939, 1850013440.000000, 165.410004,  107.239998,  -71.400002, 0.000000,  0.000000 
 8504064.000000, -2.574677 , 3.002992, -4.321437, 1850034304.000000, 123.410004,  110.809998,  -69.300003, 0.000000,  0.000000 
 8524032.000000, -1.198804 , 2.864209, -4.335794, 1850053376.000000, 98.840004,  28.559999,  -60.760002, 0.000000,  0.000000 
 8544000.000000, 0.138784 , 3.093920, -4.570292, 1850073344.000000, 68.879997,  -60.549999,  -41.160000, 0.000000,  0.000000 
 8563968.000000, 1.067199 , 3.503092, -4.642076, 1850093312.000000, 36.820000,  -95.690002,  -25.059999, 0.000000,  0.000000 
 8584832.000000, 1.253839 , 3.072384, -4.182654, 1850113408.000000, 11.760000,  -87.080002,  -9.870000, 0.000000,  0.000000 
 8603904.000000, 0.425922 , 2.251646, -2.976671, 1850134272.000000, -5.530000,  -60.340000,  10.710000, 0.000000,  0.000000 
 8624000.000000, -0.413958 , 1.887937, -2.464607, 1850153344.000000, -17.920000,  -27.020000,  29.190001, 0.000000,  0.000000 
 8643968.000000, -0.949951 , 2.261217, -2.991028, 1850173312.000000, -19.180000,  -0.280000,  43.400002, 0.000000,  0.000000 
 8663936.000000, -0.521635 , 2.292324, -3.014957, 1850193280.000000, -21.840000,  3.920000,  47.110001, 0.000000,  0.000000 
 8684800.000000, 0.023928 , 1.380659, -1.689333, 1850213248.000000, -31.080000,  -6.440000,  55.369999, 0.000000,  0.000000 
 8703872.000000, 0.832702 , 0.648455, -0.258425, 1850234240.000000, -64.400002,  -14.840000,  59.010002, 0.000000,  0.000000 
 8723840.000000, 2.287539 , -1.141376, 2.428715, 1850253312.000000, -103.459999,  -5.390000,  64.540001, 0.000000,  0.000000 
 8743936.000000, 5.257031 , -7.944171, 2.837888, 1850273280.000000, -138.180008,  8.890000,  59.430000, 0.000000,  0.000000 
 8763904.000000, 8.599805 , -26.912077, 1.794617, 1850293248.000000, -217.070007,  -42.349998,  69.860001, 0.000000,  0.000000 
 8784768.000000, 3.041277 , -48.859043, -1.689333, 1850313216.000000, -311.570007,  -101.220001,  249.550003, 0.000000,  0.000000 
 8803840.000000, -17.694923 , -51.905109, 5.046463, 1850334080.000000, -355.670013,  209.300003,  279.860016, 0.000000,  0.000000 
 8823808.000000, -4.402793 , -49.718067, 12.136396, 1850353280.000000, -315.000000,  255.290009,  -16.309999, 0.000000,  0.000000 
 8843776.000000, 3.120241 , -36.940395, 7.824530, 1850373248.000000, -74.550003,  67.690002,  31.430000, 0.000000,  0.000000 
 8863872.000000, -2.237289 , -26.878578, 9.499505, 1850393216.000000, 101.989998,  85.120003,  -13.370000, 0.000000,  0.000000 
 8884736.000000, -4.082155 , -22.691137, 9.312866, 1850413184.000000, 65.800003,  139.089996,  -116.550003, 0.000000,  0.000000 
 8903808.000000, -2.153540 , -18.214167, 7.200003, 1850434048.000000, 30.309999,  58.939999,  -103.180000, 0.000000,  0.000000 
 8923904.000000, -1.031307 , -17.948563, 5.998806, 1850453248.000000, 25.760000,  -44.450001,  -82.599998, 0.000000,  0.000000 
 8944512.000000, -1.866402 , -15.885949, 5.084748, 1850473216.000000, 18.270000,  -72.449997,  -71.959999, 0.000000,  0.000000 
 8963840.000000, -2.055435 , -10.590633, 2.833102, 1850493952.000000, 52.779999,  -40.180000,  -67.760002, 0.000000,  0.000000 
 8984704.000000, -1.208375 , -5.292924, 0.488136, 1850513152.000000, 126.209999,  -23.590000,  -64.190002, 0.000000,  0.000000 
 9003904.000000, -1.428515 , -1.205983, -1.052842, 1850534144.000000, 187.180008,  -26.670000,  -50.889999, 0.000000,  0.000000 
 9023744.000000, -2.143969 , 3.424129, -2.244468, 1850553216.000000, 220.919998,  -25.620001,  -50.330002, 0.000000,  0.000000 
 9043840.000000, -2.895315 , 7.082755, -4.575077, 1850573184.000000, 233.309998,  7.980000,  -28.210001, 0.000000,  0.000000 
 9063808.000000, -3.060420 , 8.810372, -6.077770, 1850593152.000000, 250.460007,  54.180000,  11.690000, 0.000000,  0.000000 
 9084672.000000, -2.146362 , 8.238488, -6.142376, 1850613120.000000, 226.029999,  71.470001,  39.060001, 0.000000,  0.000000 
 9103872.000000, 0.141177 , 6.137590, -5.137390, 1850634112.000000, 139.300003,  32.689999,  25.480000, 0.000000,  0.000000 
 9123712.000000, 1.670190 , 6.037091, -5.146961, 1850653184.000000, 59.010002,  -24.360001,  32.480000, 0.000000,  0.000000 
 9143808.000000, 2.931208 , 3.656233, -4.297509, 1850673152.000000, 9.870000,  -64.889999,  65.239998, 0.000000,  0.000000 
 9163776.000000, 2.727818 , 1.622334, -3.735196, 1850693120.000000, -5.180000,  -68.949997,  128.660004, 0.000000,  0.000000 
 9187584.000000, 0.885344 , -0.686740, -3.881158, 1850713088.000000, -15.120000,  -17.639999,  161.210007, 0.000000,  0.000000 
 9204608.000000, -1.074377 , -2.555535, -3.785445, 1850736896.000000, -21.280001,  69.720001,  158.550003, 1851204352.000000,  1008.534119 
 9224576.000000, -2.519642 , -3.436093, -3.050849, 1850753920.000000, -78.400002,  122.010002,  144.550003, 0.000000,  0.000000 
 9244672.000000, -2.282753 , -4.931608, -2.074577, 1850774016.000000, -159.320007,  91.419998,  116.620003, 0.000000,  0.000000 
 9264512.000000, -0.464208 , -5.328816, -0.019143, 1850794112.000000, -189.139999,  5.180000,  78.610001, 0.000000,  0.000000 
 9285888.000000, 2.679961 , -6.541977, 0.684347, 1850813952.000000, -164.570007,  -57.330002,  69.230003, 0.000000,  0.000000 
 9304960.000000, 3.302095 , -6.439085, 1.244268, 1850835328.000000, -84.000000,  -55.790001,  73.639999, 0.000000,  0.000000 
 9324928.000000, 3.462414 , -8.551948, 5.285746, 1850854272.000000, -33.180000,  6.020000,  31.360001, 0.000000,  0.000000 
 9344896.000000, 1.861616 , -24.473791, 3.979264, 1850874240.000000, -45.150002,  62.510002,  11.900000, 0.000000,  0.000000 
 9364864.000000, -4.072584 , -40.441097, 0.693919, 1850894336.000000, -78.120003,  36.750000,  31.920000, 0.000000,  0.000000 
 9386240.000000, -25.196421 , -49.619965, 3.684947, 1850914304.000000, -204.050003,  156.940002,  99.680000, 0.000000,  0.000000 
 9405312.000000, -10.844273 , -36.131622, 10.612168, 1850935680.000000, -353.360016,  301.839996,  -15.610000, 0.000000,  0.000000 
 9425280.000000, -5.058427 , -27.656244, 11.712867, 1850954624.000000, -158.270004,  27.020000,  -102.199997, 0.000000,  0.000000 
 9445376.000000, -11.753544 , -26.019554, 9.525827, 1850974592.000000, 40.110001,  112.559998,  -81.620003, 0.000000,  0.000000 
 9465216.000000, -12.265609 , -25.531416, 5.101498, 1850994688.000000, 137.130005,  199.710007,  -111.580002, 0.000000,  0.000000 
 9485952.000000, -6.087341 , -24.430719, 3.957729, 1851014656.000000, 125.510002,  99.820000,  -74.199997, 0.000000,  0.000000 
 9506304.000000, -4.314260 , -24.973890, 4.962714, 1851035392.000000, -28.910000,  -95.340004,  -89.459999, 0.000000,  0.000000 
 9526272.000000, -2.636890 , -19.518253, 5.462814, 1851055744.000000, -138.600006,  -126.840004,  -121.379997, 0.000000,  0.000000 
 9546368.000000, -1.873580 , -11.552547, 1.612763, 1851075712.000000, 2.940000,  -88.690002,  -94.290001, 0.000000,  0.000000 
 9566336.000000, -1.517050 , -5.094319, 0.354138, 1851095808.000000, 197.190002,  -62.510002,  -73.570000, 0.000000,  0.000000 
 9587200.000000, -0.275175 , -1.732404, -0.631705, 1851115648.000000, 241.009995,  -55.580002,  -53.689999, 0.000000,  0.000000 
 9606272.000000, -1.619941 , 2.663212, -1.091127, 1851136640.000000, 214.270004,  -42.980000,  -33.740002, 0.000000,  0.000000 
 9626240.000000, -1.256232 , 6.199803, -3.017349, 1851155712.000000, 190.259995,  -18.900000,  -40.740002, 0.000000,  0.000000 
 9646336.000000, -0.435494 , 8.827123, -4.733003, 1851175680.000000, 213.360001,  41.160000,  13.020000, 0.000000,  0.000000 
 9666176.000000, 0.531207 , 8.250452, -4.974678, 1851195648.000000, 207.410004,  64.470001,  35.700001, 0.000000,  0.000000 
 9687168.000000, 1.512264 , 6.025128, -4.345366, 1851215616.000000, 141.119995,  34.509998,  17.010000, 0.000000,  0.000000 
 9706240.000000, 2.883351 , 3.536592, -3.433701, 1851236608.000000, 33.810001,  -19.460001,  16.660000, 0.000000,  0.000000 
 9726208.000000, 3.720839 , 1.651048, -2.849852, 1851255552.000000, -55.299999,  -55.580002,  60.689999, 0.000000,  0.000000 
 9746304.000000, 3.060420 , 0.002393, -3.225525, 1851275648.000000, -100.519997,  -48.090000,  96.320000, 0.000000,  0.000000 
 9766144.000000, 1.339981 , -1.550549, -2.852244, 1851295616.000000, -100.590004,  3.080000,  97.160004, 0.000000,  0.000000 
 9787136.000000, -0.241675 , -2.433501, -2.254039, 1851315584.000000, -87.430000,  48.299999,  81.690002, 0.000000,  0.000000 
 9806208.000000, -1.036092 , -3.309274, -2.000400, 1851336448.000000, -86.519997,  56.070000,  74.830002, 0.000000,  0.000000 
 9826176.000000, -0.993021 , -3.340380, -1.280160, 1851355520.000000, -80.639999,  43.330002,  58.869999, 0.000000,  0.000000 
 9846272.000000, -0.461815 , -3.067599, -1.088734, 1851375488.000000, -73.290001,  6.580000,  34.650002, 0.000000,  0.000000 
 9866112.000000, 0.734596 , -2.203789, -0.847059, 1851395584.000000, -57.889999,  -33.320000,  16.100000, 0.000000,  0.000000 
 9887104.000000, 1.902294 , -1.306481, 0.193819, 1851415552.000000, -40.110001,  -47.880001,  5.110000, 0.000000,  0.000000 
 9906048.000000, 1.954936 , -1.323231, 0.509671, 1851436416.000000, -25.129999,  -29.400000,  -3.640000, 0.000000,  0.000000 
 9926016.000000, 1.670190 , -1.339981, 0.978664, 1851455488.000000, -13.090000,  10.710000,  -9.520000, 0.000000,  0.000000 
 9945984.000000, 1.222732 , -3.017349, 2.627320, 1851475456.000000, -11.200000,  48.230000,  -15.470000, 0.000000,  0.000000 
 9966080.000000, 1.028914 , -12.667603, 4.821537, 1851495424.000000, -23.170000,  69.860001,  -12.390000, 0.000000,  0.000000 
 9986944.000000, -3.225525 , -44.406002, -1.457229, 1851515392.000000, -82.459999,  35.000000,  10.430000, 0.000000,  0.000000 
 10006144.000000, -19.082762 , -59.554962, 6.046663, 1851536256.000000, -251.790009,  54.880001,  124.669998, 0.000000,  0.000000 
 10025984.000000, -14.062619 , -40.469807, 5.053641, 1851555584.000000, -344.540009,  284.549988,  76.510002, 0.000000,  0.000000 
 10045952.000000, -7.671390 , -30.345778, 8.623734, 1851575296.000000, 49.000000,  40.810001,  -38.570000, 0.000000,  0.000000 
 10065920.000000, -8.884550 , -27.177679, 12.823137, 1851595392.000000, 63.209999,  47.880001,  -104.160004, 0.000000,  0.000000 
 10086912.000000, -11.320443 , -27.589247, 9.669396, 1851615360.000000, 60.830002,  93.940002,  -124.949997, 0.000000,  0.000000 
 10105984.000000, -9.504292 , -19.759928, 5.876772, 1851636224.000000, 106.120003,  96.669998,  -110.599998, 0.000000,  0.000000 
 10125952.000000, -5.721239 , -16.232908, 4.881358, 1851655296.000000, 131.740005,  -7.560000,  -72.449997, 0.000000,  0.000000 
 10145920.000000, -2.510071 , -16.187445, 6.604190, 1851675264.000000, 53.689999,  -115.290001,  -48.230000, 0.000000,  0.000000 
 10165888.000000, 0.478565 , -13.225130, 6.386444, 1851695232.000000, -21.350000,  -152.180008,  -53.619999, 0.000000,  0.000000 
 10188800.000000, 0.607777 , -7.501499, 3.002992, 1851715328.000000, 83.510002,  -115.500000,  -27.790001, 0.000000,  0.000000 
 10205824.000000, 0.466600 , -3.347559, -0.239282, 1851738112.000000, 225.610001,  -66.849998,  -22.680000, 1852205568.000000,  1008.535645 
 10225920.000000, 0.272782 , 0.545564, -1.478764, 1851755264.000000, 260.540009,  -47.529999,  -13.370000, 0.000000,  0.000000 
 10245888.000000, -0.047856 , 3.696911, -2.538785, 1851775232.000000, 234.500000,  -29.610001,  -0.280000, 0.000000,  0.000000 
 10265856.000000, -0.631705 , 5.419744, -3.900301, 1851795328.000000, 196.910004,  8.610000,  16.799999, 0.000000,  0.000000 
 10286720.000000, -1.038485 , 5.108676, -4.460221, 1851815168.000000, 128.029999,  43.400002,  18.620001, 0.000000,  0.000000 
 10305792.000000, -0.777667 , 3.194418, -4.697111, 1851836160.000000, 33.180000,  44.310001,  19.740000, 0.000000,  0.000000 
 10325760.000000, 0.162712 , 1.847259, -4.130012, 1851855232.000000, -20.790001,  5.600000,  18.340000, 0.000000,  0.000000 
 10345856.000000, 1.490728 , 1.761117, -3.357130, 1851875200.000000, -27.440001,  -37.450001,  27.440001, 0.000000,  0.000000 
 10365824.000000, 2.579463 , 1.768296, -3.357130, 1851895168.000000, -21.420000,  -64.050003,  43.189999, 0.000000,  0.000000 
 10386688.000000, 2.794817 , 1.375873, -3.517449, 1851915136.000000, -16.940001,  -52.779999,  46.759998, 0.000000,  0.000000 
 10405760.000000, 2.081756 , 0.571885, -2.708675, 1851936128.000000, -26.389999,  -24.570000,  48.930000, 0.000000,  0.000000 
 10425728.000000, 1.452443 , -0.485743, -2.304288, 1851955200.000000, -52.150002,  -3.220000,  55.720001, 0.000000,  0.000000 
 10445696.000000, 0.803988 , -1.418944, -1.648655, 1851975168.000000, -72.169998,  6.020000,  57.889999, 0.000000,  0.000000 
 10465792.000000, 0.689133 , -2.155933, -1.629512, 1851995136.000000, -82.459999,  1.190000,  47.180000, 0.000000,  0.000000 
 10486656.000000, 1.031307 , -2.574677, -1.107877, 1852015104.000000, -80.709999,  -8.960000,  34.160000, 0.000000,  0.000000 
 10505728.000000, 1.734797 , -2.122434, 0.110070, 1852035968.000000, -73.080002,  -16.100000,  20.930000, 0.000000,  0.000000 
 10525696.000000, 2.182254 , -2.246860, 0.832702, 1852055040.000000, -62.369999,  -15.960000,  13.020000, 0.000000,  0.000000 
 10545664.000000, 1.524228 , -4.211368, 2.124826, 1852075136.000000, -36.889999,  -1.960000,  6.300000, 0.000000,  0.000000 
 10565760.000000, 1.378266 , -10.490135, 6.290731, 1852095104.000000, -49.000000,  35.349998,  -7.000000, 0.000000,  0.000000 
 10586624.000000, -0.124427 , -31.276583, 1.469193, 1852115072.000000, -126.699997,  60.970001,  -12.040000, 0.000000,  0.000000 
 10605696.000000, -5.393422 , -48.746582, 7.353144, 1852135936.000000, -210.210007,  -2.590000,  28.280001, 0.000000,  0.000000 
 10625664.000000, -16.811972 , -41.118263, 5.450850, 1852155008.000000, -247.869995,  143.990005,  77.769997, 0.000000,  0.000000 
 10645632.000000, -6.893722 , -29.333614, 8.106883, 1852174976.000000, -72.940002,  152.669998,  -55.090000, 0.000000,  0.000000 
 10665600.000000, -3.761517 , -24.538395, 12.416357, 1852195072.000000, 0.210000,  34.299999,  -67.480003, 0.000000,  0.000000 
 10686592.000000, -4.816752 , -25.103102, 13.878372, 1852215040.000000, 33.180000,  17.290001,  -114.169998, 0.000000,  0.000000 
 10705664.000000, -8.537591 , -25.153351, 12.327823, 1852235904.000000, 50.750000,  76.230003,  -98.419998, 0.000000,  0.000000 
 10725632.000000, -6.687939 , -20.994625, 8.542377, 1852254976.000000, 61.740002,  78.400002,  -78.470001, 0.000000,  0.000000 
 10745600.000000, -4.065405 , -18.754944, 5.283352, 1852274944.000000, 62.650002,  -35.279999,  -48.580002, 0.000000,  0.000000 
 10765568.000000, -2.423929 , -16.304693, 4.232903, 1852294912.000000, 35.630001,  -118.160004,  -48.160000, 0.000000,  0.000000 
 10786432.000000, -1.890330 , -12.282358, 2.591427, 1852315008.000000, 29.190001,  -120.330002,  -28.980000, 0.000000,  0.000000 
 10805504.000000, -1.237089 , -8.671589, 1.421337, 1852335872.000000, 72.169998,  -82.529999,  -11.060000, 0.000000,  0.000000 
 10825600.000000, -0.605384 , -4.488935, -1.390230, 1852354944.000000, 112.699997,  -59.360001,  0.140000, 0.000000,  0.000000 
 10845568.000000, 0.016750 , -1.418944, -3.395415, 1852374912.000000, 151.759995,  -55.020000,  6.510000, 0.000000,  0.000000 
 10865536.000000, 0.066999 , 2.541178, -4.031906, 1852394880.000000, 179.830002,  -34.720001,  12.810000, 0.000000,  0.000000 
 10886400.000000, 0.157926 , 5.831308, -4.792823, 1852414848.000000, 173.880005,  -2.660000,  10.290000, 0.000000,  0.000000 
 10905472.000000, 0.684347 , 6.786045, -5.132604, 1852435840.000000, 179.479996,  36.330002,  1.050000, 0.000000,  0.000000 
 10925440.000000, 1.536192 , 6.190232, -5.412565, 1852454912.000000, 166.600006,  61.110001,  -7.630000, 0.000000,  0.000000 
 10945536.000000, 2.574677 , 5.228317, -5.338387, 1852474880.000000, 101.709999,  39.549999,  -6.090000, 0.000000,  0.000000 
 10965504.000000, 3.122634 , 3.292524, -3.917051, 1852494848.000000, 22.960001,  -0.700000,  18.410000, 0.000000,  0.000000 
 10986368.000000, 2.876173 , 1.976472, -2.445465, 1852514816.000000, -44.939999,  -9.170000,  48.160000, 0.000000,  0.000000 
 11005440.000000, 1.775474 , 0.835095, -1.622334, 1852535680.000000, -93.379997,  19.950001,  74.970001, 0.000000,  0.000000 
 11025408.000000, 0.356531 , 0.258425, -0.851845, 1852554880.000000, -97.160004,  52.639999,  86.099998, 0.000000,  0.000000 
 11045376.000000, -0.727418 , 0.253639, -1.466800, 1852574848.000000, -84.070000,  69.090004,  86.940002, 0.000000,  0.000000 
 11065472.000000, -0.959522 , 0.703490, -2.041078, 1852594816.000000, -72.870003,  64.330002,  88.269997, 0.000000,  0.000000 
 11086336.000000, -0.887737 , 0.701097, -1.184447, 1852614784.000000, -74.059998,  42.420002,  88.760002, 0.000000,  0.000000 
 11105408.000000, -0.540778 , -0.423530, 0.303888, 1852635648.000000, -95.690002,  11.270000,  83.510002, 0.000000,  0.000000 
 11125376.000000, -0.543171 , -3.007778, 0.454636, 1852654720.000000, -135.940002,  -8.190000,  82.040001, 0.000000,  0.000000 
 11145344.000000, -0.689133 , -3.754339, 1.313660, 1852674816.000000, -187.600006,  -6.650000,  78.400002, 0.000000,  0.000000 
 11165312.000000, -1.167697 , -9.279366, 7.221539, 1852694784.000000, -224.979996,  14.350000,  76.019997, 0.000000,  0.000000 
 11188224.000000, -6.759724 , -30.754950, 2.577070, 1852714752.000000, -176.960007,  17.080000,  73.779999, 0.000000,  0.000000 
 11205376.000000, -33.535408 , -51.110687, 1.947758, 1852737536.000000, -153.649994,  8.050000,  91.349998, 1853205120.000000,  1008.535950 
 11225344.000000, -11.842079 , -41.127834, 1.335195, 1852754688.000000, -218.399994,  57.400002,  85.050003, 0.000000,  0.000000 
 11245312.000000, -13.931013 , -35.047672, 10.143176, 1852774656.000000, -59.010002,  -10.640000,  135.520004, 0.000000,  0.000000 
 11265280.000000, -6.403193 , -22.169500, 8.822337, 1852794752.000000, -66.570000,  -6.440000,  -76.090004, 0.000000,  0.000000 
 11286144.000000, -10.916058 , -21.489941, 9.906286, 1852814720.000000, 116.480003,  62.510002,  -38.430000, 0.000000,  0.000000 
 11305344.000000, -16.197016 , -27.582067, 3.680161, 1852835584.000000, 163.729996,  95.269997,  -65.309998, 0.000000,  0.000000 
 11325312.000000, -9.267403 , -21.719652, 4.895715, 1852854656.000000, 91.980003,  68.529999,  -61.459999, 0.000000,  0.000000 
 11345280.000000, -7.824530 , -22.406391, 5.309673, 1852874624.000000, 8.540000,  -38.639999,  -40.250000, 0.000000,  0.000000 
 11365248.000000, -4.795217 , -17.615959, 3.371487, 1852894592.000000, 14.350000,  -84.699997,  -67.690002, 0.000000,  0.000000 
 11386112.000000, -3.431308 , -11.590833, 0.387637, 1852914688.000000, 58.170002,  -76.790001,  -48.509998, 0.000000,  0.000000 
 11405184.000000, -2.785245 , -7.570890, -0.421137, 1852935552.000000, 114.449997,  -52.570000,  -38.570000, 0.000000,  0.000000 
 11425152.000000, -1.268196 , -4.012764, -0.093320, 1852954624.000000, 118.440002,  -44.450001,  -28.840000, 0.000000,  0.000000 
 11445248.000000, 0.102891 , -1.512264, -0.784846, 1852974592.000000, 97.510002,  -61.599998,  -4.900000, 0.000000,  0.000000 
 11465216.000000, 0.559920 , 1.234696, -1.828116, 1852994560.000000, 112.419998,  -56.630001,  4.410000, 0.000000,  0.000000 
 11486080.000000, 1.002593 , 3.842873, -3.220739, 1853014528.000000, 145.320007,  -16.940001,  -1.610000, 0.000000,  0.000000 
 11505152.000000, 1.081556 , 5.857630, -2.273181, 1853035520.000000, 169.820007,  19.740000,  -13.230000, 0.000000,  0.000000 
 11525120.000000, 1.730011 , 5.931807, -2.213361, 1853054592.000000, 166.880005,  31.990000,  -33.950001, 0.000000,  0.000000 
 11545088.000000, 2.787638 , 5.118248, -2.624927, 1853074560.000000, 139.580002,  19.040001,  -38.150002, 0.000000,  0.000000 
 11565184.000000, 3.194418 , 3.857230, -2.349752, 1853094528.000000, 64.260002,  -18.690001,  -28.770000, 0.000000,  0.000000 
 11586048.000000, 3.141776 , 2.287539, -2.002793, 1853114496.000000, -18.059999,  -47.320000,  -6.370000, 0.000000,  0.000000 
 11605120.000000, 2.299503 , 1.328017, -0.650848, 1853135360.000000, -57.049999,  -40.670002,  25.900000, 0.000000,  0.000000 
 11625088.000000, 0.928415 , 0.440279, -1.368695, 1853154432.000000, -58.939999,  -24.360001,  35.349998, 0.000000,  0.000000 
 11645056.000000, -0.066999 , 0.126820, -1.579263, 1853174528.000000, -33.740002,  -17.290001,  30.030001, 0.000000,  0.000000 
 11665024.000000, -0.394816 , 0.612563, -1.225125, 1853194496.000000, -24.850000,  -14.770000,  35.209999, 0.000000,  0.000000 
 11686016.000000, 0.023928 , 0.787239, -1.153341, 1853214464.000000, -26.809999,  -21.420000,  50.750000, 0.000000,  0.000000 
 11705088.000000, 0.038285 , 1.060020, -1.481157, 1853235328.000000, -24.430000,  -27.440001,  55.299999, 0.000000,  0.000000 
 11725056.000000, 0.136391 , 1.275374, -1.835295, 1853254400.000000, -35.279999,  -26.320000,  49.910000, 0.000000,  0.000000 
 11745024.000000, -0.236889 , 0.356531, -0.772882, 1853274368.000000, -56.209999,  -3.990000,  46.759998, 0.000000,  0.000000 
 11764992.000000, -0.323031 , -0.842274, 3.550949, 1853294464.000000, -76.300003,  18.830000,  40.459999, 0.000000,  0.000000 
 11785984.000000, -1.825724 , -8.697910, 3.460021, 1853314432.000000, -92.050003,  31.430000,  41.509998, 0.000000,  0.000000 
 11805056.000000, -1.935793 , -11.662617, 2.775674, 1853335424.000000, -105.279999,  34.369999,  37.730000, 0.000000,  0.000000 
 11825024.000000, -3.534199 , -27.754351, 0.787239, 1853354368.000000, -144.759995,  65.239998,  21.910000, 0.000000,  0.000000 
 11844992.000000, -14.610575 , -48.595837, 9.762716, 1853374336.000000, -165.410004,  65.940002,  30.940001, 0.000000,  0.000000 
 11864960.000000, -14.043476 , -50.115276, 6.869793, 1853394304.000000, -308.000000,  97.860001,  69.650002, 0.000000,  0.000000 
 11885824.000000, -11.102697 , -33.355946, 2.627320, 1853414400.000000, -44.170002,  56.139999,  75.879997, 0.000000,  0.000000 
 11904896.000000, -11.729616 , -24.966711, 7.676175, 1853435264.000000, 118.090004,  57.820000,  -18.410000, 0.000000,  0.000000 
 11924992.000000, -9.501899 , -29.553751, 11.971292, 1853454336.000000, 34.439999,  36.259998,  -136.080002, 0.000000,  0.000000 
 11944960.000000, -14.550755 , -30.769304, 11.923435, 1853474304.000000, -34.160000,  17.570000,  -155.470001, 0.000000,  0.000000 
 11964928.000000, -13.320844 , -23.767908, 8.006385, 1853494272.000000, 61.459999,  96.879997,  -152.320007, 0.000000,  0.000000 
 11985792.000000, -10.159925 , -15.498313, 4.797609, 1853514240.000000, 131.180008,  71.470001,  -119.349998, 0.000000,  0.000000 
 12004864.000000, -8.496914 , -9.839286, 1.253839, 1853535232.000000, 106.470001,  -17.430000,  -122.709999, 0.000000,  0.000000 
 12024832.000000, -5.285746 , -7.099504, 2.055435, 1853554304.000000, 37.310001,  -75.389999,  -110.040001, 0.000000,  0.000000 
 12044928.000000, -1.490728 , -5.520242, 3.168097, 1853574272.000000, 35.070000,  -97.090004,  -45.849998, 0.000000,  0.000000 
 12064896.000000, 0.344566 , -3.113062, 1.514657, 1853594240.000000, 152.389999,  -103.389999,  8.960000, 0.000000,  0.000000 
 12085760.000000, 0.660419 , -0.112463, 0.581456, 1853614208.000000, 213.639999,  -65.870003,  28.840000, 0.000000,  0.000000 
 12104832.000000, -0.315853 , 2.431108, -2.340181, 1853635200.000000, 187.460007,  -24.710001,  29.120001, 0.000000,  0.000000 
 12124800.000000, -0.851845 , 5.125426, -3.586841, 1853654272.000000, 143.220001,  16.240000,  28.420000, 0.000000,  0.000000 
 12144768.000000, -0.516850 , 4.639683, -2.888137, 1853674240.000000, 76.580002,  49.560001,  42.349998, 0.000000,  0.000000 
 12164864.000000, 0.416351 , 2.335395, -2.691926, 1853694208.000000, 27.580000,  22.540001,  45.849998, 0.000000,  0.000000 
 12187648.000000, 2.440679 , 1.263410, -2.390430, 1853737088.000000, -44.660000,  -88.550003,  8.820000, 1854204544.000000,  1008.535339 
 12204800.000000, 4.747360 , 0.811167, -2.299503, 0.000000, 0.000000,  0.000000,  0.000000, 0.000000,  0.000000 
 12224768.000000, 5.687739 , 1.473979, -3.048456, 1853754112.000000, -34.230000,  -101.639999,  36.330002, 0.000000,  0.000000 
 12244864.000000, 3.438486 , 1.995614, -3.773481, 1853774208.000000, -18.059999,  -43.049999,  45.990002, 0.000000,  0.000000 
 12264704.000000, 1.205983 , 1.234696, -3.527020, 1853794176.000000, -5.390000,  27.230000,  29.889999, 0.000000,  0.000000 
 12285696.000000, 0.267996 , 0.684347, -2.402394, 1853814144.000000, -9.520000,  58.590000,  29.469999, 0.000000,  0.000000 
 12304768.000000, 0.289532 , 0.078963, -1.500300, 1853835008.000000, -29.680000,  37.380001,  40.670002, 0.000000,  0.000000 
 12324736.000000, 1.019342 , -0.411566, -0.720240, 1853854080.000000, -43.889999,  -1.050000,  41.439999, 0.000000,  0.000000 
 12344704.000000, 1.562513 , -0.387637, -1.122234, 1853874048.000000, -49.840000,  -18.690001,  41.369999, 0.000000,  0.000000 
 12364672.000000, 1.296910 , -0.131605, -1.371087, 1853894144.000000, -51.380001,  -2.660000,  37.380001, 0.000000,  0.000000 
 12385664.000000, 0.576670 , -0.069392, -0.662812, 1853914112.000000, -50.049999,  29.120001,  27.440001, 0.000000,  0.000000 
 12404736.000000, 0.275175 , -1.311267, 1.574477, 1853934976.000000, -54.880001,  50.189999,  26.950001, 0.000000,  0.000000 
 12424704.000000, -0.021535 , -5.242674, 2.342573, 1853954048.000000, -62.930000,  51.660000,  36.540001, 0.000000,  0.000000 
 12444672.000000, 0.289532 , -12.591033, 2.275574, 1853974016.000000, -73.500000,  49.980000,  38.430000, 0.000000,  0.000000 
 12464640.000000, -1.741975 , -34.147972, 1.600798, 1853993984.000000, -106.190002,  73.290001,  26.110001, 0.000000,  0.000000 
 12485504.000000, -9.358330 , -52.235317, 8.843873, 1854014080.000000, -181.300003,  46.759998,  23.240000, 0.000000,  0.000000 
 12504576.000000, -21.769901 , -49.170113, 3.373880, 1854034944.000000, -290.709991,  143.220001,  74.970001, 0.000000,  0.000000 
 12524672.000000, -8.243275 , -30.759735, 5.539384, 1854054016.000000, -10.080000,  139.580002,  -27.370001, 0.000000,  0.000000 
 12544640.000000, -8.525627 , -22.509283, 14.060226, 1854073984.000000, 69.510002,  28.210001,  -84.139999, 0.000000,  0.000000 
 12564608.000000, -7.300502 , -18.996618, 17.280964, 1854093952.000000, 4.130000,  29.540001,  -193.970001, 0.000000,  0.000000 
 12585472.000000, -7.255038 , -17.034504, 13.380664, 1854113920.000000, 72.239998,  62.020000,  -168.210007, 0.000000,  0.000000 
 12604544.000000, -7.963314 , -18.556339, 11.617154, 1854134912.000000, 172.830002,  43.959999,  -147.419998, 0.000000,  0.000000 
 12624512.000000, -7.853244 , -29.680573, 10.679168, 1854153984.000000, 125.930000,  -22.680000,  -129.220001, 0.000000,  0.000000 
 12644608.000000, -5.931807 , -33.111877, 7.917850, 1854173952.000000, -37.660000,  -108.220001,  -135.729996, 0.000000,  0.000000 
 12664576.000000, -2.957529 , -21.303301, 3.053242, 1854193920.000000, -63.910000,  -127.820000,  -163.100006, 0.000000,  0.000000 
 12685440.000000, -2.280360 , -12.837494, 0.248854, 1854213888.000000, 157.080002,  -117.529999,  -171.500000, 0.000000,  0.000000 
 12704512.000000, -2.773281 , -6.570691, -2.065006, 1854234752.000000, 259.140015,  -99.330002,  -177.520004, 0.000000,  0.000000 
 12724480.000000, -2.036292 , -2.471786, -3.304488, 1854253952.000000, 246.750000,  -79.099998,  -140.139999, 0.000000,  0.000000 
 12744448.000000, -1.433301 , 0.524028, -2.589034, 1854273920.000000, 200.479996,  -66.290001,  -60.410000, 0.000000,  0.000000 
 12764544.000000, -0.619741 , 1.701297, -2.297110, 1854293888.000000, 147.630005,  -88.410004,  -3.920000, 0.000000,  0.000000 
 12785408.000000, -0.141177 , 2.376073, -2.569891, 1854313856.000000, 118.020004,  -100.169998,  22.750000, 0.000000,  0.000000 
 12804480.000000, -0.229711 , 2.976671, -3.280560, 1854334720.000000, 85.260002,  -86.309998,  39.549999, 0.000000,  0.000000 
 12824448.000000, -0.557528 , 3.536592, -3.132205, 1854353792.000000, 71.260002,  -33.320000,  56.840000, 0.000000,  0.000000 
 12844416.000000, -1.194018 , 3.412165, -3.603590, 1854373888.000000, 77.840004,  23.100000,  68.110001, 0.000000,  0.000000 
 12864384.000000, -1.672583 , 2.947958, -3.862016, 1854393856.000000, 89.879997,  46.270000,  64.400002, 0.000000,  0.000000 
 12885376.000000, -0.825524 , 3.495914, -4.132405, 1854413824.000000, 87.080002,  56.349998,  62.580002, 0.000000,  0.000000 
 12904448.000000, 0.483350 , 3.981657, -3.756732, 1854434688.000000, 57.470001,  37.310001,  63.980000, 0.000000,  0.000000 
 12924416.000000, 1.421337 , 3.385844, -3.438486, 1854453760.000000, 6.860000,  -7.420000,  63.209999, 0.000000,  0.000000 
 12944384.000000, 1.593620 , 1.557728, -3.101098, 1854473728.000000, -51.520000,  -25.340000,  64.610001, 0.000000,  0.000000 
 12964352.000000, 0.763310 , 0.356531, -2.385644, 1854493696.000000, -83.720001,  -6.650000,  78.260002, 0.000000,  0.000000 
 12985216.000000, -0.016750 , 0.787239, -2.577070, 1854513792.000000, -70.699997,  15.330000,  93.379997, 0.000000,  0.000000 
 13004288.000000, 0.035892 , 1.610370, -3.038885, 1854534656.000000, -34.160000,  20.020000,  100.730003, 0.000000,  0.000000 
 13024384.000000, 0.947558 , 1.246661, -2.787638, 1854553728.000000, -11.480000,  -1.890000,  103.250000, 0.000000,  0.000000 
 13044352.000000, 1.761117 , 0.200997, -0.375673, 1854573696.000000, -37.660000,  -25.059999,  109.550003, 0.000000,  0.000000 
 13064320.000000, 2.947958 , -1.141376, 0.665205, 1854593664.000000, -67.830002,  -33.880001,  122.709999, 0.000000,  0.000000 
 13085184.000000, 3.672983 , -0.196211, -0.514457, 1854613632.000000, -34.369999,  -18.200001,  137.199997, 0.000000,  0.000000 
 13104256.000000, 3.445665 , 0.576670, 4.625326, 1854634624.000000, 4.060000,  28.840000,  134.330002, 0.000000,  0.000000 
 13124224.000000, 2.632105 , -12.528819, 8.645268, 1854653696.000000, 13.930000,  80.849998,  132.509995, 0.000000,  0.000000 
 13144320.000000, -1.983650 , -25.232313, 11.669796, 1854673664.000000, -51.380001,  55.020000,  164.639999, 0.000000,  0.000000 
 13164288.000000, -29.977282 , -53.924652, 11.495120, 1854693632.000000, -222.320007,  161.279999,  283.920013, 0.000000,  0.000000 
 13187072.000000, -19.793428 , -40.993839, 14.912071, 1854713600.000000, -204.190002,  501.549988,  224.070007, 0.000000,  0.000000 
 13204224.000000, -16.409977 , -38.388050, 18.853050, 1854753664.000000, -57.049999,  75.599998,  -85.610001, 1855203968.000000,  1008.532532 
 13224192.000000, -16.426727 , -28.046274, 17.919849, 0.000000, 0.000000,  0.000000,  0.000000, 0.000000,  0.000000 
 13244288.000000, -19.523039 , -26.589045, 12.375679, 1854773632.000000, 41.020000,  85.959999,  -88.269997, 0.000000,  0.000000 
 13264256.000000, -16.103697 , -26.182266, 10.705488, 1854793600.000000, 60.270000,  39.270000,  -90.720001, 0.000000,  0.000000 
 13285120.000000, -10.150353 , -23.933012, 8.202596, 1854813568.000000, -32.060001,  -47.950001,  -92.260002, 0.000000,  0.000000 
 13304192.000000, -7.156933 , -17.551353, 4.761717, 1854834432.000000, -59.779999,  -92.680000,  -150.919998, 0.000000,  0.000000 
 13324160.000000, -5.158926 , -10.667203, 1.246661, 1854853504.000000, 0.910000,  -66.430000,  -160.580002, 0.000000,  0.000000 
 13344128.000000, -3.141776 , -5.180461, 0.957129, 1854873600.000000, 88.129997,  -22.889999,  -145.600006, 0.000000,  0.000000 
 13364096.000000, -1.349552 , -2.443072, 0.543171, 1854893568.000000, 128.869995,  -25.760000,  -128.729996, 0.000000,  0.000000 
 13385088.000000, 0.411566 , 0.401994, -0.184247, 1854913536.000000, 142.869995,  -46.410000,  -104.160004, 0.000000,  0.000000 
 13404160.000000, 0.440279 , 3.936193, -1.854438, 1854934400.000000, 159.039993,  -71.190002,  -79.169998, 0.000000,  0.000000 
 13424128.000000, 1.055235 , 6.721439, -3.433701, 1854953472.000000, 199.220001,  -61.880001,  -73.220001, 0.000000,  0.000000 
 13444096.000000, 0.832702 , 7.386643, -3.945765, 1854973440.000000, 213.570007,  -2.870000,  -29.540001, 0.000000,  0.000000 
 13464064.000000, 0.332602 , 6.029913, -4.208975, 1854993536.000000, 164.779999,  30.660000,  -11.340000, 0.000000,  0.000000 
 13485056.000000, 0.531207 , 4.957928, -3.876373, 1855013504.000000, 94.989998,  36.049999,  -5.810000, 0.000000,  0.000000 
 13504128.000000, 1.701297 , 4.275974, -3.491128, 1855034368.000000, 39.970001,  34.650002,  1.330000, 0.000000,  0.000000 
 13524096.000000, 2.921637 , 3.926622, -3.469593, 1855053440.000000, 7.560000,  14.350000,  5.320000, 0.000000,  0.000000 
 13544064.000000, 3.692125 , 3.512664, -4.024727, 1855073408.000000, -23.590000,  -11.270000,  16.799999, 0.000000,  0.000000 
 13564032.000000, 2.553142 , 2.007578, -3.522235, 1855093376.000000, -52.150002,  -1.260000,  42.070000, 0.000000,  0.000000 
 13584896.000000, 0.921237 , 0.471386, -2.471786, 1855113472.000000, -66.779999,  35.700001,  58.029999, 0.000000,  0.000000 
 13603968.000000, -0.430708 , -1.318445, -1.576870, 1855134336.000000, -74.269997,  69.790001,  68.459999, 0.000000,  0.000000 
 13624064.000000, -1.098306 , -2.395216, -1.397408, 1855153408.000000, -72.590004,  73.290001,  70.209999, 0.000000,  0.000000 
 13644032.000000, -0.562313 , -2.380858, -1.785046, 1855173376.000000, -68.949997,  66.849998,  67.199997, 0.000000,  0.000000 
 13664000.000000, 0.107677 , -1.938186, -1.440479, 1855193344.000000, -58.099998,  49.279999,  60.130001, 0.000000,  0.000000 
 13684864.000000, 0.650848 , -1.122234, 0.093320, 1855213312.000000, -17.990000,  25.200001,  46.200001, 0.000000,  0.000000 
 13703936.000000, 0.887737 , -0.732204, 1.182054, 1855234304.000000, 3.990000,  13.720000,  30.870001, 0.000000,  0.000000 
 13723904.000000, 1.038485 , -2.304288, 4.189832, 1855253376.000000, -0.070000,  25.830000,  28.280001, 0.000000,  0.000000 
 13744000.000000, 0.468993 , -7.362715, 8.719445, 1855273344.000000, -10.080000,  65.169998,  26.530001, 0.000000,  0.000000 
 13763968.000000, -6.087341 , -20.946770, 5.895915, 1855293312.000000, -37.240002,  63.700001,  51.799999, 0.000000,  0.000000 
 13784832.000000, -59.286964 , -53.943790, 17.572889, 1855313280.000000, -94.150002,  153.720001,  149.029999, 0.000000,  0.000000 
 13803904.000000, -24.143581 , -47.892349, 16.651653, 1855334144.000000, -360.290009,  559.159973,  273.350006, 0.000000,  0.000000 
 13823872.000000, -24.531218 , -40.110889, 16.778471, 1855353344.000000, -278.600006,  65.730003,  64.330002, 0.000000,  0.000000 
 13843840.000000, -22.782063 , -21.561724, 13.150953, 1855373312.000000, 59.709999,  119.840004,  -120.820000, 0.000000,  0.000000 
 13863936.000000, -22.789242 , -17.386250, 6.553941, 1855393280.000000, 240.520004,  138.180008,  -84.209999, 0.000000,  0.000000 
 13884800.000000, -12.629318 , -14.091332, 6.534799, 1855413248.000000, 151.410004,  23.940001,  -104.370003, 0.000000,  0.000000 
 13903872.000000, -7.441679 , -14.837894, 7.616355, 1855434112.000000, -51.029999,  -93.519997,  -96.040001, 0.000000,  0.000000 
 13923840.000000, -4.118048 , -11.832507, 6.410372, 1855453184.000000, -119.699997,  -138.740005,  -161.139999, 0.000000,  0.000000 
 13943808.000000, -1.708475 , -6.096912, 3.376273, 1855473280.000000, -61.180000,  -129.850006,  -152.250000, 0.000000,  0.000000 
 13963776.000000, -0.736989 , -1.679761, 1.026521, 1855493248.000000, 74.830002,  -96.529999,  -101.570000, 0.000000,  0.000000 
 13984768.000000, 0.533599 , 0.933201, -1.935793, 1855513216.000000, 167.789993,  -78.260002,  -76.160004, 0.000000,  0.000000 
 14003968.000000, 0.715454 , 4.252046, -3.081956, 1855534080.000000, 218.750000,  -85.540001,  -52.990002, 0.000000,  0.000000 
 14023808.000000, 1.038485 , 6.049056, -4.297509, 1855553280.000000, 222.460007,  -87.010002,  -58.240002, 0.000000,  0.000000 
 14043776.000000, 0.512064 , 5.934200, -5.429315, 1855573120.000000, 198.869995,  -50.750000,  -40.950001, 0.000000,  0.000000 
 14063744.000000, -0.021535 , 4.749753, -5.417351, 1855593216.000000, 110.949997,  -16.170000,  -24.219999, 0.000000,  0.000000 
 14084608.000000, 0.423530 , 2.876173, -5.173282, 1855613184.000000, -11.130000,  -11.760000,  -17.010000, 0.000000,  0.000000 
 14103808.000000, 0.928415 , 1.342373, -3.833302, 1855634048.000000, -79.029999,  -39.200001,  -16.520000, 0.000000,  0.000000 
 14123776.000000, 2.141576 , 0.949951, -2.713461, 1855653120.000000, -83.510002,  -76.160004,  -12.810000, 0.000000,  0.000000 
 14143744.000000, 2.677568 , 1.146162, -2.132005, 1855673088.000000, -52.990002,  -87.150002,  6.230000, 0.000000,  0.000000 
 14163712.000000, 2.172683 , 2.012364, -2.548356, 1855693056.000000, -16.520000,  -65.870003,  13.160000, 0.000000,  0.000000 
 14186624.000000, 1.067199 , 2.447858, -3.354738, 1855713152.000000, -3.920000,  -23.590000,  14.910000, 0.000000,  0.000000 
 14203648.000000, 0.227318 , 1.938186, -3.101098, 1855735936.000000, -17.990000,  11.760000,  22.190001, 1856203392.000000,  1008.530762 
 14223744.000000, -0.033500 , 0.708275, -1.799403, 1855753088.000000, -48.020000,  23.309999,  27.719999, 0.000000,  0.000000 
 14243712.000000, 0.569492 , 0.009571, -0.667598, 1855773056.000000, -72.800003,  7.840000,  29.680000, 0.000000,  0.000000 
 14263680.000000, 2.043471 , -0.105284, -0.387637, 1855793152.000000, -67.550003,  -17.010000,  36.750000, 0.000000,  0.000000 
 14284544.000000, 3.048456 , 0.002393, 2.230111, 1855812992.000000, -33.040001,  -23.660000,  44.099998, 0.000000,  0.000000 
 14303616.000000, 3.072384 , -3.756732, 6.508478, 1855833984.000000, -10.710000,  -1.190000,  54.040001, 0.000000,  0.000000 
 14323584.000000, 1.275374 , -16.235302, 1.682154, 1855853056.000000, -25.200001,  33.810001,  79.239998, 0.000000,  0.000000 
 14343680.000000, -6.410372 , -47.057247, 0.117248, 1855873024.000000, -153.580002,  57.750000,  122.919998, 0.000000,  0.000000 
 14363648.000000, -55.503918 , -78.364944, 13.706088, 1855892992.000000, -421.679993,  169.750000,  173.529999, 0.000000,  0.000000 
 14384512.000000, -16.938791 , -44.049473, 6.589834, 1855912960.000000, -407.679993,  336.700012,  111.510002, 0.000000,  0.000000 
 14403584.000000, -17.735601 , -27.665813, 12.268002, 1855933824.000000, 167.440002,  136.080002,  78.680000, 0.000000,  0.000000 
 14423552.000000, -12.887742 , -22.269999, 14.266008, 1855952896.000000, 136.990005,  78.120003,  -218.190002, 0.000000,  0.000000 
 14443520.000000, -11.344372 , -20.075783, 8.394022, 1855972992.000000, 55.720001,  24.920000,  -173.460007, 0.000000,  0.000000 
 14463616.000000, -6.422336 , -16.864614, 5.726025, 1855992960.000000, 82.879997,  -23.870001,  -157.430008, 0.000000,  0.000000 
 14484480.000000, -3.579663 , -17.190037, 4.299902, 1856012928.000000, 21.700001,  -114.169998,  -118.930000, 0.000000,  0.000000 
 14503552.000000, -1.648655 , -14.285151, 0.356531, 1856033792.000000, -19.809999,  -167.160004,  -134.610001, 0.000000,  0.000000 
 14523520.000000, -1.624727 , -9.317651, -1.521835, 1856052864.000000, 29.889999,  -123.970001,  -95.550003, 0.000000,  0.000000 
 14543488.000000, -1.280160 , -5.534599, -1.170090, 1856072832.000000, 100.029999,  -35.630001,  -62.860001, 0.000000,  0.000000 
 14563456.000000, -0.990629 , -2.624927, -0.914058, 1856092928.000000, 138.250000,  7.070000,  -48.930000, 0.000000,  0.000000 
 14584448.000000, -1.153341 , 0.198604, -1.320838, 1856112896.000000, 167.509995,  12.600000,  -33.950001, 0.000000,  0.000000 
 14603520.000000, -2.457429 , 4.139583, -2.976671, 1856133760.000000, 190.610001,  16.379999,  -25.549999, 0.000000,  0.000000 
 14623488.000000, -2.218147 , 8.118847, -5.328816, 1856152832.000000, 202.160004,  37.730000,  -9.240000, 0.000000,  0.000000 
 14643456.000000, -2.199004 , 9.695717, -5.587241, 1856172800.000000, 201.600006,  68.669998,  31.850000, 0.000000,  0.000000 
 14663424.000000, -0.521635 , 8.001599, -4.603791, 1856192768.000000, 158.199997,  45.779999,  24.150000, 0.000000,  0.000000 
 14684288.000000, 1.043271 , 6.094519, -3.488736, 1856212864.000000, 82.459999,  -17.080000,  6.090000, 0.000000,  0.000000 
 14703360.000000, 3.201597 , 4.570292, -2.694318, 1856233728.000000, 0.280000,  -74.830002,  13.790000, 0.000000,  0.000000 
 14723456.000000, 3.175276 , 2.914458, -2.529213, 1856252800.000000, -54.950001,  -73.360001,  70.629997, 0.000000,  0.000000 
 14743424.000000, 0.909273 , 1.251446, -1.942972, 1856272768.000000, -81.690002,  -8.890000,  104.090004, 0.000000,  0.000000 
 14763392.000000, -1.354338 , -0.815953, -1.682154, 1856292736.000000, -91.419998,  64.959999,  106.959999, 0.000000,  0.000000 
 14784256.000000, -2.318645 , -2.299503, -1.679761, 1856312704.000000, -100.800003,  82.110001,  105.279999, 0.000000,  0.000000 
 14803328.000000, -2.416751 , -3.751946, -1.691726, 1856333696.000000, -114.870003,  56.070000,  105.840004, 0.000000,  0.000000 
 14823296.000000, -1.162912 , -2.979064, -2.029114, 1856352768.000000, -91.000000,  -2.170000,  91.489998, 0.000000,  0.000000 
 14843392.000000, 0.859023 , -1.488336, -1.481157, 1856372736.000000, -48.860001,  -55.720001,  77.769997, 0.000000,  0.000000 
 14863360.000000, 2.002793 , -1.107877, -0.421137, 1856392704.000000, -28.630001,  -77.980003,  73.290001, 0.000000,  0.000000 
 14884224.000000, 3.148954 , -2.924029, 0.488136, 1856412672.000000, -33.880001,  -67.900002,  57.610001, 0.000000,  0.000000 
 14903296.000000, 2.407180 , -6.003592, 2.835495, 1856433664.000000, -28.559999,  -14.420000,  66.080002, 0.000000,  0.000000 
 14923264.000000, 1.569692 , -14.409578, 5.288138, 1856452736.000000, -21.700001,  45.220001,  65.940002, 0.000000,  0.000000 
 14943232.000000, -4.206582 , -46.006802, 1.624727, 1856472704.000000, -82.739998,  87.779999,  42.070000, 0.000000,  0.000000 
 14963328.000000, -24.983461 , -72.801628, 18.597017, 1856492672.000000, -279.019989,  101.639999,  77.279999, 0.000000,  0.000000 
 14984192.000000, -18.623339 , -42.747780, 4.816752, 1856512640.000000, -350.980011,  377.860016,  130.550003, 0.000000,  0.000000 
 15003264.000000, -19.197617 , -30.953552, 9.829715, 1856533504.000000, 170.800003,  141.820007,  14.910000, 0.000000,  0.000000 
 15023232.000000, -17.730816 , -25.155746, 13.371094, 1856552576.000000, 74.970001,  84.910004,  -162.050003, 0.000000,  0.000000 
 15043200.000000, -15.582061 , -17.099110, 9.777073, 1856572672.000000, 9.590000,  70.559998,  -180.600006, 0.000000,  0.000000 
 15063168.000000, -10.497313 , -9.671788, 7.948956, 1856592640.000000, 68.529999,  47.599998,  -144.270004, 0.000000,  0.000000 
 15084160.000000, -6.673582 , -7.546963, 5.170890, 1856612608.000000, 87.500000,  -30.590000,  -67.199997, 0.000000,  0.000000 
 15103232.000000, -4.395615 , -7.451250, 2.359323, 1856633472.000000, 71.190002,  -114.309998,  -49.980000, 0.000000,  0.000000 
 15123200.000000, -2.711068 , -6.678369, 1.710868, 1856652544.000000, 56.000000,  -130.970001,  -21.070000, 0.000000,  0.000000 
 15143168.000000, -1.828116 , -4.960321, 0.457029, 1856672512.000000, 65.940002,  -64.260002,  20.299999, 0.000000,  0.000000 
 15163136.000000, -1.406980 , -2.665605, -1.938186, 1856692608.000000, 134.610001,  -10.920000,  30.100000, 0.000000,  0.000000 
 15186048.000000, -0.918844 , 1.694118, -4.194618, 1856712576.000000, 199.149994,  0.070000,  31.639999, 0.000000,  0.000000 
 15203200.000000, 0.923629 , 4.917251, -5.637490, 1856735360.000000, 211.820007,  -8.260000,  24.500000, 1857202816.000000,  1008.533630 
 15223168.000000, 3.438486 , 5.642276, -5.314459, 1856752512.000000, 220.220001,  -36.820000,  19.950001, 0.000000,  0.000000 
 15243136.000000, 6.893722 , 4.295116, -4.151547, 1856772480.000000, 185.149994,  -97.580002,  -2.310000, 0.000000,  0.000000 
 15263104.000000, 8.985049 , 3.086741, -4.039084, 1856792576.000000, 115.849998,  -110.040001,  -3.010000, 0.000000,  0.000000 
 15283968.000000, 5.699703 , 2.608176, -3.596412, 1856812544.000000, 62.369999,  -31.219999,  21.070000, 0.000000,  0.000000 
 15303040.000000, 2.732604 , 2.053042, -3.304488, 1856833408.000000, 32.689999,  68.110001,  0.420000, 0.000000,  0.000000 
 15323136.000000, 1.299303 , 1.428515, -3.436093, 1856852480.000000, 32.130001,  109.620003,  -4.830000, 0.000000,  0.000000 
 15343104.000000, 0.878166 , 1.538585, -2.727818, 1856872448.000000, 39.410000,  89.879997,  5.110000, 0.000000,  0.000000 
 15363072.000000, 1.246661 , 1.464408, -2.337788, 1856892416.000000, 25.129999,  51.590000,  13.580000, 0.000000,  0.000000 
 15383936.000000, 1.098306 , 0.502493, -1.974079, 1856912384.000000, -3.990000,  32.970001,  23.030001, 0.000000,  0.000000 
 15403008.000000, 0.748954 , -0.784846, -1.543371, 1856933376.000000, -25.410000,  34.439999,  21.139999, 0.000000,  0.000000 
 15422976.000000, 0.136391 , -1.416551, -0.516850, 1856952448.000000, -19.600000,  46.270000,  17.570000, 0.000000,  0.000000 
 15443072.000000, -0.208176 , -1.284946, 1.033699, 1856972416.000000, -1.050000,  56.139999,  17.920000, 0.000000,  0.000000 
 15463040.000000, -1.947758 , -5.699703, 8.159525, 1856992384.000000, 33.529999,  64.610001,  28.210001, 0.000000,  0.000000 
 15483904.000000, -6.089733 , -13.672589, 11.791830, 1857012352.000000, 74.059998,  84.910004,  32.480000, 0.000000,  0.000000 
 15502976.000000, -10.581062 , -22.645674, 17.027327, 1857033216.000000, 48.090000,  119.070000,  27.370001, 0.000000,  0.000000 
 15522944.000000, -27.596424 , -32.750565, 23.081167, 1857052288.000000, 25.410000,  195.720001,  82.879997, 0.000000,  0.000000 
 15542912.000000, -30.764521 , -23.923441, 19.546967, 1857072384.000000, 22.400000,  357.559998,  141.119995, 0.000000,  0.000000 
 15562880.000000, -26.385656 , -18.802801, 20.755344, 1857092352.000000, -21.770000,  315.489990,  143.430008, 0.000000,  0.000000 
 15583872.000000, -18.396021 , -11.746366, 16.661224, 1857112320.000000, 2.940000,  12.040000,  62.790001, 0.000000,  0.000000 
 15602944.000000, -17.292929 , -9.930215, 15.699310, 1857133184.000000, -6.440000,  -52.639999,  -95.900002, 0.000000,  0.000000 
 15622912.000000, -17.087147 , -11.624333, 15.165710, 1857152256.000000, -0.840000,  -46.060001,  -66.010002, 0.000000,  0.000000 
 15642880.000000, -12.665211 , -11.535798, 13.509877, 1857172224.000000, 13.090000,  -15.120000,  -29.889999, 0.000000,  0.000000 
 15662848.000000, -9.480364 , -11.743973, 12.148360, 1857192320.000000, 6.790000,  -20.370001,  13.370000, 0.000000,  0.000000 
 15683840.000000, -7.637890 , -12.335001, 10.413565, 1857212288.000000, -19.809999,  -44.380001,  8.610000, 0.000000,  0.000000 
 15702912.000000, -5.548956 , -9.614362, 7.956135, 1857233152.000000, -34.090000,  -63.209999,  -1.750000, 0.000000,  0.000000 
 15722880.000000, -3.718446 , -5.769095, 4.457829, 1857252224.000000, 9.170000,  -73.360001,  -5.880000, 0.000000,  0.000000 
 15742848.000000, -1.981257 , -2.021935, 0.803988, 1857272192.000000, 53.340000,  -77.000000,  -10.780000, 0.000000,  0.000000 
 15762816.000000, 0.083749 , -0.435494, -2.318645, 1857292160.000000, 52.150002,  -82.809998,  -15.750000, 0.000000,  0.000000 
 15783680.000000, 1.978864 , 2.103291, -3.163311, 1857312256.000000, 33.529999,  -105.419998,  -21.210001, 0.000000,  0.000000 
 15802752.000000, 5.381458 , 3.177669, -3.711268, 1857333120.000000, 14.980000,  -138.600006,  -30.730000, 0.000000,  0.000000 
 15822848.000000, 7.345965 , 4.063013, -3.689733, 1857352192.000000, 30.730000,  -121.029999,  -14.980000, 0.000000,  0.000000 
 15842816.000000, 5.331209 , 3.625126, -4.268795, 1857372160.000000, 24.710001,  -43.470001,  -11.690000, 0.000000,  0.000000 
 15862784.000000, 2.727818 , 2.756532, -4.256832, 1857392128.000000, 21.350000,  43.470001,  -16.309999, 0.000000,  0.000000 
 15883648.000000, 1.622334 , 2.029114, -3.263810, 1857412096.000000, 3.220000,  84.840004,  -7.140000, 0.000000,  0.000000 
 15902720.000000, 1.122234 , 0.997807, -2.380858, 1857433088.000000, -10.850000,  78.120003,  20.650000, 0.000000,  0.000000 
 15922688.000000, 0.710668 , 0.394816, -1.502693, 1857452160.000000, -16.309999,  56.420002,  31.010000, 0.000000,  0.000000 
 15942784.000000, 0.145962 , 0.088534, -1.299303, 1857472128.000000, -29.469999,  50.470001,  42.000000, 0.000000,  0.000000 
 15962752.000000, -0.540778 , -0.181855, -1.043271, 1857492096.000000, -33.110001,  59.220001,  52.639999, 0.000000,  0.000000 
 15983616.000000, -0.966700 , -0.282353, -0.354138, 1857512064.000000, -29.190001,  62.369999,  54.320000, 0.000000,  0.000000 
 16002688.000000, -0.978664 , -1.050449, 0.110070, 1857533056.000000, -27.160000,  51.240002,  52.290001, 0.000000,  0.000000 
 16022656.000000, -1.124627 , -1.411765, 0.837488, 1857552128.000000, -19.040001,  38.920002,  45.080002, 0.000000,  0.000000 
 16042752.000000, -0.842274 , -0.660419, 0.806381, 1857572096.000000, -10.780000,  29.120001,  33.250000, 0.000000,  0.000000 
 16062720.000000, -1.232304 , -0.265603, 2.924029, 1857592064.000000, 8.400000,  29.540001,  31.360001, 0.000000,  0.000000 
 16083584.000000, -4.766503 , -5.560920, 16.823936, 1857612032.000000, 28.700001,  33.459999,  27.790001, 0.000000,  0.000000 
 16102656.000000, -14.857035 , -22.743780, 15.720845, 1857632896.000000, 35.980000,  49.700001,  29.190001, 0.000000,  0.000000 
 16122624.000000, -77.790657 , -27.328428, 17.697317, 1857651968.000000, 17.570000,  194.880005,  109.900002, 0.000000,  0.000000 
 16142592.000000, -39.524647 , -28.156342, 18.876978, 1857672064.000000, -92.820000,  394.450012,  203.839996, 0.000000,  0.000000 
 16162560.000000, -26.404797 , -17.781065, 21.946968, 1857692032.000000, -63.349998,  35.560001,  -26.389999, 0.000000,  0.000000 
 16185472.000000, -28.271200 , -11.490334, 19.475183, 1857734784.000000, 71.750000,  -86.239998,  -140.979996, 1858202368.000000,  1008.532715 
 16202624.000000, -28.407591 , -13.622340, 15.522241, 0.000000, 0.000000,  0.000000,  0.000000, 0.000000,  0.000000 
 16222592.000000, -20.097317 , -11.430513, 11.624333, 1857751936.000000, 3.360000,  -110.599998,  -114.520004, 0.000000,  0.000000 
 16242560.000000, -12.291929 , -11.851650, 8.841480, 1857771904.000000, -101.080002,  -161.559998,  -65.029999, 0.000000,  0.000000 
 16262528.000000, -6.262017 , -7.527820, 6.963113, 1857792000.000000, -123.410004,  -221.690002,  -68.809998, 0.000000,  0.000000 
 16283520.000000, -1.964507 , -2.368894, 2.955136, 1857811968.000000, -52.849998,  -241.850006,  -88.340004, 0.000000,  0.000000 
 16302592.000000, 0.440279 , 0.617348, -0.976272, 1857832832.000000, 67.830002,  -261.100006,  -95.269997, 0.000000,  0.000000 
 16322560.000000, 4.180261 , 3.684947, -3.876373, 1857851904.000000, 156.520004,  -276.360016,  -86.800003, 0.000000,  0.000000 
 16342528.000000, 8.592626 , 4.809574, -4.366901, 1857871872.000000, 169.539993,  -277.549988,  -47.040001, 0.000000,  0.000000 
 16362496.000000, 4.666004 , 2.916851, -5.209175, 1857891840.000000, 115.010002,  -195.580002,  18.830000, 0.000000,  0.000000 
 16383360.000000, 0.363709 , 1.131805, -6.163911, 1857911936.000000, 29.120001,  -55.650002,  -12.180000, 0.000000,  0.000000 
 16402432.000000, -1.624727 , -0.148355, -5.606383, 1857932800.000000, -46.410000,  41.720001,  -39.619999, 0.000000,  0.000000 
 16422528.000000, -1.923829 , -0.770489, -4.917251, 1857951872.000000, -66.639999,  34.160000,  -26.040001, 0.000000,  0.000000 
 16442496.000000, -0.734596 , -0.009571, -5.350351, 1857971840.000000, -16.450001,  -36.680000,  -24.080000, 0.000000,  0.000000 
 16462464.000000, 0.502493 , 1.457229, -5.417351, 1857991808.000000, 49.490002,  -88.760002,  -20.230000, 0.000000,  0.000000 
 16483328.000000, 1.277767 , 1.940579, -5.187639, 1858011776.000000, 59.360001,  -95.340004,  7.210000, 0.000000,  0.000000 
 16502400.000000, 0.629312 , 1.115055, -3.546163, 1858032768.000000, 28.350000,  -64.680000,  36.470001, 0.000000,  0.000000 
 16522368.000000, -0.232104 , 0.093320, -2.620141, 1858051840.000000, -18.340000,  -20.160000,  44.170002, 0.000000,  0.000000 
 16542464.000000, -0.851845 , -0.153141, -2.084148, 1858071808.000000, -38.570000,  15.470000,  48.090000, 0.000000,  0.000000 
 16562432.000000, -0.875773 , 0.342174, -2.163112, 1858091776.000000, -37.170002,  32.830002,  42.630001, 0.000000,  0.000000 
 16583296.000000, -0.126820 , 1.531406, -2.333002, 1858111744.000000, -26.740000,  37.240002,  34.720001, 0.000000,  0.000000 
 16602368.000000, 0.787239 , 2.014757, 0.741775, 1858132608.000000, -19.600000,  32.900002,  25.549999, 0.000000,  0.000000 
 16622336.000000, 0.983450 , -1.091127, 8.657232, 1858151680.000000, -27.020000,  29.889999,  24.430000, 0.000000,  0.000000 
 16642304.000000, 1.962115 , -8.377272, 16.823936, 1858171776.000000, -31.990000,  38.920002,  27.719999, 0.000000,  0.000000 
 16662400.000000, 6.752545 , -19.223938, 25.301706, 1858191744.000000, -51.310001,  13.090000,  14.350000, 0.000000,  0.000000 
 16683264.000000, -3.936193 , -41.237907, 29.314472, 1858211712.000000, -144.550003,  -14.280000,  97.230003, 0.000000,  0.000000 
 16702336.000000, -24.612574 , -56.891754, 26.541189, 1858232576.000000, -244.509995,  108.779999,  190.119995, 0.000000,  0.000000 
 16722304.000000, -28.407591 , -36.311081, 20.922842, 1858251648.000000, -346.149994,  525.630005,  28.840000, 0.000000,  0.000000 
 16742272.000000, -14.294723 , -17.489140, 27.761528, 1858271616.000000, 70.699997,  192.289993,  24.920000, 0.000000,  0.000000 
 16762240.000000, -12.404392 , -10.978271, 19.673786, 1858291712.000000, 118.510002,  8.260000,  -230.790009, 0.000000,  0.000000 
 16783232.000000, -8.068598 , -5.302495, 14.232510, 1858311680.000000, 163.520004,  -12.670000,  -172.059998, 0.000000,  0.000000 
 16802304.000000, -3.467200 , -5.912664, 8.614161, 1858332672.000000, 71.750000,  -104.860001,  -81.480003, 0.000000,  0.000000 
 16822272.000000, -0.945165 , -4.721039, 1.916651, 1858351616.000000, 13.230000,  -229.740005,  -74.620003, 0.000000,  0.000000 
 16842240.000000, 2.993421 , -3.706482, -1.442872, 1858371584.000000, 11.270000,  -255.360001,  -63.910000, 0.000000,  0.000000 
 16862208.000000, 3.495914 , -3.227918, -0.567099, 1858391552.000000, 41.790001,  -178.919998,  14.910000, 0.000000,  0.000000 
 16883072.000000, -0.043071 , -1.414158, -1.703690, 1858411648.000000, 90.090004,  -19.530001,  44.240002, 0.000000,  0.000000 
 16902144.000000, -1.775474 , 0.655633, -4.120440, 1858432512.000000, 149.029999,  112.910004,  22.750000, 0.000000,  0.000000 
 16922240.000000, -1.167697 , 2.660819, -6.075377, 1858451584.000000, 165.270004,  169.259995,  43.959999, 0.000000,  0.000000 
 16942208.000000, 0.739382 , 3.835695, -5.836094, 1858471552.000000, 125.090004,  144.059998,  36.400002, 0.000000,  0.000000 
 16962176.000000, 3.871587 , 3.081956, -4.094120, 1858491520.000000, 54.950001,  36.889999,  10.710000, 0.000000,  0.000000 
 16983040.000000, 7.176075 , 1.904687, -2.385644, 1858511488.000000, -8.120000,  -51.310001,  5.250000, 0.000000,  0.000000 
 17002112.000000, 6.522834 , 1.196411, -2.756532, 1858532480.000000, -39.549999,  -45.849998,  21.980000, 0.000000,  0.000000 
 17022080.000000, 2.500499 , 1.191626, -3.223132, 1858551552.000000, -29.049999,  41.090000,  14.560000, 0.000000,  0.000000 
 17042176.000000, 0.887737 , 1.136591, -3.534199, 1858571520.000000, -14.490000,  91.000000,  -12.250000, 0.000000,  0.000000 
 17062144.000000, 0.449851 , 1.349552, -3.328416, 1858591488.000000, 1.890000,  84.910004,  3.430000, 0.000000,  0.000000 
 17083008.000000, 0.543171 , 0.856631, -2.656033, 1858611456.000000, 2.030000,  44.660000,  11.830000, 0.000000,  0.000000 
 17102080.000000, 0.708275 , -0.270389, -1.160519, 1858632448.000000, -32.410000,  17.290001,  9.870000, 0.000000,  0.000000 
 17122048.000000, 0.748954 , -1.129412, -1.117448, 1858651520.000000, -75.739998,  7.700000,  19.180000, 0.000000,  0.000000 
 17142016.000000, 0.815953 , 0.028714, -1.373480, 1858671488.000000, -65.379997,  14.700000,  25.760000, 0.000000,  0.000000 
 17162112.000000, 0.009571 , -0.947558, 0.047856, 1858691456.000000, -28.139999,  36.540001,  30.100000, 0.000000,  0.000000 
 17184896.000000, -1.466800 , -3.706482, 5.962914, 1858711424.000000, -10.080000,  46.549999,  23.379999, 0.000000,  0.000000 
 17202048.000000, -3.871587 , -5.649454, 8.159525, 1858734336.000000, -21.070000,  50.330002,  31.360001, 1859201792.000000,  1008.530823 
 17222016.000000, -4.486543 , -5.192425, 9.293723, 1858751360.000000, 16.870001,  84.629997,  44.939999, 0.000000,  0.000000 
 17242112.000000, -12.952348 , -18.673588, 19.740788, 1858771456.000000, 62.160000,  130.550003,  70.840004, 0.000000,  0.000000 
 17261952.000000, -36.512081 , -44.932423, 21.525833, 1858791424.000000, -26.389999,  146.860001,  106.680000, 0.000000,  0.000000 
 17282944.000000, -31.807789 , -33.123844, 21.559330, 1858811392.000000, -133.770004,  438.549988,  179.479996, 0.000000,  0.000000 
 17302016.000000, -28.563122 , -24.799213, 21.686153, 1858832256.000000, -3.080000,  19.809999,  20.510000, 0.000000,  0.000000 
 17321984.000000, -18.575481 , -12.270394, 20.659632, 1858851328.000000, -41.930000,  -20.160000,  -142.940002, 0.000000,  0.000000 
 17341952.000000, -27.455246 , -12.971491, 17.828922, 1858871296.000000, 46.900002,  -46.480000,  -161.279999, 0.000000,  0.000000 
 17361920.000000, -19.810179 , -11.397014, 14.840286, 1858891392.000000, 66.080002,  -49.980000,  -132.160004, 0.000000,  0.000000 
 17382912.000000, -11.310873 , -14.292330, 11.097912, 1858911360.000000, -56.840000,  -69.019997,  -15.820000, 0.000000,  0.000000 
 17401984.000000, -5.852845 , -14.512468, 9.353544, 1858932224.000000, -178.850006,  -112.349998,  -51.520000, 0.000000,  0.000000 
 17421952.000000, -1.854438 , -8.468199, 5.575277, 1858951296.000000, -154.559998,  -146.720001,  -99.120003, 0.000000,  0.000000 
 17441920.000000, 0.705883 , -1.375873, 0.966700, 1858971264.000000, 47.599998,  -143.149994,  -95.340004, 0.000000,  0.000000 
 17461888.000000, 3.029313 , 3.871587, -0.897308, 1858991232.000000, 135.240005,  -124.949997,  -58.590000, 0.000000,  0.000000 
 17482752.000000, 6.185446 , 6.604190, -1.840081, 1859011328.000000, 191.520004,  -103.389999,  -45.220001, 0.000000,  0.000000 
 17501824.000000, 4.957928 , 4.847858, -2.914458, 1859032192.000000, 156.169998,  -110.739998,  -17.010000, 0.000000,  0.000000 
 17521920.000000, 2.797210 , 3.426522, -2.462214, 1859051264.000000, 77.419998,  -55.369999,  21.770000, 0.000000,  0.000000 
 17541888.000000, 0.579063 , 1.055235, -3.476771, 1859071232.000000, -21.070000,  37.310001,  14.560000, 0.000000,  0.000000 
 17561856.000000, 0.579063 , -0.148355, -3.031706, 1859091200.000000, -58.170002,  92.680000,  2.170000, 0.000000,  0.000000 
 17582720.000000, 0.811167 , -0.722632, -3.424129, 1859111168.000000, -62.860001,  63.910000,  -8.820000, 0.000000,  0.000000 
 17601792.000000, 2.510071 , -0.251246, -3.589234, 1859132160.000000, -27.160000,  -6.020000,  -13.790000, 0.000000,  0.000000 
 17621760.000000, 3.512664 , 0.038285, -3.086741, 1859151232.000000, -2.240000,  -44.170002,  -13.230000, 0.000000,  0.000000 
 17641856.000000, 2.998207 , -0.150748, -2.385644, 1859171200.000000, -8.260000,  -40.810001,  -12.600000, 0.000000,  0.000000 
 17661824.000000, 1.550549 , -0.284746, -2.215754, 1859191168.000000, -30.380001,  -6.300000,  -14.700000, 0.000000,  0.000000 
 17682688.000000, 0.397209 , -0.461815, -2.328217, 1859211136.000000, -50.119999,  25.549999,  -21.910000, 0.000000,  0.000000 
 17701760.000000, -0.095713 , -0.519243, -1.969293, 1859232000.000000, -58.590000,  34.439999,  -27.510000, 0.000000,  0.000000 
 17721728.000000, 0.059821 , -0.378066, -1.239482, 1859251200.000000, -47.950001,  17.290001,  -31.219999, 0.000000,  0.000000 
 17741696.000000, 0.813560 , 0.184247, -0.555135, 1859271168.000000, -21.980000,  -9.660000,  -38.220001, 0.000000,  0.000000 
 17761792.000000, 1.473979 , 0.753739, -0.401994, 1859291136.000000, -8.190000,  -26.950001,  -46.340000, 0.000000,  0.000000 
 17782656.000000, 2.208575 , 1.797010, 0.205783, 1859311104.000000, -14.350000,  -21.559999,  -50.959999, 0.000000,  0.000000 
 17801728.000000, 2.165504 , 0.014357, 2.196611, 1859351040.000000, -50.470001,  18.410000,  -48.509998, 0.000000,  0.000000 
 17821696.000000, 2.234896 , -3.773481, 7.334002, 0.000000, 0.000000,  0.000000,  0.000000, 0.000000,  0.000000 
 17841664.000000, 6.826723 , -15.756737, 8.760124, 1859371136.000000, -137.970001,  19.180000,  -48.650002, 0.000000,  0.000000 
 17861632.000000, 12.717852 , -41.682972, 7.152147, 1859391104.000000, -255.639999,  -51.660000,  -12.250000, 0.000000,  0.000000 
 17882624.000000, -13.433307 , -78.326660, 20.776880, 1859411072.000000, -441.980011,  -5.460000,  203.490005, 0.000000,  0.000000 
 17901696.000000, -23.665014 , -53.587261, 9.501899, 1859431936.000000, -367.709991,  217.070007,  11.340000, 0.000000,  0.000000 
 17921664.000000, -18.955940 , -28.936405, 8.420342, 1859451008.000000, 125.580002,  316.329987,  -31.500000, 0.000000,  0.000000 
 17941632.000000, -10.188639 , -19.405790, 15.199209, 1859470976.000000, 208.320007,  45.360001,  -126.770004, 0.000000,  0.000000 
 17961600.000000, -7.255038 , -13.916656, 15.452848, 1859491072.000000, 83.019997,  -25.900000,  -228.830002, 0.000000,  0.000000 
 17982464.000000, -7.925028 , -10.286745, 12.239288, 1859511040.000000, 141.680008,  -24.290001,  -202.580002, 0.000000,  0.000000 
 18001792.000000, -8.690732 , -7.508677, 7.889136, 1859531904.000000, 192.639999,  4.340000,  -108.430000, 0.000000,  0.000000 
 18021632.000000, -8.159525 , -7.099504, 3.682554, 1859551104.000000, 166.740005,  -2.870000,  -1.750000, 0.000000,  0.000000 
 18041600.000000, -6.326623 , -7.484749, -2.175076, 1859570944.000000, 103.669998,  -68.949997,  54.529999, 0.000000,  0.000000 
 18061568.000000, -5.125426 , -6.180661, -4.309474, 1859590912.000000, 38.430000,  -113.470001,  53.549999, 0.000000,  0.000000 
 18082432.000000, -3.632305 , -3.998406, -5.742774, 1859611008.000000, 14.630000,  -108.360001,  54.389999, 0.000000,  0.000000 
 18101504.000000, -1.328017 , -1.679761, -8.595018, 1859631872.000000, 74.269997,  -116.550003,  75.320000, 0.000000,  0.000000 
 18121600.000000, -0.318245 , 2.344966, -9.485149, 1859650944.000000, 145.110001,  -121.940002,  102.900002, 0.000000,  0.000000 
 18141568.000000, 1.804188 , 5.458029, -9.260223, 1859670912.000000, 148.750000,  -89.669998,  84.349998, 0.000000,  0.000000 
 18161536.000000, 4.101298 , 6.245267, -7.633104, 1859690880.000000, 144.339996,  -60.200001,  56.420002, 0.000000,  0.000000 
 18184320.000000, 7.551748 , 5.656632, -5.082355, 1859710848.000000, 115.989998,  -58.590000,  31.150000, 0.000000,  0.000000 
 18201472.000000, 8.109276 , 4.421937, -3.529413, 1859733760.000000, 52.220001,  -35.700001,  61.950001, 1860201216.000000,  1008.529419 
 18221440.000000, 3.718446 , 3.146562, -2.682354, 1859750912.000000, -16.379999,  83.300003,  85.400002, 0.000000,  0.000000 
 18241536.000000, 1.040878 , 2.493321, -2.017149, 1859770880.000000, -55.650002,  193.339996,  58.660000, 0.000000,  0.000000 
 18261504.000000, 0.064606 , 1.706082, -2.464607, 1859790848.000000, -64.750000,  211.889999,  58.730000, 0.000000,  0.000000 
 18282368.000000, -0.246461 , 1.418944, -1.588834, 1859810816.000000, -42.279999,  159.809998,  69.580002, 0.000000,  0.000000 
 18301440.000000, 0.110070 , 0.839881, -1.086342, 1859831680.000000, -33.740002,  97.580002,  81.129997, 0.000000,  0.000000 
 18321408.000000, -0.126820 , -0.492921, -0.160319, 1859850752.000000, -52.849998,  59.500000,  93.940002, 0.000000,  0.000000 
 18341376.000000, -0.490529 , -1.576870, 0.248854, 1859870848.000000, -75.599998,  43.400002,  91.910004, 0.000000,  0.000000 
 18361344.000000, -1.375873 , -4.579862, 4.051049, 1859890816.000000, -70.489998,  49.420002,  94.570000, 0.000000,  0.000000 
 18382336.000000, -4.438686 , -12.208181, 7.357929, 1859910784.000000, -27.580000,  62.160000,  100.099998, 0.000000,  0.000000 
 18401408.000000, -8.810372 , -19.173687, 9.308081, 1859931648.000000, 6.160000,  88.900002,  95.970001, 0.000000,  0.000000 
 18421376.000000, -20.070997 , -29.082365, 13.612768, 1859950720.000000, 10.360000,  165.550003,  90.930000, 0.000000,  0.000000 
 18441344.000000, -43.171303 , -36.088551, 14.818751, 1859970688.000000, 19.950001,  235.270004,  139.440002, 0.000000,  0.000000 
 18461312.000000, -32.573494 , -34.930424, 16.335800, 1859990784.000000, -42.560001,  123.760002,  186.899994, 0.000000,  0.000000 
 18482304.000000, -22.463820 , -22.676779, 19.546967, 1860010752.000000, -103.599998,  33.810001,  -38.779999, 0.000000,  0.000000 
 18501376.000000, -19.992033 , -12.318252, 17.716459, 1860031616.000000, 12.880000,  -9.940000,  -115.989998, 0.000000,  0.000000 
 18521344.000000, -20.630917 , -9.588040, 14.648861, 1860050688.000000, 123.690002,  14.420000,  -138.460007, 0.000000,  0.000000 
 18541312.000000, -14.679967 , -5.998806, 9.860823, 1860070656.000000, 127.120003,  -3.290000,  -106.959999, 0.000000,  0.000000 
 18561280.000000, -8.506484 , -8.910872, 6.647261, 1860090624.000000, 35.700001,  -65.449997,  -21.210001, 0.000000,  0.000000 
 18582144.000000, -5.572884 , -12.959527, 7.133004, 1860110720.000000, -101.360001,  -128.309998,  -14.630000, 0.000000,  0.000000 
 18601216.000000, -3.081956 , -12.098111, 7.123433, 1860131584.000000, -171.500000,  -151.199997,  -52.220001, 0.000000,  0.000000 
 18621312.000000, -1.777867 , -7.357929, 3.914658, 1860150656.000000, -62.720001,  -135.729996,  -61.459999, 0.000000,  0.000000 
 18641280.000000, -0.698704 , -3.151347, 1.079163, 1860170624.000000, 114.029999,  -116.970001,  -45.220001, 0.000000,  0.000000 
 18661248.000000, -0.040678 , -0.148355, -0.667598, 1860190592.000000, 166.180008,  -90.160004,  -13.790000, 0.000000,  0.000000 
 18682112.000000, 1.105484 , 1.835295, -1.617548, 1860210560.000000, 119.910004,  -73.570000,  -7.350000, 0.000000,  0.000000 
 18701184.000000, 1.787439 , 1.818545, -2.672783, 1860231552.000000, 35.139999,  -41.230000,  -4.270000, 0.000000,  0.000000 
 18721152.000000, 2.486143 , 1.411765, -2.993421, 1860250624.000000, -17.150000,  -0.490000,  -21.280001, 0.000000,  0.000000 
 18741248.000000, 3.869194 , 2.696711, -3.158526, 1860270592.000000, 6.860000,  26.880001,  -44.590000, 0.000000,  0.000000 
 18761216.000000, 5.324030 , 4.302295, -3.534199, 1860290560.000000, 54.250000,  39.480000,  -59.849998, 0.000000,  0.000000 
