time,seconds_elapsed,z,y,x
1633779624709051000,0.02405078125,6.06964111328125,20.431800842285156,-47.49203109741211
1633779624728931000,0.04393115234375,6.075164794921875,20.531681060791016,-47.41628646850586
1633779624748809700,0.063809814453125,6.30224609375,20.400222778320312,-47.521610260009766
1633779624768690000,0.08368994140625,5.994049072265625,20.711013793945312,-47.607852935791016
1633779624788569000,0.103569091796875,6.204833984375,20.83507537841797,-47.81975173950195
1633779624808448800,0.12344873046875,5.705780029296875,20.86673355102539,-47.67599105834961
1633779624828328000,0.143327880859375,5.8720703125,21.22992706298828,-47.50459671020508
1633779624848208000,0.163207763671875,5.908203125,21.280803680419922,-47.4421501159668
1633779624868086800,0.183086669921875,5.76806640625,21.427627563476562,-47.625057220458984
1633779624887967000,0.202967041015625,5.45654296875,21.7446346282959,-47.57364273071289
1633779624907846000,0.222845947265625,5.8477783203125,21.923633575439453,-47.64340591430664
1633779624927725800,0.242725830078125,5.403839111328125,22.352802276611328,-47.66402816772461
1633779624947605000,0.26260498046875,4.96490478515625,22.407289505004883,-47.78468704223633
1633779624967485000,0.28248486328125,4.600433349609375,22.644033432006836,-47.6396598815918
1633779624987364900,0.30236474609375,4.508514404296875,23.061281204223633,-47.544551849365234
1633779625007243800,0.322243896484375,4.66290283203125,23.712556838989258,-47.49421310424805
1633779625027124000,0.3421240234375,4.314056396484375,24.36354637145996,-47.76339340209961
1633779625047003000,0.3620029296875,4.366943359375,24.5396785736084,-47.84279251098633
1633779625066882800,0.3818828125,5.52105712890625,24.784570693969727,-48.12063217163086
1633779625086762000,0.401761962890625,6.769622802734375,25.20580291748047,-48.11050796508789
1633779625106641700,0.4216416015625,7.981597900390625,25.08959197998047,-48.27504348754883
1633779625126520800,0.441520751953125,9.679901123046875,24.870168685913086,-48.6883659362793
1633779625146401000,0.461401123046875,11.47540283203125,24.862972259521484,-48.67338943481445
1633779625166279700,0.48127978515625,13.658172607421875,25.053436279296875,-48.7201042175293
1633779625186159900,0.501159912109375,14.453155517578125,24.90431022644043,-48.96769332885742
1633779625206039000,0.5210390625,14.9578857421875,24.654735565185547,-49.43777084350586
1633779625225922800,0.5409228515625,15.0621337890625,24.560035705566406,-49.9514274597168
1633779625245802000,0.560802001953125,14.967926025390625,24.102888107299805,-50.46159744262695
1633779625265682000,0.580681884765625,15.29473876953125,23.416183471679688,-50.904354095458984
1633779625285561900,0.600561767578125,15.117218017578125,22.96059226989746,-51.7366828918457
1633779625305441000,0.62044091796875,15.081329345703125,22.780643463134766,-52.54410934448242
1633779625325321000,0.640321044921875,14.180999755859375,22.699581146240234,-53.33963394165039
1633779625345199900,0.660199951171875,13.232879638671875,22.824007034301758,-53.60316848754883
1633779625365079800,0.680079833984375,12.816680908203125,23.581451416015625,-53.6464958190918
1633779625384959000,0.699958984375,13.0147705078125,24.09418487548828,-53.674495697021484
1633779625404839000,0.7198388671875,13.201324462890625,24.641294479370117,-53.66758346557617
1633779625424717800,0.7397177734375,13.3968505859375,25.686349868774414,-52.95125961303711
1633779625444598000,0.759597900390625,13.835418701171875,26.511899948120117,-52.9417610168457
1633779625464477000,0.779476806640625,13.873016357421875,27.510746002197266,-52.63626480102539
1633779625484356900,0.79935693359375,14.316314697265625,28.291038513183594,-52.30421829223633
1633779625504237000,0.819237060546875,14.790863037109375,28.891658782958984,-51.92402267456055
1633779625524115700,0.83911572265625,14.227813720703125,29.522171020507812,-51.60477066040039
1633779625543996000,0.858995849609375,14.3443603515625,29.081775665283203,-51.6318473815918
1633779625563875000,0.878875,14.173309326171875,29.176055908203125,-51.35209274291992
1633779625583754800,0.898754638671875,14.68328857421875,29.140357971191406,-51.58695602416992
1633779625603634000,0.918634033203125,14.03271484375,28.975814819335938,-51.60226058959961
1633779625623513900,0.938513916015625,13.20843505859375,29.245073318481445,-51.50111770629883
1633779625643392800,0.958392822265625,12.011474609375,29.018278121948242,-51.96419143676758
1633779625663273000,0.97827294921875,11.093719482421875,28.87644386291504,-52.256534576416016
1633779625683152000,0.99815185546875,9.9691162109375,28.978939056396484,-52.386112213134766
1633779625703031800,1.01803173828125,10.179473876953125,29.16279411315918,-52.127864837646484
1633779625722911000,1.037910888671875,10.37451171875,29.130046844482422,-52.177608489990234
1633779625742791000,1.057791015625,10.68902587890625,29.294504165649414,-52.30128860473633
1633779625762671000,1.077671142578125,10.321441650390625,29.08412742614746,-52.350955963134766
1633779625782549800,1.0975498046875,9.579864501953125,29.43539810180664,-52.717472076416016
1633779625802430000,1.117429931640625,9.065216064453125,30.064905166625977,-52.53634262084961
1633779625822308900,1.137308837890625,8.476043701171875,30.53904914855957,-52.28953170776367
1633779625842188800,1.157188720703125,8.008209228515625,31.18397331237793,-51.880985260009766
1633779625862068000,1.17706787109375,7.927825927734375,31.172168731689453,-52.07778549194336
1633779625881948000,1.196947998046875,8.90838623046875,30.761577606201172,-52.671817779541016
1633779625901826800,1.216826904296875,10.0535888671875,29.92778778076172,-52.56703567504883
1633779625921707000,1.23670703125,11.09381103515625,28.947998046875,-52.94529342651367
1633779625941587000,1.2565869140625,11.956817626953125,27.97008514404297,-52.865230560302734
1633779625961465900,1.2764658203125,13.61163330078125,27.083011627197266,-53.189754486083984
1633779625981345800,1.296345703125,15.04107666015625,26.620149612426758,-53.14706802368164
1633779626001225000,1.316224853515625,15.5869140625,26.020883560180664,-52.83591842651367
1633779626021105000,1.33610498046875,16.428436279296875,26.081411361694336,-52.93826675415039
1633779626040983800,1.35598388671875,15.980712890625,26.349040985107422,-52.88240432739258
1633779626060864000,1.375864013671875,15.743499755859375,26.680931091308594,-52.563411712646484
1633779626080743000,1.395742919921875,14.97198486328125,26.891521453857422,-53.201351165771484
1633779626100622800,1.415622802734375,13.85302734375,26.990379333496094,-53.364261627197266
1633779626120501800,1.435501708984375,13.446624755859375,27.042070388793945,-53.5874137878418
1633779626140381700,1.455381591796875,12.421234130859375,26.897701263427734,-53.91462326049805
1633779626160262000,1.475261962890625,11.92431640625,27.11903190612793,-54.370243072509766
1633779626180141000,1.49514111328125,11.35650634765625,26.984830856323242,-54.210880279541016
1633779626200020700,1.515020751953125,10.558441162109375,26.272605895996094,-54.431400299072266
1633779626219896300,1.534896240234375,9.178009033203125,26.147037506103516,-54.27809524536133
1633779626239776300,1.5547763671875,7.813690185546875,25.948888778686523,-54.35360336303711
1633779626259655200,1.5746552734375,7.45208740234375,25.853191375732422,-54.13688278198242
1633779626279535400,1.594535400390625,6.821990966796875,25.509916305541992,-53.87102127075195
1633779626299414300,1.614414306640625,6.675933837890625,24.911649703979492,-53.71548080444336
1633779626319294200,1.634294189453125,6.959442138671875,24.18060874938965,-53.41471481323242
1633779626339174100,1.654174072265625,6.5697021484375,23.70244789123535,-53.1612663269043
1633779626359053300,1.67405322265625,6.34710693359375,23.312416076660156,-53.0459098815918
1633779626378933200,1.693933349609375,6.90325927734375,22.610595703125,-52.733699798583984
1633779626398812400,1.7138125,7.4639892578125,21.967849731445312,-52.31499099731445
1633779626418692400,1.7336923828125,7.767425537109375,20.536752700805664,-52.028751373291016
1633779626438571300,1.7535712890625,7.88104248046875,19.564069747924805,-51.8765983581543
1633779626458451200,1.773451171875,8.0167236328125,18.441513061523438,-51.6364860534668
1633779626478330400,1.793330322265625,8.719024658203125,17.454004287719727,-51.467037200927734
1633779626498210300,1.813210205078125,8.843780517578125,16.287397384643555,-50.93941879272461
1633779626518090200,1.83309033203125,9.8720703125,15.462750434875488,-50.71052169799805
1633779626537969400,1.852969482421875,10.03570556640625,14.401314735412598,-50.105411529541016
1633779626557849300,1.872849365234375,10.341400146484375,13.989579200744629,-49.54812240600586
1633779626577728300,1.892728271484375,10.047821044921875,13.8505277633667,-48.95354080200195
1633779626597608400,1.9126083984375,10.633026123046875,13.383145332336426,-48.31907272338867
1633779626617487000,1.932487060546875,11.452850341796875,13.006662368774414,-47.84330368041992
1633779626637367300,1.9523671875,12.0482177734375,12.339825630187988,-47.18936538696289
1633779626657246500,1.97224658203125,12.361724853515625,11.9116849899292,-46.69253921508789
1633779626677126400,1.99212646484375,12.103179931640625,11.287507057189941,-46.08626937866211
1633779626697006300,2.01200634765625,11.412017822265625,10.940057754516602,-46.07746505737305
1633779626716885200,2.03188525390625,10.35986328125,11.02406120300293,-45.72164535522461
1633779626736765400,2.051765380859375,9.267791748046875,11.439706802368164,-45.46549606323242
1633779626756644400,2.071644287109375,8.594970703125,11.865791320800781,-45.500545501708984
1633779626776524300,2.091524169921875,7.550811767578125,12.29456615447998,-45.18825912475586
1633779626796403500,2.111403564453125,7.04644775390625,13.035430908203125,-44.47794723510742
1633779626816283100,2.131283203125,6.4227294921875,13.450504302978516,-44.324771881103516
1633779626836162300,2.151162353515625,6.5799560546875,13.364795684814453,-43.98641586303711
1633779626856042500,2.17104248046875,6.647705078125,13.472677230834961,-43.64097213745117
1633779626875922200,2.190922119140625,6.945037841796875,13.576436042785645,-43.51297378540039
1633779626895801300,2.21080126953125,7.207733154296875,13.44196605682373,-43.65506362915039
1633779626915681300,2.230681396484375,6.782318115234375,13.660426139831543,-43.55076217651367
1633779626935560200,2.250560302734375,6.585357666015625,14.124505996704102,-43.14151382446289
1633779626955440400,2.2704404296875,6.259185791015625,14.191488265991211,-42.91317367553711
1633779626975319300,2.2903193359375,6.868682861328125,14.468369483947754,-42.67136764526367
1633779626995199200,2.31019921875,6.76104736328125,14.779090881347656,-42.31001663208008
1633779627015078400,2.330078369140625,6.516326904296875,14.996133804321289,-42.32259750366211
1633779627034958300,2.349958251953125,6.005767822265625,15.044942855834961,-42.258182525634766
1633779627054838300,2.36983837890625,5.775970458984375,15.035414695739746,-41.93039321899414
1633779627074717200,2.38971728515625,5.694732666015625,14.656819343566895,-41.7937126159668
1633779627094597400,2.409597412109375,5.856231689453125,14.514320373535156,-41.75082778930664
1633779627114476300,2.429476318359375,5.6142578125,14.224895477294922,-41.32731246948242
1633779627134356200,2.449356201171875,5.12249755859375,14.182780265808105,-41.23163986206055
1633779627154235400,2.4692353515625,4.629119873046875,14.107686042785645,-41.269832611083984
1633779627174115000,2.489114990234375,4.997467041015625,14.033998489379883,-41.04011154174805
1633779627193994200,2.508994140625,5.146820068359375,13.657875061035156,-40.63650894165039
1633779627213874400,2.52887451171875,5.136871337890625,13.126044273376465,-40.51248550415039
1633779627233753900,2.54875390625,4.981048583984375,12.882400512695312,-40.21413803100586
1633779627253633000,2.568633056640625,5.459930419921875,12.96358871459961,-39.60343551635742
1633779627273513000,2.588512939453125,5.213165283203125,12.736016273498535,-39.42573928833008
1633779627293392000,2.608391845703125,5.403045654296875,12.44363021850586,-39.16542434692383
1633779627313272000,2.62827197265625,5.41851806640625,12.525364875793457,-38.842533111572266
1633779627333151000,2.64815087890625,5.40655517578125,12.172330856323242,-38.68961715698242
1633779627353031000,2.668031005859375,5.402130126953125,11.906981468200684,-38.38045883178711
1633779627372910000,2.68791015625,5.179840087890625,11.572439193725586,-38.41474533081055
1633779627392790000,2.7077900390625,4.856109619140625,11.839118003845215,-38.05424880981445
1633779627412669000,2.7276689453125,4.775665283203125,11.806574821472168,-37.90994644165039
1633779627432549000,2.747549072265625,4.500244140625,11.733609199523926,-37.71787643432617
1633779627452429000,2.767428955078125,4.487823486328125,11.944598197937012,-37.402645111083984
1633779627472308000,2.787307861328125,4.200531005859375,12.124651908874512,-37.57975387573242
1633779627492188000,2.80718798828125,3.726837158203125,12.259772300720215,-37.3852653503418
1633779627512067000,2.827067138671875,3.8382568359375,12.325881958007812,-37.07113265991211
1633779627531947000,2.846947021484375,4.159332275390625,12.373821258544922,-37.238651275634766
1633779627551826000,2.866825927734375,4.11383056640625,12.148822784423828,-36.94198989868164
1633779627571706000,2.8867060546875,4.0670166015625,12.079097747802734,-37.01106643676758
1633779627591585000,2.9065849609375,3.96661376953125,12.040611267089844,-36.959346771240234
1633779627611465000,2.92646484375,2.969573974609375,12.087630271911621,-36.89741134643555
1633779627631345200,2.94634521484375,2.67120361328125,11.950048446655273,-36.83298110961914
1633779627651223800,2.966223876953125,1.245452880859375,12.26025676727295,-37.0087776184082
1633779627671104000,2.98610400390625,0.595245361328125,12.39901351928711,-36.89150619506836
1633779627690983200,3.005983154296875,0.134521484375,12.596168518066406,-36.9686393737793
1633779627710863000,3.025863037109375,-0.37554931640625,13.041119575500488,-36.94864273071289
1633779627730742000,3.045741943359375,-0.640106201171875,13.186514854431152,-36.89529800415039
1633779627750622000,3.0656220703125,-0.474884033203125,13.53400707244873,-36.717105865478516
1633779627770500900,3.0855009765625,-0.91156005859375,13.655285835266113,-36.66477584838867
1633779627790381000,3.105381103515625,-0.57183837890625,13.553472518920898,-36.482173919677734
1633779627810261000,3.125260986328125,-0.32513427734375,13.879522323608398,-36.25888442993164
1633779627830140200,3.14514013671875,-0.465576171875,14.224347114562988,-36.23698806762695
1633779627850019800,3.165019775390625,-0.90240478515625,14.647098541259766,-36.14950180053711
1633779627869899000,3.18489892578125,-0.337432861328125,15.226184844970703,-35.75796890258789
1633779627889779200,3.204779296875,-0.233673095703125,15.780128479003906,-35.65730667114258
1633779627909657900,3.224657958984375,-0.452972412109375,16.324499130249023,-35.52357864379883
1633779627929538000,3.2445380859375,-0.119415283203125,16.70582389831543,-35.09125900268555
1633779627949417200,3.264417236328125,0.075225830078125,16.842248916625977,-35.2829475402832
1633779627969297000,3.284296875,0.471923828125,17.11957550048828,-35.114131927490234
1633779627989176000,3.304176025390625,0.60430908203125,17.665283203125,-35.28574752807617
1633779628009056000,3.324055908203125,1.503021240234375,17.279556274414062,-34.94865036010742
1633779628028936000,3.34393603515625,1.150177001953125,17.180309295654297,-35.07111740112305
1633779628048815000,3.363815185546875,0.90777587890625,17.020559310913086,-35.2255744934082
1633779628068695000,3.383695068359375,0.573455810546875,16.635738372802734,-35.3300666809082
1633779628088574000,3.403573974609375,0.419342041015625,16.66176414489746,-35.32612991333008
1633779628108454000,3.423453857421875,0.71295166015625,16.878650665283203,-35.4861946105957
1633779628128333000,3.4433330078125,0.486083984375,16.429916381835938,-35.37993240356445
1633779628148213000,3.463212890625,1.00811767578125,16.429109573364258,-35.49808120727539
1633779628168092000,3.483091796875,0.932586669921875,16.527374267578125,-35.81081008911133
1633779628187972000,3.50297216796875,1.2158203125,16.518478393554688,-35.814266204833984
1633779628207851800,3.522851806640625,0.721160888671875,16.647445678710938,-35.63881301879883
1633779628227731200,3.542731201171875,0.401611328125,16.638381958007812,-36.00387191772461
1633779628247611400,3.562611328125,-0.409820556640625,16.499021530151367,-36.07206344604492
1633779628267490300,3.582490234375,-0.530364990234375,16.278995513916016,-36.06809616088867
1633779628287370200,3.602370361328125,-0.7344970703125,15.91594123840332,-36.499813079833984
1633779628307249400,3.62224951171875,-1.235504150390625,15.583107948303223,-36.81209182739258
1633779628327129300,3.64212939453125,-1.0714111328125,15.305224418640137,-36.91286087036133
1633779628347008300,3.66200830078125,-1.330718994140625,14.98322582244873,-37.14375686645508
1633779628366888200,3.68188818359375,-1.69781494140625,15.056642532348633,-37.34452438354492
1633779628386767400,3.701767333984375,-1.857666015625,14.949431419372559,-37.187496185302734
1633779628406647300,3.721647216796875,-1.883758544921875,15.002635955810547,-37.24074935913086
1633779628426527200,3.74152734375,-1.77349853515625,14.665830612182617,-37.26791000366211
1633779628446406400,3.761406494140625,-2.3533935546875,15.133777618408203,-37.56760025024414
1633779628466286000,3.7812861328125,-3.571197509765625,15.12457275390625,-37.183162689208984
1633779628486165200,3.801165283203125,-4.277618408203125,15.22821044921875,-37.457584381103516
1633779628506045400,3.82104541015625,-4.961273193359375,15.708873748779297,-37.379207611083984
1633779628525924000,3.840924072265625,-5.4752197265625,16.055187225341797,-37.00498580932617
1633779628545804300,3.86080419921875,-6.1533203125,16.393173217773438,-37.10367965698242
1633779628565683500,3.880683349609375,-5.934478759765625,16.647380828857422,-36.98479080200195
1633779628585563100,3.900563232421875,-5.823333740234375,16.808170318603516,-36.78921890258789
1633779628605443300,3.920443359375,-5.706207275390625,17.01470184326172,-36.830142974853516
1633779628625322200,3.940322265625,-5.7916259765625,16.957904815673828,-37.08182907104492
1633779628645202400,3.960202392578125,-5.90594482421875,16.786548614501953,-37.09622573852539
1633779628665081300,3.980081298828125,-5.566070556640625,16.854839324951172,-37.132450103759766
1633779628684961300,3.999961181640625,-5.7501220703125,17.189014434814453,-37.202274322509766
1633779628704840200,4.019840087890625,-5.82598876953125,17.61977767944336,-36.979305267333984
1633779628724720000,4.03972021484375,-6.163360595703125,18.241228103637695,-36.7072639465332
1633779628744599300,4.059599365234375,-7.048370361328125,18.462404251098633,-36.28952407836914
1633779628764479500,4.0794794921875,-7.232391357421875,18.663719177246094,-36.3162727355957
1633779628784358100,4.099358154296875,-7.804351806640625,18.57034683227539,-36.273555755615234
1633779628804238300,4.11923828125,-8.391143798828125,18.759675979614258,-36.333309173583984
1633779628824118300,4.1391181640625,-8.620758056640625,18.88687515258789,-36.34024429321289
1633779628843997200,4.1589970703125,-8.836151123046875,19.303897857666016,-36.39104080200195
1633779628863877400,4.17887744140625,-8.927978515625,19.39459228515625,-36.27299118041992
1633779628883756300,4.19875634765625,-8.78277587890625,19.385150909423828,-36.1183967590332
1633779628903636200,4.21863623046875,-8.54559326171875,19.741594314575195,-36.16135787963867
1633779628923515400,4.238515380859375,-8.748138427734375,19.956945419311523,-36.39694595336914
1633779628943395300,4.258395263671875,-9.0263671875,19.746166229248047,-36.38992691040039
1633779628963274200,4.278274169921875,-9.401611328125,20.010112762451172,-36.42087936401367
1633779628983154200,4.298154296875,-9.9068603515625,19.782291412353516,-36.29978561401367
1633779629003033300,4.318033447265625,-11.439727783203125,19.876367568969727,-36.22612380981445
1633779629022913300,4.337913330078125,-12.551025390625,19.770610809326172,-36.134334564208984
1633779629042793200,4.357793212890625,-13.300811767578125,19.684900283813477,-35.937686920166016
1633779629062672400,4.37767236328125,-13.99920654296875,19.403383255004883,-36.132877349853516
1633779629082552300,4.39755224609375,-14.027252197265625,19.023927688598633,-36.29972457885742
1633779629102431200,4.41743115234375,-13.82843017578125,19.08991241455078,-36.20927047729492
1633779629122311400,4.4373115234375,-13.4940185546875,19.224899291992188,-36.70390701293945
1633779629142190300,4.4571904296875,-13.049163818359375,19.13787841796875,-37.10306930541992
1633779629162070300,4.4770703125,-12.654541015625,18.814537048339844,-37.49715805053711
1633779629181949400,4.496949462890625,-12.31048583984375,18.580467224121094,-37.837154388427734
1633779629201829000,4.5168291015625,-12.55059814453125,18.43504524230957,-37.96165084838867
1633779629221708300,4.536708251953125,-12.59381103515625,18.313528060913086,-38.24619674682617
1633779629241588500,4.55658837890625,-12.46087646484375,18.444297790527344,-38.26826095581055
1633779629261468400,4.576468505859375,-12.401031494140625,18.25154685974121,-38.612850189208984
1633779629281347600,4.59634765625,-11.60589599609375,18.356107711791992,-38.74077224731445
1633779629301227500,4.6162275390625,-11.726318359375,17.60623550415039,-39.23268508911133
1633779629321106400,4.6361064453125,-11.603271484375,16.915241241455078,-39.939571380615234
1633779629340986400,4.655986328125,-11.997314453125,16.343280792236328,-39.99191665649414
1633779629360865500,4.675865478515625,-11.909027099609375,16.243730545043945,-40.08506393432617
1633779629380745500,4.695745361328125,-12.4461669921875,15.770689010620117,-40.088924407958984
1633779629400624600,4.715624755859375,-12.88525390625,15.490930557250977,-40.40885543823242
1633779629420504600,4.735504638671875,-12.476837158203125,15.671647071838379,-40.447750091552734
1633779629440384500,4.755384521484375,-12.35888671875,15.697894096374512,-40.66862869262695
1633779629460263400,4.775263427734375,-12.6939697265625,15.550944328308105,-40.83900833129883
1633779629480143600,4.7951435546875,-12.89373779296875,15.492104530334473,-40.93825149536133
1633779629500022500,4.8150224609375,-12.6279296875,15.057613372802734,-41.26822280883789
1633779629519902500,4.83490234375,-12.45166015625,14.8987398147583,-41.57890701293945
1633779629539781600,4.85478173828125,-12.4195556640625,14.347936630249023,-41.76034164428711
1633779629559661300,4.874661376953125,-12.5906982421875,13.675130844116211,-41.818058013916016
1633779629579540500,4.89454052734375,-12.88800048828125,13.383186340332031,-41.96853256225586
1633779629599420700,4.914420654296875,-13.202880859375,13.259377479553223,-42.12272262573242
1633779629619299300,4.93429931640625,-13.49639892578125,12.731010437011719,-42.17873001098633
1633779629639179500,4.954179443359375,-13.829345703125,12.781044006347656,-42.252628326416016
1633779629659059500,4.9740595703125,-14.244873046875,12.784653663635254,-42.05202102661133
1633779629678938400,4.9939384765625,-14.01837158203125,12.319087982177734,-41.924007415771484
1633779629698818600,5.013818603515625,-14.11944580078125,12.301414489746094,-41.96025466918945
1633779629718697500,5.033697509765625,-13.41949462890625,12.63465404510498,-42.12459945678711
1633779629738577700,5.05357763671875,-13.5047607421875,13.455618858337402,-41.67245101928711
1633779629758456600,5.07345654296875,-13.4263916015625,14.317845344543457,-41.61037063598633
1633779629778336500,5.09333642578125,-13.541717529296875,14.816915512084961,-41.5692024230957
1633779629798215400,5.11321533203125,-13.38134765625,15.111403465270996,-41.360355377197266
1633779629818095400,5.133095458984375,-12.676239013671875,15.21264362335205,-41.63533401489258
1633779629837975600,5.1529755859375,-12.2677001953125,15.0546875,-41.85293197631836
1633779629857854700,5.172854736328125,-12.77557373046875,14.877731323242188,-41.79311752319336
1633779629877734400,5.192734375,-12.789581298828125,15.295401573181152,-41.534183502197266
1633779629897613600,5.212613525390625,-13.184814453125,15.673656463623047,-41.47109603881836
1633779629917493500,5.232493408203125,-13.452362060546875,16.508588790893555,-41.3137092590332
1633779629937372400,5.252372314453125,-13.163360595703125,17.018924713134766,-41.087093353271484
1633779629957252600,5.272252685546875,-13.35345458984375,17.16584014892578,-41.02682876586914
1633779629977131500,5.292131591796875,-13.3909912109375,17.189571380615234,-40.8750114440918
1633779629997011500,5.312011474609375,-13.885833740234375,17.243026733398438,-40.77568435668945
1633779630016891400,5.331891357421875,-14.34619140625,17.29332733154297,-41.042301177978516
1633779630036770600,5.3517705078125,-15.14459228515625,17.03385353088379,-40.805912017822266
1633779630056650500,5.371650390625,-15.6082763671875,17.390396118164062,-40.292781829833984
1633779630076529400,5.391529296875,-16.25677490234375,17.556438446044922,-39.92873764038086
1633779630096409600,5.41140966796875,-17.5828857421875,18.44158363342285,-39.49746322631836
1633779630116288500,5.43128857421875,-17.277557373046875,19.511178970336914,-38.9832878112793
1633779630136168400,5.45116845703125,-17.6317138671875,20.17946434020996,-38.504642486572266
1633779630156047600,5.471047607421875,-17.2508544921875,20.86951446533203,-38.60566329956055
1633779630175927300,5.49092724609375,-16.659515380859375,21.009445190429688,-38.68557357788086
1633779630195806500,5.510806396484375,-15.709228515625,21.25812339782715,-38.82881546020508
1633779630215686700,5.530686767578125,-15.781494140625,21.318790435791016,-39.00907516479492
1633779630235565800,5.55056591796875,-15.405975341796875,21.38699722290039,-38.99410629272461
1633779630255445000,5.570445068359375,-15.905731201171875,21.396135330200195,-39.36319351196289
1633779630275325200,5.5903251953125,-15.458648681640625,20.805709838867188,-39.521305084228516
1633779630295203800,5.610203857421875,-14.8551025390625,19.847904205322266,-40.2452278137207
1633779630315084000,5.630083984375,-14.731201171875,19.26194953918457,-40.980587005615234
1633779630334963200,5.649963134765625,-14.362152099609375,18.49407958984375,-41.19984817504883
1633779630354843000,5.6698427734375,-14.5660400390625,17.7334041595459,-41.70903396606445
1633779630374722000,5.68972216796875,-14.37847900390625,16.787918090820312,-42.15761184692383
1633779630394602000,5.70960205078125,-15.05377197265625,16.654102325439453,-42.288753509521484
1633779630414482200,5.729482177734375,-15.362762451171875,16.314870834350586,-42.239253997802734
1633779630434361000,5.749361083984375,-15.404022216796875,16.40813446044922,-42.7265739440918
1633779630454241000,5.769240966796875,-15.627471923828125,16.31852149963379,-42.522281646728516
1633779630474120000,5.789119873046875,-15.378570556640625,16.271638870239258,-42.52634048461914
1633779630493999900,5.808999755859375,-15.244659423828125,16.379634857177734,-42.8078727722168
1633779630513879000,5.828879150390625,-15.328277587890625,16.122772216796875,-42.9533805847168
1633779630533759200,5.84875927734375,-15.227447509765625,15.88875675201416,-43.09730911254883
1633779630553638000,5.868637939453125,-15.529296875,15.646382331848145,-43.36223220825195
1633779630573518000,5.88851806640625,-15.0748291015625,15.237993240356445,-43.514896392822266
1633779630593398000,5.90839794921875,-15.055450439453125,14.846181869506836,-44.22770309448242
1633779630613277000,5.92827685546875,-14.692230224609375,14.244035720825195,-44.3708610534668
1633779630633157000,5.9481572265625,-14.5498046875,14.29433536529541,-44.40102767944336
1633779630653036000,5.9680361328125,-14.34552001953125,14.348868370056152,-44.57514572143555
1633779630672916000,5.987916015625,-14.59710693359375,14.478619575500488,-44.606685638427734
1633779630692795100,6.007795166015625,-14.066131591796875,14.640145301818848,-44.77152633666992
1633779630712675000,6.027675048828125,-13.0777587890625,14.670719146728516,-45.091190338134766
1633779630732554000,6.047553955078125,-12.172882080078125,14.785386085510254,-45.35750961303711
1633779630752434000,6.067433837890625,-11.849822998046875,15.205196380615234,-45.7817268371582
1633779630772314000,6.087314208984375,-12.0003662109375,15.654314994812012,-45.43984603881836
1633779630792193000,6.107193115234375,-12.262939453125,16.107654571533203,-45.164493560791016
1633779630812073000,6.127072998046875,-12.3780517578125,16.89447021484375,-45.15572738647461
1633779630831952100,6.1469521484375,-12.63665771484375,16.777883529663086,-45.1695671081543
1633779630851831800,6.166831787109375,-12.771484375,17.06085968017578,-45.386600494384766
1633779630871711000,6.1867109375,-12.911651611328125,16.951786041259766,-45.03102493286133
1633779630891591200,6.206591064453125,-13.20611572265625,17.116336822509766,-44.801998138427734
1633779630911469800,6.2264697265625,-13.977508544921875,17.775218963623047,-44.97817611694336
1633779630931350000,6.24635009765625,-13.777923583984375,18.364084243774414,-44.46870040893555
1633779630951230000,6.26622998046875,-13.5703125,18.66576385498047,-44.50197219848633
1633779630971108900,6.28610888671875,-13.607666015625,19.402599334716797,-44.40884780883789
1633779630990989000,6.305989013671875,-13.11126708984375,19.680408477783203,-44.21394729614258
1633779631010868000,6.325867919921875,-13.208709716796875,19.755271911621094,-44.26344680786133
1633779631030748000,6.345747802734375,-13.0679931640625,19.750782012939453,-44.29738235473633
1633779631050627000,6.365626953125,-13.5142822265625,19.43894386291504,-44.304203033447266
1633779631070507000,6.385507080078125,-14.1820068359375,19.48897933959961,-44.52071762084961
1633779631090386000,6.405385986328125,-14.3570556640625,19.01972770690918,-44.62709426879883
1633779631110265900,6.425265869140625,-14.811798095703125,18.859804153442383,-44.372074127197266
1633779631130145000,6.44514501953125,-15.055267333984375,19.06252670288086,-44.1732063293457
1633779631150025000,6.46502490234375,-16.089996337890625,18.996063232421875,-44.25014114379883
1633779631169905000,6.48490478515625,-16.647491455078125,19.25169563293457,-44.21145248413086
1633779631189784000,6.5047841796875,-16.88671875,19.615829467773438,-44.1366081237793
1633779631209664000,6.5246640625,-16.672210693359375,19.66509437561035,-44.0567512512207
1633779631229543400,6.54454345703125,-16.036529541015625,19.714702606201172,-44.28938674926758
1633779631249423600,6.564423583984375,-15.719818115234375,19.702484130859375,-44.65813064575195
1633779631269302500,6.584302490234375,-15.889801025390625,20.030925750732422,-44.72786331176758
1633779631289182500,6.604182373046875,-15.125732421875,20.151309967041016,-44.72055435180664
1633779631309061600,6.6240615234375,-14.831207275390625,20.418603897094727,-44.778690338134766
1633779631328941600,6.643941650390625,-14.066864013671875,20.022197723388672,-45.38749313354492
1633779631348821500,6.663821533203125,-13.34344482421875,19.45616912841797,-45.91215896606445
1633779631368700400,6.683700439453125,-13.146392822265625,18.74232292175293,-46.50230026245117
1633779631388580600,6.70358056640625,-13.018798828125,17.946609497070312,-47.01358413696289
1633779631408459500,6.72345947265625,-12.616790771484375,17.033370971679688,-47.246456146240234
1633779631428339500,6.74333935546875,-12.9686279296875,16.34893035888672,-47.363094329833984
1633779631448218600,6.763218505859375,-12.760711669921875,16.386375427246094,-47.924381256103516
1633779631468098300,6.783098388671875,-13.03955078125,16.11524200439453,-47.83622360229492
1633779631487977500,6.8029775390625,-12.913482666015625,16.037952423095703,-47.904842376708984
1633779631507857700,6.822857666015625,-12.3284912109375,16.209827423095703,-47.83597946166992
1633779631527737600,6.842737548828125,-12.227630615234375,16.115806579589844,-48.28232955932617
1633779631547616500,6.862616455078125,-11.734954833984375,15.85339069366455,-48.69767379760742
1633779631567496400,6.882496337890625,-11.309722900390625,15.550320625305176,-48.91887283325195
1633779631587375400,6.902375244140625,-11.409454345703125,14.927682876586914,-49.2850456237793
1633779631607255600,6.922255615234375,-11.35504150390625,14.44880199432373,-49.1253547668457
1633779631627134500,6.942134521484375,-11.177215576171875,14.121602058410645,-49.18478012084961
1633779631647014700,6.9620146484375,-12.087646484375,14.268009185791016,-49.55271530151367
1633779631666893600,6.9818935546875,-12.820343017578125,14.256669044494629,-49.49576950073242
1633779631686773500,7.0017734375,-12.834686279296875,14.857577323913574,-49.324153900146484
1633779631706652400,7.02165234375,-12.5013427734375,15.328186988830566,-49.32880783081055
1633779631726532400,7.041532470703125,-11.7828369140625,15.58411979675293,-49.13511276245117
1633779631746412500,7.06141259765625,-11.777008056640625,15.166858673095703,-49.27711868286133
1633779631766291700,7.081291748046875,-12.2008056640625,15.930074691772461,-49.04751205444336
1633779631786171400,7.10117138671875,-12.8486328125,16.405855178833008,-48.84257125854492
1633779631806050600,7.121050537109375,-13.6405029296875,16.997631072998047,-48.71159744262695
1633779631825930500,7.140930419921875,-14.099945068359375,17.21836280822754,-48.294986724853516
1633779631845809400,7.160809326171875,-14.39642333984375,17.721010208129883,-48.37794876098633
1633779631865689600,7.180689697265625,-14.539337158203125,17.705583572387695,-48.0421028137207
1633779631885568500,7.200568603515625,-14.37591552734375,17.969573974609375,-48.07114028930664
1633779631905448400,7.220448486328125,-13.917755126953125,18.84864616394043,-47.86748123168945
1633779631925327600,7.24032763671875,-14.42401123046875,19.669218063354492,-47.552913665771484
1633779631945207600,7.26020751953125,-14.095977783203125,20.37102508544922,-47.0822639465332
1633779631965087500,7.28008740234375,-13.749786376953125,21.388309478759766,-46.697818756103516
1633779631984966400,7.29996630859375,-13.675140380859375,22.03432273864746,-46.64413070678711
1633779632004846600,7.3198466796875,-13.60357666015625,22.924489974975586,-46.05667495727539
1633779632024725500,7.3397255859375,-13.404571533203125,23.36492156982422,-45.99467849731445
1633779632044605400,7.35960546875,-13.275054931640625,23.71483612060547,-45.63704299926758
1633779632064484600,7.379484619140625,-13.73345947265625,23.946561813354492,-45.49686050415039
1633779632084364300,7.3993642578125,-14.325927734375,24.04001235961914,-45.0193977355957
1633779632104243500,7.419243408203125,-15.0831298828125,23.85616683959961,-45.05746078491211
1633779632124123600,7.43912353515625,-15.683807373046875,24.071208953857422,-44.56631088256836
1633779632144003300,7.45900341796875,-16.062774658203125,24.468826293945312,-44.11384963989258
1633779632163882500,7.478882568359375,-16.860748291015625,24.936283111572266,-44.13457107543945
1633779632183762400,7.498762451171875,-16.06005859375,24.890226364135742,-44.1672248840332
1633779632203641300,7.518641357421875,-15.191375732421875,25.01364517211914,-44.5564079284668
1633779632223521500,7.538521484375,-14.4227294921875,25.291969299316406,-45.145503997802734
1633779632243400200,7.558400146484375,-13.8052978515625,25.0480899810791,-45.38386917114258
1633779632263280000,7.578280029296875,-13.540374755859375,24.823549270629883,-45.50898361206055
1633779632283159000,7.598158935546875,-13.338775634765625,25.188207626342773,-45.56483840942383
1633779632303039000,7.6180390625,-13.58074951171875,25.205202102661133,-45.55830001831055
1633779632322918000,7.63791796875,-13.959716796875,24.907264709472656,-45.71512985229492
1633779632342798000,7.657798095703125,-14.12908935546875,24.659564971923828,-45.72575759887695
1633779632362678000,7.677677978515625,-14.428558349609375,23.58180046081543,-46.02554702758789
1633779632382557200,7.69755712890625,-14.5823974609375,22.9119930267334,-46.602962493896484
1633779632402436900,7.717436767578125,-14.4029541015625,22.118227005004883,-46.791996002197266
1633779632422316000,7.73731591796875,-14.913604736328125,21.13469123840332,-47.498287200927734
1633779632442196200,7.7571962890625,-15.21453857421875,20.477519989013672,-47.508602142333984
1633779632462075000,7.777074951171875,-15.089263916015625,20.441255569458008,-47.65523910522461
1633779632481955000,7.796955078125,-15.188262939453125,20.401567459106445,-47.52445602416992
1633779632501834200,7.816834228515625,-15.292388916015625,19.940004348754883,-47.61371994018555
1633779632521714000,7.8367138671875,-14.82891845703125,19.977588653564453,-47.529598236083984
1633779632541594000,7.856593994140625,-14.507598876953125,19.996761322021484,-47.719783782958984
1633779632561473000,7.87647314453125,-14.05181884765625,19.399703979492188,-47.8980598449707
1633779632581353000,7.89635302734375,-13.43743896484375,19.530521392822266,-48.17592239379883
1633779632601232100,7.916232177734375,-12.697662353515625,19.157371520996094,-48.5369758605957
1633779632621112000,7.936112060546875,-12.3509521484375,18.77920913696289,-48.82082748413086
1633779632640991000,7.955990966796875,-12.141510009765625,18.538034439086914,-48.65867233276367
1633779632660871000,7.975870849609375,-12.0780029296875,18.18963050842285,-48.966915130615234
1633779632680750000,7.99575,-11.560302734375,17.763500213623047,-49.28262710571289
1633779632700630000,8.015630126953125,-11.378570556640625,17.398679733276367,-49.59022903442383
1633779632720509000,8.035509033203125,-11.29620361328125,17.145179748535156,-49.49989700317383
1633779632740389000,8.05538916015625,-11.851531982421875,16.748319625854492,-49.823482513427734
1633779632760268800,8.075268798828125,-11.775848388671875,16.341550827026367,-49.51388931274414
1633779632780148000,8.09514794921875,-11.945068359375,16.37205696105957,-49.74807357788086
1633779632800028200,8.115028076171875,-11.71527099609375,16.057476043701172,-49.650028228759766
1633779632819907000,8.134906982421874,-11.888397216796875,15.892845153808594,-49.661312103271484
1633779632839787000,8.154787109375,-12.754974365234375,15.985551834106445,-49.42386245727539
1633779632859666200,8.174666259765624,-13.689727783203125,15.865337371826172,-49.163509368896484
1633779632879545900,8.1945458984375,-14.395538330078125,16.138776779174805,-48.93366622924805
1633779632899425000,8.214425048828126,-14.9151611328125,16.288925170898438,-48.8519172668457
1633779632919305000,8.234304931640626,-15.259368896484375,15.97641372680664,-48.43741226196289
1633779632939185200,8.25418505859375,-14.98095703125,15.392269134521484,-48.82087326049805
1633779632959064000,8.27406396484375,-15.416015625,14.47079086303711,-49.06344223022461
1633779632978944000,8.293944091796876,-15.327728271484375,13.787331581115723,-49.41728591918945
1633779632998823000,8.313822998046875,-15.374847412109375,13.06402587890625,-49.28996658325195
1633779633018703000,8.333703125,-16.5474853515625,12.400288581848145,-49.35866928100586
1633779633038582000,8.35358203125,-17.174346923828125,12.21552562713623,-48.7389030456543
1633779633058462200,8.373462158203125,-17.67852783203125,12.471670150756836,-48.64036178588867
1633779633078341000,8.393341064453125,-18.01470947265625,13.367629051208496,-48.05747604370117
1633779633098221000,8.413220947265625,-18.9136962890625,14.432297706604004,-47.587215423583984
1633779633118101000,8.43310107421875,-19.344482421875,15.080150604248047,-46.77959060668945
1633779633137980000,8.45297998046875,-20.078338623046875,16.261960983276367,-45.98775100708008
1633779633157860000,8.472860107421875,-20.249053955078125,17.241270065307617,-45.66256332397461
1633779633177739300,8.4927392578125,-19.426483154296875,17.900470733642578,-45.29502487182617
1633779633197619000,8.512618896484375,-18.94635009765625,18.90880012512207,-45.10367965698242
1633779633217498000,8.532498046875,-18.522979736328125,19.842679977416992,-44.43167495727539
1633779633237382000,8.5523818359375,-19.760223388671875,20.763484954833984,-43.75020980834961
1633779633257261000,8.572260986328125,-21.316070556640625,22.105377197265625,-42.178958892822266
1633779633277141000,8.59214111328125,-20.917938232421875,23.192245483398438,-41.727481842041016
1633779633297021000,8.61202099609375,-20.3277587890625,23.82719612121582,-41.70936965942383
1633779633316900000,8.631900146484375,-19.759002685546875,24.716339111328125,-41.25680160522461
1633779633336780000,8.651780029296875,-19.6968994140625,24.857412338256836,-40.9012336730957
1633779633356659000,8.671658935546875,-19.9886474609375,25.06553077697754,-40.7274284362793
1633779633376539000,8.691538818359374,-19.517242431640625,25.23982048034668,-40.71039962768555
1633779633396418000,8.71141796875,-18.549285888671875,25.09661865234375,-40.75770950317383
1633779633416298000,8.731298095703124,-18.104278564453125,25.5042781829834,-41.10232162475586
1633779633436177000,8.751177001953126,-17.256072998046875,24.625165939331055,-41.47111129760742
1633779633456057000,8.77105712890625,-16.530914306640625,24.57284164428711,-41.83724594116211
1633779633475936800,8.790936767578126,-15.52960205078125,24.018400192260742,-42.07990646362305
1633779633495816000,8.81081591796875,-15.3795166015625,24.179508209228516,-42.212581634521484
1633779633515696000,8.830696044921876,-15.752044677734375,23.617204666137695,-42.05437088012695
1633779633535575000,8.850574951171875,-16.29449462890625,23.837881088256836,-41.482669830322266
1633779633555455000,8.870455078125,-16.8243408203125,23.67862319946289,-41.302852630615234
1633779633575334100,8.890334228515625,-17.531463623046875,23.472057342529297,-41.19491958618164
1633779633595213800,8.9102138671875,-18.021820068359375,23.22433090209961,-41.07683181762695
1633779633615093000,8.930093017578125,-18.024810791015625,22.910091400146484,-41.20632553100586
1633779633634973000,8.949972900390625,-18.448028564453125,22.58234405517578,-41.41627883911133
1633779633654851800,8.969851806640625,-17.8984375,21.998165130615234,-41.53695297241211
1633779633674732000,8.98973193359375,-17.3289794921875,21.738513946533203,-41.65665817260742
1633779633694612000,9.009612060546875,-16.8453369140625,21.20323944091797,-41.9282341003418
1633779633714491000,9.029490966796875,-16.051025390625,20.89948844909668,-42.56704330444336
1633779633734371000,9.04937109375,-16.1337890625,20.192590713500977,-42.78583908081055
1633779633754250000,9.06925,-15.502685546875,19.934181213378906,-42.88887405395508
1633779633774130200,9.089130126953124,-15.679931640625,19.567611694335938,-43.42368698120117
1633779633794009000,9.109009033203124,-15.443603515625,19.079471588134766,-43.74039840698242
1633779633813889000,9.128888916015624,-15.429351806640625,18.57469367980957,-43.965877532958984
1633779633833768000,9.148767822265626,-15.55096435546875,18.076902389526367,-44.13747024536133
1633779633853648000,9.16864794921875,-15.2177734375,17.843151092529297,-44.64823532104492
1633779633873528000,9.188528076171876,-15.207305908203125,17.035961151123047,-44.631168365478516
1633779633893407200,9.2084072265625,-15.890594482421875,16.437992095947266,-44.815677642822266
1633779633913287000,9.228286865234375,-16.005401611328125,16.159042358398438,-44.58220291137695
1633779633933166000,9.248166015625,-16.934326171875,16.028400421142578,-44.23588943481445
1633779633953046000,9.2680458984375,-17.7601318359375,16.279373168945312,-43.92191696166992
1633779633972925000,9.287925048828125,-18.10589599609375,16.648521423339844,-43.48881149291992
1633779633992805000,9.30780517578125,-17.7987060546875,16.78736114501953,-43.17424392700195
1633779634012684000,9.32768408203125,-17.439544677734375,17.546098709106445,-42.7242317199707
1633779634032564000,9.34756396484375,-18.3590087890625,17.795642852783203,-42.21596145629883
1633779634052443100,9.367443115234375,-18.81854248046875,18.518413543701172,-41.636775970458984
1633779634072323000,9.387322998046875,-19.68548583984375,18.77093505859375,-41.04842758178711
1633779634092203000,9.407203125,-20.446319580078125,19.152639389038086,-40.13198471069336
1633779634112082000,9.42708203125,-20.68817138671875,19.512435913085938,-39.51603317260742
1633779634131962000,9.446962158203124,-21.307403564453125,20.146581649780273,-38.4876594543457
1633779634151841000,9.466841064453124,-21.93035888671875,21.172605514526367,-37.41532516479492
1633779634171721000,9.486720947265624,-22.14068603515625,21.900501251220703,-36.72739791870117
1633779634191600000,9.50660009765625,-22.56512451171875,23.071489334106445,-35.38625717163086
1633779634211479800,9.526479736328126,-23.1866455078125,23.687368392944336,-34.1726188659668
1633779634231360000,9.546360107421876,-23.774688720703125,24.490432739257812,-33.14146041870117
1633779634251239000,9.566239013671876,-23.61920166015625,25.348129272460938,-31.78103256225586
1633779634271118800,9.586118896484376,-24.1024169921875,25.961137771606445,-30.90170669555664
1633779634290998000,9.605998046875,-24.317291259765625,26.659320831298828,-29.683475494384766
1633779634310877700,9.625877685546875,-23.999114990234375,27.23687744140625,-28.858112335205078
1633779634330756900,9.6457568359375,-24.063018798828125,27.31058692932129,-28.055912017822266
1633779634350637000,9.665636962890625,-24.663848876953125,27.537643432617188,-27.426334381103516
1633779634370515700,9.685515625,-25.01556396484375,27.959808349609375,-26.479778289794922
1633779634390396000,9.70539599609375,-24.93572998046875,28.24441909790039,-25.745502471923828
1633779634410275000,9.725275146484375,-24.9830322265625,28.797969818115234,-24.689937591552734
1633779634430154800,9.74515478515625,-24.966644287109375,29.163320541381836,-24.32992172241211
1633779634450035000,9.765034912109375,-24.5380859375,29.73590087890625,-23.712642669677734
1633779634469913900,9.784913818359374,-24.092529296875,30.61933708190918,-23.045673370361328
1633779634489794000,9.8047939453125,-23.198944091796875,31.144882202148438,-22.933963775634766
1633779634509673000,9.8246728515625,-22.272979736328125,31.58717918395996,-22.767513275146484
1633779634529553000,9.844552978515624,-20.900665283203125,32.00022506713867,-22.717823028564453
1633779634549431800,9.864431884765626,-20.332672119140625,32.689361572265625,-22.976436614990234
1633779634569311700,9.884311767578126,-19.079925537109375,32.696510314941406,-23.508602142333984
1633779634589191000,9.90419091796875,-18.20343017578125,32.90448760986328,-23.871707916259766
1633779634609071000,9.924071044921876,-17.87335205078125,33.05091857910156,-24.409786224365234
1633779634628950800,9.94395068359375,-17.591278076171875,32.69285583496094,-24.626033782958984
1633779634648830000,9.963829833984375,-17.573272705078125,32.396331787109375,-25.269527435302734
1633779634668710000,9.9837099609375,-17.740570068359375,32.28218078613281,-26.139568328857422
1633779634688588800,10.0035888671875,-17.552032470703125,31.605567932128906,-26.996044158935547
1633779634708469000,10.023468994140625,-16.980712890625,31.097820281982422,-28.169078826904297
1633779634728348000,10.043347900390625,-17.10162353515625,30.050479888916016,-29.60116958618164
1633779634748227800,10.063227783203125,-17.080291748046875,29.162250518798828,-30.78768539428711
1633779634768107000,10.08310693359375,-17.42388916015625,28.512237548828125,-32.05324935913086
1633779634787987000,10.102987060546875,-17.61279296875,27.617919921875,-32.84232711791992
1633779634807865900,10.122865966796875,-18.4808349609375,26.147260665893555,-34.29780960083008
1633779634827745800,10.142745849609375,-19.181365966796875,25.20013999938965,-35.05757522583008
1633779634847626000,10.1626259765625,-19.864013671875,24.216712951660156,-35.45108413696289
1633779634867505000,10.1825048828125,-20.237060546875,23.182308197021484,-35.555545806884766
1633779634887384800,10.202384765625,-21.1739501953125,22.409969329833984,-35.850215911865234
1633779634907264000,10.222263916015624,-21.68798828125,22.07459259033203,-36.074039459228516
1633779634927144000,10.24214404296875,-21.618133544921875,21.849266052246094,-36.22177505493164
1633779634947022800,10.26202294921875,-20.870880126953125,22.13252067565918,-36.27609634399414
1633779634966903000,10.281903076171876,-20.502838134765625,22.788074493408203,-36.08096694946289
1633779634986782000,10.301781982421875,-20.6019287109375,23.30573272705078,-35.99773025512695
1633779635006662000,10.321661865234375,-21.046295166015625,23.77149772644043,-35.329524993896484
1633779635026541800,10.341541748046875,-21.006103515625,24.372499465942383,-34.87074661254883
1633779635046420700,10.361420654296875,-20.820892333984375,25.348800659179688,-34.38975143432617
1633779635066301000,10.381301025390625,-20.275665283203125,26.13729476928711,-33.40188217163086
1633779635086180000,10.40118017578125,-20.30120849609375,27.087499618530273,-32.511714935302734
1633779635106060000,10.42106005859375,-20.83294677734375,27.68109703063965,-31.703266143798828
1633779635125939000,10.44093896484375,-20.680816650390625,28.05683135986328,-30.586055755615234
1633779635145819000,10.46081884765625,-20.523773193359375,28.617401123046875,-29.997875213623047
1633779635165697800,10.48069775390625,-20.739501953125,29.583660125732422,-28.833011627197266
1633779635185578000,10.500577880859375,-20.466766357421875,30.291088104248047,-27.71261215209961
1633779635205457000,10.520456787109374,-20.486968994140625,31.192716598510742,-26.736209869384766
1633779635225337000,10.540337158203124,-20.3575439453125,31.915679931640625,-25.463390350341797
1633779635245213000,10.560212890625,-20.052886962890625,32.72529602050781,-24.581645965576172
1633779635265092000,10.580092041015625,-20.006439208984375,33.37344741821289,-23.23049545288086
1633779635284972000,10.599971923828125,-20.281005859375,33.75190734863281,-22.21700668334961
1633779635304851000,10.619850830078125,-19.97430419921875,34.37285614013672,-20.84280776977539
1633779635324731100,10.639731201171875,-20.937652587890625,34.74498748779297,-19.719722747802734
1633779635344610000,10.659610107421875,-21.529449462890625,34.51705551147461,-18.555362701416016
1633779635364490000,10.679489990234375,-22.332061767578125,34.79536056518555,-17.311542510986328
1633779635384369200,10.699369140625,-23.078125,34.87208938598633,-15.930828094482422
1633779635404248800,10.719248779296874,-23.50592041015625,35.203453063964844,-14.965198516845703
1633779635424129000,10.73912890625,-22.389129638671875,35.548606872558594,-14.173770904541016
1633779635444008200,10.75900830078125,-21.150909423828125,36.217559814453125,-14.075359344482422
1633779635463888000,10.778887939453124,-20.494598388671875,36.61247253417969,-13.78603744506836
1633779635483767000,10.79876708984375,-19.67962646484375,36.62879943847656,-14.25827407836914
1633779635503647000,10.81864697265625,-18.49981689453125,36.90137481689453,-14.886272430419922
1633779635523526000,10.83852587890625,-17.333099365234375,37.01610565185547,-15.699527740478516
1633779635543406000,10.858406005859376,-16.351715087890625,37.10740661621094,-16.42910385131836
1633779635563285000,10.878284912109375,-15.498504638671875,37.19989776611328,-17.51089096069336
1633779635583165000,10.8981650390625,-15.201080322265625,36.770362854003906,-18.372730255126953
1633779635603044000,10.918044189453125,-15.05450439453125,36.240943908691406,-19.492679595947266
1633779635622924000,10.937924072265625,-15.660614013671875,35.63323974609375,-20.315670013427734
1633779635642804200,10.95780419921875,-16.05718994140625,35.54216384887695,-21.200061798095703
1633779635662683100,10.97768310546875,-15.900543212890625,34.43235397338867,-22.368999481201172
1633779635682563000,10.99756298828125,-16.163970947265625,33.78696060180664,-23.66640853881836
1633779635702442000,11.01744189453125,-16.595001220703125,33.336151123046875,-24.753253936767578
1633779635722322000,11.037322021484375,-16.384063720703125,32.169288635253906,-26.042675018310547
1633779635742201000,11.057201171875,-16.743133544921875,31.08557891845703,-27.428531646728516
1633779635762081000,11.0770810546875,-16.565277099609375,30.284135818481445,-28.262493133544922
1633779635781961000,11.0969609375,-16.603851318359375,29.21368408203125,-29.49599838256836
1633779635801840000,11.116840087890624,-16.8831787109375,28.402183532714844,-30.736255645751953
1633779635821720000,11.136719970703124,-16.327423095703125,27.681222915649414,-31.729290008544922
1633779635841599000,11.156598876953124,-16.06732177734375,26.681970596313477,-32.697208404541016
1633779635861479200,11.176479248046874,-15.17120361328125,26.01236915588379,-33.459781646728516
1633779635881358000,11.196358154296876,-14.420501708984375,25.51323127746582,-34.21635818481445
1633779635901238000,11.216238037109376,-13.62615966796875,24.824203491210938,-35.01237869262695
1633779635921117200,11.2361171875,-12.887237548828125,24.846025466918945,-35.42618942260742
1633779635940997000,11.2559970703125,-13.084075927734375,25.131406784057617,-35.36323928833008
1633779635960876000,11.2758759765625,-13.084747314453125,25.370235443115234,-35.02083206176758
1633779635980756000,11.295755859375,-13.4349365234375,25.85664939880371,-34.468997955322266
1633779636000636200,11.31563623046875,-13.53619384765625,26.39751434326172,-33.35380935668945
1633779636020515000,11.33551513671875,-14.20562744140625,27.17144012451172,-32.4535026550293
1633779636040395000,11.35539501953125,-14.168609619140625,27.677921295166016,-31.563495635986328
1633779636060274200,11.375274169921875,-14.244720458984375,28.063968658447266,-30.452953338623047
1633779636080153900,11.39515380859375,-14.812042236328125,28.397354125976562,-29.683795928955078
1633779636100033000,11.415032958984375,-14.820892333984375,29.0587215423584,-28.57680892944336
1633779636119913200,11.434913330078125,-15.28839111328125,29.428058624267578,-27.679889678955078
1633779636139792000,11.4547919921875,-15.870452880859375,29.73517417907715,-26.169742584228516
1633779636159672000,11.474672119140624,-15.67279052734375,30.240209579467773,-25.120525360107422
1633779636179552000,11.494552001953124,-16.21075439453125,30.816082000732422,-23.970500946044922
1633779636199431000,11.514430908203124,-15.96478271484375,31.481426239013672,-23.099864959716797
1633779636219311000,11.53431103515625,-16.082733154296875,31.869966506958008,-22.244693756103516
1633779636239190800,11.554190673828124,-16.5999755859375,32.36030578613281,-20.86661148071289
1633779636259070700,11.57407080078125,-16.602386474609375,32.522403717041016,-19.96053695678711
1633779636278949600,11.59394970703125,-17.074066162109375,32.96071243286133,-19.056598663330078
1633779636298829800,11.613829833984376,-17.2509765625,33.3342170715332,-18.28396987915039
1633779636318708700,11.633708740234376,-17.3946533203125,33.489784240722656,-17.620037078857422
1633779636338588700,11.653588623046875,-18.70794677734375,33.156890869140625,-16.75168228149414
1633779636358468900,11.67346875,-19.02642822265625,32.93033981323242,-16.444141387939453
1633779636378347500,11.693347412109375,-19.689300537109375,32.55976486206055,-15.886096954345703
1633779636398227700,11.713227783203125,-20.009735107421875,32.163063049316406,-15.551105499267578
1633779636418107000,11.73310693359375,-19.50146484375,32.560577392578125,-15.78841781616211
1633779636437986800,11.75298681640625,-19.267181396484375,32.05506896972656,-15.88760757446289
1633779636457865700,11.77286572265625,-18.363922119140625,32.0956916809082,-16.328968048095703
1633779636477745700,11.79274560546875,-17.736358642578125,32.06050491333008,-16.53329849243164
1633779636497624600,11.81262451171875,-16.81072998046875,31.605594635009766,-17.03878402709961
1633779636517504800,11.8325048828125,-16.410186767578125,31.36281967163086,-17.609066009521484
1633779636537384700,11.852384765625,-15.551422119140625,30.87276840209961,-18.325244903564453
1633779636557264000,11.872263916015624,-14.72747802734375,30.622882843017578,-19.284976959228516
1633779636577143600,11.8921435546875,-13.71881103515625,29.736618041992188,-20.300296783447266
1633779636597022700,11.912022705078124,-13.319580078125,28.478275299072266,-20.94241714477539
1633779636616903000,11.93190283203125,-13.34368896484375,27.241029739379883,-22.264583587646484
1633779636636781600,11.951781494140626,-13.5050048828125,25.444992065429688,-23.456050872802734
1633779636656661800,11.971661865234376,-13.59454345703125,23.75828742980957,-24.451374053955078
1633779636676541000,11.991541015625,-13.81927490234375,22.351848602294922,-25.62344741821289
1633779636696420600,12.011420654296876,-13.964324951171875,20.529754638671875,-25.978275299072266
1633779636716300800,12.03130078125,-14.067169189453125,19.34300422668457,-26.54428482055664
1633779636736179700,12.0511796875,-14.279998779296875,18.115915298461914,-26.454059600830078
1633779636756059600,12.0710595703125,-14.32110595703125,16.655292510986328,-26.572101593017578
1633779636775938800,12.090938720703125,-14.257537841796875,15.430895805358887,-26.657733917236328
1633779636795818800,12.11081884765625,-14.477783203125,14.277752876281738,-26.536205291748047
1633779636815697700,12.13069775390625,-14.9249267578125,12.967419624328613,-26.273784637451172
1633779636835577600,12.15057763671875,-15.239349365234375,11.90512466430664,-25.922649383544922
1633779636855456800,12.170456787109375,-15.253570556640625,10.599164009094238,-25.564952850341797
1633779636875336700,12.190336669921875,-15.471282958984375,10.057074546813965,-25.106273651123047
1633779636895216600,12.210216552734375,-15.428924560546875,8.983430862426758,-24.063762664794922
1633779636915095800,12.230095703125,-15.9404296875,8.488611221313477,-23.127765655517578
1633779636934975700,12.249975830078125,-16.115234375,8.215240478515625,-22.399089813232422
1633779636954854700,12.269854736328124,-15.690155029296875,7.776653289794922,-21.421459197998047
1633779636974734800,12.28973486328125,-15.45233154296875,7.672685623168945,-20.732929229736328
1633779636994613800,12.30961376953125,-15.290863037109375,7.312084197998047,-19.743595123291016
1633779637014493700,12.32949365234375,-15.03631591796875,7.01451301574707,-18.815479278564453
1633779637034374000,12.349373779296876,-14.576080322265625,6.842185974121094,-18.46036148071289
1633779637054252800,12.369252685546876,-14.49932861328125,6.632526397705078,-17.68802261352539
1633779637074132700,12.3891328125,-13.82232666015625,6.191152572631836,-16.926067352294922
1633779637094012000,12.409011962890625,-13.832672119140625,5.693746566772461,-16.107234954833984
1633779637113891800,12.428891845703125,-13.2596435546875,5.454587936401367,-15.419742584228516
1633779637133770800,12.448770751953125,-12.815826416015625,5.026531219482422,-15.01932144165039
1633779637153650700,12.468650634765625,-12.467742919921875,4.617986679077148,-14.55007553100586
1633779637173529900,12.48852978515625,-12.46673583984375,4.222742080688477,-13.90395736694336
1633779637193409800,12.508409912109375,-11.9349365234375,3.6543216705322266,-13.347492218017578
1633779637213289700,12.528289794921875,-11.498260498046875,3.336301803588867,-12.86782455444336
1633779637233167600,12.548167724609375,-11.549072265625,2.6709346771240234,-12.38912582397461
1633779637253047800,12.5680478515625,-11.296539306640625,2.338743209838867,-11.864459991455078
1633779637272926700,12.5879267578125,-11.117279052734375,1.6525115966796875,-11.429805755615234
1633779637292807000,12.607806884765624,-10.638214111328125,0.8795909881591797,-11.258991241455078
1633779637312685800,12.627685791015624,-10.4466552734375,0.44209861755371094,-10.684959411621094
1633779637332565800,12.647565673828124,-10.072509765625,-0.19420242309570312,-10.062061309814453
1633779637352444700,12.667444580078126,-9.882843017578125,-1.3377799987792969,-9.877399444580078
1633779637372324600,12.68732470703125,-9.611785888671875,-2.035490036010742,-9.38895034790039
1633779637392204800,12.707204833984376,-9.2864990234375,-2.3014068603515625,-8.630859375
1633779637412084000,12.727083984375,-9.103851318359375,-3.050851821899414,-7.557090759277344
1633779637431963600,12.746963623046875,-8.920928955078125,-3.559843063354492,-6.77813720703125
1633779637451842800,12.7668427734375,-8.451995849609375,-3.9828624725341797,-5.895538330078125
1633779637471722800,12.78672265625,-7.70477294921875,-4.449274063110352,-4.826068878173828
1633779637491601700,12.8066015625,-7.50518798828125,-4.471376419067383,-3.9788475036621094
1633779637511481900,12.82648193359375,-7.245269775390625,-4.659784317016602,-3.3899497985839844
1633779637531360800,12.84636083984375,-6.466400146484375,-4.663446426391602,-2.414703369140625
1633779637551240700,12.86624072265625,-6.39984130859375,-4.59434700012207,-1.3124313354492188
1633779637571120600,12.88612060546875,-6.22882080078125,-3.934591293334961,-0.5062904357910156
1633779637590999800,12.905999755859375,-6.2083740234375,-3.720426559448242,0.6006355285644531
1633779637610879700,12.925879638671875,-5.571258544921875,-3.427703857421875,1.2463111877441406
1633779637630758700,12.945758544921874,-5.847625732421875,-2.9744491577148438,1.9635124206542969
1633779637650638800,12.965638916015624,-5.84539794921875,-2.44464111328125,2.657581329345703
1633779637670517800,12.985517822265624,-5.80450439453125,-1.8771953582763672,3.210063934326172
1633779637690397700,13.005397705078124,-5.86297607421875,-1.4727439880371094,3.7500343322753906
1633779637710276900,13.02527685546875,-5.6895751953125,-0.7232189178466797,4.091453552246094
1633779637730156500,13.045156494140626,-6.091766357421875,-0.1379222869873047,4.314399719238281
1633779637750036700,13.06503662109375,-6.166656494140625,0.3826160430908203,4.955593109130859
1633779637769916000,13.084916015625,-6.5452880859375,0.8631610870361328,5.262439727783203
1633779637789795600,13.104795654296876,-6.54278564453125,1.3616828918457031,5.799884796142578
1633779637809674800,13.1246748046875,-6.231475830078125,1.9651222229003906,6.129810333251953
1633779637829554700,13.1445546875,-6.786712646484375,2.2721996307373047,6.348361968994141
1633779637849433600,13.16443359375,-6.671875,2.97406005859375,6.196891784667969
1633779637869313800,13.184313720703125,-6.90948486328125,3.5521411895751953,6.72271728515625
1633779637889192700,13.204192626953125,-6.64959716796875,3.875955581665039,7.055339813232422
1633779637909072600,13.22407275390625,-6.39093017578125,4.29615592956543,7.339473724365234
1633779637928951800,13.243951904296875,-6.129913330078125,4.293771743774414,7.987113952636719
1633779637948831700,13.263831787109375,-5.733184814453125,4.617780685424805,8.30392837524414
1633779637968712000,13.2837119140625,-5.2952880859375,4.767770767211914,8.910591125488281
1633779637988590600,13.303590576171874,-5.4166259765625,4.716815948486328,9.267059326171875
1633779638008470800,13.323470703125,-4.5931396484375,4.661128997802734,9.526115417480469
1633779638028349700,13.343349609375,-4.8302001953125,4.484127044677734,10.421356201171875
1633779638048229600,13.363229736328124,-4.206756591796875,4.134130477905273,10.574840545654297
1633779638068108800,13.38310888671875,-3.617279052734375,4.146759033203125,11.351730346679688
1633779638087988700,13.40298876953125,-3.428253173828125,4.120901107788086,11.982719421386719
1633779638107868700,13.42286865234375,-2.553314208984375,3.6921253204345703,12.354629516601562
1633779638127747800,13.442747802734376,-2.482147216796875,3.412830352783203,13.067432403564453
1633779638147627800,13.462627685546876,-2.052825927734375,3.3098793029785156,13.73001480102539
1633779638167506700,13.482506591796875,-1.7352294921875,3.236673355102539,14.528373718261719
1633779638187386600,13.50238671875,-1.451416015625,3.0736656188964844,14.96944808959961
1633779638207265800,13.522265869140625,-1.393524169921875,2.8279037475585938,15.259700775146484
1633779638227145700,13.542145751953125,-1.35150146484375,2.7129592895507812,15.745075225830078
1633779638247025700,13.562025634765625,-0.7921142578125,2.4706249237060547,16.342220306396484
1633779638266905600,13.581905517578125,-1.11138916015625,2.111225128173828,16.581356048583984
1633779638286785500,13.60178564453125,-0.9097900390625,2.4974594116210938,16.519386291503906
1633779638306664700,13.621664794921875,-1.19189453125,2.5796642303466797,16.958602905273438
1633779638326544600,13.641544677734375,-0.9227294921875,2.800029754638672,17.193347930908203
1633779638346423600,13.661423583984375,-0.664398193359375,2.4482421875,17.16323471069336
1633779638366303700,13.6813037109375,-0.74993896484375,2.8128604888916016,17.42696762084961
1633779638386182700,13.7011826171875,-1.10015869140625,2.7978134155273438,17.66590118408203
1633779638406062600,13.7210625,-0.791595458984375,2.8000411987304688,17.546497344970703
1633779638425941800,13.740941650390624,-0.6905517578125,3.0014877319335938,17.571754455566406
1633779638445821400,13.760821533203124,-0.5321044921875,3.401338577270508,17.4505615234375
1633779638465701600,13.78070166015625,-0.79241943359375,3.676839828491211,17.450477600097656
1633779638485580800,13.800580810546874,-0.486968994140625,3.782398223876953,17.495025634765625
1633779638505460700,13.820460693359376,-0.4769287109375,4.085817337036133,17.53249740600586
1633779638525339600,13.840339599609376,-0.663116455078125,4.555524826049805,17.26573944091797
1633779638545219600,13.860219482421876,-1.18560791015625,4.832466125488281,17.268783569335938
1633779638565098500,13.880098388671875,-1.0760498046875,5.028697967529297,17.425872802734375
1633779638584978700,13.899978759765625,-0.967132568359375,5.248634338378906,17.677520751953125
1633779638604857600,13.919857666015625,-0.80010986328125,5.244972229003906,17.809574127197266
1633779638624737800,13.93973779296875,-0.770050048828125,4.844488143920898,18.158878326416016
1633779638644617500,13.959617431640625,-0.45074462890625,4.966419219970703,18.134300231933594
1633779638664496600,13.97949658203125,-0.495086669921875,5.136850357055664,18.293601989746094
1633779638684376800,13.999376953125,-0.75146484375,5.004121780395508,18.334625244140625
1633779638704255500,14.01925537109375,-1.0238037109375,5.267400741577148,18.384017944335938
1633779638724135700,14.0391357421875,-1.302398681640625,5.39991569519043,18.355453491210938
1633779638744014800,14.059014892578125,-1.337921142578125,5.489030838012695,18.430248260498047
1633779638763894500,14.07889453125,-1.428497314453125,5.489978790283203,18.303882598876953
1633779638783773700,14.098773681640624,-1.190032958984375,5.803617477416992,18.565929412841797
1633779638803653600,14.118653564453124,-1.8004150390625,6.104192733764648,18.41061782836914
1633779638823533600,14.138533447265624,-1.399871826171875,6.026882171630859,18.516624450683594
1633779638843412700,14.158412841796874,-1.02508544921875,5.863567352294922,18.391014099121094
1633779638863292700,14.178292724609374,-1.682464599609375,6.087358474731445,18.2457275390625
1633779638883171600,14.198171630859376,-1.267669677734375,6.205345153808594,18.151195526123047
1633779638903051500,14.218051513671876,-1.6358642578125,5.964054107666016,18.184345245361328
1633779638922930700,14.2379306640625,-1.6907958984375,6.143852233886719,18.283329010009766
1633779638942810600,14.257810546875,-1.82257080078125,6.134311676025391,17.93535614013672
1633779638962689500,14.277689453125,-1.953216552734375,6.094610214233398,18.02145004272461
1633779638982569700,14.29756982421875,-1.926116943359375,5.880624771118164,17.87661361694336
1633779639002449400,14.317449462890625,-2.315704345703125,5.9864654541015625,17.93399429321289
1633779639022328600,14.33732861328125,-2.21258544921875,5.8275299072265625,17.690269470214844
1633779639042208800,14.357208740234375,-2.130615234375,6.137134552001953,17.796371459960938
1633779639062087400,14.37708740234375,-1.99090576171875,5.983774185180664,17.60489273071289
1633779639081967600,14.396967529296875,-2.170135498046875,6.056541442871094,17.652759552001953
1633779639101846800,14.4168466796875,-1.82086181640625,6.198263168334961,17.654403686523438
1633779639121726500,14.4367265625,-1.78204345703125,6.424795150756836,17.48114776611328
1633779639141605600,14.456605712890624,-2.544403076171875,6.382879257202148,17.319805145263672
1633779639161485600,14.476485595703124,-2.11871337890625,6.797420501708984,17.441165924072266
1633779639181365800,14.49636572265625,-2.393890380859375,6.856657028198242,17.40240478515625
1633779639201244700,14.51624462890625,-2.458770751953125,6.379703521728516,17.396778106689453
1633779639221124600,14.53612451171875,-2.495452880859375,6.334680557250977,17.845455169677734
1633779639241002500,14.55600244140625,-2.44830322265625,6.518815994262695,17.503307342529297
1633779639260882700,14.575882568359376,-2.186737060546875,6.48777961730957,17.862552642822266
1633779639280761600,14.59576171875,-1.98138427734375,6.590658187866211,18.04595947265625
1633779639300641800,14.615641845703125,-2.282257080078125,6.8336944580078125,17.91791534423828
1633779639320520700,14.635520751953125,-2.091033935546875,6.6284942626953125,18.00136947631836
1633779639340400600,14.655400634765625,-2.44610595703125,6.627252578735352,17.9676513671875
1633779639360280800,14.67528076171875,-2.30218505859375,6.434043884277344,17.96715545654297
1633779639380159700,14.69515966796875,-2.113677978515625,6.478158950805664,18.124916076660156
1633779639400039700,14.715039794921875,-2.00811767578125,6.396890640258789,18.096527099609375
1633779639419918800,14.7349189453125,-2.44903564453125,6.319576263427734,18.250770568847656
1633779639439798500,14.754798583984375,-2.080596923828125,6.442329406738281,18.307476043701172
1633779639459677700,14.774677734375,-2.1846923828125,6.181512832641602,18.047683715820312
1633779639479557600,14.7945576171875,-2.289947509765625,6.085689544677734,17.925125122070312
1633779639499436500,14.8144365234375,-2.390411376953125,5.998271942138672,18.03802490234375
1633779639519316700,14.834316650390624,-2.4227294921875,5.76966667175293,18.01323699951172
1633779639539196700,14.85419677734375,-2.107177734375,5.841753005981445,17.91031265258789
1633779639559075600,14.87407568359375,-1.727294921875,5.922698974609375,17.798587799072266
1633779639578955800,14.893955810546874,-1.99346923828125,5.694154739379883,18.032146453857422
1633779639598834700,14.913834716796876,-1.9293212890625,5.703153610229492,18.17809295654297
1633779639618714600,14.933714599609376,-2.0028076171875,5.530885696411133,18.3763427734375
1633779639638593800,14.95359375,-1.374847412109375,5.622674942016602,18.466018676757812
1633779639658473700,14.9734736328125,-1.49237060546875,5.336572647094727,18.233692169189453
1633779639678352600,14.9933525390625,-1.45318603515625,5.268150329589844,18.422664642333984
1633779639698232600,15.013232666015625,-1.791168212890625,5.420751571655273,18.449520111083984
1633779639718112800,15.03311279296875,-1.725311279296875,5.339942932128906,18.4541015625
1633779639737991700,15.05299169921875,-1.77606201171875,5.326133728027344,18.62761688232422
1633779639757871600,15.07287158203125,-2.0618896484375,5.339015960693359,18.56140899658203
1633779639777750800,15.092750732421875,-1.66693115234375,4.898101806640625,18.358455657958984
1633779639797630500,15.11263037109375,-1.932830810546875,4.948619842529297,18.662113189697266
1633779639817509600,15.132509521484375,-1.75103759765625,5.09356689453125,18.778400421142578
1633779639837389800,15.152389892578125,-1.723876953125,4.957239151000977,18.782302856445312
1633779639857268500,15.1722685546875,-1.70050048828125,5.059049606323242,18.74712371826172
1633779639877148700,15.192148681640624,-1.843780517578125,5.079326629638672,18.99026107788086
1633779639897027800,15.21202783203125,-1.45391845703125,4.990758895874023,19.176071166992188
1633779639916907500,15.231907470703124,-1.557586669921875,4.847896575927734,18.923263549804688
1633779639936787700,15.25178759765625,-1.861297607421875,5.019498825073242,19.011566162109375
1633779639956666600,15.27166650390625,-1.8675537109375,4.704326629638672,19.237483978271484
1633779639976546800,15.291546875,-1.0858154296875,4.8602447509765625,19.434825897216797
1633779639996425700,15.31142578125,-1.723419189453125,5.015308380126953,19.145835876464844
1633779640016305700,15.3313056640625,-1.07086181640625,4.715343475341797,19.0267333984375
1633779640036184600,15.3511845703125,-1.462982177734375,4.8492431640625,19.429405212402344
1633779640056064500,15.371064453125,-1.26031494140625,4.789316177368164,19.180438995361328
1633779640075943700,15.390943603515625,-1.527618408203125,4.723432540893555,19.615013122558594
1633779640095824000,15.410823974609375,-1.01519775390625,4.595832824707031,19.416759490966797
1633779640115703600,15.43070361328125,-1.085968017578125,4.706035614013672,19.479446411132812
1633779640135582700,15.450582763671875,-1.102203369140625,4.763275146484375,19.59573745727539
1633779640155462700,15.470462646484375,-1.197998046875,4.64280891418457,19.74675750732422
1633779640175341600,15.490341552734375,-1.1080322265625,4.882448196411133,19.64959716796875
1633779640195221800,15.5102216796875,-0.857513427734375,4.696222305297852,19.751724243164062
1633779640215100700,15.5301005859375,-1.017486572265625,4.495159149169922,19.59661865234375
1633779640234982000,15.54998193359375,-0.958099365234375,4.8949432373046875,19.740489959716797
1633779640254860500,15.569860595703124,-1.19873046875,4.591014862060547,19.819244384765625
1633779640274740700,15.58974072265625,-0.833648681640625,4.754507064819336,19.606319427490234
1633779640294620700,15.60962060546875,-0.7708740234375,4.58479118347168,19.88190460205078
1633779640314499600,15.62949951171875,-0.6790771484375,4.407686233520508,19.97821807861328
1633779640334379800,15.6493798828125,-1.00140380859375,4.537931442260742,20.06696319580078
1633779640354258700,15.6692587890625,-0.685516357421875,4.236825942993164,19.957107543945312
1633779640374138600,15.689138671875,-1.23626708984375,4.196557998657227,19.90721893310547
1633779640394017800,15.709017822265626,-0.441192626953125,4.264863967895508,20.176170349121094
1633779640413897700,15.728897705078126,-0.3267822265625,4.307437896728516,20.292400360107422
1633779640433776600,15.748776611328125,-0.4425048828125,4.189142227172852,20.459209442138672
1633779640453656600,15.768656494140625,-0.321136474609375,4.301586151123047,20.225749969482422
1633779640473535700,15.78853564453125,-0.63531494140625,4.204416275024414,20.335350036621094
1633779640493415700,15.808415771484375,-0.7994384765625,4.265743255615234,20.428756713867188
