time,seconds_elapsed,z,y,x
1633780303253596400,0.018596435546875,-0.03182604784965515,0.14280746547877787,0.0029606033712625502
1633780303273475300,0.038475341796875,0.02050385884642601,0.15907178705930708,0.0871302941814065
1633780303293355500,0.05835546875,-0.17660510566234588,0.15508593229353426,0.1078846206575632
1633780303313234400,0.078234375,-0.1757896976262331,0.06158171916604042,0.13701251546442508
1633780303333113300,0.09811328125,-0.13920038089752196,0.06736790135204791,0.1919602034434676
1633780303352992300,0.1179921875,-0.12178104406297206,0.04584522085189819,0.20126257705688474
1633780303372872400,0.13787255859375,-0.09189970054030418,0.07646656908690928,0.15864830095022917
1633780303392751400,0.15775146484375,-0.12152093182206153,0.06641396162807942,0.15064035106152296
1633780303412630300,0.17763037109375,-0.06413081912696361,0.09986088867783546,0.11772095501720904
1633780303432510500,0.197510498046875,-0.07853285396695137,0.13977204330563545,0.1548749198913574
1633780303452389400,0.217389404296875,-0.16624971586465834,0.18953648342788218,0.1957002667546272
1633780303472268300,0.237268310546875,-0.16188918256759643,0.16993629542291164,0.006256430046260356
1633780303492148500,0.2571484375,-0.22018179706037044,0.20152502738535402,-0.1035802014619112
1633780303512027100,0.277027099609375,-0.17751228363513946,0.16310791070759295,-0.09211831172704696
1633780303531906300,0.29690625,-0.09565992985665797,0.13282207803726195,-0.1598442327365279
1633780303551785500,0.316785400390625,0.05081248787045479,0.0881517461836338,-0.17215689408183096
1633780303571665400,0.33666552734375,0.1075882680594921,0.06577449468076228,-0.18275895211696624
1633780303591544300,0.35654443359375,0.16269523825347423,-0.016361352214217185,-0.17555735017508267
1633780303611423200,0.37642333984375,0.24893852046728132,-0.058250528916716574,-0.0962035352140665
1633780303631303400,0.396303466796875,0.21225100406110287,-0.09871931742727756,-0.07360182730555534
1633780303651182300,0.416182373046875,0.20346973171234128,-0.13666004876494406,-0.05202420174777508
1633780303671061200,0.436061279296875,0.17367022125422954,-0.18943828375041483,-0.06794131732583046
1633780303690941400,0.45594140625,-0.009959083956480026,-0.20008184283971786,0.020751111605763435
1633780303710820400,0.4758203125,-0.03814823660850525,-0.146958739939332,0.10525456441491841
1633780303730699300,0.49569921875,-0.03678162443041801,-0.07357026312351227,0.032495325413346286
1633780303750578400,0.515578369140625,-0.07442366508245468,0.020880875465273854,-0.00010112228691577911
1633780303770458400,0.535458251953125,-0.0648415977448225,0.06438508614897727,0.01417260999828577
1633780303790337300,0.555337158203125,-0.005028057295084,0.11243629261255264,0.0037719197541475295
1633780303810216400,0.575216552734375,-0.04355272600054741,0.11068331146538257,0.014930442628264427
1633780303830096400,0.595096435546875,-0.023231237983703613,0.07724982841908931,0.03140051591396332
1633780303849975300,0.614975341796875,-0.029371640434861183,0.10542436802387237,-0.06634498804509639
1633780303869854700,0.634854736328125,-0.02124970877766609,0.025472879430651664,-0.1575225117906928
1633780303889734700,0.654734619140625,0.040432548153400416,-0.079529463788867,-0.18854513430297373
1633780303909613800,0.67461376953125,0.1552712257325649,-0.12376666492223738,-0.19306348851025104
1633780303929492700,0.69449267578125,0.10346388160586356,-0.1954875007867813,-0.17883271858394145
1633780303949372700,0.71437255859375,0.13213409577310084,-0.2798568058222532,-0.1743666790857911
1633780303969251600,0.73425146484375,0.09160860863924027,-0.25515315719842907,-0.17412556380629537
1633780303989130800,0.754130859375,0.11188801108002662,-0.24080139124095437,-0.20328443827331064
1633780304009010000,0.774010009765625,0.08984335253238677,-0.15692834528982638,-0.21657208213061094
1633780304028889600,0.7938896484375,0.07800795331001281,-0.15116495945751665,-0.1665720796868205
1633780304048768800,0.813768798828125,0.05789221699833869,-0.11503390789031982,-0.09302987361401319
1633780304068648000,0.83364794921875,0.06244914965033531,-0.06734510499835014,-0.032711598512530325
1633780304088527600,0.853527587890625,0.015604396367073059,-0.044403205350041386,-0.02507394324094057
1633780304108406800,0.87340673828125,-0.07177461187839508,-0.0024397943675518036,0.005158990198373794
1633780304128285700,0.89328564453125,-0.11844985381364821,0.030571663874387738,0.011302315258979796
1633780304148165600,0.91316552734375,-0.10887421621680259,0.06888648922145366,0.018450725708901883
1633780304168044800,0.933044921875,-0.054252399191260334,0.10337035810351371,0.027687925131618975
1633780304187923700,0.952923828125,-0.04052665617763996,0.15703940444886683,-0.016828677465021608
1633780304207803000,0.972802978515625,0.02381692891716957,0.15203355898559093,0.009863222366571426
1633780304227682800,0.992682861328125,0.06145780052542686,0.172412330147624,-0.0006046878948807716
1633780304247561700,1.012561767578125,0.03183013950288296,0.1397398946017027,-0.02602642166018486
1633780304267441000,1.03244091796875,0.10974281574487685,0.07818506344258785,-0.022952128781378266
1633780304287320800,1.05232080078125,0.11645663416981697,-0.00949614261984825,0.03221826203763485
1633780304307199700,1.07219970703125,0.1281885730177164,-0.13557283805012701,0.01566927829682827
1633780304327079000,1.092078857421875,0.14177695338726043,-0.20911855125427245,0.011012976923584937
1633780304346958600,1.11195849609375,0.16062836885154247,-0.2936696425974369,0.039436815114319325
1633780304366837800,1.131837646484375,0.07584989849328995,-0.2689706701487303,0.06163841778934002
1633780304386717000,1.151717041015625,-0.00757774177789688,-0.19975860223472117,0.07398176653385162
1633780304406595600,1.171595703125,0.05100128844082355,-0.10646423246562481,-0.003567337092757225
1633780304426475800,1.191475830078125,0.0559223782300949,-0.05737316156029701,-0.012222937235236167
1633780304446355000,1.21135498046875,-0.012523381486535071,-0.01260229194164276,-0.004565700480341911
1633780304466233900,1.23123388671875,-0.04091185610294342,0.021878654330968854,0.02166413479745388
1633780304486113800,1.25111376953125,-0.03329085970520973,0.07973463097214699,0.010714286237955093
1633780304505992700,1.27099267578125,-0.03582183948755264,0.15927286258935927,-0.025832944914698598
1633780304525871900,1.290871826171875,-0.04023264166712761,0.10814239481091499,-0.03571633328646421
1633780304545751800,1.310751708984375,-0.043939679491519924,0.044670331853628155,0.0327039997279644
1633780304565630700,1.330630615234375,-0.06404957058429718,0.058335869112610815,0.02417991701066494
1633780304585510000,1.350510009765625,-0.028422961407899856,0.04158873245120048,0.03097381493449211
1633780304605388500,1.370388427734375,-0.06992869175076484,0.00466857633292675,0.05977028582990169
1633780304625268700,1.390268798828125,-0.04655716851353645,-0.018185645031929015,0.07261573887765407
1633780304645148000,1.41014794921875,-0.11555237880647182,0.041708559438586236,0.03144873896986246
1633780304665026600,1.430026611328125,-0.09760697227120399,0.15128420192301273,-0.029834289510548114
1633780304684906800,1.44990673828125,-0.07876490915715693,0.1672527554273605,-0.04622223747074604
1633780304704786000,1.469785888671875,-0.011783376774191856,0.18052374041080474,-0.05694032310098409
1633780304724664600,1.48966455078125,-0.04502747472822666,0.07031213811039924,-0.15274141499400137
1633780304744544800,1.509544677734375,-0.006119944185018539,0.08778174382746219,-0.15564941139519214
1633780304764424000,1.529423828125,0.10427227537930012,0.0837117179095745,-0.05567541773170232
1633780304784302600,1.549302490234375,0.16969605692625045,0.019040216034650802,-0.019192191725969313
1633780304804181800,1.569181640625,0.08897007682919501,-0.0046223991036415096,-0.08101093451827764
1633780304824061700,1.589061767578125,-0.023809330132603643,0.128049456807971,-0.010545651672780513
1633780304843940600,1.608940673828125,0.07011573875546455,0.13565817824602125,0.11243600035160779
1633780304863820300,1.6288203125,0.012204817056655883,0.1478735166966915,0.12710136230289934
1633780304883700200,1.6487001953125,-0.06636427726745606,0.1830009441792965,0.159372231310606
1633780304903579100,1.6685791015625,-0.06194353821575641,0.1871528031617403,0.12388678417056798
1633780304923458300,1.688458251953125,-0.08242927688360213,0.19199965867102145,0.15991934379935263
1633780304943338200,1.708338134765625,-0.021885084071755406,0.214358205473423,0.11224953786879777
1633780304963217200,1.728217041015625,-0.01925415104627609,0.22052432688772677,0.02946925559043884
1633780304983096300,1.748096435546875,0.05009060333669185,0.18833587546646594,-0.03679652973860502
1633780305002976300,1.767976318359375,0.19697627803981302,0.08691898951828479,-0.05990560264736414
1633780305022855200,1.787855224609375,0.1875754124879837,0.07644377273321151,-0.06694879915714264
1633780305042734000,1.807734130859375,0.37698330110013484,0.04922784902751445,-0.24680706139653918
1633780305062613200,1.82761328125,0.49653205606639383,-0.03159165457189083,-0.23510990160107612
1633780305082493200,1.8474931640625,0.45735622997581954,-0.20838322271704673,-0.23080431336164473
1633780305102372000,1.8673720703125,0.38407647423148156,-0.30523440818488595,-0.26546704594194886
1633780305122251300,1.887251220703125,0.2776145798534155,-0.39539924775660035,-0.2597679575175047
1633780305142131500,1.90713134765625,0.06612170068323611,-0.4134533753633499,-0.32872458936572074
1633780305162010000,1.927010009765625,-0.09954816946685313,-0.48969957969784733,-0.3175532070100307
1633780305181889300,1.94688916015625,-0.25956103676855563,-0.55047524317801,-0.26329467033892867
1633780305201769500,1.96676953125,-0.28436931481063366,-0.47850657003223895,-0.28016835598945616
1633780305221648100,1.986648193359375,-0.3390986838638782,-0.4328595021009445,-0.2563251235872507
1633780305241527300,2.00652734375,-0.32150340594053267,-0.34422260274887084,-0.22636896126270292
1633780305261406200,2.02640625,-0.27513679156303406,-0.18921558091044424,-0.12505641247183083
1633780305281286100,2.0462861328125,-0.26976795800626274,0.040625440376996995,-0.09244301363676787
1633780305301165300,2.066165283203125,-0.20988427492976186,0.16100830807983874,-0.24298107336759567
1633780305321044200,2.086044189453125,-0.06056815820932388,0.33444062892496584,0.10185556962639093
1633780305340924200,2.105924072265625,0.19430910465717313,0.3242243553370237,0.5373293458789586
1633780305360803300,2.12580322265625,0.15169395176768302,0.23691490519642827,0.7673141595512628
1633780305380682200,2.14568212890625,0.025910686326026916,0.20896657556295395,0.9222881559029221
1633780305400561400,2.1655615234375,0.030674539726972577,0.17468144412338732,0.8139163362503051
1633780305420441000,2.185441162109375,-0.06482756921947003,0.19301789580285547,0.5467144293397664
1633780305440320300,2.2053203125,-0.12965923009216784,0.19126783726513386,0.23023615808486936
1633780305460199400,2.225199462890625,-0.12436112368404864,0.2088636997103691,0.0852191998630762
1633780305480079000,2.2450791015625,-0.08087912483215332,0.27070143946409225,-0.05239215827733278
1633780305499958300,2.264958251953125,-0.039059506234526635,0.23142273752093315,-0.1033338254854083
1633780305519837200,2.284837158203125,-0.030947511449456212,0.14006781138181684,-0.1320715519309044
1633780305539717000,2.304717041015625,-0.05940963582396507,0.08795300874114036,-0.1697895804286003
1633780305559596300,2.32459619140625,-0.13817688306868076,0.04061491898298263,-0.12702011376023292
1633780305579475200,2.34447509765625,-0.159167064127326,-0.07845628159940242,-0.05359364302158355
1633780305599354400,2.364354248046875,-0.1614502066284418,-0.11717676513791084,0.010030103366076945
1633780305619234300,2.384234375,-0.12829144887030125,-0.08908464311957359,0.04128828819990158
1633780305639113200,2.40411328125,-0.11900631865262984,-0.061140405139327045,0.023377660717070103
1633780305658992400,2.423992431640625,-0.06982230876684188,-0.014473931032419203,0.03413374027013778
1633780305678872300,2.443872314453125,-0.04343582162261009,0.08822481141984462,0.10599018521308898
1633780305698751200,2.463751220703125,-0.014251228192448616,0.1432552092462778,0.17340075666308402
1633780305718630400,2.48363037109375,0.01654196947813034,0.19106325460374354,0.172837569822371
1633780305738510000,2.503510009765625,0.08207739470601082,0.2308499060690403,0.15601882922947405
1633780305758389200,2.52338916015625,0.14270283606052397,0.26047464448213575,0.09679887075871228
1633780305778268400,2.543268310546875,0.16639000111818314,0.29234628503918647,0.020058453166484833
1633780305798147300,2.563147216796875,0.24067104285955426,0.1351210026293993,0.004112988276779651
1633780305818027300,2.58302734375,0.2376806288719177,0.0031201778471469876,-0.020135902316868303
1633780305837906400,2.602906494140625,0.27418928157985206,-0.018507132071256635,-0.0822042359560728
1633780305857785000,2.62278515625,0.2859492774784565,-0.15847791281938553,-0.1196446165561676
1633780305877665000,2.6426650390625,0.311290054962039,-0.2425087796807289,-0.17177987746298312
1633780305897544000,2.6625439453125,0.28649112927019593,-0.28406068725287914,-0.19755846184194087
1633780305917423000,2.682423095703125,0.23677812707424162,-0.2571113055288792,-0.22451924174278973
1633780305937303000,2.702302978515625,0.16995733821094036,-0.16010405271649358,-0.25423954948484895
1633780305957182000,2.722181884765625,0.09908931978344916,-0.06213701496124267,-0.29278087706416844
1633780305977061000,2.74206103515625,0.09672668230533599,-0.03716039461493492,-0.31736002252548934
1633780305996939800,2.761939697265625,0.1313210258245468,0.01377484285235405,-0.3378510218903422
1633780306016820000,2.781820068359375,0.11197101318836211,0.006612696138024329,-0.27991321218460796
1633780306036699100,2.80169921875,0.13327449797987936,-0.061109425479173654,-0.25425503931492566
1633780306056578000,2.821578125,0.09248772956132888,-0.22744389701783654,-0.17428280019462108
1633780306076458000,2.8414580078125,0.05014321030676364,-0.29537820008099075,-0.07892185328453778
1633780306096337200,2.861337158203125,-0.09246434868574142,-0.4892576811492443,0.017448270668089388
1633780306116216000,2.881216064453125,-0.21142156749963759,-0.41579964622855187,0.16218085899055004
1633780306136096000,2.901095947265625,-0.5411427666872739,-0.14549275903999806,0.22216274174451828
1633780306155975200,2.92097509765625,-0.520806665623188,-0.043429976403713225,-0.018516192160546778
1633780306175854000,2.94085400390625,-0.23947978724837302,0.09405249466001987,-0.04302987117022276
1633780306195733000,2.96073291015625,0.056201779693365095,0.13845920714139937,-0.019447627791762352
1633780306215613000,2.980613037109375,0.1442529881119728,0.20321137303709982,-0.048454526567459105
1633780306235492000,3.0004921875,0.19844635059237478,0.21863515214025972,-0.043859892253577705
1633780306255371000,3.02037109375,0.19171499651074408,0.2027472626566887,0.04558773895949125
1633780306275251000,3.0402509765625,0.09246785581707954,0.17594868758022783,0.11498831518292427
1633780306295130000,3.060130126953125,-0.02537058809995651,0.1733013879418373,0.1596416959017515
1633780306315008800,3.0800087890625,-0.07273030516803264,0.13221651335954665,0.1858653936997056
1633780306334888000,3.099887939453125,-0.06996843923926353,0.10757014788091182,0.14766308881640433
1633780306354768100,3.11976806640625,-0.09608838440179825,0.1302975279957056,0.07366992410570383
1633780306374646800,3.139646728515625,-0.14495675246715545,0.17748714919388292,-0.05559007753580808
1633780306394526000,3.15952587890625,-0.1543096872240305,0.1869745239853859,-0.19114158053696154
1633780306414406100,3.17940625,-0.13768120850622653,0.10414952578246593,-0.2250584631860256
1633780306434284800,3.199284912109375,-0.20093290671110153,0.1425152045339346,-0.198628721421957
1633780306454164000,3.2191640625,-0.18286358153522014,0.15972177540063856,-0.2477636314690113
1633780306474043000,3.23904296875,-0.13606091382801533,0.139935124912858,-0.28114304624050857
1633780306493923000,3.258923095703125,-0.031122868016362187,0.06505611727833747,-0.27616701139360667
1633780306513802000,3.278802001953125,0.127364981675148,-0.07334522219598293,-0.29463936441242694
1633780306533681000,3.298680908203125,0.08417465924620628,-0.11608078659474849,-0.25493396148979663
1633780306553561000,3.31856103515625,-0.030177111598849296,-0.1954752258270979,-0.16611615261286497
1633780306573440000,3.33843994140625,-0.017713351345062255,-0.286647781136632,-0.0724579179674387
1633780306593319000,3.35831884765625,-0.054440615239739414,-0.2828863827764988,-0.0036363106757402418
1633780306613199000,3.37819921875,-0.09428454985022544,-0.32356443012356756,0.02906885809600353
1633780306633078000,3.398078125,-0.08743219973742962,-0.28494448435008524,0.04447247119396925
1633780306652957000,3.41795703125,-0.09042904346585273,-0.1845247927457094,-0.0051405777588486665
1633780306672836000,3.437836181640625,-0.023646833047270773,0.062449734172225,-0.011066752937436104
1633780306692715800,3.4577158203125,0.06860942584574223,0.22240356476306913,0.014042553877830504
1633780306712595000,3.477594970703125,0.11756781028211116,0.3750853585243225,0.03394084804654121
1633780306732474000,3.49747412109375,0.20704116045832632,0.48667818605005736,0.09709493109583854
1633780306752353800,3.517353759765625,0.20321429564654825,0.5296054736286402,0.1297182668030262
1633780306772233000,3.53723291015625,0.20859715772867202,0.5319815551102162,0.18361995286047458
1633780306792112000,3.557112060546875,0.1888788963019848,0.4813526071131229,0.19231091657727956
1633780306811991000,3.576990966796875,0.09839607682228088,0.4199573504298925,0.1920370680719614
1633780306831871000,3.59687109375,0.07873977471590042,0.3176245186805725,0.21469021390676496
1633780306851750000,3.61675,-0.015909516793489457,0.18864450302422045,0.19955664992183444
1633780306871629000,3.636629150390625,-0.14354571662545204,0.08367956920564174,0.23429273999929426
1633780306891508700,3.6565087890625,-0.23025953896045684,-0.0252490075469017,0.16397358762621878
1633780306911388000,3.676387939453125,-0.2835708579093218,-0.10066343723237514,0.09250351165235042
1633780306931267000,3.69626708984375,-0.268521757337451,-0.16687340072095394,0.03808540050536394
1633780306951146000,3.71614599609375,-0.3511819203674793,-0.24141572374701498,0.024576222851872442
1633780306971026000,3.73602587890625,-0.3093459351569414,-0.3005664163738489,0.050367082190513605
1633780306990904800,3.75590478515625,-0.21493863570988178,-0.36741876941919327,0.05268471148312091
1633780307010784000,3.775783935546875,-0.1781944206804037,-0.33068098413050173,0.06566489682644605
1633780307030664000,3.795663818359375,-0.17214987981915472,-0.27306992216110226,0.13192775954604147
1633780307050542800,3.81554296875,-0.05367722965180874,-0.1988473326086998,0.21849282106012105
1633780307070422000,3.835422119140625,0.08694178587198256,-0.10344985308051109,0.2067696500405669
1633780307090300700,3.85530078125,0.134907067617774,-0.02101882263123989,0.21978841382861136
1633780307110180900,3.875180908203125,0.021240356427431106,0.11851415122151374,0.3234668149679899
1633780307130060000,3.89506005859375,-0.08154080361127852,0.2094692643880844,0.3109653530523181
1633780307149939000,3.91493896484375,-0.14025135125517843,0.440837056851387,0.1845563569277525
1633780307169819000,3.93481884765625,-0.203216633734107,0.5292658664107323,0.05810907461941242
1633780307189698000,3.954697998046875,-0.07059563122689723,0.531929532662034,-0.11303133589625358
1633780307209577000,3.974576904296875,0.03299216901957989,0.4262327774375677,-0.22698270924687383
1633780307229457000,3.994456787109375,0.10834113225340843,0.30383681634664533,-0.27519290566444393
1633780307249336000,4.014336181640625,0.18253566475510596,0.12774608994722367,-0.21355974857211113
1633780307269215000,4.034215087890625,0.247402396941185,-0.04112228398323059,-0.19364041161537168
1633780307289094000,4.054093994140625,0.31958792770802974,-0.2185533190757036,-0.20706278776824474
1633780307308974000,4.07397412109375,0.402539182639122,-0.44683425143957134,-0.13137801670879126
1633780307328853000,4.09385302734375,0.4080255050957203,-0.6623281829446553,-0.03866553848087787
1633780307348732000,4.11373193359375,0.284155964320898,-0.8295219016611576,0.08958440933525562
1633780307368611800,4.13361181640625,0.026921909195184706,-0.8847259024888277,0.24795535464882848
1633780307388491000,4.153490966796875,-0.12581950579881668,-0.8904594777047634,0.31561025624871253
1633780307408370000,4.173369873046875,-0.2059790841847658,-0.735634826695919,0.2515001876488328
1633780307428248800,4.193248779296875,-0.2561240480571985,-0.4708779748499393,0.25874825908094645
1633780307448129000,4.21312890625,-0.1167909806907177,-0.13419102830290794,0.2969298134371638
1633780307468007700,4.233007568359375,0.0876946500658989,0.2725865225583315,0.3141843150988221
1633780307487886800,4.252886962890625,0.3074316259682178,0.7506213834255934,0.34635552312433715
1633780307507767000,4.27276708984375,0.5144540817260742,1.1014052443861961,0.2784779186844826
1633780307527646000,4.29264599609375,0.6963444343149662,1.288465108567476,0.1580523808836937
1633780307547524900,4.31252490234375,0.7411585585534572,1.304168873655796,0.11361907265633343
1633780307567404000,4.332404052734375,0.636442631059885,1.1386129852741955,0.09759703539907932
1633780307587284000,4.352283935546875,0.4618564640045166,0.7639502360761166,0.06806582048833369
1633780307607163000,4.372162841796875,0.33224984088242054,0.3836906897842884,0.0035071313381195065
1633780307627041800,4.392041748046875,0.2760661813676357,0.061958735784888266,0.0004886602997779846
1633780307646922000,4.411921875,0.0010533084452152251,-0.24291151526272295,-0.04023147262334823
1633780307666801000,4.43180078125,-0.2877881833434105,-0.4516296690225601,-0.13420271874070167
1633780307686679800,4.4516796875,-0.3853103999406099,-0.5620160433679818,-0.13528613006323575
1633780307706559000,4.47155908203125,-0.5244920761376619,-0.6470137094348669,-0.1247773032695055
1633780307726439000,4.49143896484375,-0.6235299579948187,-0.6649012483030557,-0.25304274091571566
1633780307746317800,4.51131787109375,-0.6386895332038403,-0.6117383979141712,-0.4964321028232574
1633780307766197000,4.531197021484375,-0.4348129742562771,-0.5527122084498405,-0.5317886628866195
1633780307786077000,4.551076904296875,-0.2757002706646919,-0.3692892394661903,-0.5209840680167078
1633780307805955800,4.570955810546875,-0.15851999839544295,-0.1803296791434288,-0.39066666627675295
1633780307825835000,4.5908349609375,0.0018874211817979812,-0.06237433084845542,-0.2282420616582036
1633780307845714000,4.6107138671875,0.1509714827120304,0.035866847673058505,-0.10051906032562255
1633780307865593600,4.630593505859375,0.2103355258285999,0.12406009491086005,-0.07008446683436632
1633780307885472800,4.65047265625,0.2620230429679155,0.15700491765737531,-0.08905424798130988
1633780307905352000,4.67035205078125,0.2545423318237066,0.14641279649436473,-0.10454553936272859
1633780307925231600,4.690231689453125,0.21688567812442777,0.10621405709683894,-0.05537906513363123
1633780307945110800,4.71011083984375,0.16900047587752343,0.04789221650958061,0.06339198345839978
1633780307964990000,4.729989990234375,0.12951894483864307,0.017559037566184998,0.1501025909230113
1633780307984869600,4.74986962890625,0.15590893911421297,0.03223170604109764,0.21322569431215524
1633780308004748800,4.769748779296875,0.14512743285894394,0.03973755162656307,0.25670769316405057
1633780308024627700,4.789627685546875,0.15501637418866157,0.05972995381951332,0.2549041508734226
1633780308044507000,4.8095068359375,0.162639708673954,0.10246318013072013,0.213067581140995
1633780308064386800,4.82938671875,0.17713000631928444,0.09392682245373725,0.26910364887863397
1633780308084265700,4.849265625,0.11788637471199034,0.11426584612727164,0.2879132710278034
1633780308104145000,4.869144775390625,0.06851531782150268,0.11231003588438034,0.28624738364219665
1633780308124023600,4.8890234375,0.004468669846653938,0.18944997418820858,0.2312342292115092
1633780308143903700,4.90890380859375,-0.06277940451800823,0.22056290533244607,0.10814531742036342
1633780308163783000,4.928782958984375,-0.09532266072630882,0.22109774286150932,-0.011460136169195174
1633780308183661800,4.948661865234375,-0.13215689212679863,0.19337737676501274,-0.11591361333429813
1633780308203541800,4.968541748046875,-0.14082593627274034,0.07888181353509426,-0.18898411024212836
1633780308223421000,4.9884208984375,-0.10413958891034125,0.021931845822930333,-0.27270050432682036
1633780308243299800,5.0082998046875,-0.030856326034665107,-0.07678571803867816,-0.3347659153565764
1633780308263179800,5.0281796875,-0.007955342918634414,-0.24914310312867163,-0.3220651314765215
1633780308283059000,5.048058837890625,0.018865443989634512,-0.3044885582536459,-0.324658362840116
1633780308302937900,5.067937744140625,0.01466799229979515,-0.31987375891208647,-0.3590747194439173
1633780308322816800,5.087816650390625,-0.037385435542464256,-0.3180231626093387,-0.35348142948150635
1633780308342697000,5.107697021484375,-0.07618892118930816,-0.2815963429659605,-0.34338352157622576
1633780308362576000,5.127575927734375,-0.0883960763335228,-0.22032149779200552,-0.33087621444165705
1633780308382454800,5.147454833984375,-0.07304770055413246,-0.10633037695288658,-0.3003448825776577
1633780308402334700,5.167334716796875,-0.08366320259273052,0.00009878419935703278,-0.2410693945273757
1633780308422214000,5.1872138671875,-0.09431026881337165,0.08656944542825222,-0.2289759288907051
1633780308442092800,5.2070927734375,-0.024589666855335233,0.11106266617178916,-0.15961919180899858
1633780308461971700,5.2269716796875,-0.007618658310174942,0.17246727520525454,-0.06349778192043304
1633780308481852000,5.246851806640625,0.12577975831031799,0.16993687994480133,-0.028722821137309073
1633780308501730600,5.26673046875,0.2303168221056461,0.13152853109538554,0.013613807071745395
1633780308521609700,5.286609619140625,0.2522293787062168,0.07159165652692318,0.1067673070654273
1633780308541489000,5.306489013671875,0.26689795552790163,0.041731940314173696,0.19183891515135765
1633780308561368600,5.32636865234375,0.20808277846574783,0.03674363050758839,0.19082476967275142
1633780308581247700,5.346247802734375,0.12780863378942012,-0.011332125875353812,0.18024229312092066
1633780308601126700,5.366126708984375,0.09420856200456619,-0.06323650063574314,0.20237784482240675
1633780308621006800,5.3860068359375,0.021811434313654898,-0.07552022814750671,0.20430384444892405
1633780308640885800,5.4058857421875,-0.06594166794121264,-0.06478139199018478,0.17935732697993517
1633780308660764700,5.4257646484375,-0.10207388855218887,-0.1030482865422964,0.16994973942637442
1633780308680643800,5.445643798828125,-0.07234510524272918,-0.10900514912009239,0.18514204786121843
1633780308700523800,5.465523681640625,-0.07512041517496108,-0.043855508339405054,0.15743687933385372
1633780308720402700,5.485402587890625,0.007625088050961494,0.011673486658930778,0.13347557350993156
1633780308740281900,5.50528173828125,0.1268202072739601,0.02574702019691467,0.14998480976223943
1633780308760161800,5.525161865234375,0.17953356032967566,0.07388473590016365,0.1552306014612317
1633780308780040700,5.545040771484375,0.15521160449981689,0.09054068714678287,0.17909399986863137
1633780308799919900,5.564919921875,0.12001111178100109,0.10786182430386543,0.1913984779074788
1633780308819799800,5.5847998046875,0.05184475352764129,0.14391396541595458,0.14111293652057647
1633780308839678700,5.6046787109375,0.02935118216872215,0.2027887637108564,0.05222527727782726
1633780308859558000,5.624557861328125,-0.036810266003012654,0.1908557493329048,0.017663374723494052
1633780308879436500,5.6444365234375,-0.02298164713680744,0.11812252155542373,0.048857846671342846
1633780308899316500,5.66431640625,-0.01771276682317257,0.1284422555178404,0.023361878626048563
1633780308919195400,5.6841953125,-0.01478606572151184,0.10506430253982543,0.013401041103899478
1633780308939074600,5.704074462890625,0.008717559462785721,0.07466039644777775,0.06684855365306139
1633780308958953500,5.723953369140625,0.044476855108141894,0.07071487369239329,0.05496610041856766
1633780308978833400,5.74383349609375,0.05186521179378032,0.09521160156726836,0.009279284998774527
1633780308998712600,5.763712646484375,0.08616904793381691,0.09797171393036842,-0.025887305450439452
1633780309018591500,5.783591552734375,0.06929916167557239,0.11705810719430446,-0.06841536457836628
1633780309038471400,5.803471435546875,0.019521862071752546,0.0905395181030035,-0.042186698344349856
1633780309058350600,5.8233505859375,-0.022741993162035942,0.06636486178934574,0.0054810617595911024
1633780309078229500,5.8432294921875,-0.05652794290781021,0.06458382359147072,-0.02071340994387865
1633780309098108400,5.8631083984375,-0.03204582808017731,-0.01698036089539528,-0.03182897045910358
1633780309117988600,5.882988525390625,-0.05672726487219333,-0.08888532115519046,0.014219956271350384
1633780309137867500,5.902867431640625,-0.13524842840135096,-0.19656068297624588,0.13191197745501995
1633780309157746400,5.922746337890625,-0.17020926714539528,-0.20215221937298775,0.1666761245831847
1633780309177626600,5.942626708984375,-0.16368424929082392,-0.14034370571374893,0.13734598520249128
1633780309197505500,5.962505615234375,-0.1042769515544176,-0.08673778773248195,0.05901654485315084
1633780309217384700,5.982384765625,-0.0648112026065588,-0.0003565583527088165,0.010607026471197604
1633780309237263400,6.002263427734375,0.02557809337079525,0.05033610253036022,0.012290449513494967
1633780309257143600,6.0221435546875,0.08259586562216281,0.08249298976957797,0.05667582694590091
1633780309277022700,6.042022705078125,0.14302724570930003,0.12577274404764174,0.05934679972082376
1633780309296901400,6.0619013671875,0.19132453588843346,0.1301765319645405,0.06973492274433374
1633780309316781600,6.081781494140625,0.22934826933443545,0.09370645770132541,0.10144523525983094
1633780309336660500,6.101660400390625,0.13560557127594947,0.07620937945544719,0.10209142420887947
1633780309356539400,6.121539306640625,0.06335048240423202,0.05597206259071827,0.0645493367999792
1633780309376418600,6.14141845703125,0.014717676660418509,0.04250000207722187,0.011048925019800662
1633780309396298500,6.161298583984375,-0.07342705526053905,0.03761339907944202,-0.020498305888473987
1633780309416177400,6.181177490234375,-0.1158101529598236,0.0007400047123432159,-0.05025193137824535
1633780309436056600,6.201056640625,-0.11258359212875366,0.018920389047265052,-0.11154343542605638
1633780309455936500,6.2209365234375,-0.14733926368951797,0.025061960542201993,-0.15329904887676238
1633780309475815400,6.2408154296875,-0.14862462732493875,-0.010272387689352035,-0.11259966648072003
1633780309495694300,6.2606943359375,-0.14735270769298076,-0.05364274286031723,-0.09118132313787937
1633780309515573500,6.280573486328125,-0.07287292850911617,-0.12442483657002448,-0.048963937394320964
1633780309535453400,6.300453369140625,-0.098800565969944,-0.1326151572883129,0.049939796689152716
1633780309555332400,6.320332275390625,-0.12528934444487094,-0.10918109020888805,0.062247489598393435
1633780309575211500,6.34021142578125,-0.11027999136149882,-0.08572130416631699,-0.03734510353207588
1633780309595091500,6.360091552734375,-0.1371504626303911,0.00008767828345298767,-0.044106268230080604
1633780309614970400,6.379970458984375,-0.14401625674664972,0.05209317533075809,-0.0024698972448706624
1633780309634849500,6.399849609375,-0.0643190351754427,0.0875853444725275,0.009885141937434673
1633780309654728400,6.419728515625,0.028927988320589064,0.14601473708748816,0.007357377025485039
1633780309674608400,6.4396083984375,0.07103694525361061,0.1309077688485384,0.03656564359217882
1633780309694487600,6.459487548828125,0.12527473139762876,0.14221300671696663,0.08626666308939457
1633780309714366500,6.479366455078125,0.12499649897813796,0.14806757796406744,0.09366846377849579
1633780309734246400,6.499246337890625,0.15340134020745752,0.16878011112511157,0.061298518310487264
1633780309754125600,6.51912548828125,0.14712182154655457,0.1564391004681587,0.05179390012323856
1633780309774004500,6.53900439453125,0.15319617302417754,0.10037877507209778,0.03687017949670553
1633780309793883600,6.558883544921875,0.14536533326804638,0.04328618401885032,0.023996377137303352
1633780309813763300,6.578763427734375,0.09989946712255478,0.0029319617986679077,0.03364624901413917
1633780309833642500,6.598642578125,0.03521159863471985,-0.07032908924520015,0.008818681749701499
1633780309853521700,6.618521728515625,-0.02931201920211315,-0.13118424770236015,0.03780336869359016
1633780309873402400,6.63840234375,-0.13199965573847294,-0.21595395023226738,0.0681003072798252
1633780309893281500,6.658281494140625,-0.16316168672144413,-0.15863339564204215,0.043811084675788876
1633780309913160400,6.678160400390625,-0.1988210291236639,-0.09008359102904796,-0.01573152987807989
1633780309933039400,6.698039306640625,-0.15868074191510675,-0.03628770343363285,0.020316227319836615
1633780309952919600,6.71791943359375,-0.19529227047562597,0.0306301160633564,0.010052315197885036
1633780309972798500,6.737798583984375,-0.14422376201748846,0.10975099905133247,-0.028834757079184054
1633780309992677400,6.757677490234375,-0.06318856984078884,0.16116203733682632,-0.05171148253679275
1633780310012557600,6.7775576171875,0.01475683962702751,0.1775491085141897,-0.0473000958353281
1633780310032436500,6.7974365234375,0.08198971642255783,0.1750882713586092,-0.025618425381183623
1633780310052315400,6.8173154296875,0.15357845034003256,0.1708878970593214,-0.03393412604480982
1633780310072194300,6.8371943359375,0.22956571147739885,0.11716449017822742,-0.041972763332724566
1633780310092074500,6.857074462890625,0.25272680683434007,0.005555296039581299,0.06321925723999738
1633780310111953400,6.876953369140625,0.2687134805172682,-0.001107084459066391,0.11064824015200138
1633780310131832300,6.896832275390625,0.3536988716244697,-0.07977847011387347,-0.015864216347038745
1633780310151712500,6.91671240234375,0.2884761656075716,-0.15399404540359973,0.0712589174412191
1633780310171591400,6.93659130859375,0.19963819072544572,-0.22542788102030753,0.22535218543559313
1633780310191470300,6.95647021484375,0.21805530642569063,-0.2294160738736391,0.18105653211325407
1633780310211349500,6.976349609375,0.1463011528134346,-0.17237842787802218,0.08789557946547866
1633780310231229200,6.996229248046875,0.016143910071253775,-0.11382920827567576,-0.026945874592661855
1633780310251108400,7.0161083984375,-0.07198094810545444,-0.05253799648880958,-0.12896321065202354
1633780310270987500,7.035987548828125,-0.17340309475064278,0.006201192727684974,-0.20179770684689283
1633780310290866400,7.055866455078125,-0.30500118395090103,0.023341712620854375,-0.41726211999654766
1633780310310746400,7.075746337890625,-0.3484077794790268,0.043078678748011585,-0.5186673155069351
1633780310330625300,7.095625244140625,-0.2750824310272932,-0.039627076989412306,-0.5650055805727839
1633780310350504400,7.11550439453125,-0.1969645876020193,-0.11923603575527668,-0.5759323405176401
1633780310370384400,7.13538427734375,-0.16425298908948896,-0.11910568737387657,-0.49061844810843463
1633780310390263300,7.15526318359375,-0.012577157500386238,-0.11166823084950446,-0.4115542637437582
1633780310410142500,7.175142578125,0.08499357441365718,-0.0904436565130949,-0.38268209726363417
1633780310430021600,7.195021728515625,0.14619886148273945,-0.0909276406377554,-0.2155868704855442
1633780310449901300,7.2149013671875,0.15331600001156329,-0.0900081877052784,-0.01350157886892557
1633780310469780500,7.234780517578125,0.16398293997645377,-0.08661912978887558,-0.01607844361960888
1633780310489659400,7.254659423828125,0.12845219238996505,-0.04098725942671299,0.07365735688507556
1633780310509539300,7.274539306640625,0.2089899564385414,-0.03463993622660637,0.01832096184939146
1633780310529418500,7.29441845703125,0.20525076991021632,-0.11279694261848926,-0.19270079267770052
1633780310549297400,7.31429736328125,0.03088847473859787,-0.1727127743989229,-0.3771291393116116
1633780310569176300,7.33417626953125,-0.031574703437089915,-0.14442483754754065,-0.46002004235759375
1633780310589056500,7.354056396484375,-0.13258183954060077,-0.10257073215842247,-0.3663781743250787
1633780310608935400,7.373935302734375,-0.09047171356379985,-0.03966507091224193,-0.39157837429419157
1633780310628814300,7.393814453125,-0.026442601245641708,-0.1279664546996355,-0.34900574537217616
1633780310648694500,7.413694580078125,0.016449615019559858,-0.07714344543516635,-0.09806582195460796
1633780310668573400,7.433573486328125,0.07585399014651775,0.017931962531805037,0.09677388244792819
1633780310688452600,7.45345263671875,0.10578092637658118,0.09892857626378536,0.2869147615097463
1633780310708331300,7.473331298828125,0.11796119351387023,0.09497194759249687,0.5269420996382832
1633780310728211500,7.49321142578125,0.19690087471604345,0.21874796486496925,0.629469284915924
1633780310748090600,7.513090576171875,0.10562427451014518,0.2385340308308601,0.6536196835711598
1633780310767969300,7.53296923828125,-0.04190788140296936,0.35440555858910083,0.6409604007452726
1633780310787849500,7.552849365234375,-0.11280278783738612,0.4565601111620664,0.5446016749694943
1633780310807728600,7.572728759765625,-0.13894494483172892,0.43880993493795395,0.4568316215798259
1633780310827607300,7.592607177734375,-0.17514613902568815,0.4553238473653793,0.2678893046528101
1633780310847486500,7.612486572265625,-0.1216834289073944,0.4003121542394161,0.06942454162091016
1633780310867365000,7.632365234375,-0.03586626315116882,0.2669160757064819,-0.006003916589915752
1633780310887244300,7.652244384765625,0.0036550153762102125,0.11336334432959556,0.019284838445484637
1633780310907123200,7.672123291015625,0.04903729489147663,0.038377953711152074,-0.04100596412718296
1633780310927002000,7.692002197265625,0.1721072097212076,-0.07402151402235031,-0.007470189750194549
1633780310946882000,7.711882080078125,0.19206103346943854,-0.16491525239050386,-0.04414893832802772
1633780310966761200,7.73176123046875,0.23926292962729928,-0.11170856285989283,-0.03936638022661209
1633780310986640100,7.75164013671875,0.2230541376262903,-0.10321604432463645,0.08411445349156856
1633780311006520000,7.77152001953125,0.20818156266510485,-0.025893150669336316,0.1528273397117853
1633780311026399200,7.791399169921875,0.1916530371904373,0.026730186015367505,0.15812661516368387
1633780311046278100,7.811278076171875,0.14838555787205696,-0.011029928058385848,0.1170125144869089
1633780311066157000,7.831156982421875,0.11840659919381141,0.04716857841014862,0.0035360651716589927
1633780311086037200,7.851037353515625,0.0806751266926527,0.03475333347320556,0.001147124208509922
1633780311105916000,7.870916015625,0.012788169902563094,0.007266776132583618,0.0011953472644090652
1633780311125795000,7.890795166015625,-0.05950023671686649,-0.0638180999159813,0.024425708465278147
1633780311145675300,7.91067529296875,-0.11246610322892665,-0.08079495368003844,0.07385638658851384
1633780311165554000,7.930553955078125,-0.10994038414359092,-0.07127601470649242,0.10437924288511276
1633780311185433000,7.95043310546875,-0.11847323468923568,0.05380699351131916,0.1357008483439684
1633780311205312000,7.97031201171875,-0.0676695146471262,0.1581038188099861,0.12656506346911192
1633780311225192200,7.990192138671875,0.015412088665366171,0.31698154460191724,0.3919546602606773
1633780311245071000,8.010071044921874,0.11552490627765655,0.6850052941769361,1.0575371688261628
1633780311264950000,8.029949951171876,0.3682961367756128,0.9481500346511602,1.6943571087658404
1633780311284830200,8.049830322265626,0.6538280656248331,1.1373293752044438,1.631072677335143
1633780311304709000,8.069709228515626,1.071059790483117,1.169119767218828,1.3956763600081206
1633780311324588000,8.089588134765625,0.8837222784042358,1.082535124221444,0.7117815112911164
1633780311344467200,8.10946728515625,0.8833522760480642,0.8424357437700033,0.614306056445092
1633780311364347100,8.12934716796875,0.3240641963392496,0.6543968054234981,0.49536432746127246
1633780311384226000,8.14922607421875,-0.26161153955757616,0.32601825301647186,0.4062639022506773
1633780311404105200,8.169105224609375,-0.5370411765873432,-0.05339607462286949,0.029826690725982187
1633780311423985000,8.18898486328125,-0.4808113398432731,-0.3172527627587318,-0.3911855755843222
1633780311443864000,8.208864013671874,-0.5553846425294876,-0.5941641627788543,-0.8790833665572106
1633780311463743200,8.2287431640625,-0.5464221683949232,-0.678683105418086,-1.1675034180633723
1633780311483622100,8.2486220703125,-0.6057943948179483,-0.6668430300205945,-1.2255650002792478
1633780311503502000,8.268502197265626,-0.6278507438033819,-0.7311807698965073,-1.1860590654514729
1633780311523381200,8.28838134765625,-0.5924059209346771,-0.6499965246379376,-1.0001226523421705
1633780311543260200,8.30826025390625,-0.5269137503266335,-0.4910846043154597,-0.8903688768118619
1633780311563140000,8.32814013671875,-0.4536544528484344,-0.428291171272099,-0.8203443234711885
1633780311583019000,8.34801904296875,-0.2950181345969438,-0.39168431888669725,-0.7970487880796193
1633780311602898200,8.367898193359375,-0.04408931709527969,-0.38428865567743775,-0.7891042588159441
1633780311622777300,8.38777734375,0.00571077886223793,-0.3439700892925262,-0.7150996959283947
1633780311642657000,8.407656982421875,-0.021260814693570135,-0.3108540016323328,-0.6412739967390895
1633780311662536200,8.4275361328125,0.023956629648804663,-0.27760639654695984,-0.4270923168763518
1633780311682415000,8.4474150390625,0.12422083843052387,-0.19353695124089718,-0.18095029525980352
1633780311702295000,8.467294921875,0.11264438240528106,-0.08268471294939518,0.049279140823334455
1633780311722174200,8.48717431640625,0.14550269591212273,0.0016939444363117217,0.11147986867055296
1633780311742053000,8.50705322265625,0.1861766516059637,0.09437281265556811,0.0863553642861545
1633780311761932000,8.52693212890625,0.15595862347483633,0.15141981100142002,0.12528276857361198
1633780311781812200,8.546812255859376,0.0965694459170103,0.18220131823420524,0.2073433582752943
1633780311801691100,8.566691162109375,0.04069616752564907,0.20590777251422404,0.2516692606054246
1633780311821570000,8.586570068359375,-0.0038169279396533962,0.1964239048540592,0.29859628534466026
1633780311841450200,8.6064501953125,-0.060062546774744985,0.20632161401212215,0.3002501900315285
1633780311861329200,8.6263291015625,-0.026270167288184165,0.15259469999969005,0.2647976222477853
1633780311881208600,8.64620849609375,-0.0016080197185277937,0.140619600045681,0.18987053768783807
1633780311901087500,8.66608740234375,0.060875032201409336,0.10239128393828868,0.15114303988665342
1633780311920967700,8.6859677734375,0.023294366347789763,0.07940671419203281,0.13766630319803952
1633780311940846600,8.7058466796875,0.08346563419401645,0.005350128856301308,0.0885217485398054
1633780311960725500,8.7257255859375,0.1008347021460533,0.029001053556799886,0.04153875582963228
1633780311980605700,8.745605712890624,0.05619008925557136,0.003705868780612945,-0.015570932488888502
1633780312000484600,8.765484619140626,0.0989227310448885,-0.03895020064115524,-0.0934869697317481
1633780312020363500,8.785363525390625,0.12905249637067318,-0.07905483201444148,-0.1514940452814102
1633780312040242700,8.80524267578125,0.07239303603768349,-0.11120996568799019,-0.1899517862305045
1633780312060122600,8.82512255859375,0.043669045856595035,-0.09248656051754951,-0.1960598938472569
1633780312080001500,8.84500146484375,-0.013916297149658202,-0.10920856273770331,-0.20455314303487537
1633780312099880700,8.864880615234375,-0.043729251611232756,-0.12343699457645416,-0.2012074858687818
1633780312119760600,8.8847607421875,-0.03304068433642387,-0.16217209116220474,-0.17966741584241389
1633780312139639600,8.9046396484375,-0.07719722144901751,-0.11292319934666156,-0.15052067020460963
1633780312159518700,8.924518798828124,-0.06387129140794277,-0.09199556213021277,-0.10895239601954818
1633780312179397600,8.944397705078124,-0.05787058968842029,-0.06772387518286704,-0.08892536090463399
1633780312199277600,8.964277587890624,-0.025038579666614533,-0.025374679753184318,-0.05432867929786443
1633780312219156500,8.984156494140626,-0.06150865392982959,-0.011745967373251915,0.021055793640762568
1633780312239035600,9.00403564453125,-0.04404430890977382,0.02605214062333107,0.05829758292883634
1633780312258915600,9.02391552734375,0.01573942092359066,0.07756430119574069,0.04322451695948839
1633780312278794500,9.04379443359375,0.01764437776207924,0.11796762325465679,0.05196063499227166
1633780312298673700,9.063673583984375,0.15800035843551158,0.12730711400806904,0.1732467351451516
1633780312318552800,9.083552734375,0.20282266598045826,0.12810323282182215,0.20255612399876116
1633780312338432500,9.1034326171875,0.10775544131994247,0.12602818011343478,0.11385565789118408
1633780312358311700,9.123311767578125,-0.03192366300523281,0.10097557192146778,-0.04027838050499558
1633780312378190600,9.143190673828125,-0.2054261264771223,0.09475859710276126,-0.09137406923100352
1633780312398070500,9.163070556640625,-0.3055249155640602,0.06188216341733932,-0.09772007725685834
1633780312417949700,9.18294970703125,-0.19803601622581482,0.005896072301268577,-0.14969590981826186
1633780312437828600,9.20282861328125,-0.09220365192294121,-0.0445943440079689,-0.16281769558936357
1633780312457707500,9.22270751953125,0.058818684193491934,-0.07969312991797924,-0.13411153332591055
1633780312477587700,9.242587646484376,0.1771358515381813,-0.046799160575866694,-0.07776362316012382
1633780312497466600,9.262466552734375,0.18353402814269065,-0.08692366569340229,-0.05213555316776037
1633780312517345800,9.282345703125,0.08158347370922565,-0.08426175300776959,-0.08451397420316933
1633780312537225700,9.302225830078125,0.013223054188489913,-0.027836101430654524,-0.12023761401325464
1633780312557104600,9.322104736328125,0.01843991205394268,0.03337444633543491,-0.12668985889256
1633780312576983800,9.34198388671875,0.010854571491479873,-0.04711947857141494,-0.021482786881178616
1633780312596862500,9.361862548828125,0.030827684462070463,0.024119126734137533,0.020847265456616876
1633780312616742700,9.38174267578125,0.08594459152817725,0.02919569934606552,0.05075871185660362
1633780312636621800,9.401621826171874,0.1527975290954113,0.011417466071248054,0.007046119119226932
1633780312656500500,9.42150048828125,0.1125210482865572,0.0215150817155838,-0.01815145050138235
1633780312676380700,9.441380615234374,0.043166357031464576,-0.013147066342830657,-0.07580547482967376
1633780312696259800,9.461259765625,0.01472118379175663,0.0015659341424703597,0.015596213060617446
1633780312716138500,9.481138427734376,-0.016132219633460045,-0.025998364609479904,0.004239537265896797
1633780312736018700,9.501018798828126,-0.014545242702960967,-0.04262450523972511,0.024152006090432405
1633780312755897600,9.520897705078125,0.06164017135500908,-0.06755085670351982,0.006418050348758697
1633780312775776500,9.540776611328125,0.04674304647445678,-0.05268237339556217,-0.03135463094562292
1633780312795655700,9.56065576171875,0.003301379632949829,-0.05275660767555237,0.007811258272826671
1633780312815535600,9.58053564453125,-0.027829087167978286,-0.00779693748652935,0.010819354047626257
1633780312835414500,9.60041455078125,-0.024726444977521893,0.020394553253054618,-0.012101795073598622
1633780312855293400,9.62029345703125,-0.010302782827615738,0.03741875329017639,-0.014556640879809856
1633780312875172900,9.6401728515625,0.03504910154938698,0.05426175154149532,0.008593933083117008
1633780312895052800,9.660052734375,0.040776831546425814,0.08415420098006725,0.039699849964678284
1633780312914932000,9.679931884765624,0.04220774113237857,0.061792731568217275,0.07624561981260776
1633780312934811000,9.699810791015626,0.08751870897710323,0.03207505417466163,0.05903510342314839
1633780312954690800,9.71969091796875,0.06395137090682983,0.007237550038099288,0.05311930350810289
1633780312974569700,9.73956982421875,0.005498012894392014,0.018877134427428246,0.06972089421898126
1633780312994449000,9.759448974609375,-0.013403671452403067,0.005074234524369239,0.07595379725918174
1633780313014328800,9.779328857421875,0.01974222682416439,-0.008886486288905144,0.04137669713571667
1633780313034207700,9.799207763671875,0.000025134441256523132,0.010385784935951232,0.04914133978784084
1633780313054087000,9.8190869140625,-0.012694061878323554,0.024397943675518036,0.06340659650564193
1633780313073966000,9.838966064453125,-0.007329319974780082,0.040433132675290105,0.06532631252184509
1633780313093845800,9.858845703125,0.02605214062333107,0.0514829344779253,0.039662878955155606
1633780313113725000,9.878724853515624,0.016267244189977645,0.0799777920782566,-0.012027560793608427
1633780313133603800,9.898603759765624,0.03350596376061439,0.06231704770326614,0.014387714053690433
1633780313153483800,9.91848388671875,0.025474632996320724,0.04892331312298774,0.037411154505610465
1633780313173363000,9.938363037109376,0.07933072634637356,0.0734510206580162,0.02089724207818508
1633780313193241900,9.958241943359376,0.09967968689203262,0.07274024204015732,0.01412818633466959
1633780313213121000,9.97812109375,0.08804945485293865,0.04068973778486252,0.07594312973469496
1633780313233001000,9.9980009765625,0.07126198618113994,0.010173603489995003,0.0487238450281322
1633780313252880000,10.0178798828125,0.06532265926003455,0.0559095187485218,0.008337181843072175
1633780313272759000,10.037759033203125,0.06900806977450848,0.053610009634494776,0.029179917255043982
1633780313292639000,10.057638916015625,0.03056172700226307,0.05413549481332302,-0.0035902795769274234
1633780313312518000,10.077517822265625,-0.014728782576322555,0.04284486999213695,-0.02947539307028055
1633780313332397000,10.09739697265625,0.02686345700621605,0.06325754342377185,-0.011051555368304253
1633780313352276000,10.11727587890625,-0.006178396373987197,0.07792787381112574,-0.04835281975865364
1633780313372156000,10.137156005859374,-0.05105915610790252,0.05915536880195141,-0.03339841173291206
1633780313392035000,10.15703515625,-0.029397943919897078,-0.008714636853337288,-0.0018142098151147363
1633780313411914000,10.1769140625,0.002203647524118423,0.0138379712164402,-0.01132657291740179
1633780313431794000,10.1967939453125,-0.0060404492080211635,0.015307459247112274,-0.029704671781510112
1633780313451673000,10.216673095703126,0.05925532204508781,-0.002908580923080444,-0.005179448464512825
1633780313471552000,10.236552001953125,0.042861236605048175,0.007815057665109634,-0.0019449965879321097
1633780313491431000,10.256430908203125,0.012710428491234778,0.04076514110863209,-0.014376608137786387
1633780313511310800,10.276310791015625,0.01890343791246414,0.018110826230049133,-0.0059556935340166085
1633780313531190000,10.29618994140625,0.035624271088838574,0.035704350587725635,0.009786796129494905
1633780313551069000,10.31606884765625,0.037463761475682256,0.0018429975181818007,-0.005746142436563968
1633780313570948900,10.335948974609375,0.008342296409606932,-0.0004734627306461334,0.007825579059123993
1633780313590828000,10.355828125,-0.006193593943119049,-0.059468672534823415,0.052676382046192884
1633780313610706700,10.375706787109374,-0.029229017093777655,-0.04042202675938606,0.03984700335040688
1633780313630585900,10.3955859375,0.008950783696770668,-0.01833060646057129,0.041719519224017856
1633780313650466000,10.415466064453126,-0.021418051081895827,-0.03496902205049991,0.05477656919583678
1633780313670344700,10.4353447265625,0.02998772650659084,0.012449731728434561,0.019711247164011
1633780313690223900,10.455223876953125,0.07314648475348949,-0.00023965397477149962,0.01044058386310935
1633780313710102800,10.475102783203125,0.07914660195112228,-0.00542319409251213,0.0285778597086668
1633780313729983000,10.49498291015625,0.033035423639416694,0.0037228199154138563,0.07738777558505534
1633780313749862000,10.51486181640625,0.038456279644370074,0.009931611427664756,0.10084916906282305
1633780313769740800,10.53474072265625,0.07670330045223235,0.032282559445500375,0.0714797205850482
1633780313789621000,10.55462109375,0.07600888844728469,0.02086801598370075,0.02050941180437803
1633780313809500000,10.5745,0.0503062919139862,0.05164660060703754,0.0031987960413098334
1633780313829378800,10.59437890625,0.05705576617419719,0.04090601088404655,0.010990911222249268
1633780313849259000,10.614259033203124,0.057473114803433416,-0.03434709075987339,0.01555222778841853
1633780313869137700,10.6341376953125,0.00606850625872612,-0.008570259946584701,0.02337240002006292
1633780313889016600,10.6540166015625,-0.03691898707449436,-0.028738018706440924,0.03978562855198979
1633780313908895700,10.673895751953125,-0.019178163200616834,-0.03005319295823574,0.00839621855393052
1633780313928775700,10.693775634765625,0.001685176607966423,-0.030849896293878555,-0.06086787180826068
1633780313948654600,10.713654541015625,-0.010452420431375503,-0.0011105915904045104,-0.08491437169760466
1633780313968533800,10.73353369140625,-0.03807341780662536,-0.007362637722492218,-0.06010609365552663
1633780313988413000,10.753412841796875,-0.014207973572611807,-0.008960720568895339,-0.0331049817442894
1633780314008292600,10.773292724609375,-0.01144903025329113,0.01272211892902851,-0.06472527788877487
1633780314028171800,10.793171875,-0.024279285731911657,-0.010656418570876122,-0.04374810244217515
1633780314048050700,10.81305078125,0.01810556553304195,-0.0006382979035377502,-0.047197366113215684
1633780314067930600,10.8329306640625,0.07281973701715469,0.018871873730421065,-0.06129354987442493
1633780314087809800,10.852809814453124,0.11781272495388984,0.00011807342171669006,-0.06347557008862495
1633780314107688700,10.872688720703126,0.10824468614161013,-0.017810381978750227,-0.007816226708889007
1633780314127568000,10.89256787109375,0.09881459449529648,0.029309096592664716,0.025876053404062984
1633780314147447800,10.91244775390625,0.12542378447949887,0.03022562691569328,-0.022573943118751046
1633780314167326700,10.93232666015625,0.13697452154159545,0.04084814321696758,-0.02951543281972408
1633780314187206000,10.952205810546875,0.0720306324660778,0.01180500408411026,0.02682020238637924
1633780314207085800,10.9720859375,0.016565350353717805,0.024321955829858778,0.05169760014191269
1633780314226964700,10.99196484375,-0.005349544334411621,0.026087211936712262,0.0006892974384129047
1633780314246844000,11.011843994140625,-0.050716626280546184,0.048262803387641905,0.0013566753059625625
1633780314266722600,11.03172265625,-0.061008887714147565,0.003096212449669838,0.04576689491868019
1633780314286602800,11.051602783203125,-0.06504091970920563,-0.023545126238465306,0.015178572170436382
1633780314306482000,11.07148193359375,-0.0798731626600027,0.0009878419935703277,0.0005019581727683544
1633780314326360600,11.091360595703126,-0.04765022444725037,-0.016746552139520643,0.02350800909847021
1633780314346240800,11.11124072265625,-0.060787938439846034,0.021880992418527603,-0.010932751294225454
1633780314366120000,11.131119873046876,-0.01580430285334587,0.01545183615386486,-0.030652327895164488
1633780314385998800,11.150998779296875,0.05717617768347263,0.0038221886366605756,-0.03277063522338867
1633780314405877800,11.170877685546875,0.08953004879951476,0.0048310734182596205,-0.04744841826483607
1633780314425757700,11.1907578125,0.0924696093827486,-0.003159340813755989,-0.050696752536296845
1633780314445636900,11.210636962890625,0.06853928321897983,0.025465865167975422,-0.06864873494282364
1633780314465515800,11.230515869140625,0.09305471579432487,-0.013370353704690932,-0.02899520833790302
1633780314485395700,11.250395751953125,0.08682137436270713,-0.06704232265949249,0.01913052466660738
1633780314505275000,11.27027490234375,0.07797638912796974,-0.02293430086374283,-0.013747078062593936
1633780314525153500,11.290153564453124,0.058065819999575614,-0.01271861179769039,-0.0018145020760595798
1633780314545032700,11.31003271484375,0.03587970715463161,-0.012619243076443671,0.031859803988784546
1633780314564913000,11.329912841796874,-0.002143441769480705,0.022438041779398916,0.035715894895046944
1633780314584791600,11.34979150390625,-0.021834815189242362,0.04396072227954864,0.028593349538743495
1633780314604670700,11.369670654296876,0.002230535531044006,0.07780980038940906,-0.006106792442500591
1633780314624550000,11.3895498046875,-0.003867196822166443,0.09612871641218662,0.04509411022365093
1633780314644429600,11.4094296875,-0.022241057902574538,0.07983809134662151,0.02660012989491224
1633780314664308700,11.429308837890625,-0.020665186887979508,0.08377309270799159,0.012848375657200813
1633780314684187600,11.449187744140625,0.019404373171925542,0.006476502537727356,0.013914543583989143
1633780314704067600,11.469067626953125,0.03773673319816589,0.00015197569131851195,-0.04349602737724781
1633780314723946800,11.48894677734375,-0.0013028992921113966,-0.013534604355692863,-0.023781126951426267
1633780314743825700,11.50882568359375,0.02157821007966995,-0.03483399749398231,-0.01514642346650362
1633780314763704800,11.528704833984374,0.021750644037127495,-0.043617607930302615,-0.07192498013451695
1633780314783584800,11.548584716796874,0.054797173592448234,-0.049235447812080384,-0.11453867171928286
1633780314803463700,11.568463623046876,0.06012333705127239,-0.0783832163631916,-0.061922787688672536
1633780314823342800,11.5883427734375,-0.02892155857980251,-0.09176467598378658,-0.009189268627762794
1633780314843222800,11.608222900390626,-0.10065876105725764,-0.06332885509431362,-0.020547990249097346
1633780314863101700,11.628101806640625,-0.06891045461893082,-0.05829612162411212,-0.025311405258625744
1633780314882980900,11.64798095703125,-0.02087678381204605,-0.007484218275547027,-0.029448651193827387
1633780314902859800,11.66785986328125,0.054445291414856906,-0.002526303607225418,-0.03181479580327868
1633780314922739700,11.68773974609375,-0.03650163844525814,0.056686348339915274,-0.029500819772481916
1633780314942619000,11.707618896484375,0.146714409789443,0.0189051914781332,0.06808671714589
1633780314962497800,11.727497802734375,0.18661328945755956,0.038163434177637096,0.1336034376733005
1633780314982377700,11.747377685546875,0.08928513412773609,0.06430266856253147,0.09071487466990948
1633780315002257000,11.7672568359375,0.04895078565180301,0.054746904709935186,0.07467457110360265
1633780315022135800,11.7871357421875,0.053609425112605094,0.046773441612720484,0.09974661464840173
1633780315042014700,11.8070146484375,0.06284662453532218,0.008241174122691155,0.13477058175653217
1633780315061895000,11.82689501953125,-0.07819733840227126,0.05699789850711822,0.06572627162486315
1633780315081773800,11.84677392578125,-0.12322305956482886,0.09651391633749008,-0.026912849105894563
1633780315101652700,11.86665283203125,-0.09606617256999016,0.05657119752764701,-0.054229602837562556
1633780315121531600,11.88653173828125,-0.07661094599366187,0.00042027123868465424,-0.07139905656427145
1633780315141411800,11.906411865234375,-0.05435761313140392,-0.012879355317354202,-0.09361877941787243
1633780315161291000,11.926291015625,-0.05147065951824188,-0.03618132044970989,-0.09857362534627317
1633780315181169700,11.946169677734375,0.0034340661019086837,-0.06799217073023318,-0.11968480243608355
1633780315201049900,11.9660498046875,0.08085457491278648,-0.08921732958853244,-0.13734759263768792
1633780315220929000,11.985928955078125,0.09967091906368732,-0.0936368995964527,-0.1193779284439981
1633780315240807700,12.0058076171875,0.10030278722643851,-0.049722354546189305,-0.0399389194175601
1633780315260686800,12.025686767578126,0.13752864829301834,-0.014988310295343399,-0.003243511965870857
1633780315280566800,12.04556689453125,0.07127484566271304,0.022841946405172345,0.015682137778401373
1633780315300445700,12.06544580078125,0.03201075676679611,0.06405950745642185,0.06979089071527123
1633780315320324900,12.085324951171875,0.032605215528607366,0.07788286562561988,0.1056993855729699
1633780315340204800,12.105204833984375,0.0032090251743793485,0.15214111101329325,0.10153481323942541
1633780315360083700,12.125083740234375,-0.020837036323547362,0.12621639616191385,0.15444456565007567
1633780315379962600,12.144962646484375,-0.03286298968195915,0.10874679044485092,0.18051029640734195
1633780315399841800,12.164841796875,-0.02233107427358627,0.12359598453044891,0.11507584733590483
1633780315419721700,12.1847216796875,-0.0669113897562027,0.13181962299644948,0.11039981834888457
1633780315439600600,12.2046005859375,0.02189969711899757,0.11221475881636142,0.06634323447942733
1633780315459479800,12.224479736328124,0.017211831563711165,0.10362170251607894,-0.014231354448199271
1633780315479359700,12.24435986328125,0.08848667722642421,0.0560708467900753,-0.03264233266860247
1633780315499238700,12.26423876953125,0.12539046673178672,0.02694879720211029,-0.06660188541561365
1633780315519117800,12.284117919921876,0.12376315779089928,-0.01761632071137428,-0.038126755429059266
1633780315538996700,12.303996826171876,0.17402327247560023,-0.0468424151957035,-0.03693301559984684
1633780315558876700,12.323876708984375,0.1327285545349121,-0.05693944631814956,-0.06549494708701968
1633780315578755800,12.343755859375,0.12091536714434623,-0.06838555396199227,-0.07132745263278484
1633780315598634800,12.363634765625,0.06783961051702499,-0.049853871971368785,-0.05319675265848636
1633780315618514700,12.3835146484375,0.014643442380428313,-0.04814648353159427,-0.05295622190088033
1633780315638393900,12.403393798828125,-0.03584638940691948,-0.055149055770039555,-0.004848462944477796
1633780315658272800,12.423272705078125,-0.09988251598775386,-0.0733294401049614,0.039358781442046166
1633780315678152000,12.44315185546875,-0.15532207913696766,-0.05850479593873024,0.07443623230308294
1633780315698031900,12.463031982421874,-0.1995920134961605,-0.029538813695311545,0.07398278944715857
1633780315717910800,12.482910888671874,-0.23693945511579512,-0.0016015899777412413,0.07179682371020317
1633780315737790000,12.5027900390625,-0.16467326032817362,0.03279284705519676,0.0722561117850244
1633780315757669600,12.522669677734376,-0.0870493378996849,0.12266016498506069,0.04029562390074134
1633780315777548800,12.542548828125,0.039249475848674775,0.14066168562173842,0.05342442393451929
1633780315797428000,12.562427978515625,0.13457856631577014,0.20615151814222335,0.10615896590873598
1633780315817307000,12.582306884765625,0.15746668995022772,0.24984511391818523,0.1170017008319497
1633780315837186800,12.602186767578125,0.21357026996612546,0.2280915472716093,0.08607727799713612
1633780315857065700,12.622065673828125,0.17914660683870315,0.19134265606701373,0.07064765367507934
1633780315876945000,12.64194482421875,0.12795534878373147,0.1362660810112953,0.05687997121587395
1633780315896823800,12.66182373046875,0.07102934646904469,0.04989595754742622,0.027824557123333215
1633780315916704000,12.6817041015625,-0.016767010405659675,-0.013226561319828033,-0.021608897478878498
1633780315936583200,12.701583251953124,-0.12372574838995933,-0.07002396881878376,-0.04605550260171294
1633780315956461800,12.7214619140625,-0.08551262985169887,-0.17404723787307738,-0.05390665449351072
1633780315976342000,12.741342041015624,-0.1947206080675125,-0.21602409285902976,-0.14666121829748152
1633780315996221200,12.76122119140625,-0.07501753932237624,-0.21416706681549547,-0.11507219407409429
1633780316016099800,12.781099853515625,0.08709200799763202,-0.22857728496193885,-0.09084156978949903
1633780316035980000,12.80097998046875,0.26395605685710904,-0.19855273357629774,-0.019945786572247742
1633780316055859200,12.820859130859375,0.1414566353917122,-0.09646540102064609,-0.035021190629154444
1633780316075737900,12.84073779296875,-0.06753624365627765,-0.05666647459566593,0.008413608080148696
1633780316095617000,12.860616943359375,-0.1751309414565563,0.00426291814148426,0.05286094483286142
1633780316115497200,12.880497314453125,-0.18227847512364387,0.03831248725950718,0.02897401941940188
1633780316135376000,12.9003759765625,-0.17265139960050582,0.11557517516016959,0.008083937734365464
1633780316155255000,12.920255126953125,-0.08875847990512847,0.1883206778973341,0.12233180981352924
1633780316175135000,12.940135009765624,-0.0440367101252079,0.22814999946057796,0.1997688313677907
1633780316195014000,12.960013916015624,-0.07006079369783401,0.26025311068594453,0.17556743317767975
1633780316214893000,12.97989306640625,-0.06041618251800537,0.2510217564821243,0.10787497604638338
1633780316234772000,12.99977197265625,0.0017529811471700667,0.2419377017945051,0.03444017587080598
1633780316254652000,13.01965185546875,0.07174480126202105,0.16057576188147066,-0.00044803602844476696
1633780316274530800,13.03953076171875,0.19280571435689925,0.07826222033202648,-0.003994184202700853
1633780316294410000,13.059409912109375,0.31078502804934977,-0.048801732569932935,0.013890870447456835
1633780316314290000,13.0792900390625,0.25666063915193077,-0.05757306804656982,-0.024007483053207396
1633780316334168800,13.0991689453125,0.12351707407534122,-0.07925707658827304,-0.0811909672603011
1633780316354048000,13.119048095703125,-0.013898761492967605,-0.19475684842467306,-0.09900704832747578
1633780316373927200,13.13892724609375,-0.057630351191759105,-0.17653145590424538,-0.19378113526031374
1633780316393806800,13.158806884765625,-0.13292086223661898,-0.14867022003233432,-0.23303572567552328
1633780316413686000,13.17868603515625,-0.15654606797397136,-0.14706395387947557,-0.15130319888442753
1633780316433565000,13.19856494140625,-0.12341069109141826,-0.08715922801494598,-0.09854951381832361
1633780316453444000,13.218444091796876,-0.07833645461201667,-0.04861760817468166,-0.1257467328235507
1633780316473324000,13.238323974609376,-0.002660159119963646,0.01152092644572258,-0.0692391020514071
1633780316493203000,13.258202880859375,0.022361469411849973,0.06084346801936626,0.026604221548140048
1633780316513082000,13.27808203125,0.08280629350244999,0.11458967125415802,0.02683803030401468
1633780316532962000,13.297962158203125,0.1727782408505678,0.11321721385717391,0.034910423731058834
1633780316552841000,13.317841064453125,0.27074820121526716,0.11221651238203048,0.050642099739611146
1633780316572720000,13.33772021484375,0.3236491857975721,0.06692950993478297,0.07435644506514072
1633780316592600000,13.35760009765625,0.284008664804697,0.05295359155237674,0.09572685761302709
1633780316612479000,13.37747900390625,0.1869301003217697,-0.03744973295032978,0.08133475964516401
1633780316632358100,13.397358154296874,0.06954524539113044,-0.07588730789422989,0.014654256035387515
1633780316652237000,13.417237060546874,-0.045373511686921116,-0.12740589820742607,0.00040244332104921336
1633780316672117000,13.437116943359374,-0.1092266829162836,-0.18592238458395002,-0.01191518646031618
1633780316691996200,13.45699609375,-0.10399112035036086,-0.17191022584438323,-0.02712123115956783
1633780316711875000,13.476875,-0.12420388729572296,-0.12887363267242907,-0.019326924021542072
1633780316731754000,13.49675390625,-0.14250059148669242,-0.0814899502068758,0.0032785832792520523
1633780316751634000,13.516634033203125,-0.05478197602331638,0.017930208966135976,-0.01177577798962593
1633780316771513000,13.53651318359375,0.009069441640377044,0.08407879765629768,-0.045152270151674744
1633780316791392000,13.55639208984375,0.10023965886235237,0.125095283177495,-0.03674012337625027
1633780316811272000,13.57627197265625,0.141481185311079,0.13512626332640648,-0.006790683053433895
1633780316831151000,13.596151123046875,0.09525018001198768,0.10806816053092479,0.04009118736982345
1633780316851030000,13.616030029296875,0.07377601482868194,0.0918640447050333,0.024199206233024597
1633780316870908000,13.635907958984374,0.07621405563056469,0.06123100603222847,-0.038598026202619075
1633780316890787800,13.655787841796876,-0.0036626141607761383,0.054874915003776545,-0.06779431007057428
1633780316910667000,13.6756669921875,-0.00016600421667099,-0.04873158994317055,-0.04119447243660688
1633780316930546000,13.6955458984375,0.013308978906273842,-0.04022971905767917,-0.041594577670097346
1633780316950425900,13.71542578125,0.02051028858721256,-0.08142740636467934,-0.0359390361264348
1633780316970305000,13.735304931640625,0.0518704724907875,-0.14648469268679618,-0.03339548912346363
1633780316990184000,13.755183837890625,0.04538987829983234,-0.12094517776072025,0.0013335866913199424
1633780317010062800,13.775062744140625,0.030201076996326445,-0.13791560178399084,0.03524389346912503
1633780317029943000,13.794943115234375,0.012846037569642066,-0.11841770510971546,0.08706248964220285
1633780317049822000,13.814822021484375,0.03572071720063686,-0.08252163134217262,0.06860825680196285
1633780317069700900,13.834700927734374,0.0473871895968914,-0.07957447197437285,0.05072670928314328
1633780317089580800,13.854580810546874,0.02270283019542694,-0.03971592431664467,-0.0007703998506069183
1633780317109460000,13.8744599609375,0.08542202895879746,-0.019684359157085416,-0.14241525129079818
1633780317129339000,13.8943388671875,-0.0708060591071844,0.04969955819249153,-0.15942176954075693
1633780317149217800,13.9142177734375,-0.022978724527359006,0.09212006529271602,-0.11444836308732628
1633780317169098000,13.934097900390626,-0.04288052582740783,0.12836977480351924,-0.01206073241084814
1633780317188976600,13.9539765625,-0.03844049755334854,0.149873750603199,0.06370134166851639
1633780317208855800,13.973855712890625,-0.024637597650289535,0.1899281130939722,0.14020809663534164
1633780317228736000,13.993736083984375,-0.04266308368444442,0.21081424925625322,0.18277166546806692
1633780317248615000,14.013614990234375,-0.022974048352241514,0.18268822496831416,0.16370529207885265
1633780317268493800,14.033493896484375,0.007995674929022789,0.1454641174674034,0.17468816612511873
1633780317288372700,14.053372802734375,0.040135026511549945,0.06406885980665683,0.18317951561659573
1633780317308253000,14.0732529296875,0.101793902567029,0.036706221106648444,0.15905921983867882
1633780317328131800,14.0931318359375,0.09565408463776111,-0.023120763346552848,0.10470043766349553
1633780317348010800,14.1130107421875,0.04631283836364746,-0.019168226328492164,0.0706803869009018
1633780317367891000,14.132890869140626,0.014209727138280868,-0.023598902252316475,0.006318973888456821
1633780317387769900,14.152769775390626,0.04980594117641449,-0.026395254972577095,-0.07688537902086973
1633780317407648800,14.172648681640625,0.042565468528866765,-0.031438509836792944,-0.09168021257072687
1633780317427528000,14.19252783203125,-0.0017331074029207228,-0.047020694372057914,-0.08477145609557628
1633780317447407900,14.212407958984375,-0.0014443535894155502,-0.017714520388841627,-0.08310703001469373
1633780317467286800,14.232286865234375,-0.0032651392757892606,-0.0037929625421762466,-0.07602525506019592
1633780317487166000,14.252166015625,0.0632464375078678,0.01186111818552017,-0.10878609954193234
1633780317507046000,14.2720458984375,0.08964403056800364,0.017608721926808357,-0.09727394092455506
1633780317526924800,14.2919248046875,0.11500760440528392,0.07120411851406097,-0.08118366073668003
1633780317546804000,14.311803955078124,0.08345219019055367,0.09775660987496375,-0.08027282950207591
1633780317566683000,14.331682861328124,0.07144903318583964,0.03285714446306229,-0.0535372366592288
1633780317586562800,14.351562744140624,0.06485328818261624,0.017461422410607337,-0.014365648352354763
1633780317606442000,14.37144189453125,0.03537351119816303,0.015634206983447075,-0.004632335975766182
1633780317626321000,14.39132080078125,0.0006973346143960953,-0.0023877719193696975,0.0381742478325963
1633780317646200800,14.411200927734376,-0.04642155943512916,0.041534956437349314,0.06262976691424846
1633780317666079700,14.431079833984375,-0.078169865873456,0.04903437228202819,0.005479015932977199
1633780317685959000,14.450958984375,-0.08958382481336594,0.09096972621381283,0.02129062530994415
1633780317705838000,14.470838134765625,-0.09791618435084819,0.07461831087172031,0.0544803627282381
1633780317725717800,14.4907177734375,-0.0756774645358324,0.0889186389029026,0.05270370844453573
1633780317745597000,14.510596923828125,-0.046426235610246655,0.06618190643787383,0.06038914838060736
1633780317765476000,14.53047607421875,-0.017069792744517327,0.0533563271343708,0.06428849390670657
1633780317785355800,14.550355712890624,0.036571196550130844,0.02682254047393799,0.05668970934078097
1633780317805235000,14.57023486328125,0.06150865392982959,-0.006592237871885299,0.051338849832117554
1633780317825113900,14.59011376953125,0.04740121812224388,-0.02621463770866394,0.05234510426521301
1633780317844992800,14.60999267578125,0.0702355657428503,-0.024714170017838478,0.03946004985943436
1633780317864873000,14.629873046875,0.04784136310517788,0.010151976180076598,-0.0016952596105635166
1633780317884753200,14.649753173828126,0.0023965397477149963,0.01190612637102604,-0.0044458734929561615
1633780317904632000,14.669632080078125,-0.003363338953256607,0.054821723511815065,-0.04688815403357148
1633780317924512300,14.68951220703125,0.03861468507647514,0.06272095232903957,-0.09124912767708301
1633780317944391200,14.70939111328125,0.019027356553077697,0.02831073320508003,-0.12812763661071658
1633780317964270000,14.72927001953125,0.03504442537426948,-0.0375794968098402,-0.05952741698473692
1633780317984149200,14.749149169921875,0.012379004579782485,-0.0767886406481266,-0.03507745086103677
1633780318004029200,14.769029296875,-0.014800094246864319,-0.12656184859871863,-0.00494827005714178
1633780318023908000,14.788908203125,-0.0551601616859436,-0.12349486224353312,0.029593028100579975
1633780318043787300,14.808787353515624,-0.015548282265663146,-0.11250409715175629,-0.007904781775176525
1633780318063667000,14.8286669921875,-0.01793839227259159,-0.09068097240030765,-0.04093859797939658
1633780318083546000,14.848546142578124,-0.000014028525352478027,-0.029475685331225392,0.005070435132086277
1633780318103425300,14.86842529296875,0.0000672200173139572,-0.007958850049972533,0.04996697695702314
1633780318123305000,14.888304931640626,0.0174848032861948,0.08061316737234592,0.009801701437681913
1633780318143184100,14.90818408203125,0.0031926585614681243,0.11385025106370449,0.024955577558279037
1633780318163063000,14.92806298828125,0.05252455248534679,0.1095230355143547,0.05061944951638579
1633780318182942200,14.947942138671875,0.08362520866990089,0.07012099945247173,0.06387976697534323
1633780318202822100,14.967822265625,0.12804711872041225,0.08262509171664714,0.03310790435373783
1633780318222701000,14.987701171875,0.10452361979186535,0.03774900815784931,0.08859539829790591
1633780318242580200,15.007580322265625,0.04301847299337387,0.04366378515958786,0.0880700592495501
1633780318262460200,15.027460205078125,0.027654899644851683,0.039593174719810484,0.013078238890320061
1633780318282339000,15.047339111328125,0.025854572224617,0.035379356417059894,-0.03384074867293239
1633780318302218200,15.06721826171875,-0.02942833905816078,0.06244914965033531,-0.06767346016988157
1633780318322097200,15.08709716796875,-0.08302315112352371,0.03699497492015361,-0.053398412710428236
1633780318341977000,15.10697705078125,-0.08929682456552981,-0.0035989012748003004,-0.08997925387173891
1633780318361856300,15.126856201171876,-0.10296060825884341,-0.02750117038786411,-0.09047975073978304
1633780318381735200,15.146735107421875,-0.057043491214513777,-0.044885435909032816,-0.09004150545299053
1633780318401615000,15.166614990234375,-0.04444003022909164,-0.06496960803866386,-0.06482786148041486
1633780318421494300,15.186494384765625,-0.0036047464936971663,-0.04892214407920837,-0.07796966712623835
1633780318441373200,15.206373291015625,0.06477320868372917,-0.03792904089987278,-0.056538902693241834
1633780318461252000,15.226252197265625,0.09943944839537143,-0.036786885127425194,-0.04204290595948696
1633780318481132300,15.24613232421875,0.10493103154897689,-0.018747370567917823,-0.011649375130981207
1633780318501011200,15.26601123046875,0.08367489303052425,0.007266776132583618,0.029938480537384748
1633780318520890000,15.28589013671875,-0.008463876962661742,0.07128069088160992,0.039930589980632064
1633780318540769000,15.30576904296875,-0.005245499438047409,0.06939969944059848,0.0235673380702734
1633780318560649200,15.325649169921874,0.01942716952562332,0.08172960418164729,0.023655747006088496
1633780318580528400,15.3455283203125,0.028345804518461224,0.07342880882620811,0.03792728733420372
1633780318600407000,15.365406982421876,0.012187281399965286,0.07112813066840172,0.05631809954941273
1633780318620287200,15.385287353515626,-0.023961305823922155,0.013412439280748367,0.07705635167360306
1633780318640166400,15.40516650390625,-0.05075052855014801,0.013464461728930472,0.03926204306930303
1633780318660045000,15.425045166015625,-0.03596095569729805,-0.0020019874721765515,0.003500409336388111
1633780318679925200,15.44492529296875,0.013304887253046035,-0.011585223853588103,-0.015226502965390682
1633780318699804200,15.46480419921875,0.013089198675751685,-0.058766661745309826,-0.03728577456027269
1633780318719683000,15.48468310546875,0.09945523048639297,-0.04481704684793949,-0.07353197693973779
1633780318739562200,15.504562255859375,0.10147358457148074,-0.0779822343468666,-0.04633329662978649
1633780318759442200,15.524442138671875,0.12726853556334972,-0.092011928743124,-0.020937574088573455
1633780318779321000,15.544321044921874,0.1398445240199566,-0.10483166282773017,-0.03142097418010235
1633780318799200000,15.564199951171876,0.13097791147530077,-0.06676642832756043,-0.10581731286421417
1633780318819080200,15.584080078125,0.07357260121107101,-0.07240706456303596,-0.08051642899960279
1633780318838959000,15.603958984375,-0.04660568383038044,-0.029977205112576483,-0.03362622913941741
1633780318858838000,15.623838134765625,-0.13483634046912193,-0.037730887979269025,-0.09417787460535765
1633780318878717200,15.64371728515625,-0.03512859652638435,-0.09519114330112934,-0.2114426102876663
1633780318898597000,15.66359716796875,-0.26382570847570896,-0.13091010693609714,-0.29731618240624663
1633780318918476000,15.68347607421875,-0.29131343486011024,-0.26778584427833557,-0.3205573572620749
1633780318938355200,15.703355224609375,-0.26730244467556474,-0.27934067299365994,-0.420058034325391
1633780318958235100,15.723235107421875,-0.21998598222732543,-0.23264555731415748,-0.461409889280796
1633780318978114000,15.743114013671875,-0.13155951075553893,-0.15670213531851768,-0.39211715734601016
1633780318997993200,15.7629931640625,-0.08649871827960014,-0.12105156074464321,-0.23229279835373162
1633780319017872100,15.7828720703125,-0.10250292761921882,0.008441665130853652,-0.11342296556234359
1633780319037752000,15.802751953125,-0.06641337710618972,0.08018763543665408,-0.09329290846437215
1633780319057631000,15.822630859375,-0.11098024858534336,0.255679226899147,0.11757803941518068
1633780319077510100,15.84251025390625,0.060334933975338935,0.25029694933891294,0.21535598433911798
1633780319097390000,15.86239013671875,0.08197101172208786,0.2337368596822023,0.2908767970085144
1633780319117269000,15.88226904296875,0.1759504411458969,0.21500176407396793,0.3446212466776371
1633780319137148200,15.902148193359375,0.22844109136164187,0.17165712786614895,0.33391748183369635
1633780319157027000,15.922027099609375,0.2530874568402767,0.23011516205370425,0.3168967889279127
1633780319176907000,15.941906982421875,0.13602642703652382,0.20188275478184223,0.3636766602814197
1633780319196786200,15.9617861328125,0.16593232047855852,0.2067021377623081,0.36243688935339446
1633780319216665000,15.9816650390625,0.22017828992903232,0.1598684903949499,0.16618775654435156
1633780319236545000,16.001544921875,0.227760123360157,0.2760024684816599,0.15440876368433237
1633780319256424200,16.021424072265624,0.1852490153670311,0.2888192799568176,0.13878858522623777
1633780319276303000,16.04130322265625,0.02939969748556614,0.24756489402651785,-0.14485066174417732
1633780319296182300,16.061182373046876,1.0999304956585167,0.34817397072315215,0.0955196446031332
1633780319316062200,16.081062255859376,-0.35396015290915966,-0.046670565760135646,0.5736836848080158
1633780319335941000,16.100941162109375,-0.6266857916772365,0.24704525406658648,-0.0009521861582994461
