time,seconds_elapsed,z,y,x
1634126097387013000,0.03001318359375,0.22570745646953583,0.38608288764953613,0.012347123585641384
1634126097406892300,0.049892333984375,0.25045105814933777,0.2567363679409027,-0.20707763731479645
1634126097426771200,0.069771240234375,0.18655668199062347,0.23457346856594086,-0.3609461188316345
1634126097446651100,0.089651123046875,0.11249282211065292,0.33240631222724915,-0.38563069701194763
1634126097466530300,0.1095302734375,0.062367793172597885,0.2937075197696686,-0.29871976375579834
1634126097486409200,0.1294091796875,-0.022201726213097572,0.2054666429758072,-0.2149943709373474
1634126097506289200,0.1492890625,-0.10519576072692871,0.13274867832660675,-0.15982070565223694
1634126097526168300,0.169168212890625,-0.12379242479801178,0.08703795075416565,-0.14762680232524872
1634126097546047200,0.189047119140625,-0.09341565519571304,0.0976426899433136,-0.16920191049575806
1634126097565927200,0.20892724609375,-0.05365397781133652,0.057963777333498,-0.22600498795509338
1634126097585806000,0.22880615234375,-0.013995499350130558,-0.02031332440674305,-0.2319750040769577
1634126097605685200,0.248685302734375,-0.021032020449638367,-0.08510887622833252,-0.1924414336681366
1634126097625565200,0.268565185546875,-0.05244334787130356,-0.1281927525997162,-0.11380454152822495
1634126097645444000,0.288444091796875,-0.10526320338249207,-0.19548587501049042,-0.06596018373966217
1634126097665323300,0.3083232421875,-0.16338270902633667,-0.29897740483283997,-0.030065029859542847
1634126097685203200,0.328203125,-0.1914541870355606,-0.29168835282325745,-0.05910557135939598
1634126097705082000,0.34808203125,-0.1691351979970932,-0.21565651893615723,-0.07316149026155472
1634126097724961300,0.367961181640625,-0.12210381776094437,-0.15459312498569489,-0.09242762625217438
1634126097744841200,0.38784130859375,-0.0683528333902359,-0.11695407330989838,-0.14757436513900757
1634126097764720000,0.40772021484375,-0.044565409421920776,-0.10461688041687012,-0.23739692568778992
1634126097784599300,0.427599365234375,-0.03434568643569946,-0.04575401917099953,-0.3229990005493164
1634126097804479500,0.4474794921875,-0.05579865351319313,-0.03358876332640648,-0.3838997781276703
1634126097824358100,0.467358154296875,-0.08429524302482605,-0.0071017746813595295,-0.3565259575843811
1634126097844237300,0.4872373046875,-0.06749219447374344,0.04945213347673416,-0.3270375728607178
1634126097864117200,0.5071171875,-0.047008298337459564,0.03726314753293991,-0.3242970407009125
1634126097883996200,0.52699609375,-0.03572094812989235,-0.014973461627960205,-0.36576366424560547
1634126097903875300,0.546875244140625,-0.056290481239557266,-0.041489988565444946,-0.37059396505355835
1634126097923755300,0.56675537109375,-0.08849059045314789,0.005471839569509029,-0.2917361557483673
1634126097943634200,0.58663427734375,-0.09868963807821274,0.024058813229203224,-0.17623759806156158
1634126097963513000,0.60651318359375,-0.09237600862979889,0.07491543143987656,-0.12779530882835388
1634126097983393300,0.626393310546875,-0.06262114644050598,0.03966069221496582,-0.15642444789409637
1634126098003272200,0.646272216796875,-0.05083446204662323,-0.0091424360871315,-0.13535723090171814
1634126098023151000,0.666151123046875,-0.04571074992418289,-0.05109856650233269,-0.09942813217639923
1634126098043031300,0.68603125,-0.05912451818585396,-0.06513078510761261,-0.05839959904551506
1634126098062910200,0.70591015625,-0.04942910000681877,0.011206104420125484,0.014537984505295753
1634126098082789000,0.7257890625,-0.03868571296334267,0.10523329675197601,0.06283776462078094
1634126098102669300,0.74566943359375,-0.016850033774971962,0.2530270516872406,0.13106770813465118
1634126098122548200,0.76554833984375,0.027715811505913734,0.37756744027137756,0.19661922752857208
1634126098142427100,0.78542724609375,0.08027543127536774,0.3906770944595337,0.2503186762332916
1634126098162307300,0.805307373046875,0.15586593747138977,0.28605008125305176,0.293285608291626
1634126098182187300,0.825187255859375,0.24172237515449524,0.16040712594985962,0.31002798676490784
1634126098202066200,0.845066162109375,0.3492656946182251,0.0443972572684288,0.23800189793109894
1634126098221946000,0.864946044921875,0.47274407744407654,-0.016557084396481514,0.13698287308216095
1634126098241825300,0.8848251953125,0.5722230672836304,-0.03404185175895691,0.01366356946527958
1634126098261704200,0.9047041015625,0.6121957302093506,-0.03958476334810257,-0.07608325034379959
1634126098281584400,0.92458447265625,0.6008093357086182,-0.07209356129169464,-0.1286081224679947
1634126098301463000,0.944463134765625,0.533771812915802,-0.1112176850438118,-0.14555209875106812
1634126098321342200,0.96434228515625,0.4102473258972168,-0.10810066014528275,-0.1743529886007309
1634126098341222400,0.984222412109375,0.2600310444831848,-0.06035931408405304,-0.19225358963012695
1634126098361101000,1.00410107421875,0.0792720839381218,0.016270939260721207,-0.1601865291595459
1634126098380980200,1.023980224609375,-0.05919353663921356,0.0495273731648922,-0.14325390756130219
1634126098400860400,1.0438603515625,-0.12528736889362335,0.08123205602169037,-0.008374625816941261
1634126098420739000,1.063739013671875,-0.15224695205688477,0.14068320393562317,0.14157941937446594
1634126098440618200,1.0836181640625,-0.15001042187213898,0.18584680557250977,0.22884738445281982
1634126098460498400,1.10349853515625,-0.12514230608940125,0.1412605345249176,0.2911265790462494
1634126098480377000,1.123377197265625,-0.08903268724679947,0.04236454516649246,0.31869348883628845
1634126098500256300,1.14325634765625,-0.08811178803443909,-0.04354449361562729,0.36786481738090515
1634126098520136400,1.163136474609375,-0.10119016468524933,-0.06180771440267563,0.42492273449897766
1634126098540015000,1.18301513671875,-0.10188266634941101,-0.0372362956404686,0.4161815941333771
1634126098559894300,1.202894287109375,-0.07177292555570602,0.0020555686205625534,0.35462045669555664
1634126098579774200,1.222774169921875,-0.02438979223370552,0.007800580933690071,0.3069170415401459
1634126098599653000,1.242653076171875,0.003561862278729677,-0.012090791016817093,0.3023558557033539
1634126098619532300,1.2625322265625,0.0012918623397126794,-0.04130636528134346,0.32551512122154236
1634126098639412200,1.282412109375,0.021931197494268417,-0.032271649688482285,0.31518611311912537
1634126098659291400,1.30229150390625,0.09893365204334259,0.01161107700318098,0.23500341176986694
1634126098679170000,1.322170166015625,0.22356319427490234,0.06298825889825821,0.11187919974327087
1634126098699050200,1.34205029296875,0.42010697722435,0.3027549982070923,-0.07670094072818756
1634126098718929400,1.361929443359375,0.6787766218185425,0.6337564587593079,-0.16987459361553192
1634126098738808000,1.38180810546875,0.8553827404975891,0.7117308378219604,-0.049160927534103394
1634126098758688300,1.401688232421875,0.8566614389419556,0.3697524070739746,0.20918148756027222
1634126098778567400,1.4215673828125,0.7259684205055237,-0.047725290060043335,0.4424475431442261
1634126098798446000,1.441446044921875,0.6153225898742676,-0.3135652244091034,0.4967169165611267
1634126098818326300,1.461326171875,0.598852276802063,-0.273622065782547,0.38265079259872437
1634126098838205400,1.481205322265625,0.6549344062805176,-0.10086597502231598,0.17930902540683746
1634126098858084000,1.501083984375,0.7585047483444214,0.12133895605802536,-0.03232863172888756
1634126098877964300,1.52096435546875,0.8643895387649536,0.2675279378890991,-0.21583794057369232
1634126098897843500,1.540843505859375,0.8974979519844055,0.24483340978622437,-0.3335953950881958
1634126098917722000,1.56072216796875,0.8425400257110596,0.16868236660957336,-0.3859814405441284
1634126098937602300,1.580602294921875,0.7689933776855469,0.10358195006847382,-0.42330169677734375
1634126098957481200,1.600481201171875,0.7020374536514282,-0.003893229179084301,-0.3986808657646179
1634126098977360100,1.620360107421875,0.6242194175720215,-0.0975601077079773,-0.32610997557640076
1634126098997239300,1.6402392578125,0.5231109857559204,-0.08992058783769608,-0.3208088278770447
1634126099017119200,1.660119140625,0.41273555159568787,0.06520332396030426,-0.3702012896537781
1634126099036998100,1.679998046875,0.34799787402153015,0.39727139472961426,-0.4429023563861847
1634126099056877000,1.699876953125,0.36112499237060547,0.7625386118888855,-0.5087672472000122
1634126099076757200,1.71975732421875,0.4241209626197815,0.913866400718689,-0.4820939600467682
1634126099096636400,1.739636474609375,0.44636932015419006,0.8431246876716614,-0.3016282021999359
1634126099116515000,1.75951513671875,0.4281948506832123,0.6294803023338318,-0.03325747698545456
1634126099136395300,1.779395263671875,0.40337374806404114,0.3915461599826813,0.160030797123909
1634126099156274400,1.7992744140625,0.38696610927581787,0.13199174404144287,0.21227240562438965
1634126099176153000,1.819153076171875,0.41518861055374146,-0.017501695081591606,0.1964913010597229
1634126099196033300,1.839033203125,0.41991516947746277,-0.04727181792259216,0.1971399039030075
1634126099215912200,1.858912109375,0.40729719400405884,0.03606004640460014,0.22632071375846863
1634126099235791000,1.878791015625,0.4198739528656006,0.12042286247015,0.25223350524902344
1634126099255671300,1.89867138671875,0.4525367021560669,0.24783600866794586,0.25514450669288635
1634126099275550200,1.91855029296875,0.4953785836696625,0.361395001411438,0.2254256159067154
1634126099295429000,1.93842919921875,0.5045788288116455,0.3977295160293579,0.209780752658844
1634126099315309300,1.958309326171875,0.5000709295272827,0.4198264479637146,0.18207120895385742
1634126099335188200,1.978188232421875,0.5003145337104797,0.35629037022590637,0.16134075820446014
1634126099355067100,1.998067138671875,0.480370432138443,0.2146599441766739,0.18209826946258545
1634126099374947300,2.017947265625,0.4418281316757202,0.06794121861457825,0.23484189808368683
1634126099394826200,2.037826171875,0.37454092502593994,-0.08147182315587997,0.28649240732192993
1634126099414705200,2.057705078125,0.2884299159049988,-0.1644497513771057,0.2966335713863373
1634126099434585000,2.077585205078125,0.20342038571834564,-0.16473545134067535,0.2642718255519867
1634126099454464300,2.09746435546875,0.13641461730003357,-0.12991338968276978,0.2380141317844391
1634126099474343400,2.117343505859375,0.10186246037483215,-0.09200073033571243,0.20593072474002838
1634126099494223000,2.13722314453125,0.08072361350059509,-0.06056571379303932,0.1360170543193817
1634126099514102300,2.157102294921875,0.08232589811086655,0.014030569233000278,0.04220370948314667
1634126099533981400,2.1769814453125,0.09029922634363174,0.07760270684957504,-0.0066701737232506275
1634126099553861000,2.196861083984375,0.1071953997015953,0.08777344226837158,-0.03685019537806511
1634126099573740300,2.216740234375,0.11116042733192444,0.050669826567173004,-0.09923112392425537
1634126099593619200,2.236619140625,0.10169080644845963,-0.010316455736756325,-0.15940459072589874
1634126099613499100,2.2564990234375,0.08955127000808716,-0.022030211985111237,-0.1888185292482376
1634126099633378300,2.27637841796875,0.06214423477649689,0.0038045374676585197,-0.17784391343593597
1634126099653257200,2.29625732421875,0.0194235946983099,0.06809408962726593,-0.16809506714344025
1634126099673137200,2.31613720703125,-0.025248508900403976,0.15144848823547363,-0.15112580358982086
1634126099693016300,2.336016357421875,-0.07545893639326096,0.15167444944381714,-0.11685837805271149
1634126099712895200,2.355895263671875,-0.15327633917331696,0.10487410426139832,-0.07844679802656174
1634126099732775200,2.375775146484375,-0.20580662786960602,0.04981363192200661,-0.04097837209701538
1634126099752654300,2.395654296875,-0.21595093607902527,-0.06761044263839722,-0.021301444619894028
1634126099772533200,2.415533203125,-0.23196159303188324,-0.2684305012226105,0.012225874699652195
1634126099792412200,2.435412109375,-0.3074890673160553,-0.5052846074104309,0.07749619334936142
1634126099812292000,2.4552919921875,-0.44450658559799194,-0.6814833283424377,0.11142559349536896
1634126099832171300,2.475171142578125,-0.5280454158782959,-0.6718876957893372,0.07403997331857681
1634126099852050400,2.495050537109375,-0.520104706287384,-0.5280272960662842,0.044180624186992645
1634126099871930000,2.51493017578125,-0.43659329414367676,-0.3642157316207886,0.031187964603304863
1634126099891809300,2.534809326171875,-0.34019935131073,-0.26282694935798645,-0.026708578690886497
1634126099911688200,2.554688232421875,-0.2981714904308319,-0.22433027625083923,-0.10659560561180115
1634126099931568000,2.574568115234375,-0.3150261342525482,-0.13167357444763184,-0.16148491203784943
1634126099951447300,2.594447265625,-0.39146703481674194,-0.024487625807523727,-0.13684843480587006
1634126099971326200,2.614326171875,-0.4807164967060089,0.04597190394997597,-0.08167215436697006
1634126099991206100,2.6342060546875,-0.5391761660575867,0.023340772837400436,-0.08329903334379196
1634126100011085300,2.654085205078125,-0.5174676775932312,-0.047613516449928284,-0.18007858097553253
1634126100030964200,2.673964111328125,-0.42763033509254456,-0.09066413342952728,-0.27547192573547363
1634126100050844200,2.69384423828125,-0.3247635066509247,-0.08964501321315765,-0.2698482573032379
1634126100070723300,2.713723388671875,-0.3108392357826233,-0.04920818656682968,-0.12144839763641357
1634126100090602200,2.733602294921875,-0.3857584297657013,-0.07866676896810532,0.044709790498018265
1634126100110482200,2.753482177734375,-0.5210618376731873,-0.20232723653316498,0.12272712588310242
1634126100130361300,2.773361328125,-0.61113041639328,-0.30641263723373413,0.06869685649871826
1634126100150240300,2.793240234375,-0.6250025033950806,-0.18666993081569672,-0.07223757356405258
1634126100170120200,2.8131201171875,-0.5653334856033325,0.07365590333938599,-0.11425146460533142
1634126100189998000,2.832998046875,-0.47173160314559937,0.29081135988235474,0.006313966121524572
1634126100209877200,2.852877197265625,-0.33830270171165466,0.3305462598800659,0.13549493253231049
1634126100229757200,2.872757080078125,-0.20608709752559662,0.2118595540523529,0.10995294898748398
1634126100249636000,2.892635986328125,-0.06003803014755249,0.0227520689368248,-0.0581682026386261
1634126100269515300,2.912515380859375,0.13744650781154633,-0.19119399785995483,-0.2610313594341278
1634126100289394200,2.932394287109375,0.3121783137321472,-0.4279872179031372,-0.36252591013908386
1634126100309274000,2.952274169921875,0.4135535657405853,-0.6355531811714172,-0.37352660298347473
1634126100329153300,2.9721533203125,0.38957399129867554,-0.7783640027046204,-0.384920209646225
1634126100349032200,2.9920322265625,0.22125424444675446,-0.8794304132461548,-0.40878406167030334
1634126100368912100,3.011912109375,-0.053052470088005066,-0.9889029860496521,-0.4701698124408722
1634126100388791300,3.031791259765625,-0.3440398573875427,-0.9910884499549866,-0.5315026044845581
1634126100408670200,3.051670166015625,-0.6124374270439148,-0.9130845069885254,-0.4931749999523163
1634126100428550100,3.071550048828125,-0.8444236516952515,-0.6882320642471313,-0.36123597621917725
1634126100448429000,3.091428955078125,-1.0143458843231201,-0.41155996918678284,-0.18579716980457306
1634126100468308200,3.11130810546875,-1.0795791149139404,-0.09332158416509628,-0.176410973072052
1634126100488188200,3.131188232421875,-0.9986613988876343,0.37344446778297424,-0.4618053436279297
1634126100508067000,3.151067138671875,-0.7765305638313293,0.5669469237327576,-0.539498507976532
1634126100527946200,3.1709462890625,-0.5089958310127258,0.4842260777950287,-0.2548496127128601
1634126100547826200,3.190826171875,-0.30440524220466614,0.3300531804561615,0.13496047258377075
1634126100567705000,3.210705078125,-0.29255369305610657,0.03370625898241997,0.47355207800865173
1634126100587584300,3.230584228515625,-0.42522451281547546,-0.29498833417892456,0.6421259641647339
1634126100607463200,3.250463134765625,-0.566368043422699,-0.5254492163658142,0.47738006711006165
1634126100627343000,3.270343017578125,-0.549227237701416,-0.6716398000717163,0.18174591660499573
1634126100647222300,3.29022216796875,-0.3295184075832367,-0.6176134347915649,0.02331250160932541
1634126100667101200,3.31010107421875,0.014259446412324905,-0.29139113426208496,0.02779393456876278
1634126100686981000,3.329981201171875,0.3855040371417999,0.09776560217142105,0.061532970517873764
1634126100706860300,3.3498603515625,0.7055224180221558,0.3743530511856079,0.01759546436369419
1634126100726739200,3.3697392578125,0.9350498914718628,0.38265371322631836,-0.08840914070606232
1634126100746619100,3.389619140625,1.0702372789382935,0.18139034509658813,-0.18138208985328674
1634126100766498000,3.409498046875,1.118658423423767,-0.017761675640940666,-0.17712019383907318
1634126100786377200,3.429377197265625,1.1006622314453125,-0.08614008128643036,-0.046808578073978424
1634126100806257200,3.449257080078125,1.057103157043457,0.15606991946697235,0.21146035194396973
1634126100826136000,3.469135986328125,1.002777099609375,1.364723801612854,0.613539457321167
1634126100846015200,3.48901513671875,1.0815502405166626,1.9981509447097778,1.023262858390808
1634126100865895200,3.508895263671875,1.4938585758209229,1.2080646753311157,1.1275293827056885
1634126100885774000,3.528774169921875,1.9495935440063477,0.22261331975460052,0.6965754628181458
1634126100905653200,3.5486533203125,1.9736124277114868,0.046673815697431564,-0.002142267534509301
1634126100925532200,3.5685322265625,1.6340984106063843,0.1265067607164383,-0.6245270371437073
1634126100945412000,3.588412109375,1.2261245250701904,0.15335917472839355,-0.9611356258392334
1634126100965291300,3.608291259765625,0.796444296836853,0.0024545807391405106,-0.7722737193107605
1634126100985170200,3.628170166015625,0.4151853322982788,0.01808469370007515,-0.29369795322418213
1634126101005050000,3.648050048828125,0.08118730038404465,0.04670093581080437,0.27008527517318726
1634126101024929300,3.66792919921875,0.12888239324092865,0.16187572479248047,0.4685482978820801
1634126101044808200,3.68780810546875,0.02535877749323845,0.0832212045788765,0.32072383165359497
1634126101064688000,3.707688232421875,-0.19197046756744385,-0.03127855062484741,0.034645047038793564
1634126101084567300,3.7275673828125,-0.3898434340953827,-0.05218789726495743,-0.29077768325805664
1634126101104446200,3.7474462890625,-0.48575359582901,-0.08669042587280273,-0.42123815417289734
1634126101124326100,3.767326171875,-0.5093061923980713,-0.07707313448190689,-0.3176915943622589
1634126101144205000,3.787205078125,-0.515643835067749,-0.04365496337413788,-0.106697678565979
1634126101164084200,3.807084228515625,-0.5561103820800781,0.014348860830068588,0.0335656963288784
1634126101183964700,3.826964599609375,-0.5635637044906616,0.030126070603728294,0.03962211310863495
1634126101203843800,3.84684375,-0.4975487291812897,-0.07502685487270355,-0.02690899185836315
1634126101223723000,3.866722900390625,-0.38293465971946716,-0.12682247161865234,-0.1475183665752411
1634126101243602000,3.886601806640625,-0.24230137467384338,-0.12505440413951874,-0.269685298204422
1634126101263481900,3.90648193359375,-0.13264398276805878,-0.11869417130947113,-0.2250252664089203
1634126101283360800,3.92636083984375,-0.08505720645189285,-0.09455385059118271,-0.06061367318034172
1634126101303240000,3.946239990234375,-0.10225626081228256,-0.08336161077022552,0.0947338342666626
1634126101323119900,3.966119873046875,-0.14623317122459412,-0.13715393841266632,0.1767830103635788
1634126101342998800,3.985998779296875,-0.16068138182163239,-0.20782476663589478,0.1867518126964569
1634126101362878000,4.0058779296875,-0.12881840765476227,-0.2579842507839203,0.15702158212661743
1634126101382758000,4.0257578125,-0.08097594231367111,-0.2211432009935379,0.13660895824432373
1634126101402636800,4.04563671875,-0.02906705252826214,-0.12549585103988647,0.15658988058567047
1634126101422516000,4.065515869140625,0.012956234626471996,-0.024866946041584015,0.21532347798347473
1634126101442396000,4.08539599609375,0.06772252917289734,0.07971605658531189,0.2477959394454956
1634126101462274800,4.10527490234375,0.10825805366039276,0.17974194884300232,0.29995661973953247
1634126101482154000,4.125154052734375,0.13962937891483307,0.21110674738883972,0.3666808009147644
1634126101502032600,4.14503271484375,0.15937967598438263,0.1704048365354538,0.3781525492668152
1634126101521912800,4.164912841796875,0.17336903512477875,0.15142421424388885,0.27795788645744324
1634126101541792000,4.1847919921875,0.1571502983570099,0.17247281968593597,0.14803637564182281
1634126101561670700,4.204670654296875,0.12716472148895264,0.25229892134666443,0.0406867116689682
1634126101581550800,4.22455078125,0.13281090557575226,0.337205171585083,-0.04208754375576973
1634126101601430000,4.244429931640625,0.1824904829263687,0.31418269872665405,-0.10778346657752991
1634126101621309000,4.264308837890625,0.22716473042964935,0.2090686857700348,-0.18759863078594208
1634126101641188900,4.28418896484375,0.2395457923412323,0.03518514707684517,-0.23036059737205505
1634126101661067800,4.30406787109375,0.25318941473960876,-0.03710116446018219,-0.25954481959342957
1634126101680947000,4.323947021484375,0.2511994540691376,-0.03656889498233795,-0.24244099855422974
1634126101700827000,4.343826904296875,0.2183067500591278,-0.019208012148737907,-0.20270049571990967
1634126101720705800,4.363705810546875,0.15047211945056915,-0.01951112225651741,-0.17667315900325775
1634126101740585000,4.3835849609375,0.10223545134067535,-0.01511442381888628,-0.18750929832458496
1634126101760463600,4.403463623046875,0.09609650820493698,0.0006997371092438698,-0.257622092962265
1634126101780343800,4.42334375,0.14511851966381073,0.06295585632324219,-0.39089107513427734
1634126101800223000,4.443222900390625,0.193167582154274,0.08785079419612885,-0.5490451455116272
1634126101820101600,4.4631015625,0.20718681812286377,0.09748221188783646,-0.6452537178993225
1634126101839981800,4.48298193359375,0.18808265030384064,0.07781899720430374,-0.5893878936767578
1634126101859861000,4.502861083984375,0.1358051598072052,0.07945559918880463,-0.4092346131801605
1634126101879739600,4.52273974609375,0.05170666426420212,0.09152325242757797,-0.2284197062253952
1634126101899619800,4.542619873046875,-0.03369259834289551,0.04846963286399841,-0.11661688983440399
1634126101919499000,4.5624990234375,-0.126983180642128,0.0010842978954315186,-0.07311029732227325
1634126101939377700,4.582377685546875,-0.20975741744041443,-0.052225261926651,-0.04978712648153305
1634126101959256800,4.6022568359375,-0.25606054067611694,-0.08334706723690033,-0.055118072777986526
1634126101979137000,4.622136962890625,-0.26800718903541565,-0.11273413896560669,-0.05537464842200279
1634126101999016000,4.642015869140625,-0.24441587924957275,-0.09292378276586533,-0.01783587411046028
1634126102018894800,4.661894775390625,-0.21469281613826752,-0.08126463741064072,0.03450167924165726
1634126102038774800,4.68177490234375,-0.1924964040517807,-0.04209006950259209,0.06312557309865952
1634126102058654000,4.701654052734375,-0.16963577270507812,-0.054945722222328186,0.023989390581846237
1634126102078532900,4.721532958984375,-0.15396642684936523,-0.036816034466028214,-0.039578959345817566
1634126102098412800,4.741412841796875,-0.1138179674744606,0.03770069777965546,-0.08381260931491852
1634126102118292000,4.7612919921875,-0.06780148297548294,0.09576386958360672,-0.06529217958450317
1634126102138170600,4.781170654296875,-0.04161904379725456,0.12537764012813568,-0.05060300603508949
1634126102158050800,4.80105078125,-0.03652416914701462,0.09760939329862595,-0.08788350224494934
1634126102177933300,4.820933349609375,-0.02762799710035324,0.04308057203888893,-0.15424829721450806
1634126102197812200,4.840812255859375,-0.010380777530372143,0.0008972594514489174,-0.18779262900352478
1634126102217691100,4.860691162109375,0.01069058757275343,0.0011121025308966637,-0.18230430781841278
1634126102237571300,4.8805712890625,0.027837423607707024,0.01922914758324623,-0.15885062515735626
1634126102257450000,4.900449951171875,0.01555623672902584,-0.015408707782626152,-0.1229788139462471
1634126102277329200,4.9203291015625,-0.029579464346170425,-0.04944315180182457,-0.11300313472747803
1634126102297209300,4.940209228515625,-0.06871125847101212,-0.044770851731300354,-0.10753536969423294
1634126102317088000,4.960087890625,-0.09369529038667679,-0.027187667787075043,-0.07222627848386765
1634126102336967200,4.97996728515625,-0.09974052757024765,-0.015546406619250774,-0.030097145587205887
1634126102356847400,4.999847412109375,-0.10250656306743622,-0.012058023363351822,0.010917380452156067
1634126102376726300,5.019726318359375,-0.10229521989822388,-0.009401055984199047,0.018702711910009384
1634126102396605200,5.039605224609375,-0.09216047078371048,0.009332356043159962,-0.03154215216636658
1634126102416485400,5.0594853515625,-0.07394861429929733,0.03984655812382698,-0.08018900454044342
1634126102436364300,5.0793642578125,-0.025383995845913887,0.055626172572374344,-0.07139533013105392
1634126102456243200,5.0992431640625,0.03306100144982338,0.06014819070696831,-0.03077642433345318
1634126102476122000,5.1191220703125,0.06834403425455093,0.05211669206619263,-0.0009441017755307257
1634126102496002300,5.139002197265625,0.08280476927757263,0.033601582050323486,-0.017644383013248444
1634126102515881200,5.158881103515625,0.11298010498285294,0.0040739839896559715,-0.04314427822828293
1634126102535760100,5.178760009765625,0.15491260588169098,0.004744707606732845,-0.026013419032096863
1634126102555640300,5.198640380859375,0.19203878939151764,0.01217501051723957,0.03034272976219654
1634126102575519000,5.21851904296875,0.22340087592601776,-0.0027086855843663216,0.06326979398727417
1634126102595398100,5.238398193359375,0.24006059765815735,-0.03439553081989288,0.07720279693603516
1634126102615278300,5.2582783203125,0.24734927713871002,-0.02793850004673004,0.03879905119538307
1634126102635157000,5.278156982421875,0.22419939935207367,-0.06783566623926163,0.011792747303843498
1634126102655036200,5.2980361328125,0.19271959364414215,-0.02878151275217533,0.004092827904969454
1634126102674916400,5.317916259765625,0.1647440791130066,-0.050700895488262177,0.03381439670920372
1634126102694795000,5.337794921875,0.12689121067523956,-0.0030576037243008614,0.05059821158647537
1634126102714674200,5.357674072265625,0.09726458787918091,0.03482268750667572,0.045448824763298035
1634126102734553000,5.377552978515625,0.07407645136117935,0.016766848042607307,0.04246127977967262
1634126102754433300,5.397433349609375,0.03260532394051552,0.008293652907013893,0.0339336097240448
1634126102774312200,5.417312255859375,0.005227073095738888,0.011122666299343109,0.011526474729180336
1634126102794191000,5.437191162109375,-0.015146186575293541,0.031335171312093735,-0.004943598061800003
1634126102814071300,5.4570712890625,-0.019931353628635406,0.043604087084531784,-0.008008097298443317
1634126102833950200,5.4769501953125,-0.020690269768238068,0.012821095995604992,-0.031008748337626457
1634126102853829000,5.4968291015625,-0.01542383711785078,-0.03396013006567955,-0.04895982891321182
1634126102873709300,5.516709228515625,-0.01968294568359852,-0.048837658017873764,-0.0544709712266922
1634126102893588200,5.536588134765625,-0.040756382048130035,-0.005181208718568087,-0.06119756028056145
1634126102913467100,5.556467041015625,-0.04004936292767525,0.035000722855329514,-0.07935670763254166
1634126102933346300,5.57634619140625,-0.003251653164625168,0.0378618985414505,-0.08149144053459167
1634126102953226000,5.59622607421875,0.026281852275133133,0.008944022469222546,-0.060835614800453186
1634126102973105200,5.616105224609375,0.02603447437286377,-0.02480875328183174,-0.0237767081707716
1634126102992984300,5.635984375,0.012514671310782433,-0.04036747291684151,0.01409184467047453
1634126103012864000,5.655864013671875,0.00647199060767889,-0.03942859545350075,0.03559968248009682
1634126103032743200,5.6757431640625,0.0030511280056089163,-0.028366737067699432,0.04993479326367378
1634126103052622300,5.695622314453125,0.011971598491072655,-0.0336068794131279,0.05775344744324684
1634126103072502000,5.715501953125,0.030756419524550438,-0.026086224243044853,0.04858805984258652
1634126103092381200,5.735381103515625,0.03414558991789818,-0.015074726194143295,0.02702120691537857
1634126103112260000,5.755260009765625,0.02211829647421837,-0.01420937292277813,0.020420048385858536
1634126103132139300,5.77513916015625,0.011916453018784523,-0.013187090866267681,0.02407754212617874
1634126103152019200,5.795019287109375,0.006330471485853195,-0.012165755033493042,0.022364934906363487
1634126103171898000,5.814898193359375,0.0053228894248604774,-0.0266418494284153,-0.000687895982991904
1634126103191774500,5.8347744140625,-0.0035996045917272568,-0.03433700650930405,-0.036387812346220016
1634126103211654400,5.854654296875,-0.011661825701594353,-0.0186415147036314,-0.059988100081682205
1634126103231533300,5.874533203125,-0.02093861624598503,0.0032379254698753357,-0.051240306347608566
1634126103251412500,5.89441259765625,-0.031161222606897354,0.016791576519608498,-0.016179630532860756
1634126103271292400,5.91429248046875,-0.04598549008369446,0.04554909095168114,0.011588837020099163
1634126103291171300,5.93417138671875,-0.06264171004295349,0.05428466200828552,0.02300369180738926
1634126103311050500,5.954050537109375,-0.07034139335155487,0.02842574194073677,0.02583981305360794
1634126103330930200,5.97393017578125,-0.075542151927948,0.009159560315310955,0.025434015318751335
1634126103350809300,5.993809326171875,-0.06693055480718613,0.02041061595082283,0.02239641360938549
1634126103370688500,6.0136884765625,-0.04721246659755707,0.023630090057849884,-0.004476344212889671
1634126103390567400,6.0335673828125,-0.03812126815319061,0.023162059485912323,-0.03271558880805969
1634126103410447400,6.053447265625,-0.03192603215575218,0.0025206049904227257,-0.02305951900780201
1634126103430326300,6.073326171875,-0.02733568847179413,0.011900595389306545,0.002285939874127507
1634126103450205400,6.093205322265625,-0.02034825086593628,0.02145049348473549,0.02405320480465889
1634126103470085400,6.11308544921875,0.00022421451285481453,0.034731119871139526,0.0275430865585804
1634126103489964300,6.13296435546875,0.030371487140655518,0.040494728833436966,0.015361759811639786
1634126103509843500,6.152843505859375,0.04752538725733757,0.036902546882629395,0.003961179405450821
1634126103529723400,6.172723388671875,0.046905070543289185,0.03626421093940735,-0.0005023848498240113
1634126103549602300,6.192602294921875,0.03598322719335556,0.01368805393576622,0.008978943340480328
1634126103569481500,6.2124814453125,0.015594381839036942,-0.013297392055392265,0.03681354969739914
1634126103589361400,6.232361328125,-0.006152713671326637,-0.04199681431055069,0.07162052392959595
1634126103609240300,6.252240234375,-0.01350075751543045,-0.05077068507671356,0.0809464156627655
1634126103629119500,6.272119384765625,-0.009864180348813534,-0.04345192387700081,0.06548965722322464
1634126103648998100,6.291998046875,0.004727726802229881,-0.022440072149038315,0.048283763229846954
1634126103668878300,6.31187841796875,0.01418810524046421,-0.010523377917706966,0.029102761298418045
1634126103688757500,6.331757568359375,0.015446163713932037,-0.00011412985622882843,0.012063425965607166
1634126103708636200,6.35163623046875,0.015361269935965538,0.008553886786103249,-0.0014989544870331883
1634126103728516400,6.371516357421875,0.013796025887131691,0.006750176660716534,-0.014780113473534584
1634126103748395500,6.3913955078125,0.017611803486943245,0.015067494474351406,-0.01539130974560976
1634126103768274400,6.4112744140625,0.02436714433133602,0.016779793426394463,-0.01320713572204113
1634126103788154400,6.431154296875,0.020013920962810516,0.03166741505265236,-0.01944522187113762
1634126103808033300,6.451033203125,0.024122880771756172,0.022782184183597565,-0.031217416748404503
1634126103827912400,6.470912353515625,0.042679496109485626,-0.0046448963694274426,-0.030604787170886993
1634126103847791400,6.490791259765625,0.053194936364889145,-0.022452231496572495,-0.030610766261816025
1634126103867671300,6.51067138671875,0.06624788790941238,-0.00480958865955472,-0.017557015642523766
1634126103887550500,6.530550537109375,0.07637038081884384,0.02722819522023201,0.012181974947452545
1634126103907429000,6.55042919921875,0.08371823281049728,0.02338303253054619,0.015374019742012024
1634126103927309300,6.570309326171875,0.0924936905503273,-0.0036873752251267433,-0.018272338435053825
1634126103947188500,6.5901884765625,0.08220655471086502,-0.051183439791202545,-0.017038799822330475
1634126103967067100,6.610067138671875,0.07188210636377335,-0.06258968263864517,0.012069735676050186
1634126103986947300,6.629947265625,0.05865686759352684,-0.05472723767161369,0.03440084308385849
1634126104006826500,6.649826416015625,0.0605701208114624,-0.022073175758123398,0.037170134484767914
1634126104026705200,6.669705078125,0.06456159800291061,-0.010307702235877514,0.04150114208459854
1634126104046585300,6.68958544921875,0.05323842912912369,-0.020886069163680077,0.04572448879480362
1634126104066464500,6.709464599609375,0.04020948335528374,-0.025987230241298676,0.03886467590928078
1634126104086343200,6.72934326171875,0.027668140828609467,-0.0276155024766922,0.01459332276135683
1634126104106222300,6.749222412109375,0.032064083963632584,0.0018440531566739082,-0.007283872924745083
1634126104126102500,6.7691025390625,0.02543608658015728,0.011159094050526619,0.004752109758555889
1634126104145981200,6.788981201171875,0.021389789879322052,0.008557110093533993,0.01432334166020155
1634126104165860400,6.8088603515625,0.008848553523421288,0.024778377264738083,0.00209032348357141
1634126104185740500,6.828740478515625,-0.012745493091642857,0.01775578036904335,-0.010883091017603874
1634126104205619500,6.848619384765625,-0.045249760150909424,0.014278422109782696,-0.007238177582621574
1634126104225498600,6.86849853515625,-0.05262722074985504,0.012777590192854404,0.011364491656422615
1634126104245378600,6.888378662109375,-0.05414191633462906,0.02398836985230446,0.015019583515822887
1634126104265257500,6.908257568359375,-0.05406017601490021,0.05099176615476608,0.012052052654325962
1634126104285136400,6.928136474609375,-0.04441755637526512,0.0665644183754921,0.0012811243068426847
1634126104305015600,6.948015625,-0.02261935919523239,0.051461122930049896,-0.0053873006254434586
1634126104324895700,6.967895751953125,-0.008261442184448242,0.022221853956580162,-0.002268558833748102
1634126104344774400,6.9877744140625,0.0017543290741741657,-0.001569962128996849,0.016496969386935234
1634126104364653600,7.007653564453125,0.011111130937933922,0.00832645408809185,0.019832966849207878
1634126104384533800,7.02753369140625,0.01803445629775524,0.026616424322128296,0.012210209853947163
1634126104404412400,7.047412353515625,0.021647043526172638,-0.0014606192708015442,0.00920481700450182
1634126104424291600,7.06729150390625,0.03720702975988388,-0.026429593563079834,-0.005759324412792921
1634126104444171800,7.087171875,0.051224492490291595,-0.037757039070129395,-0.01185796782374382
1634126104464050400,7.107050537109375,0.05246811732649803,-0.022350477054715157,-0.009594833478331566
1634126104483929600,7.1269296875,0.04096035286784172,0.004377521574497223,0.002431900706142187
1634126104503808500,7.14680859375,0.035340506583452225,0.03197614848613739,0.008880876004695892
1634126104523688400,7.1666884765625,0.03341991454362869,0.045663557946681976,0.00976346805691719
1634126104543567600,7.186567626953125,0.03784595802426338,0.051473308354616165,0.00767807150259614
1634126104563446500,7.206446533203125,0.04517468810081482,0.039537835866212845,-0.006089304573833942
1634126104583326500,7.226326416015625,0.0343233197927475,0.05452892556786537,-0.016897065564990044
1634126104603205600,7.24620556640625,0.019313596189022064,0.055219292640686035,-0.01696561835706234
1634126104623084500,7.26608447265625,0.0020491655450314283,0.07221849262714386,-0.027092687785625458
1634126104642964500,7.285964599609375,-0.003512364812195301,0.05425429344177246,-0.019446607679128647
1634126104662843400,7.305843505859375,-0.012406368739902973,0.02111637592315674,0.00684874365106225
1634126104682722600,7.32572265625,-0.025283925235271454,-0.021715715527534485,0.010675003752112389
1634126104702601700,7.345601806640625,-0.04767909273505211,-0.03279523551464081,0.008815834298729897
1634126104722481400,7.3654814453125,-0.07217918336391449,-0.04586571827530861,0.03023586980998516
1634126104742360600,7.385360595703125,-0.09891490638256073,-0.06648577749729156,0.07298463582992554
1634126104762239700,7.40523974609375,-0.10341513901948929,-0.06452327221632004,0.05610562115907669
1634126104782119400,7.425119384765625,-0.08596251904964447,-0.04015754535794258,-0.00841544009745121
1634126104801998600,7.44499853515625,-0.07473114132881165,0.04013301432132721,-0.09029442816972733
1634126104821877500,7.46487744140625,-0.07848567515611649,0.09635566920042038,-0.1708819419145584
1634126104841757400,7.48475732421875,-0.08771427720785141,0.0964553952217102,-0.2002532184123993
1634126104861636600,7.50463671875,-0.109028160572052,0.09222659468650818,-0.174973264336586
1634126104881515500,7.524515625,-0.12258623540401459,0.10446219146251678,-0.13235005736351013
1634126104901394700,7.544394775390625,-0.10097476094961166,0.09879621118307114,-0.12067458778619766
1634126104921274600,7.564274658203125,-0.05284930393099785,0.055011048913002014,-0.10914072394371033
1634126104941153500,7.584153564453125,-0.0023791969288140535,-0.054375916719436646,-0.03073173575103283
1634126104961032700,7.60403271484375,0.01802120730280876,-0.12506103515625,0.10252389311790466
1634126104980912600,7.62391259765625,0.004902261309325695,-0.1576247215270996,0.2005818635225296
1634126105000791600,7.64379150390625,-0.025572557002305984,-0.19126629829406738,0.239607036113739
1634126105020670700,7.663670654296875,-0.050381362438201904,-0.186194509267807,0.23893924057483673
1634126105040549600,7.683549560546875,-0.060911908745765686,-0.14156346023082733,0.1994124799966812
1634126105060429600,7.7034296875,-0.05649935454130173,-0.08079250156879425,0.12579511106014252
1634126105080308700,7.723308837890625,-0.03933897241950035,-0.03108062595129013,0.051271215081214905
1634126105100187600,7.743187744140625,-0.025329185649752617,-0.0017304383218288422,0.003324326127767563
1634126105120067600,7.763067626953125,-0.0252909567207098,0.022588681429624557,-0.030251100659370422
1634126105139946500,7.782946533203125,-0.02100183814764023,0.031451232731342316,-0.04115009680390358
1634126105159825700,7.80282568359375,-0.009658442810177803,0.0464567095041275,-0.030704470351338387
1634126105179704000,7.8227041015625,0.012453069910407066,0.05335158854722977,-0.023243354633450508
1634126105199583000,7.8425830078125,0.026989497244358063,0.028225019574165344,-0.0468570813536644
1634126105219462100,7.862462158203125,0.04241734743118286,0.002669655717909336,-0.08117766678333282
1634126105239341000,7.882341064453125,0.06689159572124481,0.015905261039733887,-0.09447640180587769
1634126105259221000,7.902220947265625,0.10581275075674057,0.029698636382818222,-0.07949116826057434
1634126105279100200,7.92210009765625,0.12514139711856842,0.029116490855813026,-0.05607786029577255
1634126105298979000,7.94197900390625,0.11355401575565338,0.003148670308291912,-0.052772119641304016
1634126105318859000,7.96185888671875,0.08275482803583145,-0.010591926984488964,-0.03767047077417374
1634126105338738200,7.98173828125,0.035847652703523636,-0.007316839415580034,0.008008711040019989
1634126105358617000,8.0016171875,0.004389164969325066,0.010646934621036053,0.032354503870010376
1634126105378496300,8.021496337890625,-0.01888301409780979,0.006912986747920513,0.03443565592169762
1634126105398376200,8.041376220703125,-0.032778047025203705,-0.008494600653648376,0.052856724709272385
1634126105418255000,8.061255126953125,-0.03804096207022667,-0.021415479481220245,0.07019353657960892
1634126105438134300,8.08113427734375,-0.029980473220348358,-0.041644386947155,0.06399883329868317
1634126105458014000,8.101013916015624,-0.006228643469512463,-0.05574870854616165,0.03105955570936203
1634126105477893000,8.12089306640625,0.0053595262579619884,-0.05557744577527046,0.006502944510430098
1634126105497772300,8.140772216796876,0.0011684433557093143,-0.047508977353572845,-0.005056064110249281
1634126105517652000,8.16065185546875,0.0010014353320002556,-0.03261203318834305,0.014143829233944416
1634126105537531100,8.18053125,0.00008257920853793621,-0.029551904648542404,0.0546240508556366
1634126105557410000,8.20041015625,-0.0022835740819573402,-0.025190867483615875,0.05728117749094963
1634126105577289200,8.220289306640625,-0.002503181342035532,-0.021583393216133118,0.026979973539710045
1634126105597169200,8.240169189453125,0.005658489651978016,-0.0006530331447720528,0.014490337111055851
1634126105617048000,8.260048095703125,0.0045368243008852005,0.009326077066361904,0.03288542851805687
1634126105636927200,8.27992724609375,-0.0016017439775168896,0.03798221796751022,0.049571167677640915
1634126105656807200,8.29980712890625,0.0023440206423401833,0.11088703572750092,0.06098111346364021
1634126105676686000,8.31968603515625,0.022708062082529068,0.1979450136423111,0.056341614574193954
1634126105696565200,8.339565185546874,0.026648811995983124,0.2004065215587616,0.04190518707036972
1634126105716444000,8.35944384765625,0.006406500935554504,0.09604239463806152,0.007120536640286446
1634126105736324000,8.379323974609376,-0.0048549664206802845,0.0036275293678045273,-0.02262873575091362
1634126105756203300,8.399203369140626,0.021352659910917282,-0.0023069242015480995,-0.005266242660582066
1634126105776082000,8.41908203125,0.051560837775468826,0.004146205261349678,0.048424575477838516
1634126105795962000,8.438962158203125,0.04733813554048538,-0.002547783777117729,0.06503362953662872
1634126105815841300,8.45884130859375,0.026344874873757362,-0.04761281609535217,0.05198202282190323
1634126105835720000,8.478719970703125,0.014032086357474327,-0.06234760209918022,0.01747707650065422
1634126105855599000,8.49859912109375,0.018944302573800087,-0.040456414222717285,-0.0119069404900074
1634126105875479300,8.518479248046875,0.03232737258076668,0.005276248790323734,-0.016790281981229782
1634126105895358200,8.538358154296875,0.044038325548172,0.06099570542573929,-0.008560789749026299
1634126105915237000,8.558237060546874,0.04868596792221069,0.07562970370054245,-0.03247829154133797
1634126105935117000,8.578116943359374,0.041143521666526794,0.033880844712257385,-0.06628548353910446
1634126105954996200,8.597996337890624,0.027853799983859062,0.03466540947556496,-0.07104185968637466
1634126105974875100,8.617875244140626,-0.0017181423027068377,0.07589418441057205,-0.011200007051229477
1634126105994754000,8.637754150390625,-0.04798021912574768,0.07861169427633286,0.07170698791742325
1634126106014634200,8.65763427734375,-0.0731630027294159,0.03871216997504234,0.1136494129896164
1634126106034513200,8.67751318359375,-0.08259647339582443,-0.014969011768698692,0.09201265126466751
1634126106054392000,8.69739208984375,-0.0699862688779831,-0.014861620031297207,0.02234208583831787
1634126106074272300,8.717272216796875,-0.046114254742860794,0.05753135681152344,-0.029160194098949432
1634126106094151000,8.73715087890625,-0.0138502586632967,0.09491532295942307,-0.056682273745536804
1634126106114030000,8.757030029296875,0.020441487431526184,0.09281804412603378,-0.07060075551271439
1634126106133910300,8.77691015625,0.018266398459672928,0.09551693499088287,-0.06236119940876961
1634126106153789000,8.796788818359374,-0.00456079188734293,0.11624439060688019,-0.03380253538489342
1634126106173668000,8.816668212890624,-0.017595693469047546,0.15274065732955933,-0.03011496365070343
1634126106193551000,8.836551025390625,-0.025505762547254562,0.159347265958786,-0.010081745684146881
1634126106213431000,8.85643115234375,0.007111500948667526,0.10697890818119049,-0.004675563424825668
1634126106233310000,8.87631005859375,0.032390154898166656,0.038556329905986786,-0.01785883493721485
1634126106253189000,8.896189208984374,0.0582304485142231,0.008535228669643402,-0.0351555198431015
1634126106273068300,8.916068359375,0.05038009211421013,0.01171406451612711,-0.007858693599700928
1634126106292948000,8.935947998046874,0.029582565650343895,0.02111719734966755,0.02462470531463623
1634126106312827100,8.9558271484375,0.011908093467354774,0.02626129612326622,0.046545855700969696
1634126106332706000,8.9757060546875,0.0216680895537138,0.004229206591844559,0.025347229093313217
1634126106352586000,8.9955859375,0.053657930344343185,-0.0038104536943137646,-0.011886544525623322
1634126106372465200,9.015465087890625,0.0772099643945694,0.014702863991260529,-0.04157017916440964
1634126106392344000,9.035343994140625,0.07976020127534866,0.025808513164520264,-0.02237648144364357
1634126106412224000,9.05522412109375,0.07445930689573288,0.02240346185863018,0.020096536725759506
1634126106432103200,9.075103271484375,0.05205434188246727,0.021596144884824753,0.026673389598727226
1634126106451982000,9.094982177734375,0.016045141965150833,0.0539097934961319,-0.005863830912858248
1634126106471861200,9.114861328125,-0.024139799177646637,0.10745235532522202,-0.015612964518368244
1634126106491741200,9.1347412109375,-0.044122736901044846,0.152197003364563,0.031981173902750015
1634126106511620000,9.1546201171875,-0.048175837844610214,0.1279251128435135,0.06545243412256241
1634126106531499300,9.174499267578126,-0.04057927057147026,0.06161431223154068,0.034814123064279556
1634126106551378000,9.1943779296875,-0.020104819908738136,0.046571023762226105,-0.03223513066768646
1634126106571258000,9.214258056640626,0.005347490310668945,0.058297351002693176,-0.054695285856723785
1634126106591137300,9.23413720703125,0.02250605635344982,0.10410846769809723,-0.03624969720840454
1634126106611016000,9.254015869140625,0.04092518240213394,0.11165311187505722,-0.03032255358994007
1634126106630896000,9.273896240234375,0.028874360024929047,0.12093303352594376,-0.052307434380054474
1634126106650775300,9.293775390625,0.015084790997207165,0.10587897896766663,-0.07628337293863297
1634126106670654000,9.313654052734375,0.014751430600881577,0.06579585373401642,-0.07223767787218094
1634126106690533000,9.333533203125,0.026053166016936302,0.06022141873836517,-0.058789756149053574
1634126106710413000,9.3534130859375,0.028503092005848885,0.06768061965703964,-0.03246493637561798
1634126106730292000,9.3732919921875,0.014293667860329151,0.059072285890579224,0.005764333996921778
1634126106750171100,9.393171142578124,-0.009209053590893745,0.0327586755156517,0.020980197936296463
1634126106770051000,9.413051025390626,-0.0326792374253273,-0.003880829084664583,0.027737468481063843
1634126106789930000,9.432929931640626,-0.03954901546239853,-0.0313551090657711,0.023750394582748413
1634126106809809000,9.452808837890625,-0.02464478835463524,-0.03293347731232643,0.03438009321689606
1634126106829689000,9.472689208984375,-0.006064334884285927,-0.0008480437099933624,0.04777756333351135
1634126106849568300,9.492568359375,-0.0017234403640031815,0.03303670883178711,0.039166394621133804
1634126106869447000,9.512447021484375,-0.008060331456363201,0.0466398224234581,-0.0018689489224925637
1634126106889326000,9.532326171875,-0.004575627855956554,0.06216740608215332,-0.07065001130104065
1634126106909206300,9.552206298828125,0.014542355202138424,0.05959361791610718,-0.09896592795848846
1634126106929085000,9.5720849609375,0.020139435306191444,0.047948725521564484,-0.07676156610250473
1634126106948964000,9.591964111328124,0.01099247857928276,0.043101925402879715,-0.04687352478504181
1634126106968844300,9.61184423828125,-0.0009145103394985199,0.04545058682560921,-0.03156696632504463
1634126106988723000,9.631722900390624,-0.012696996331214905,0.0443468876183033,-0.040074098855257034
1634126107008602000,9.65160205078125,-0.01687595248222351,0.016032401472330093,-0.04630475491285324
1634126107028481000,9.67148095703125,-0.00777253694832325,-0.01154953334480524,-0.02739294059574604
1634126107048361000,9.69136083984375,-0.018894551321864128,-0.023194804787635803,-0.00038784416392445564
1634126107068240100,9.711240234375,-0.027478022500872612,0.002739368937909603,0.005221596919000149
1634126107088119000,9.731119140625,-0.044001586735248566,0.017056256532669067,0.012503181584179401
1634126107107998200,9.750998291015625,-0.04636038467288017,0.023627204820513725,0.028739217668771744
1634126107127878100,9.770878173828125,-0.03828146308660507,0.011624626815319061,0.04064900428056717
1634126107147757000,9.790757080078125,-0.020589984953403473,0.012607823126018047,0.030863195657730103
1634126107167636200,9.81063623046875,-0.01868712529540062,-0.0020906971767544746,0.02924952656030655
1634126107187512800,9.830512939453126,-0.0264855045825243,-0.021757429465651512,0.054057978093624115
1634126107207391700,9.850391845703125,-0.03627890348434448,-0.03710567206144333,0.07918006926774979
1634126107227271000,9.87027099609375,-0.03789679706096649,-0.025390557944774628,0.07158610969781876
1634126107247149800,9.89014990234375,-0.024161674082279205,0.00007225759327411652,0.0466902032494545
1634126107267029800,9.91002978515625,-0.01309933327138424,0.04063668102025986,0.029322907328605652
1634126107286909000,9.929908935546875,0.005955122411251068,0.041666217148303986,0.014894736930727959
1634126107306787800,9.949787841796875,0.02119709923863411,0.03845249116420746,0.008775067515671253
1634126107326667800,9.969667724609375,0.011146113276481628,0.03902465105056763,0.013320672325789928
1634126107346547000,9.989546875,-0.010493867099285126,0.03306647017598152,0.02039118856191635
1634126107366425900,10.00942578125,-0.02059006504714489,0.025476660579442978,0.029673807322978973
1634126107386304800,10.0293046875,-0.013920660130679607,0.022898832336068153,0.02381736971437931
1634126107406185000,10.04918505859375,-0.004446241073310375,0.028633439913392067,0.011304639279842377
1634126107426064000,10.06906396484375,0.005155066028237343,0.035510607063770294,0.000028834736440330744
1634126107445942800,10.08894287109375,0.01627192273736,0.0235464908182621,0.011559211649000645
1634126107465823000,10.108822998046875,0.02984052523970604,0.006937775760889053,0.027301739901304245
1634126107485702000,10.128701904296875,0.030691565945744514,0.003100624307990074,0.0254924688488245
1634126107505580800,10.148580810546875,0.016005590558052063,0.016786854714155197,0.036814797669649124
1634126107525459700,10.168459716796875,0.012012953869998455,0.03494697064161301,0.03751344606280327
1634126107545340000,10.18833984375,0.005355299450457096,0.027340983971953392,0.042978279292583466
1634126107565218800,10.20821875,-0.010250658728182316,0.018732093274593353,0.056890662759542465
1634126107585097700,10.22809765625,-0.011931193061172962,-0.008720125071704388,0.0829043984413147
1634126107604978000,10.24797802734375,-0.018963053822517395,-0.025626780465245247,0.10763252526521683
1634126107624856800,10.26785693359375,-0.007871527224779129,-0.032619308680295944,0.10422210395336151
1634126107644735700,10.28773583984375,0.004915432073175907,-0.025889258831739426,0.07801509648561478
1634126107664615000,10.307614990234375,0.008982302621006966,-0.019616160541772842,0.05530565604567528
1634126107684494800,10.327494873046875,0.005449936259537935,-0.01015357207506895,0.04239317402243614
1634126107704373800,10.347373779296875,-0.0005873357877135277,0.021945707499980927,0.026095598936080933
1634126107724253000,10.3672529296875,0.00963395182043314,0.03846767172217369,0.011441896669566631
1634126107744132900,10.3871328125,0.00680515356361866,0.01244430523365736,0.009716897271573544
1634126107764011800,10.40701171875,-0.00954325683414936,-0.016961077228188515,0.022646227851510048
1634126107783890700,10.426890625,0.009623044170439243,-0.013084490783512592,0.02590758539736271
1634126107803769900,10.446769775390624,0.040640752762556076,-0.009424442425370216,0.020336642861366272
1634126107823649800,10.46664990234375,0.0497625507414341,-0.03086111694574356,0.014676844701170921
1634126107843528700,10.48652880859375,0.025683943182229996,-0.04954884946346283,0.019663546234369278
1634126107863407900,10.506407958984376,0.008230074308812618,-0.05071023106575012,0.032665494829416275
1634126107883287800,10.526287841796876,-0.0059046964161098,-0.03927725926041603,0.045989155769348145
1634126107903166700,10.546166748046875,-0.01433988381177187,-0.02918005920946598,0.04038422554731369
1634126107923046000,10.5660458984375,-0.013917472213506699,-0.02890937216579914,0.022149980068206787
1634126107942924800,10.5859248046875,-0.009398166090250015,-0.027808241546154022,0.004333945456892252
1634126107962804700,10.6058046875,-0.013589687645435333,-0.032512471079826355,0.016707954928278923
1634126107982684000,10.625683837890625,-0.03681124374270439,-0.016555678099393845,0.049793314188718796
1634126108002562800,10.645562744140625,-0.044214483350515366,-0.007344780024141073,0.060796454548835754
1634126108022442000,10.66544189453125,-0.03512705862522125,-0.018418557941913605,0.02960096299648285
1634126108042322000,10.685322021484374,-0.024355880916118622,-0.009251582436263561,-0.021916376426815987
1634126108062200800,10.705200927734374,-0.007120364345610142,0.00544664915651083,-0.046796347945928574
1634126108082080000,10.725080078125,0.004097841214388609,0.04101893678307533,-0.040578924119472504
1634126108101960000,10.7449599609375,-0.0028564713429659605,0.05899101495742798,-0.019057653844356537
1634126108121838800,10.7648388671875,-0.010098635219037533,0.04541885480284691,-0.019813040271401405
1634126108141718000,10.784718017578125,-0.0036222427152097225,0.01836346834897995,-0.01725969836115837
1634126108161596700,10.8045966796875,0.013894115574657917,0.006781823933124542,0.0031328448094427586
1634126108181480200,10.824480224609376,0.023702377453446388,0.013053636066615582,0.019940240308642387
1634126108201359000,10.844359130859376,0.03440629690885544,-0.014015598222613335,0.015598866157233715
1634126108221238000,10.864238037109375,0.06238696724176407,-0.07741530239582062,-0.030629856511950493
1634126108241118200,10.8841181640625,0.06833824515342712,-0.13504207134246826,-0.054486725479364395
1634126108260997000,10.9039970703125,0.04195728898048401,-0.11619263142347336,-0.010714623145759106
1634126108280876000,10.9238759765625,0.034259144216775894,-0.07189680635929108,0.04573962837457657
1634126108300755000,10.9437548828125,0.05088663101196289,-0.03633777052164078,0.09874598681926727
1634126108320635100,10.96363525390625,0.0554148331284523,-0.008555675856769085,0.08924110978841782
1634126108340514300,10.983514404296875,0.04496314749121666,-0.013574757613241673,0.037651725113391876
1634126108360393000,11.00339306640625,0.027718042954802513,-0.02317221090197563,-0.008948836475610733
1634126108380272000,11.023272216796874,0.03864409774541855,0.009330780245363712,-0.006158366799354553
1634126108400152000,11.043152099609374,0.07572896778583527,0.06475871056318283,0.014603657647967339
1634126108420031000,11.063031005859376,0.1067475900053978,0.10595687478780746,0.04065125063061714
1634126108439910100,11.08291015625,0.1070098951458931,0.11197827756404877,0.03163624927401543
1634126108459790000,11.1027900390625,0.09789463877677917,0.06863964349031448,-0.007012708578258753
1634126108479669000,11.1226689453125,0.06408530473709106,0.01791798695921898,-0.022876178845763206
1634126108499548200,11.142548095703125,0.03747629374265671,-0.019794080406427383,-0.01911887526512146
1634126108519427000,11.162427001953125,0.015324274078011513,-0.015113800764083862,-0.0033473132643848658
1634126108539307000,11.18230712890625,0.006529436446726322,-0.015188210643827915,0.03135586157441139
1634126108559186000,11.20218603515625,0.0054078297689557076,0.0035736914724111557,0.05924651771783829
1634126108579065000,11.222065185546874,0.007273553870618343,0.012022349052131176,0.047540321946144104
1634126108598944300,11.2419443359375,0.015619870275259018,-0.017916619777679443,-0.00566793791949749
1634126108618824000,11.261823974609374,0.024189116433262825,-0.0535072386264801,-0.04967266693711281
1634126108638703000,11.281703125,0.037209801375865936,-0.08732084184885025,-0.03423498570919037
1634126108658582000,11.30158203125,0.036644987761974335,-0.09967952966690063,0.024430057033896446
1634126108678462000,11.3214619140625,0.025083040818572044,-0.06353878974914551,0.05084783956408501
1634126108698341000,11.341341064453125,0.017541248351335526,-0.06644642353057861,0.060572609305381775
1634126108718220000,11.361219970703125,0.0006512075196951628,-0.11013545095920563,0.04745549336075783
1634126108738099200,11.38109912109375,-0.003080554772168398,-0.12274596840143204,0.013688936829566956
1634126108757979100,11.400979248046875,0.013186007738113403,-0.0960223376750946,0.018742330372333527
1634126108777858000,11.420858154296875,0.031374916434288025,-0.02850949764251709,0.03700774163007736
1634126108797737200,11.4407373046875,0.031501080840826035,0.012988964095711708,0.02807728946208954
1634126108817617200,11.4606171875,0.020681144669651985,0.013177004642784595,0.005302065052092075
1634126108837496000,11.48049609375,0.007755858823657036,-0.044597920030355453,0.0038892326410859823
1634126108857375200,11.500375244140624,0.0034813920501619577,-0.04545634612441063,-0.00024025479797273874
1634126108877254000,11.52025390625,0.0015532142715528607,0.013422838412225246,0.006591431796550751
1634126108897134000,11.540134033203126,-0.0019320088904350996,0.05127512663602829,0.011800680309534073
1634126108917013200,11.56001318359375,0.00885846558958292,-0.0035844636149704456,0.005682177841663361
1634126108936892200,11.57989208984375,0.021878903731703758,-0.06735984981060028,-0.018108326941728592
1634126108956771000,11.59977099609375,0.03983478248119354,-0.03212212026119232,-0.04965068772435188
1634126108976651300,11.6196513671875,0.06258057057857513,-0.00023382995277643204,-0.04447454959154129
1634126108996530200,11.6395302734375,0.06979640573263168,0.01018951553851366,-0.025220962241292
1634126109016409000,11.6594091796875,0.06825137883424759,0.03753199055790901,-0.03277062997221947
1634126109036289000,11.6792890625,0.06276962906122208,0.049418967217206955,-0.01877734251320362
1634126109056168200,11.699168212890624,0.05867111682891846,0.035309627652168274,0.003594531212002039
1634126109076047000,11.719047119140624,0.04351762682199478,0.024652499705553055,0.013522021472454071
1634126109095926000,11.738926025390626,0.05268039554357529,0.030034948140382767,0.04303232207894325
1634126109115806200,11.75880615234375,0.11123808473348618,0.08598882704973221,0.09990830719470978
1634126109135684900,11.778684814453126,0.13672883808612823,0.12995268404483795,0.10763932019472122
1634126109155564000,11.79856396484375,0.1281275749206543,0.13081704080104828,0.04488614201545715
1634126109175443200,11.818443115234375,0.1111132875084877,0.07706053555011749,-0.029668617993593216
1634126109195322600,11.838322509765625,0.08985918760299683,0.059813857078552246,-0.0702548623085022
1634126109215201800,11.858201904296875,0.09620898216962814,0.07430478930473328,-0.08829276263713837
1634126109235081000,11.8780810546875,0.08779285103082657,0.0973239541053772,-0.102006696164608
1634126109254961000,11.8979609375,0.07486722618341446,0.12938494980335236,-0.087895467877388
1634126109274839800,11.91783984375,0.07913462072610855,0.1637609302997589,-0.04698273912072182
1634126109294719000,11.937718994140624,0.07014919817447662,0.15804266929626465,-0.0016933009028434753
1634126109314598000,11.957597900390626,0.04071318358182907,0.09124317765235901,0.01516213733702898
1634126109334477800,11.977477783203126,0.014916760846972466,0.006602195091545582,0.010717809200286865
1634126109354356700,11.997356689453126,0.0032285426277667284,-0.031913306564092636,-0.012084035202860832
1634126109374236000,12.01723583984375,0.011586196720600128,-0.031674355268478394,-0.030809631571173668
1634126109394115000,12.037114990234375,0.014220242388546467,-0.02635624259710312,-0.03719829395413399
1634126109413994800,12.056994873046875,0.02265552058815956,-0.020790616050362587,-0.05416254326701164
1634126109433874000,12.0768740234375,0.02487928606569767,-0.009309216402471066,-0.09887765347957611
1634126109453752800,12.0967529296875,0.016102377325296402,0.021415360271930695,-0.14114250242710114
1634126109473632800,12.1166328125,-0.016773773357272148,0.05170706659555435,-0.14271096885204315
1634126109493512000,12.136511962890625,-0.03854820877313614,0.054717592895030975,-0.0960894450545311
1634126109513390800,12.156390869140624,-0.04314554110169411,0.04170440882444382,-0.05414596572518349
1634126109533269800,12.176269775390624,-0.022274427115917206,0.015406939201056957,-0.04181555286049843
1634126109553150000,12.19614990234375,0.021304015070199966,-0.0013462547212839127,-0.05279626324772835
1634126109573028900,12.21602880859375,0.06660516560077667,0.016992826014757156,-0.057829566299915314
1634126109592908000,12.235907958984376,0.10771376639604568,0.04592456668615341,-0.03206231817603111
1634126109612788000,12.2557880859375,0.14688286185264587,0.05815748870372772,-0.009288650937378407
1634126109632667000,12.2756669921875,0.1778937429189682,0.07212618738412857,-0.017633019015192986
1634126109652546000,12.295546142578125,0.21320131421089172,0.04379725456237793,-0.021399782970547676
1634126109672424700,12.3154248046875,0.23533646762371063,0.0005612131208181381,0.009783883579075336
1634126109692305000,12.335304931640625,0.24220386147499084,-0.032949429005384445,0.04991636797785759
1634126109712184000,12.35518408203125,0.23814350366592407,-0.05953357368707657,0.08597779273986816
1634126109732062700,12.375062744140624,0.2174353450536728,-0.054030727595090866,0.08592034131288528
1634126109751942000,12.39494189453125,0.19226999580860138,-0.036750342696905136,0.08310995250940323
1634126109771822000,12.414822021484374,0.1754917949438095,0.022127360105514526,0.07828912883996964
1634126109791700700,12.43470068359375,0.16877511143684387,0.0775238573551178,0.07704971730709076
1634126109811580000,12.454579833984376,0.16581889986991882,0.13839083909988403,0.0503520667552948
1634126109831458800,12.474458740234375,0.18115130066871643,0.17325027287006378,0.033417958766222
1634126109851338800,12.4943388671875,0.2189037799835205,0.19229531288146973,0.05956048518419266
1634126109871218000,12.514218017578125,0.23333507776260376,0.1609242856502533,0.1506153792142868
1634126109891096800,12.534096923828125,0.2348710596561432,0.07030640542507172,0.2406257688999176
1634126109910976800,12.553976806640625,0.2223316729068756,0.002511334605515003,0.2643939256668091
1634126109930856000,12.57385595703125,0.23494592308998108,0.031666602939367294,0.2551111876964569
1634126109950734800,12.59373486328125,0.2573089003562927,0.10105706006288528,0.27666401863098145
1634126109970614000,12.613614013671874,0.3094915747642517,0.1892697811126709,0.3024519383907318
1634126109990493700,12.63349365234375,0.3757316768169403,0.21570467948913574,0.2989767789840698
1634126110010372900,12.653372802734374,0.4005602300167084,0.17297908663749695,0.24805180728435516
1634126110030252000,12.673251953125,0.4306812882423401,0.20156630873680115,0.13830719888210297
1634126110050131000,12.693130859375,0.5884883999824524,0.39230209589004517,-0.018915703520178795
1634126110070011000,12.713010986328126,0.8294683694839478,0.4694230556488037,-0.0846843346953392
1634126110089889800,12.732889892578125,0.9657436609268188,0.2502005398273468,-0.0017881093081086874
1634126110109769000,12.75276904296875,0.840933084487915,-0.09526604413986206,0.2666943669319153
1634126110129649000,12.77264892578125,0.5774123668670654,-0.25914284586906433,0.4602469801902771
1634126110149527800,12.79252783203125,0.36389920115470886,-0.1982187032699585,0.5160483121871948
1634126110169407000,12.812406982421875,0.271601140499115,0.005861769430339336,0.48390549421310425
1634126110189282800,12.83228271484375,0.30493026971817017,0.2012147754430771,0.3310844302177429
1634126110209163000,12.8521630859375,0.37921708822250366,0.34290942549705505,0.09029471129179001
1634126110229042200,12.872042236328125,0.4499169588088989,0.3828117847442627,-0.12627330422401428
1634126110248920800,12.8919208984375,0.4878811538219452,0.3654642105102539,-0.21161682903766632
1634126110268801000,12.911801025390625,0.4881439805030823,0.35124239325523376,-0.19705745577812195
1634126110288680000,12.931679931640625,0.4455626904964447,0.290961354970932,-0.11187280714511871
1634126110308558800,12.951558837890625,0.37897586822509766,0.2096128612756729,0.009432194754481316
1634126110328438000,12.97143798828125,0.2805060148239136,0.08946607261896133,0.1677192896604538
1634126110348318000,12.99131787109375,0.17551623284816742,0.00288351159542799,0.273630827665329
1634126110368196900,13.01119677734375,0.10124356299638748,-0.016081368550658226,0.30527034401893616
1634126110388076000,13.031075927734374,0.09030621498823166,0.01574486866593361,0.29030317068099976
1634126110407955000,13.050954833984376,0.13890348374843597,0.05343836545944214,0.25912606716156006
1634126110427835000,13.0708349609375,0.19538691639900208,0.07387404143810272,0.22446556389331818
1634126110447713800,13.0907138671875,0.25345444679260254,0.07652417570352554,0.1736738681793213
1634126110467593000,13.110593017578125,0.28558728098869324,0.058902617543935776,0.12875215709209442
1634126110487473000,13.130472900390625,0.28892678022384644,0.03714596480131149,0.1064140796661377
1634126110507351800,13.150351806640625,0.28648442029953003,0.03599625825881958,0.10020674765110016
1634126110527231000,13.17023095703125,0.2671896815299988,0.043408166617155075,0.11632484942674637
1634126110547110000,13.19010986328125,0.23021160066127777,0.046504825353622437,0.11756566911935806
1634126110566989800,13.20998974609375,0.18428082764148712,0.04762841388583183,0.10213883221149445
1634126110586869000,13.229868896484374,0.14127850532531738,0.03903985023498535,0.1013217642903328
1634126110606748000,13.249747802734374,0.12013932317495346,0.06297105550765991,0.10472871363162994
1634126110626627000,13.269626953125,0.11021695286035538,0.10371394455432892,0.08004456758499146
1634126110646507000,13.289507080078126,0.08354414254426956,0.10004112869501114,0.10159966349601746
1634126110666386000,13.309385986328126,0.048702411353588104,0.0999104380607605,0.13743075728416443
1634126110686265000,13.32926513671875,0.02674228884279728,0.08058691769838333,0.15445809066295624
1634126110706145000,13.34914501953125,0.014917092397809029,0.07300180941820145,0.16172575950622559
1634126110726024000,13.36902392578125,0.004427396692335606,0.07982898503541946,0.16994385421276093
1634126110745903000,13.388903076171875,-0.0037374214734882116,0.07649607956409454,0.18940572440624237
1634126110765781800,13.40878173828125,0.009494364261627197,0.05498206615447998,0.1862334907054901
1634126110785662000,13.428661865234375,0.05837870016694069,-0.0027400190010666847,0.13198019564151764
1634126110805541000,13.448541015625,0.12319454550743103,-0.05720863118767738,0.0656094029545784
1634126110825419800,13.468419677734374,0.16333071887493134,-0.0342651903629303,-0.002796049462631345
1634126110845300000,13.488300048828124,0.1531815081834793,-0.022553719580173492,-0.01707298494875431
1634126110865179100,13.50817919921875,0.09727347642183304,0.011071732267737389,-0.02001873403787613
1634126110885058000,13.52805810546875,0.02821669541299343,0.04521756246685982,-0.03127313032746315
1634126110904937000,13.54793701171875,-0.022827256470918655,0.06362611055374146,-0.059197865426540375
1634126110924817000,13.56781689453125,-0.03638908639550209,-0.030754610896110535,-0.06584979593753815
1634126110944696000,13.587696044921875,-0.02465059421956539,-0.16341562569141388,-0.04746197536587715
1634126110964575000,13.607574951171875,-0.006062168627977371,-0.21143978834152222,-0.05710955336689949
1634126110984454000,13.627453857421875,-0.0024023507721722126,-0.17000557482242584,-0.10936985164880753
1634126111004334000,13.647333984375,0.01288280263543129,-0.09504928439855576,-0.1852055937051773
1634126111024212700,13.667212646484375,0.04059765860438347,-0.06193920224905014,-0.25389692187309265
1634126111044092000,13.687091796875,0.06797214597463608,-0.04565497487783432,-0.31990692019462585
1634126111063972000,13.70697216796875,0.07796353846788406,-0.10340642184019089,-0.339603453874588
1634126111083850800,13.726850830078124,0.05677907541394234,-0.24307319521903992,-0.2808932662010193
1634126111103730000,13.74672998046875,-0.02532762475311756,-0.3791700005531311,-0.17971545457839966
1634126111123609000,13.766609130859376,-0.14127056300640106,-0.4313681721687317,-0.08999569714069366
1634126111143488800,13.78648876953125,-0.17140856385231018,-0.37164223194122314,-0.0942128449678421
1634126111163368000,13.806367919921875,-0.1057824194431305,-0.17226359248161316,-0.18750710785388947
1634126111183246000,13.82624609375,-0.06171965226531029,0.0440608374774456,-0.176737442612648
1634126111203125200,13.846125244140625,-0.11483971774578094,0.27360114455223083,-0.05789751559495926
1634126111223005200,13.866005126953125,-0.21885918080806732,0.4143632650375366,0.11005138605833054
1634126111242884000,13.885884033203125,-0.24200095236301422,0.4526456594467163,0.249704509973526
1634126111262763300,13.90576318359375,-0.13112017512321472,0.4451838731765747,0.2717731297016144
1634126111282643200,13.925643310546874,0.11067753285169601,0.4166862964630127,0.20299993455410004
1634126111302522000,13.945522216796874,0.37673693895339966,0.35588207840919495,0.17948046326637268
1634126111322401300,13.9654013671875,0.5120209455490112,0.19691665470600128,0.27995598316192627
1634126111342280200,13.9852802734375,0.42399558424949646,-0.0872165784239769,0.5302965641021729
1634126111362160000,14.00516015625,0.20828494429588318,-0.254233717918396,0.6996334195137024
1634126111382039300,14.025039306640625,0.057256605476140976,-0.26291176676750183,0.6816407442092896
1634126111401918200,14.044918212890625,-0.0236781295388937,-0.16321782767772675,0.5776004195213318
1634126111421798100,14.064798095703125,-0.034916993230581284,-0.048813194036483765,0.43041616678237915
1634126111441677000,14.084677001953125,-0.0274415984749794,0.04097212851047516,0.2812635004520416
1634126111461556200,14.10455615234375,-0.025076396763324738,0.23937483131885529,0.13476496934890747
1634126111481435400,14.124435302734375,-0.01608676090836525,0.44051626324653625,0.040221016854047775
1634126111501315000,14.144315185546875,0.017162099480628967,0.46516919136047363,0.03588511422276497
1634126111521194200,14.1641943359375,0.08474709093570709,0.3017458915710449,0.03140567988157272
1634126111541073400,14.184073486328124,0.18344619870185852,0.07610772550106049,0.0017999827396124601
1634126111560952000,14.2039521484375,0.2486772984266281,-0.04475487023591995,-0.023365812376141548
1634126111580832300,14.223832275390626,0.24385277926921844,-0.10778605192899704,-0.029118936508893967
1634126111600711200,14.243711181640625,0.17849665880203247,-0.08445343375205994,-0.021410934627056122
1634126111620590300,14.26359033203125,0.08867497742176056,-0.03133566677570343,0.01170338038355112
1634126111640470300,14.28347021484375,0.009534453973174095,0.017539020627737045,0.03895919397473335
1634126111660349200,14.30334912109375,-0.030014026910066605,0.09615779668092728,0.038107264786958694
1634126111680228400,14.323228271484375,-0.04865455627441406,0.12719401717185974,0.070592500269413
1634126111700107000,14.34310693359375,-0.08330808579921722,0.13054358959197998,0.10910006612539291
1634126111719987200,14.3629873046875,-0.13330842554569244,0.12443894892930984,0.13607314229011536
1634126111739866400,14.382866455078124,-0.18259677290916443,0.08046132326126099,0.17323273420333862
1634126111759745000,14.4027451171875,-0.21273797750473022,0.017438197508454323,0.1818525493144989
1634126111779624200,14.422624267578126,-0.1930178999900818,0.005847099237143993,0.11567569524049759
1634126111799504400,14.44250439453125,-0.15770557522773743,0.050064295530319214,-0.02004261687397957
1634126111819383000,14.462383056640626,-0.1421743929386139,0.11842967569828033,-0.13817110657691956
1634126111839262200,14.48226220703125,-0.1545349508523941,0.1783466935157776,-0.16085126996040344
1634126111859142400,14.502142333984375,-0.18874140083789825,0.22242268919944763,-0.1039232611656189
1634126111879021000,14.52202099609375,-0.22956277430057526,0.22493720054626465,-0.03480676934123039
1634126111898900200,14.541900146484375,-0.24183137714862823,0.12825803458690643,0.016119131818413734
1634126111918779100,14.561779052734375,-0.21890103816986084,0.03315175697207451,0.057407449930906296
1634126111938659000,14.5816591796875,-0.16624706983566284,0.024127189069986343,0.07104045897722244
1634126111958538200,14.601538330078125,-0.11113329231739044,0.08607662469148636,0.08996593952178955
1634126111978417200,14.621417236328124,-0.05053732544183731,0.10433019697666168,0.12047937512397766
1634126111998297000,14.641297119140624,0.006996202748268843,0.12580277025699615,0.11167731881141663
1634126112018176300,14.66117626953125,0.037370700389146805,0.16753007471561432,0.07323487848043442
1634126112038055200,14.68105517578125,0.035191651433706284,0.08985380828380585,-0.017984630540013313
1634126112057934300,14.700934326171875,-0.01697659306228161,-0.03909878432750702,-0.08754470199346542
1634126112077814000,14.72081396484375,-0.0726185217499733,-0.05318159982562065,-0.09661686420440674
1634126112097693200,14.740693115234375,-0.08997189998626709,0.015310353599488735,-0.041442155838012695
1634126112117572400,14.760572265625,-0.06590329855680466,0.1047104075551033,-0.011870194226503372
1634126112137451300,14.780451171875,-0.0028484221547842026,0.13081271946430206,-0.058973804116249084
1634126112157331200,14.800331298828125,0.05267597734928131,0.07502260059118271,-0.10823239386081696
1634126112177210000,14.820210205078125,0.10663986951112747,-0.031063489615917206,-0.12860582768917084
1634126112197093400,14.84009326171875,0.13392475247383118,-0.06628619134426117,-0.12992756068706512
1634126112216973600,14.8599736328125,0.13350056111812592,0.030416224151849747,-0.13600130379199982
1634126112236852500,14.8798525390625,0.12968283891677856,0.15296214818954468,-0.11623239517211914
1634126112256731400,14.8997314453125,0.14805170893669128,0.1947542130947113,-0.0943390354514122
1634126112276610300,14.9196103515625,0.17315854132175446,0.11508035659790039,-0.0774339810013771
1634126112296490500,14.939490478515625,0.1734951138496399,0.0023481063544750214,-0.08856108784675598
1634126112316369400,14.959369384765624,0.14327369630336761,-0.04946842044591904,-0.08057624101638794
1634126112336248300,14.979248291015624,0.10149097442626953,-0.03273171931505203,-0.034205447882413864
1634126112356127500,14.99912744140625,0.062034234404563904,0.0029006442055106163,0.027836507186293602
1634126112376007700,15.019007568359376,0.030639292672276497,0.03303058445453644,0.06532049924135208
1634126112395886300,15.03888623046875,0.014977199956774712,0.03915667533874512,0.06425803154706955
1634126112415765500,15.058765625,0.007757140323519707,-0.003040201961994171,0.04771089553833008
1634126112435645400,15.0786455078125,0.009153904393315315,-0.048239193856716156,0.03888433054089546
1634126112455524400,15.0985244140625,0.016082188114523888,-0.05908869206905365,0.05561620742082596
1634126112475403500,15.118403564453125,0.012901531532406807,-0.07152695953845978,0.068475142121315
1634126112495282400,15.138282470703125,0.0025487905368208885,-0.0640094131231308,0.03012366220355034
1634126112515162400,15.158162353515625,-0.0073101939633488655,-0.047908101230859756,-0.020569192245602608
1634126112535041500,15.17804150390625,-0.01439247839152813,-0.04989911988377571,-0.06365789473056793
1634126112554920400,15.19792041015625,-0.036320026963949203,-0.06867486983537674,-0.0763932392001152
1634126112574799600,15.217799560546876,-0.06464359909296036,-0.0835491344332695,-0.08168318122625351
1634126112594679300,15.23767919921875,-0.10316972434520721,-0.06588169932365417,-0.09014125168323517
1634126112614558500,15.257558349609376,-0.1387365162372589,-0.02288084104657173,-0.11049018800258636
1634126112634437600,15.277437744140625,-0.16167564690113068,-0.020339518785476685,-0.11711534112691879
1634126112654317300,15.2973173828125,-0.17384305596351624,-0.04212632775306702,-0.12396778911352158
1634126112674196500,15.317196533203125,-0.17516393959522247,-0.04234965890645981,-0.12296178936958313
1634126112694075400,15.337075439453125,-0.1682300865650177,-0.03208386152982712,-0.11219527572393417
1634126112713954600,15.35695458984375,-0.15708975493907928,-0.035369426012039185,-0.11100929975509644
1634126112733834500,15.37683447265625,-0.1493103802204132,-0.05301528796553612,-0.10147445648908615
1634126112753713400,15.39671337890625,-0.13252033293247223,-0.10409265011548996,-0.07081153243780136
1634126112773592600,15.416592529296874,-0.1187029629945755,-0.1387762427330017,-0.015502720139920712
1634126112793472500,15.436472412109374,-0.10383369773626328,-0.1174657791852951,0.0071920896880328655
1634126112813351400,15.456351318359374,-0.09744962304830551,-0.06344273686408997,-0.00635578203946352
1634126112833230600,15.476230712890626,-0.09656964242458344,0.00044208019971847534,-0.018739953637123108
1634126112853109200,15.496109130859375,-0.08127699047327042,0.017798569053411484,-0.0030453673098236322
1634126112872989400,15.515989501953126,-0.05104544386267662,-0.005838384386152029,0.004832906182855368
1634126112892868600,15.53586865234375,-0.020994562655687332,-0.04922649636864662,-0.021936772391200066
1634126112912747300,15.555747314453125,-0.009329954162240028,-0.06015994772315025,-0.056843239814043045
1634126112932626400,15.57562646484375,-0.01767764613032341,0.0060251979157328606,-0.052912916988134384
1634126112952506600,15.595506591796875,-0.020144179463386536,0.0864235907793045,-0.004700109828263521
1634126112972385300,15.61538525390625,-0.0014969275798648596,0.08522368222475052,0.021508947014808655
1634126112992264400,15.635264404296874,0.011562631465494633,0.03403601795434952,0.0007430945988744497
1634126113012143400,15.655143310546874,0.03297164663672447,-0.030050892382860184,-0.0299193374812603
1634126113032023600,15.6750234375,0.06550486385822296,-0.05440978333353996,-0.02152172103524208
1634126113051902500,15.69490234375,0.09147880971431732,-0.03026336431503296,-0.007109899073839188
1634126113071781400,15.714781494140626,0.09779209643602371,0.009100950323045254,-0.01592441461980343
1634126113091661600,15.73466162109375,0.08466452360153198,0.03661675006151199,-0.02305193804204464
1634126113111540500,15.75454052734375,0.05379653722047806,0.031302858144044876,-0.010448548011481762
1634126113131419400,15.77441943359375,0.039061009883880615,0.0028654905036091805,0.01374385878443718
1634126113151298600,15.794298583984375,0.03831852599978447,-0.014931481331586838,0.020190024748444557
1634126113171178200,15.81417822265625,0.03265693038702011,-0.015749629586935043,0.0019417090807110071
1634126113191054000,15.83405419921875,0.03436695784330368,0.025283824652433395,-0.006031027063727379
1634126113210933200,15.853933349609376,0.017419325187802315,0.04580991715192795,0.01078546792268753
1634126113230813000,15.87381298828125,0.006408874876797199,0.027497023344039917,0.037488073110580444
1634126113250692000,15.893692138671875,0.020109789445996284,0.025679683312773705,0.023030009120702744
1634126113270571300,15.9135712890625,0.04581965506076813,0.029750855639576912,0.0041756886057555676
1634126113290450200,15.9334501953125,0.05149699002504349,-0.005295011214911938,0.02934892103075981
1634126113310330000,15.953330078125,0.04968435689806938,-0.05027975142002106,0.0570782832801342
1634126113330209000,15.973208984375,0.060400668531656265,-0.04648261517286301,0.05588994920253754
1634126113350088200,15.993088134765625,0.06976857781410217,-0.0007581394165754318,0.04153289645910263
1634126113369967000,16.012967041015624,0.09027250111103058,0.04092128947377205,0.03421301394701004
1634126113389847000,16.032846923828124,0.11568688601255417,0.027910878881812096,0.03476954996585846
1634126113409726200,16.052726318359376,0.12671665847301483,-0.026447832584381104,0.042032741010189056
1634126113429605000,16.072605224609376,0.1267983764410019,-0.05261712521314621,0.0448102168738842
1634126113449485000,16.092485107421876,0.11697503179311752,-0.04152609407901764,0.02528958022594452
1634126113469364200,16.1123642578125,0.10855315625667572,0.010266324505209923,0.015325283631682396
1634126113489243100,16.1322431640625,0.0919371023774147,0.029705317690968513,0.038203369826078415
1634126113509122000,16.1521220703125,0.07510525733232498,0.026004653424024582,0.05422403663396835
1634126113529002200,16.172002197265623,0.0629844143986702,-0.006110537331551313,0.03865251690149307
1634126113548881200,16.191881103515627,0.057468246668577194,-0.022526951506733894,-0.004045525100082159
1634126113568760000,16.211760009765626,0.05424420163035393,0.0008384473621845245,-0.024451378732919693
1634126113588639000,16.231638916015626,0.06106666475534439,0.0734880194067955,-0.021333038806915283
1634126113608519200,16.251519287109375,0.07771588861942291,0.09505551308393478,-0.014050448313355446
1634126113628398000,16.271398193359374,0.07518558949232101,0.06084297597408295,-0.007640119642019272
1634126113648277000,16.291277099609374,0.06755251437425613,0.03170754387974739,-0.004279456101357937
1634126113668156200,16.31115625,0.061313215643167496,0.011732262559235096,0.024499060586094856
1634126113688036000,16.3310361328125,0.06302207708358765,0.014141002669930458,0.04945022612810135
1634126113707915000,16.3509150390625,0.07852691411972046,0.013012000359594822,0.05878937989473343
1634126113727794200,16.370794189453125,0.09037619084119797,-0.0008596284314990044,0.06681462377309799
1634126113747674000,16.390674072265625,0.07998302578926086,0.02102229744195938,0.0778302401304245
1634126113767553000,16.410552978515625,0.06381925195455551,0.06372755020856857,0.07317151874303818
1634126113787432200,16.43043212890625,0.07997235655784607,0.0783093124628067,0.05310259014368057
1634126113807311000,16.45031103515625,0.10008512437343597,0.08608252555131912,0.035338643938302994
1634126113827191000,16.47019091796875,0.1150936707854271,0.08944208174943924,0.027066200971603394
1634126113847070200,16.4900703125,0.11744582653045654,0.07371542602777481,0.029850123450160027
1634126113866949000,16.50994921875,0.12000294029712677,0.06472475081682205,0.023820340633392334
1634126113886828300,16.529828369140624,0.1363300234079361,0.09090573340654373,-0.014139391481876373
1634126113906708000,16.5497080078125,0.149270161986351,0.1348545104265213,-0.046131204813718796
1634126113926587100,16.569587158203124,0.16566535830497742,0.1339133381843567,-0.042369455099105835
1634126113946466300,16.58946630859375,0.16234253346920013,0.08754730969667435,-0.001501904334872961
1634126113966346000,16.609345947265624,0.14477570354938507,0.04876293987035751,0.02512464113533497
1634126113986225200,16.62922509765625,0.12432395666837692,0.03552756458520889,0.02296615019440651
1634126114006104300,16.649104248046875,0.11512594670057297,0.04873870685696602,0.028412548825144768
1634126114025983000,16.66898291015625,0.10744863003492355,0.03272030130028725,0.07158119231462479
1634126114045863200,16.68886328125,0.09093879908323288,0.02295360341668129,0.11847041547298431
1634126114065742000,16.7087421875,0.0783219188451767,0.0032042227685451508,0.13406531512737274
1634126114085621000,16.72862109375,0.08065570890903473,-0.0019029667600989342,0.1167851909995079
1634126114105500200,16.748500244140626,0.11006474494934082,-0.001239703968167305,0.07017289847135544
1634126114125380000,16.768380126953126,0.1437465250492096,-0.00048536527901887894,0.027300052344799042
1634126114145259300,16.78825927734375,0.13982850313186646,-0.04511195421218872,0.04949134215712547
1634126114165138000,16.808137939453125,0.11611167341470718,-0.10174711793661118,0.10631132870912552
1634126114185018000,16.82801806640625,0.08524269610643387,-0.13013015687465668,0.14601218700408936
1634126114204897000,16.84789697265625,0.0700412318110466,-0.1268254965543747,0.18624736368656158
1634126114224776000,16.86777587890625,0.04944329708814621,-0.10978832840919495,0.23866339027881622
1634126114244654800,16.88765478515625,-0.0010585477575659752,-0.13002033531665802,0.2943635880947113
1634126114264535000,16.90753515625,-0.07549221068620682,-0.19715695083141327,0.31000348925590515
1634126114284414000,16.9274140625,-0.10487566888332367,-0.26347845792770386,0.26336249709129333
1634126114304292900,16.94729296875,-0.08328577131032944,-0.26978516578674316,0.24346043169498444
1634126114324172000,16.967172119140624,-0.0542280413210392,-0.24690407514572144,0.25738537311553955
1634126114344051700,16.9870517578125,-0.06074320524930954,-0.2028973251581192,0.27368128299713135
1634126114363931000,17.006930908203124,-0.07889245450496674,-0.14029036462306976,0.2566292881965637
1634126114383810000,17.02681005859375,-0.0751846581697464,-0.1291230171918869,0.2278464436531067
1634126114403689000,17.04668896484375,-0.06136994808912277,-0.16881415247917175,0.2037656009197235
1634126114423569000,17.06656884765625,-0.036227136850357056,-0.20566385984420776,0.16897141933441162
1634126114443448000,17.086447998046875,0.005013187415897846,-0.22021321952342987,0.1342197209596634
1634126114463327000,17.106326904296875,0.039777666330337524,-0.17201949656009674,0.09840334951877594
1634126114483207000,17.12620703125,0.09560102224349976,-0.10743320733308792,0.0789155587553978
1634126114503085800,17.1460859375,0.12131217122077942,-0.04599563404917717,0.07935015112161636
1634126114522965000,17.165965087890626,0.11143413931131363,-0.015178823843598366,0.10327787697315216
1634126114542844200,17.18584423828125,0.14741042256355286,0.02570740133523941,0.07616449147462845
1634126114562723800,17.205723876953126,0.22004817426204681,0.09429309517145157,-0.0037019415758550167
1634126114582603000,17.22560302734375,0.28119969367980957,0.1416720598936081,-0.014487775042653084
1634126114602482000,17.24548193359375,0.2812739908695221,0.15595926344394684,0.07501120120286942
1634126114622361900,17.26536181640625,0.2837084233760834,0.18176621198654175,0.13372765481472015
1634126114642241000,17.285240966796874,0.347660630941391,0.22458896040916443,0.12479932606220245
1634126114662120000,17.305119873046873,0.4402826726436615,0.3095766007900238,0.09181829541921616
1634126114681998800,17.324998779296877,0.5159037709236145,0.32780399918556213,0.07439471036195755
1634126114701879000,17.344879150390625,0.5716618299484253,0.38596972823143005,0.02949189767241478
1634126114721758000,17.364758056640625,0.5475354194641113,0.4619702100753784,0.04152994975447655
1634126114741636900,17.384636962890625,0.48959827423095703,0.562419056892395,0.07349826395511627
1634126114761515800,17.404515869140624,0.49073782563209534,0.5182870626449585,0.050351161509752274
1634126114781396000,17.42439599609375,0.46820294857025146,0.2962515950202942,0.01113212201744318
1634126114801275100,17.444275146484376,0.40788546204566956,0.04129033163189888,-0.007832268252968788
1634126114821153800,17.46415380859375,0.3541490137577057,-0.11058148741722107,-0.0021775788627564907
1634126114841033000,17.484032958984375,0.31387579441070557,-0.1140022724866867,-0.012805460952222347
1634126114860913200,17.5039130859375,0.27578869462013245,-0.023949790745973587,-0.05316351354122162
1634126114880791800,17.523791748046875,0.22648654878139496,0.04551241546869278,-0.065199114382267
1634126114900671000,17.5436708984375,0.16118362545967102,0.1052454337477684,-0.058939673006534576
1634126114920551200,17.56355126953125,0.08343792706727982,0.10219214111566544,-0.04310225322842598
1634126114940429800,17.583429931640627,0.007279735524207354,0.05628619343042374,-0.07846517860889435
1634126114960309000,17.60330908203125,-0.05890635773539543,0.008116199634969234,-0.09457473456859589
1634126114980188000,17.62318798828125,-0.10188555717468262,-0.028692923486232758,-0.0357845239341259
1634126115000067800,17.64306787109375,-0.13607150316238403,-0.0499659888446331,0.03325819596648216
1634126115019947000,17.662947021484374,-0.16754122078418732,-0.10723555833101273,0.10216175019741058
1634126115039826000,17.682825927734374,-0.1886383295059204,-0.14814727008342743,0.10693968832492828
1634126115059705000,17.702705078125,-0.21231703460216522,-0.19221964478492737,0.08591379970312119
1634126115079584800,17.722584716796874,-0.20796547830104828,-0.20246480405330658,0.05982536822557449
1634126115099464000,17.7424638671875,-0.18824580311775208,-0.20486846566200256,0.03892742842435837
1634126115119343000,17.762343017578125,-0.17635861039161682,-0.18981583416461945,0.038642216473817825
1634126115139222000,17.782221923828125,-0.1780444085597992,-0.16276408731937408,0.04944674298167229
1634126115159102000,17.80210205078125,-0.1700022965669632,-0.12890741229057312,0.07744456082582474
1634126115178981000,17.821981201171877,-0.139424130320549,-0.0555555634200573,0.1115146353840828
1634126115198859800,17.84185986328125,-0.10055067390203476,0.036179106682538986,0.08396553993225098
1634126115218739700,17.86173974609375,-0.05375447869300842,0.09270045906305313,-0.023206260055303574
1634126115238618600,17.88161865234375,0.018284963443875313,0.1497078835964203,-0.06796242296695709
1634126115258497800,17.901497802734376,0.11394801735877991,0.19243621826171875,-0.05290225148200989
1634126115278376700,17.921376708984376,0.17592038214206696,0.22456693649291992,-0.002239302499219775
1634126115298256600,17.941256591796876,0.23577967286109924,0.26171502470970154,-0.009467736817896366
1634126115318135800,17.9611357421875,0.2996613383293152,0.3105655610561371,-0.07270685583353043
1634126115338014700,17.9810146484375,0.36650487780570984,0.4052342474460602,-0.1642656922340393
1634126115357893600,18.0008935546875,0.452172189950943,0.5019236207008362,-0.33792269229888916
1634126115377773800,18.02077392578125,0.5492982268333435,0.6055583953857422,-0.4652610719203949
1634126115397652700,18.04065283203125,0.6059870719909668,0.4674830734729767,-0.5277658700942993
1634126115417531600,18.06053173828125,0.5702216625213623,0.3400753140449524,-0.5829267501831055
1634126115437410600,18.08041064453125,0.47178491950035095,0.27586138248443604,-0.5393701791763306
1634126115457290800,18.100290771484374,0.39638978242874146,0.3374777138233185,-0.46330857276916504
1634126115477169700,18.120169677734374,0.3586670160293579,0.44295695424079895,-0.45560353994369507
1634126115497048600,18.140048583984374,0.3500423729419708,0.4798024296760559,-0.3854745924472809
1634126115516928800,18.1599287109375,0.29200106859207153,0.3098808228969574,-0.2475685477256775
1634126115536807700,18.1798076171875,0.14699789881706238,0.05309242010116577,-0.1786230355501175
1634126115556686600,18.1996865234375,-0.01575935073196888,-0.03597431629896164,-0.10847529023885727
1634126115576565800,18.219565673828125,-0.08802491426467896,0.05311088263988495,0.005928968079388142
1634126115596445700,18.23944580078125,-0.13036508858203888,0.2004770040512085,0.08224929124116898
1634126115616324600,18.25932470703125,-0.14009572565555573,0.2216368466615677,0.09344010055065155
1634126115636203800,18.279203857421876,-0.1910455971956253,0.09769409149885178,0.011921713128685951
1634126115656082700,18.299082763671876,-0.2475118637084961,-0.0731978714466095,-0.016792047768831253
1634126115675962600,18.318962646484376,-0.24293087422847748,-0.0839589536190033,0.02343207597732544
1634126115695841800,18.338841796875,-0.20064781606197357,0.0030675362795591354,0.03844255581498146
1634126115715720700,18.358720703125,-0.17907822132110596,0.03484257310628891,0.07052501291036606
1634126115735599900,18.378599853515624,-0.18166735768318176,0.006360999308526516,0.13279852271080017
1634126115755479800,18.398479736328124,-0.2074832320213318,-0.014382361434400082,0.1569291353225708
1634126115775358700,18.418358642578124,-0.1849549114704132,0.03280707821249962,0.14628338813781738
1634126115795238000,18.43823779296875,-0.13166728615760803,0.13513123989105225,0.11947230249643326
1634126115815116500,18.458116455078127,-0.08525349944829941,0.2165045291185379,0.06595942378044128
1634126115834996700,18.477996826171875,-0.017359089106321335,0.21103079617023468,0.046280112117528915
1634126115854876000,18.4978759765625,0.022354193031787872,0.15273234248161316,0.05994226038455963
1634126115874754600,18.517754638671875,0.06473684310913086,0.019626203924417496,0.0354306623339653
1634126115894633700,18.5376337890625,0.10957761108875275,-0.05777379870414734,-0.031274229288101196
1634126115914513700,18.557513671875,0.13966619968414307,-0.016740862280130386,-0.056212108582258224
1634126115934392600,18.577392578125,0.15793830156326294,0.08227580785751343,-0.04929102212190628
1634126115954271700,18.597271728515626,0.14201107621192932,0.11819061636924744,-0.06474557518959045
1634126115974151700,18.617151611328126,0.12795473635196686,0.0748383030295372,-0.04112442955374718
1634126115994030600,18.637030517578125,0.12147051095962524,0.012357327155768871,-0.010423875413835049
1634126116013909800,18.65690966796875,0.12250752002000809,-0.05488666519522667,0.04620511829853058
1634126116033788700,18.67678857421875,0.1327136754989624,-0.05215326324105263,0.08711700886487961
1634126116053668900,18.6966689453125,0.1666961908340454,0.03572610020637512,0.05583702772855759
1634126116073547500,18.716547607421877,0.17375512421131134,0.08229243010282516,0.02170737273991108
1634126116093426700,18.7364267578125,0.1306213140487671,0.08250903338193893,0.01468996424227953
1634126116113305900,18.756305908203124,0.10773272067308426,0.07315406203269958,0.08063164353370667
1634126116133185500,18.776185546875,0.09748312085866928,0.10701115429401398,0.10847065597772598
1634126116153064700,18.796064697265624,0.08351974934339523,0.013285661116242409,0.06054138392210007
1634126116172943600,18.815943603515624,0.07817551493644714,-0.09440173953771591,-0.00687818881124258
1634126116192822000,18.835822021484375,0.07530936598777771,-0.20745530724525452,0.024530228227376938
1634126116212702000,18.855701904296875,0.06380867213010788,-0.148691788315773,0.09947217255830765
1634126116232581000,18.8755810546875,0.05313272774219513,-0.08043532818555832,0.26067501306533813
1634126116252460000,18.8954599609375,0.13414929807186127,0.33959177136421204,0.44803953170776367
1634126116272339200,18.915339111328127,0.07659797370433807,0.3378554880619049,0.4035683870315552
1634126116292219100,18.93521923828125,-0.01072312705218792,0.06366840749979019,0.17290069162845612
1634126116312098000,18.95509814453125,-0.09024790674448013,-0.1369626373052597,-0.10554973036050797
1634126116331977200,18.974977294921874,-0.11113819479942322,-0.28327101469039917,-0.25102299451828003
1634126116351855900,18.99485595703125,-0.08766774088144302,-0.25813543796539307,-0.21080267429351807
