 Acc_timestamp,Accx,Accy,Accz,Gyro_timestamp,Gyrox,Gyroy,Gyroz,Baro_timestamp,Pressure_Reading
 208486592.000000, -0.650848 , 3.337988, 9.061620, 833044288.000000, -0.350000,  0.280000,  0.210000, 0.000000,  0.000000 
 208505984.000000, -0.684347 , 3.366701, 9.092726, 833064832.000000, -0.350000,  0.350000,  0.070000, 0.000000,  0.000000 
 208525952.000000, -0.672383 , 3.402594, 9.066404, 833084224.000000, 0.280000,  0.420000,  -0.070000, 0.000000,  0.000000 
 208546240.000000, -0.691526 , 3.381058, 9.059227, 833104256.000000, 0.140000,  0.280000,  -0.070000, 0.000000,  0.000000 
 208565952.000000, -0.636491 , 3.256632, 9.068797, 833124544.000000, -0.770000,  0.280000,  0.140000, 0.000000,  0.000000 
 208586496.000000, -0.629312 , 3.340380, 9.142976, 833144192.000000, -1.260000,  0.280000,  0.070000, 0.000000,  0.000000 
 208605888.000000, -0.667598 , 3.400201, 9.111869, 833164800.000000, -0.350000,  0.140000,  0.210000, 0.000000,  0.000000 
 208625920.000000, -0.684347 , 3.431308, 9.064013, 833184192.000000, 0.770000,  0.210000,  0.210000, 0.000000,  0.000000 
 208646208.000000, -0.696311 , 3.409772, 9.047262, 833204160.000000, 0.700000,  0.490000,  0.070000, 0.000000,  0.000000 
 208665856.000000, -0.641276 , 3.369094, 9.037691, 833224448.000000, 0.140000,  0.420000,  0.070000, 0.000000,  0.000000 
 208686464.000000, -0.648455 , 3.309274, 9.126225, 833244160.000000, -0.630000,  0.210000,  0.140000, 0.000000,  0.000000 
 208705856.000000, -0.641276 , 3.285345, 9.078369, 833264768.000000, -1.120000,  0.280000,  0.070000, 0.000000,  0.000000 
 208725824.000000, -0.703490 , 3.299703, 9.090333, 833284160.000000, -0.910000,  0.420000,  -0.070000, 0.000000,  0.000000 
 208746112.000000, -0.658026 , 3.381058, 9.135797, 833304128.000000, -0.210000,  0.420000,  -0.070000, 0.000000,  0.000000 
 208765824.000000, -0.681954 , 3.385844, 9.049655, 833324416.000000, 0.140000,  0.350000,  0.070000, 0.000000,  0.000000 
 208786432.000000, -0.681954 , 3.361916, 9.083155, 833344128.000000, -0.280000,  0.280000,  0.070000, 0.000000,  0.000000 
 208805824.000000, -0.617348 , 3.342773, 9.121440, 833364672.000000, -0.700000,  0.350000,  0.140000, 0.000000,  0.000000 
 208825792.000000, -0.638884 , 3.335595, 9.049655, 833384064.000000, -0.630000,  0.280000,  0.070000, 0.000000,  0.000000 
 208846080.000000, -0.679562 , 3.357130, 9.097511, 833404096.000000, -0.280000,  0.280000,  0.070000, 0.000000,  0.000000 
 208865792.000000, -0.669990 , 3.369094, 9.104690, 833424384.000000, -0.140000,  0.420000,  0.070000, 0.000000,  0.000000 
 208888320.000000, -0.679562 , 3.357130, 9.085547, 833444032.000000, -0.280000,  0.420000,  0.070000, 0.000000,  0.000000 
 208905728.000000, -0.643669 , 3.402594, 9.078369, 833466560.000000, -0.280000,  0.210000,  0.070000, 0.000000,  0.000000 
 208925760.000000, -0.698704 , 3.376273, 9.073583, 833484032.000000, -0.140000,  0.210000,  0.140000, 0.000000,  0.000000 
 208946048.000000, -0.665205 , 3.378666, 9.126225, 833504000.000000, -0.070000,  0.350000,  0.070000, 0.000000,  0.000000 
 208965696.000000, -0.669990 , 3.414558, 9.052048, 833524288.000000, -0.210000,  0.490000,  0.070000, 0.000000,  0.000000 
 208986304.000000, -0.636491 , 3.354738, 9.099905, 833544000.000000, -0.280000,  0.350000,  0.070000, 0.000000,  0.000000 
 209005696.000000, -0.650848 , 3.364309, 9.090333, 833564608.000000, -0.630000,  0.210000,  0.070000, 0.000000,  0.000000 
 209025664.000000, -0.631705 , 3.323631, 9.107083, 833584000.000000, -0.770000,  0.210000,  0.070000, 0.000000,  0.000000 
 209045952.000000, -0.655633 , 3.321238, 9.121440, 833603968.000000, -0.700000,  0.350000,  0.070000, 0.000000,  0.000000 
 209065664.000000, -0.626920 , 3.340380, 9.030513, 833624256.000000, -0.210000,  0.350000,  0.070000, 0.000000,  0.000000 
 209086208.000000, -0.720240 , 3.364309, 9.056834, 833643968.000000, -0.210000,  0.420000,  0.070000, 0.000000,  0.000000 
 209105664.000000, -0.634098 , 3.342773, 9.073583, 833664512.000000, -0.210000,  0.420000,  0.070000, 0.000000,  0.000000 
 209125632.000000, -0.669990 , 3.304488, 9.078369, 833683904.000000, -0.420000,  0.420000,  0.070000, 0.000000,  0.000000 
 209145920.000000, -0.660419 , 3.388237, 9.066404, 833703936.000000, -0.350000,  0.350000,  0.070000, 0.000000,  0.000000 
 209165568.000000, -0.643669 , 3.347559, 9.064013, 833724224.000000, -0.140000,  0.280000,  0.140000, 0.000000,  0.000000 
 209186240.000000, -0.662812 , 3.335595, 9.066404, 833743872.000000, -0.140000,  0.350000,  0.070000, 0.000000,  0.000000 
 209205568.000000, -0.655633 , 3.371487, 9.083155, 833764480.000000, -0.420000,  0.420000,  0.070000, 0.000000,  0.000000 
 209225536.000000, -0.660419 , 3.342773, 9.054441, 833783872.000000, -0.770000,  0.420000,  0.070000, 659531712.000000,  1008.801697 
 209245888.000000, -0.617348 , 3.371487, 9.095119, 833803840.000000, -0.560000,  0.350000,  0.070000, 0.000000,  0.000000 
 209265536.000000, -0.660419 , 3.371487, 9.056834, 833824128.000000, -0.140000,  0.210000,  0.210000, 0.000000,  0.000000 
 209286144.000000, -0.677169 , 3.345166, 9.075976, 833843840.000000, -0.070000,  0.280000,  0.070000, 0.000000,  0.000000 
 209305536.000000, -0.674776 , 3.373880, 9.059227, 833864384.000000, -0.070000,  0.490000,  -0.140000, 0.000000,  0.000000 
 209325504.000000, -0.684347 , 3.359523, 9.083155, 833883776.000000, -0.210000,  0.420000,  -0.140000, 0.000000,  0.000000 
 209345856.000000, -0.674776 , 3.340380, 9.099905, 833903808.000000, -0.840000,  0.280000,  0.070000, 0.000000,  0.000000 
 209365504.000000, -0.660419 , 3.294917, 9.131011, 833924096.000000, -1.330000,  0.210000,  0.070000, 0.000000,  0.000000 
 209386240.000000, -0.607777 , 3.345166, 9.123833, 833943744.000000, -0.840000,  0.070000,  0.210000, 0.000000,  0.000000 
 209405440.000000, -0.650848 , 3.448057, 9.073583, 833964544.000000, 0.280000,  0.280000,  0.140000, 0.000000,  0.000000 
 209425472.000000, -0.710668 , 3.431308, 9.071191, 833983744.000000, 0.630000,  0.490000,  0.140000, 0.000000,  0.000000 
 209445760.000000, -0.624527 , 3.359523, 9.061620, 834003712.000000, -0.280000,  0.350000,  0.140000, 0.000000,  0.000000 
 209465408.000000, -0.614955 , 3.321238, 9.114261, 834024064.000000, -1.120000,  0.280000,  0.140000, 0.000000,  0.000000 
 209486016.000000, -0.624527 , 3.318845, 9.135797, 834043712.000000, -1.120000,  0.420000,  0.140000, 0.000000,  0.000000 
 209505408.000000, -0.662812 , 3.357130, 9.126225, 834064320.000000, -0.560000,  0.420000,  0.140000, 0.000000,  0.000000 
 209525376.000000, -0.669990 , 3.390630, 9.078369, 834083712.000000, -0.210000,  0.350000,  0.140000, 0.000000,  0.000000 
 209545728.000000, -0.698704 , 3.366701, 9.087940, 834103680.000000, -0.140000,  0.420000,  0.140000, 0.000000,  0.000000 
 209565376.000000, -0.634098 , 3.323631, 9.123833, 834123968.000000, -0.140000,  0.420000,  0.140000, 0.000000,  0.000000 
 209585984.000000, -0.672383 , 3.364309, 9.107083, 834143680.000000, -0.490000,  0.350000,  0.140000, 0.000000,  0.000000 
 209605376.000000, -0.701097 , 3.376273, 9.087940, 834164224.000000, -0.630000,  0.210000,  0.070000, 0.000000,  0.000000 
 209625344.000000, -0.677169 , 3.390630, 9.071191, 834183616.000000, -0.350000,  0.350000,  0.070000, 0.000000,  0.000000 
 209645632.000000, -0.634098 , 3.376273, 9.095119, 834203648.000000, -0.140000,  0.420000,  0.070000, 0.000000,  0.000000 
 209665344.000000, -0.641276 , 3.299703, 9.097511, 834223936.000000, -0.490000,  0.350000,  0.070000, 0.000000,  0.000000 
 209685888.000000, -0.653241 , 3.352344, 9.025726, 834243584.000000, -0.490000,  0.210000,  0.070000, 0.000000,  0.000000 
 209705280.000000, -0.674776 , 3.404987, 9.066404, 834264192.000000, 0.070000,  0.210000,  0.070000, 0.000000,  0.000000 
 209725312.000000, -0.660419 , 3.390630, 9.066404, 834283584.000000, 0.140000,  0.350000,  0.070000, 0.000000,  0.000000 
 209745600.000000, -0.665205 , 3.340380, 9.061620, 834303552.000000, -0.420000,  0.490000,  -0.070000, 0.000000,  0.000000 
 209765248.000000, -0.648455 , 3.311667, 9.071191, 834323840.000000, -1.050000,  0.350000,  -0.140000, 0.000000,  0.000000 
 209785856.000000, -0.689133 , 3.316452, 9.078369, 834343552.000000, -1.120000,  0.210000,  0.070000, 0.000000,  0.000000 
 209805248.000000, -0.701097 , 3.321238, 9.059227, 834364160.000000, -0.700000,  0.280000,  0.070000, 0.000000,  0.000000 
 209825216.000000, -0.658026 , 3.311667, 9.111869, 834383552.000000, -0.210000,  0.350000,  0.070000, 0.000000,  0.000000 
 209845504.000000, -0.660419 , 3.378666, 9.064013, 834403520.000000, -0.210000,  0.350000,  0.070000, 0.000000,  0.000000 
 209865216.000000, -0.696311 , 3.366701, 9.066404, 834423808.000000, 0.070000,  0.280000,  0.070000, 0.000000,  0.000000 
 209887744.000000, -0.672383 , 3.378666, 9.095119, 834443520.000000, -0.350000,  0.350000,  0.070000, 0.000000,  0.000000 
 209905216.000000, -0.713061 , 3.357130, 9.073583, 834466048.000000, -0.560000,  0.420000,  0.070000, 0.000000,  0.000000 
 209925184.000000, -0.626920 , 3.359523, 9.085547, 834483456.000000, -0.630000,  0.350000,  0.070000, 0.000000,  0.000000 
 209945472.000000, -0.667598 , 3.326023, 9.087940, 834503488.000000, -0.560000,  0.350000,  0.070000, 0.000000,  0.000000 
 209965184.000000, -0.667598 , 3.378666, 9.090333, 834523776.000000, -0.280000,  0.490000,  -0.070000, 0.000000,  0.000000 
 209985728.000000, -0.653241 , 3.330809, 9.090333, 834543424.000000, -0.350000,  0.420000,  -0.070000, 0.000000,  0.000000 
 210005120.000000, -0.660419 , 3.328416, 9.099905, 834564032.000000, -0.560000,  0.350000,  0.070000, 0.000000,  0.000000 
 210025408.000000, -0.658026 , 3.371487, 9.116654, 834583424.000000, -0.350000,  0.350000,  0.070000, 0.000000,  0.000000 
 210045440.000000, -0.658026 , 3.428915, 9.109475, 834603712.000000, -0.350000,  0.280000,  0.140000, 0.000000,  0.000000 
 210065088.000000, -0.689133 , 3.378666, 9.099905, 834623680.000000, -0.210000,  0.350000,  0.140000, 0.000000,  0.000000 
 210085696.000000, -0.705883 , 3.383451, 9.083155, 834643392.000000, -0.210000,  0.350000,  -0.070000, 0.000000,  0.000000 
 210105088.000000, -0.669990 , 3.400201, 9.066404, 834664000.000000, -0.210000,  0.420000,  -0.070000, 0.000000,  0.000000 
 210125056.000000, -0.648455 , 3.294917, 9.085547, 834683392.000000, -0.630000,  0.210000,  0.070000, 0.000000,  0.000000 
 210145344.000000, -0.641276 , 3.256632, 9.099905, 834703360.000000, -1.400000,  0.210000,  0.070000, 0.000000,  0.000000 
 210165056.000000, -0.624527 , 3.335595, 9.095119, 834723648.000000, -0.840000,  0.140000,  0.140000, 0.000000,  0.000000 
 210185664.000000, -0.643669 , 3.404987, 9.064013, 834743360.000000, 0.280000,  0.140000,  0.210000, 0.000000,  0.000000 
 210205056.000000, -0.703490 , 3.393023, 9.054441, 834783296.000000, -0.280000,  0.490000,  -0.070000, 660531200.000000,  1008.796814 
 210225024.000000, -0.667598 , 3.359523, 9.052048, 0.000000, 0.000000,  0.000000,  0.000000, 0.000000,  0.000000 
 210245312.000000, -0.658026 , 3.359523, 9.104690, 834803328.000000, -0.770000,  0.420000,  -0.070000, 0.000000,  0.000000 
 210265024.000000, -0.686740 , 3.302095, 9.126225, 834823616.000000, -1.470000,  0.280000,  -0.070000, 0.000000,  0.000000 
 210285568.000000, -0.667598 , 3.326023, 9.133404, 834843264.000000, -1.680000,  0.420000,  -0.210000, 0.000000,  0.000000 
 210304960.000000, -0.689133 , 3.299703, 9.111869, 834863872.000000, -1.470000,  0.490000,  -0.280000, 0.000000,  0.000000 
 210324992.000000, -0.684347 , 3.290131, 9.131011, 834883264.000000, -0.910000,  0.420000,  -0.210000, 0.000000,  0.000000 
 210345344.000000, -0.667598 , 3.347559, 9.257831, 834903232.000000, -0.140000,  0.350000,  -0.140000, 0.000000,  0.000000 
 210364928.000000, -0.681954 , 3.192025, 9.044869, 834923648.000000, 0.560000,  0.210000,  0.070000, 0.000000,  0.000000 
 210385536.000000, -0.614955 , 3.433701, 8.992228, 834943232.000000, 0.840000,  0.070000,  -0.210000, 0.000000,  0.000000 
 210404928.000000, -0.598206 , 3.474378, 9.023334, 834963776.000000, 1.540000,  -0.630000,  0.350000, 0.000000,  0.000000 
 210424896.000000, -0.734596 , 3.321238, 9.123833, 834983168.000000, 0.280000,  0.210000,  0.210000, 0.000000,  0.000000 
 210445184.000000, -0.662812 , 3.280560, 9.131011, 835003200.000000, -1.610000,  0.980000,  -0.490000, 0.000000,  0.000000 
 210464896.000000, -0.636491 , 3.292524, 9.032906, 835023488.000000, -1.190000,  0.280000,  0.070000, 0.000000,  0.000000 
 210485440.000000, -0.648455 , 3.416951, 9.092726, 835043200.000000, 0.070000,  -0.070000,  0.350000, 0.000000,  0.000000 
 210504896.000000, -0.684347 , 3.400201, 9.099905, 835063744.000000, 0.700000,  0.350000,  0.350000, 0.000000,  0.000000 
 210524864.000000, -0.650848 , 3.366701, 9.095119, 835083136.000000, 0.700000,  0.420000,  0.350000, 0.000000,  0.000000 
 210545152.000000, -0.667598 , 3.354738, 9.083155, 835103168.000000, -0.770000,  0.280000,  0.350000, 0.000000,  0.000000 
 210564864.000000, -0.681954 , 3.299703, 9.114261, 835123456.000000, -0.980000,  0.420000,  -0.070000, 0.000000,  0.000000 
 210585408.000000, -0.636491 , 3.321238, 9.109475, 835143104.000000, -0.840000,  0.350000,  -0.070000, 0.000000,  0.000000 
 210604800.000000, -0.660419 , 3.323631, 9.099905, 835163712.000000, -0.490000,  0.280000,  0.070000, 0.000000,  0.000000 
 210624832.000000, -0.660419 , 3.340380, 9.073583, 835183104.000000, -0.350000,  0.280000,  0.070000, 0.000000,  0.000000 
 210645120.000000, -0.679562 , 3.376273, 9.099905, 835203072.000000, -0.210000,  0.350000,  -0.070000, 0.000000,  0.000000 
 210664768.000000, -0.648455 , 3.369094, 9.064013, 835223360.000000, -0.420000,  0.490000,  -0.070000, 0.000000,  0.000000 
 210685376.000000, -0.689133 , 3.376273, 9.066404, 835243072.000000, -0.700000,  0.490000,  -0.140000, 0.000000,  0.000000 
 210704768.000000, -0.677169 , 3.316452, 9.102298, 835263616.000000, -0.910000,  0.420000,  -0.070000, 0.000000,  0.000000 
 210724736.000000, -0.641276 , 3.309274, 9.121440, 835283072.000000, -0.840000,  0.420000,  -0.070000, 0.000000,  0.000000 
 210745024.000000, -0.672383 , 3.359523, 9.061620, 835303040.000000, -0.420000,  0.350000,  0.070000, 0.000000,  0.000000 
 210764736.000000, -0.662812 , 3.337988, 9.095119, 835323328.000000, -0.070000,  0.280000,  0.070000, 0.000000,  0.000000 
 210785280.000000, -0.703490 , 3.352344, 9.107083, 835343040.000000, -0.140000,  0.280000,  0.070000, 0.000000,  0.000000 
 210804672.000000, -0.634098 , 3.345166, 9.109475, 835363584.000000, -0.420000,  0.350000,  0.070000, 0.000000,  0.000000 
 210824704.000000, -0.689133 , 3.318845, 9.075976, 835382976.000000, -0.630000,  0.350000,  0.070000, 0.000000,  0.000000 
 210844992.000000, -0.660419 , 3.340380, 9.056834, 835403008.000000, -0.630000,  0.350000,  0.070000, 0.000000,  0.000000 
 210864640.000000, -0.662812 , 3.297310, 9.090333, 835423296.000000, -0.630000,  0.350000,  0.070000, 0.000000,  0.000000 
 210887232.000000, -0.674776 , 3.349952, 9.092726, 835442944.000000, -0.350000,  0.420000,  0.070000, 0.000000,  0.000000 
 210904640.000000, -0.638884 , 3.369094, 9.066404, 835465472.000000, 0.070000,  0.350000,  0.070000, 0.000000,  0.000000 
 210924608.000000, -0.648455 , 3.440879, 9.087940, 835482944.000000, 0.350000,  0.210000,  0.070000, 0.000000,  0.000000 
 210944960.000000, -0.662812 , 3.316452, 9.090333, 835502912.000000, -0.490000,  0.210000,  0.070000, 0.000000,  0.000000 
 210964608.000000, -0.655633 , 3.244668, 9.126225, 835523200.000000, -1.540000,  0.280000,  0.070000, 0.000000,  0.000000 
 210985216.000000, -0.646062 , 3.311667, 9.099905, 835542912.000000, -1.330000,  0.280000,  0.070000, 0.000000,  0.000000 
 211004608.000000, -0.655633 , 3.416951, 9.097511, 835563456.000000, -0.140000,  0.210000,  0.070000, 0.000000,  0.000000 
 211024576.000000, -0.643669 , 3.371487, 9.092726, 835582848.000000, 0.070000,  0.350000,  -0.140000, 0.000000,  0.000000 
 211044864.000000, -0.693919 , 3.309274, 9.078369, 835602880.000000, -0.770000,  0.420000,  -0.280000, 0.000000,  0.000000 
 211064576.000000, -0.677169 , 3.285345, 9.109475, 835623168.000000, -1.400000,  0.490000,  -0.210000, 0.000000,  0.000000 
 211085120.000000, -0.643669 , 3.318845, 9.126225, 835642816.000000, -1.120000,  0.280000,  -0.070000, 0.000000,  0.000000 
 211104512.000000, -0.629312 , 3.290131, 9.107083, 835663424.000000, -0.700000,  0.210000,  0.070000, 0.000000,  0.000000 
 211124544.000000, -0.646062 , 3.359523, 9.121440, 835682816.000000, -0.280000,  0.350000,  -0.070000, 0.000000,  0.000000 
 211144832.000000, -0.650848 , 3.359523, 9.056834, 835702784.000000, -0.070000,  0.420000,  -0.070000, 0.000000,  0.000000 
 211164480.000000, -0.653241 , 3.309274, 9.121440, 835723136.000000, -0.210000,  0.420000,  -0.070000, 0.000000,  0.000000 
 211185088.000000, -0.689133 , 3.309274, 9.119047, 835742784.000000, -0.700000,  0.420000,  -0.070000, 0.000000,  0.000000 
 211204480.000000, -0.622134 , 3.306881, 9.102298, 835763392.000000, -0.700000,  0.280000,  0.070000, 0.000000,  0.000000 
 211224448.000000, -0.693919 , 3.388237, 9.107083, 835782784.000000, -0.700000,  0.280000,  0.140000, 661530624.000000,  1008.801392 
 211244800.000000, -0.698704 , 3.357130, 9.135797, 835802752.000000, 0.280000,  0.350000,  0.140000, 0.000000,  0.000000 
 211264448.000000, -0.703490 , 3.309274, 9.095119, 835823040.000000, -0.140000,  0.490000,  0.140000, 0.000000,  0.000000 
 211285056.000000, -0.619741 , 3.273381, 9.090333, 835842752.000000, -0.280000,  0.140000,  0.140000, 0.000000,  0.000000 
 211304448.000000, -0.636491 , 3.340380, 9.071191, 835863296.000000, -0.070000,  0.140000,  0.210000, 0.000000,  0.000000 
 211324416.000000, -0.650848 , 3.349952, 9.090333, 835882688.000000, 0.140000,  0.350000,  0.140000, 0.000000,  0.000000 
 211344704.000000, -0.710668 , 3.364309, 9.083155, 835902720.000000, 0.140000,  0.420000,  0.070000, 0.000000,  0.000000 
 211364416.000000, -0.662812 , 3.335595, 9.073583, 835923008.000000, -0.350000,  0.350000,  0.070000, 0.000000,  0.000000 
 211384960.000000, -0.665205 , 3.328416, 9.097511, 835942656.000000, -0.770000,  0.350000,  0.070000, 0.000000,  0.000000 
 211404352.000000, -0.667598 , 3.318845, 9.123833, 835963264.000000, -0.910000,  0.420000,  0.070000, 0.000000,  0.000000 
 211424384.000000, -0.636491 , 3.261417, 9.083155, 835982656.000000, -0.700000,  0.350000,  0.070000, 0.000000,  0.000000 
 211444672.000000, -0.674776 , 3.318845, 9.054441, 836002624.000000, -0.140000,  0.280000,  0.140000, 0.000000,  0.000000 
 211464320.000000, -0.634098 , 3.342773, 9.059227, 836022976.000000, 0.210000,  0.350000,  0.140000, 0.000000,  0.000000 
 211484928.000000, -0.717847 , 3.378666, 9.083155, 836042624.000000, 0.280000,  0.490000,  0.070000, 0.000000,  0.000000 
 211504320.000000, -0.686740 , 3.304488, 9.090333, 836063232.000000, -0.280000,  0.350000,  0.140000, 0.000000,  0.000000 
 211524288.000000, -0.634098 , 3.321238, 9.116654, 836082560.000000, -0.700000,  0.350000,  0.070000, 0.000000,  0.000000 
 211544576.000000, -0.650848 , 3.388237, 9.064013, 836102592.000000, -0.350000,  0.350000,  0.070000, 0.000000,  0.000000 
 211564288.000000, -0.658026 , 3.354738, 9.071191, 836122880.000000, -0.140000,  0.210000,  0.070000, 0.000000,  0.000000 
 211584832.000000, -0.679562 , 3.321238, 9.133404, 836142592.000000, -0.560000,  0.350000,  0.070000, 0.000000,  0.000000 
 211604224.000000, -0.655633 , 3.318845, 9.128618, 836163136.000000, -1.050000,  0.420000,  -0.070000, 0.000000,  0.000000 
 211624256.000000, -0.646062 , 3.287738, 9.126225, 836182528.000000, -0.910000,  0.350000,  -0.070000, 0.000000,  0.000000 
 211644544.000000, -0.667598 , 3.345166, 9.073583, 836202496.000000, -0.280000,  0.280000,  0.140000, 0.000000,  0.000000 
 211664192.000000, -0.648455 , 3.342773, 9.073583, 836222848.000000, 0.140000,  0.280000,  0.140000, 0.000000,  0.000000 
 211684800.000000, -0.674776 , 3.345166, 9.102298, 836242496.000000, 0.140000,  0.350000,  0.210000, 0.000000,  0.000000 
 211704192.000000, -0.736989 , 3.412165, 9.102298, 836263104.000000, -0.140000,  0.420000,  -0.070000, 0.000000,  0.000000 
 211724160.000000, -0.684347 , 3.347559, 9.109475, 836282496.000000, -0.700000,  0.560000,  -0.280000, 0.000000,  0.000000 
 211744512.000000, -0.667598 , 3.304488, 9.073583, 836302464.000000, -1.190000,  0.420000,  -0.140000, 0.000000,  0.000000 
 211764160.000000, -0.631705 , 3.266203, 9.123833, 836322752.000000, -1.400000,  0.350000,  0.070000, 0.000000,  0.000000 
 211784768.000000, -0.641276 , 3.306881, 9.114261, 836342464.000000, -0.630000,  0.210000,  0.140000, 0.000000,  0.000000 
 211804160.000000, -0.674776 , 3.412165, 9.083155, 836363008.000000, 0.490000,  0.140000,  0.280000, 0.000000,  0.000000 
 211824128.000000, -0.691526 , 3.354738, 9.080762, 836382400.000000, 0.630000,  0.420000,  0.070000, 0.000000,  0.000000 
 211844416.000000, -0.660419 , 3.328416, 9.078369, 836402432.000000, -0.210000,  0.560000,  -0.070000, 0.000000,  0.000000 
 211864128.000000, -0.643669 , 3.349952, 9.052048, 836422720.000000, -0.700000,  0.280000,  0.070000, 0.000000,  0.000000 
 211886656.000000, -0.653241 , 3.330809, 9.123833, 836442368.000000, -0.770000,  0.140000,  0.140000, 0.000000,  0.000000 
 211904064.000000, -0.662812 , 3.287738, 9.111869, 836464960.000000, -0.560000,  0.350000,  0.140000, 0.000000,  0.000000 
 211924096.000000, -0.631705 , 3.326023, 9.102298, 836482368.000000, -0.350000,  0.490000,  -0.070000, 0.000000,  0.000000 
 211944384.000000, -0.641276 , 3.323631, 9.102298, 836502336.000000, -0.070000,  0.350000,  -0.070000, 0.000000,  0.000000 
 211964032.000000, -0.655633 , 3.328416, 9.097511, 836522688.000000, -0.070000,  0.350000,  0.140000, 0.000000,  0.000000 
 211984640.000000, -0.650848 , 3.323631, 9.075976, 836542336.000000, -0.210000,  0.350000,  0.070000, 0.000000,  0.000000 
 212004032.000000, -0.622134 , 3.326023, 9.064013, 836562944.000000, -0.490000,  0.350000,  0.140000, 0.000000,  0.000000 
 212024000.000000, -0.658026 , 3.292524, 9.119047, 836582336.000000, -0.630000,  0.350000,  0.070000, 0.000000,  0.000000 
 212044352.000000, -0.725025 , 3.309274, 9.109475, 836602304.000000, -0.490000,  0.420000,  0.070000, 0.000000,  0.000000 
 212064000.000000, -0.686740 , 3.302095, 9.104690, 836622592.000000, -0.280000,  0.420000,  0.070000, 0.000000,  0.000000 
 212084608.000000, -0.631705 , 3.304488, 9.085547, 836642304.000000, -0.070000,  0.350000,  0.070000, 0.000000,  0.000000 
 212104000.000000, -0.634098 , 3.345166, 9.054441, 836662848.000000, 0.280000,  0.210000,  0.210000, 0.000000,  0.000000 
 212123968.000000, -0.655633 , 3.373880, 9.092726, 836682240.000000, 0.280000,  0.350000,  0.140000, 0.000000,  0.000000 
 212144256.000000, -0.679562 , 3.354738, 9.107083, 836702272.000000, 0.070000,  0.420000,  0.140000, 0.000000,  0.000000 
 212163968.000000, -0.674776 , 3.330809, 9.123833, 836722560.000000, -0.420000,  0.490000,  0.140000, 0.000000,  0.000000 
 212184576.000000, -0.669990 , 3.292524, 9.083155, 836742208.000000, -0.560000,  0.280000,  0.140000, 0.000000,  0.000000 
 212203904.000000, -0.681954 , 3.342773, 9.119047, 836762880.000000, -0.630000,  0.280000,  0.070000, 0.000000,  0.000000 
 212223936.000000, -0.595813 , 3.323631, 9.140583, 836782208.000000, -0.700000,  0.350000,  0.070000, 662530112.000000,  1008.806030 
 212244224.000000, -0.662812 , 3.357130, 9.071191, 836802176.000000, -0.490000,  0.350000,  0.070000, 0.000000,  0.000000 
 212263872.000000, -0.643669 , 3.342773, 9.056834, 836822528.000000, -0.490000,  0.280000,  0.140000, 0.000000,  0.000000 
 212284480.000000, -0.629312 , 3.318845, 9.071191, 836842176.000000, -0.490000,  0.350000,  0.140000, 0.000000,  0.000000 
 212303872.000000, -0.665205 , 3.321238, 9.116654, 836862784.000000, -0.350000,  0.490000,  0.140000, 0.000000,  0.000000 
 212323840.000000, -0.679562 , 3.266203, 9.104690, 836882176.000000, -0.630000,  0.490000,  0.140000, 0.000000,  0.000000 
 212344192.000000, -0.686740 , 3.297310, 9.095119, 836902144.000000, -0.630000,  0.350000,  0.070000, 0.000000,  0.000000 
 212363840.000000, -0.684347 , 3.366701, 9.049655, 836922432.000000, -0.350000,  0.350000,  0.070000, 0.000000,  0.000000 
 212384448.000000, -0.667598 , 3.349952, 9.071191, 836942144.000000, -0.070000,  0.280000,  0.070000, 0.000000,  0.000000 
 212403840.000000, -0.679562 , 3.357130, 9.097511, 836962688.000000, -0.140000,  0.350000,  0.140000, 0.000000,  0.000000 
 212423808.000000, -0.701097 , 3.316452, 9.126225, 837002112.000000, -0.700000,  0.350000,  0.070000, 0.000000,  0.000000 
 212444096.000000, -0.677169 , 3.316452, 9.090333, 0.000000, 0.000000,  0.000000,  0.000000, 0.000000,  0.000000 
 212463808.000000, -0.648455 , 3.321238, 9.099905, 837022400.000000, -0.420000,  0.350000,  0.070000, 0.000000,  0.000000 
 212484352.000000, -0.729811 , 3.311667, 9.142976, 837042048.000000, -0.280000,  0.280000,  0.140000, 0.000000,  0.000000 
 212503744.000000, -0.660419 , 3.323631, 9.104690, 837062656.000000, -0.210000,  0.350000,  0.070000, 0.000000,  0.000000 
 212523776.000000, -0.669990 , 3.431308, 9.068797, 837082048.000000, 0.280000,  0.420000,  -0.070000, 0.000000,  0.000000 
 212544064.000000, -0.669990 , 3.385844, 9.083155, 837102016.000000, 0.140000,  0.280000,  -0.070000, 0.000000,  0.000000 
 212563712.000000, -0.629312 , 3.282953, 9.135797, 837122368.000000, -0.980000,  0.210000,  0.070000, 0.000000,  0.000000 
 212584320.000000, -0.662812 , 3.177669, 9.135797, 837142016.000000, -1.680000,  0.280000,  0.070000, 0.000000,  0.000000 
 212603712.000000, -0.622134 , 3.309274, 9.123833, 837162624.000000, -0.700000,  0.210000,  0.140000, 0.000000,  0.000000 
 212623680.000000, -0.686740 , 3.412165, 9.080762, 837182016.000000, 0.910000,  0.210000,  0.210000, 0.000000,  0.000000 
 212643968.000000, -0.598206 , 3.376273, 9.040084, 837201984.000000, 0.980000,  0.350000,  0.210000, 0.000000,  0.000000 
 212663680.000000, -0.674776 , 3.294917, 9.087940, 837222272.000000, -0.350000,  0.350000,  0.070000, 0.000000,  0.000000 
 212684288.000000, -0.653241 , 3.287738, 9.128618, 837241984.000000, -1.120000,  0.280000,  0.070000, 0.000000,  0.000000 
 212703680.000000, -0.691526 , 3.297310, 9.090333, 837262528.000000, -0.630000,  0.280000,  0.140000, 0.000000,  0.000000 
 212723648.000000, -0.646062 , 3.345166, 9.087940, 837281920.000000, 0.210000,  0.280000,  0.140000, 0.000000,  0.000000 
 212743936.000000, -0.710668 , 3.366701, 9.073583, 837301952.000000, 0.630000,  0.210000,  0.140000, 0.000000,  0.000000 
 212763648.000000, -0.665205 , 3.385844, 9.075976, 837322240.000000, 0.490000,  0.350000,  0.070000, 0.000000,  0.000000 
 212784192.000000, -0.660419 , 3.357130, 9.095119, 837341888.000000, -0.210000,  0.350000,  0.070000, 0.000000,  0.000000 
 212803584.000000, -0.648455 , 3.268596, 9.085547, 837362496.000000, -0.980000,  0.210000,  0.140000, 0.000000,  0.000000 
 212823616.000000, -0.648455 , 3.314059, 9.133404, 837381888.000000, -1.190000,  0.280000,  0.070000, 0.000000,  0.000000 
 212843904.000000, -0.650848 , 3.347559, 9.126225, 837401856.000000, -0.700000,  0.490000,  -0.070000, 0.000000,  0.000000 
 212863552.000000, -0.691526 , 3.302095, 9.052048, 837422208.000000, -0.070000,  0.420000,  -0.070000, 0.000000,  0.000000 
 212886080.000000, -0.600598 , 3.314059, 9.066404, 837441856.000000, 0.140000,  0.210000,  0.210000, 0.000000,  0.000000 
 212903552.000000, -0.703490 , 3.381058, 9.068797, 837464384.000000, 0.210000,  0.210000,  0.140000, 0.000000,  0.000000 
 212923520.000000, -0.658026 , 3.345166, 9.111869, 837481856.000000, 0.070000,  0.350000,  0.070000, 0.000000,  0.000000 
 212943872.000000, -0.672383 , 3.314059, 9.121440, 837501824.000000, -0.420000,  0.420000,  0.070000, 0.000000,  0.000000 
 212963520.000000, -0.717847 , 3.287738, 9.083155, 837522112.000000, -0.980000,  0.420000,  -0.070000, 0.000000,  0.000000 
 212984128.000000, -0.660419 , 3.321238, 9.097511, 837541760.000000, -0.770000,  0.280000,  0.070000, 0.000000,  0.000000 
 213003456.000000, -0.636491 , 3.354738, 9.126225, 837562368.000000, -0.280000,  0.280000,  0.140000, 0.000000,  0.000000 
 213023488.000000, -0.686740 , 3.330809, 9.119047, 837581760.000000, -0.280000,  0.350000,  0.140000, 0.000000,  0.000000 
 213043776.000000, -0.624527 , 3.299703, 9.080762, 837601728.000000, -0.140000,  0.350000,  0.140000, 0.000000,  0.000000 
 213063424.000000, -0.710668 , 3.366701, 9.066404, 837622080.000000, -0.140000,  0.280000,  0.140000, 0.000000,  0.000000 
 213084032.000000, -0.717847 , 3.342773, 9.092726, 837641728.000000, -0.140000,  0.350000,  0.140000, 0.000000,  0.000000 
 213103424.000000, -0.701097 , 3.323631, 9.111869, 837662336.000000, -0.420000,  0.420000,  -0.070000, 0.000000,  0.000000 
 213123392.000000, -0.689133 , 3.347559, 9.092726, 837681728.000000, -0.630000,  0.420000,  -0.070000, 0.000000,  0.000000 
 213143744.000000, -0.684347 , 3.337988, 9.116654, 837701696.000000, -0.350000,  0.350000,  0.070000, 0.000000,  0.000000 
 213163392.000000, -0.629312 , 3.354738, 9.068797, 837721984.000000, -0.350000,  0.280000,  0.140000, 0.000000,  0.000000 
 213184000.000000, -0.715454 , 3.337988, 9.126225, 837741696.000000, -0.140000,  0.350000,  0.140000, 0.000000,  0.000000 
 213203392.000000, -0.643669 , 3.340380, 9.102298, 837762304.000000, -0.560000,  0.490000,  0.140000, 0.000000,  0.000000 
 213223360.000000, -0.636491 , 3.306881, 9.059227, 837781632.000000, -0.770000,  0.420000,  0.070000, 663529536.000000,  1008.809998 
 213243648.000000, -0.717847 , 3.314059, 9.087940, 837801664.000000, -0.490000,  0.350000,  0.070000, 0.000000,  0.000000 
 213263360.000000, -0.660419 , 3.352344, 9.080762, 837821952.000000, -0.070000,  0.350000,  0.070000, 0.000000,  0.000000 
 213283904.000000, -0.658026 , 3.349952, 9.056834, 837841600.000000, 0.070000,  0.280000,  0.140000, 0.000000,  0.000000 
 213303296.000000, -0.677169 , 3.359523, 9.097511, 837862208.000000, -0.210000,  0.420000,  0.140000, 0.000000,  0.000000 
 213323328.000000, -0.669990 , 3.349952, 9.066404, 837881600.000000, -0.420000,  0.560000,  -0.210000, 0.000000,  0.000000 
 213343616.000000, -0.674776 , 3.309274, 9.104690, 837901568.000000, -0.490000,  0.280000,  -0.070000, 0.000000,  0.000000 
 213363264.000000, -0.658026 , 3.299703, 9.097511, 837921920.000000, -0.910000,  0.210000,  0.140000, 0.000000,  0.000000 
 213384064.000000, -0.602991 , 3.292524, 9.097511, 837941568.000000, -0.980000,  0.210000,  0.070000, 0.000000,  0.000000 
 213403264.000000, -0.648455 , 3.371487, 9.085547, 837962304.000000, -0.070000,  0.210000,  0.280000, 0.000000,  0.000000 
 213423232.000000, -0.686740 , 3.397808, 9.059227, 837981568.000000, 0.560000,  0.210000,  0.140000, 0.000000,  0.000000 
 213443584.000000, -0.720240 , 3.345166, 9.075976, 838001536.000000, 0.070000,  0.490000,  0.140000, 0.000000,  0.000000 
 213463232.000000, -0.634098 , 3.299703, 9.116654, 838021824.000000, -0.910000,  0.420000,  -0.070000, 0.000000,  0.000000 
 213483840.000000, -0.636491 , 3.270989, 9.121440, 838041536.000000, -1.260000,  0.280000,  -0.070000, 0.000000,  0.000000 
 213503232.000000, -0.665205 , 3.309274, 9.080762, 838062080.000000, -0.700000,  0.280000,  0.070000, 0.000000,  0.000000 
 213523200.000000, -0.665205 , 3.371487, 9.104690, 838081472.000000, -0.140000,  0.350000,  0.070000, 0.000000,  0.000000 
 213543488.000000, -0.619741 , 3.359523, 9.078369, 838101504.000000, -0.070000,  0.350000,  0.070000, 0.000000,  0.000000 
 213563200.000000, -0.662812 , 3.297310, 9.116654, 838121792.000000, -0.210000,  0.420000,  0.070000, 0.000000,  0.000000 
 213583744.000000, -0.660419 , 3.361916, 9.102298, 838141440.000000, -0.350000,  0.350000,  0.070000, 0.000000,  0.000000 
 213603136.000000, -0.605384 , 3.337988, 9.109475, 838162048.000000, -0.560000,  0.280000,  0.210000, 0.000000,  0.000000 
 213623168.000000, -0.667598 , 3.364309, 9.107083, 838181440.000000, -0.630000,  0.210000,  0.210000, 0.000000,  0.000000 
 213643456.000000, -0.691526 , 3.318845, 9.123833, 838201408.000000, -0.490000,  0.350000,  0.210000, 0.000000,  0.000000 
 213663104.000000, -0.677169 , 3.299703, 9.114261, 838221760.000000, -0.280000,  0.490000,  -0.070000, 0.000000,  0.000000 
 213683712.000000, -0.641276 , 3.318845, 9.104690, 838241408.000000, -0.280000,  0.420000,  0.070000, 0.000000,  0.000000 
 213703104.000000, -0.602991 , 3.311667, 9.085547, 838262016.000000, -0.140000,  0.140000,  0.210000, 0.000000,  0.000000 
 213723072.000000, -0.672383 , 3.359523, 9.131011, 838281408.000000, 0.280000,  0.210000,  0.140000, 0.000000,  0.000000 
 213743360.000000, -0.679562 , 3.366701, 9.097511, 838301376.000000, 0.070000,  0.420000,  0.140000, 0.000000,  0.000000 
 213763072.000000, -0.667598 , 3.326023, 9.099905, 838321664.000000, -0.630000,  0.420000,  -0.140000, 0.000000,  0.000000 
 213783680.000000, -0.646062 , 3.249453, 9.097511, 838341376.000000, -1.120000,  0.350000,  -0.140000, 0.000000,  0.000000 
 213803072.000000, -0.643669 , 3.282953, 9.111869, 838361920.000000, -0.840000,  0.280000,  -0.140000, 0.000000,  0.000000 
 213823040.000000, -0.636491 , 3.306881, 9.071191, 838381312.000000, -0.350000,  0.280000,  0.070000, 0.000000,  0.000000 
 213843328.000000, -0.691526 , 3.302095, 9.059227, 838401344.000000, -0.070000,  0.350000,  0.140000, 0.000000,  0.000000 
 213863040.000000, -0.679562 , 3.371487, 9.087940, 838421632.000000, 0.140000,  0.350000,  0.070000, 0.000000,  0.000000 
 213885568.000000, -0.660419 , 3.340380, 9.037691, 838441280.000000, 0.140000,  0.350000,  0.070000, 0.000000,  0.000000 
 213902976.000000, -0.689133 , 3.314059, 9.111869, 838463808.000000, -0.560000,  0.490000,  -0.070000, 0.000000,  0.000000 
 213923008.000000, -0.653241 , 3.287738, 9.085547, 838481280.000000, -0.910000,  0.420000,  0.070000, 0.000000,  0.000000 
 213943296.000000, -0.698704 , 3.309274, 9.119047, 838521536.000000, 0.070000,  0.350000,  0.210000, 0.000000,  0.000000 
 213962944.000000, -0.631705 , 3.342773, 9.109475, 0.000000, 0.000000,  0.000000,  0.000000, 0.000000,  0.000000 
 213983552.000000, -0.658026 , 3.395415, 9.073583, 838541248.000000, 0.210000,  0.280000,  0.070000, 0.000000,  0.000000 
 214002944.000000, -0.701097 , 3.330809, 9.095119, 838561792.000000, -0.350000,  0.350000,  0.070000, 0.000000,  0.000000 
 214022912.000000, -0.681954 , 3.266203, 9.126225, 838581248.000000, -0.980000,  0.560000,  -0.070000, 0.000000,  0.000000 
 214043200.000000, -0.636491 , 3.294917, 9.116654, 838601216.000000, -1.050000,  0.350000,  0.070000, 0.000000,  0.000000 
 214062912.000000, -0.684347 , 3.337988, 9.116654, 838621504.000000, -0.630000,  0.210000,  0.210000, 0.000000,  0.000000 
 214083456.000000, -0.662812 , 3.354738, 9.133404, 838641216.000000, 0.350000,  0.210000,  0.210000, 0.000000,  0.000000 
 214102912.000000, -0.655633 , 3.330809, 9.099905, 838661760.000000, 0.560000,  0.350000,  0.070000, 0.000000,  0.000000 
 214122880.000000, -0.677169 , 3.333202, 9.107083, 838681152.000000, -0.280000,  0.490000,  0.070000, 0.000000,  0.000000 
 214143168.000000, -0.679562 , 3.335595, 9.111869, 838701184.000000, -0.770000,  0.420000,  -0.070000, 0.000000,  0.000000 
 214162880.000000, -0.691526 , 3.390630, 9.087940, 838721472.000000, -0.350000,  0.350000,  -0.070000, 0.000000,  0.000000 
 214183488.000000, -0.708275 , 3.352344, 9.116654, 838741120.000000, -0.210000,  0.280000,  0.070000, 0.000000,  0.000000 
 214202816.000000, -0.660419 , 3.259024, 9.095119, 838761728.000000, -0.840000,  0.280000,  0.070000, 0.000000,  0.000000 
 214222848.000000, -0.634098 , 3.349952, 9.128618, 838781120.000000, -0.910000,  0.140000,  0.210000, 664529024.000000,  1008.809387 
 214243136.000000, -0.703490 , 3.337988, 9.095119, 838801088.000000, 0.070000,  0.210000,  0.280000, 0.000000,  0.000000 
 214262784.000000, -0.684347 , 3.357130, 9.102298, 838821376.000000, 0.630000,  0.490000,  0.070000, 0.000000,  0.000000 
 214283392.000000, -0.681954 , 3.352344, 9.042477, 838841088.000000, 0.210000,  0.420000,  0.070000, 0.000000,  0.000000 
 214302784.000000, -0.660419 , 3.349952, 9.071191, 838861696.000000, -0.560000,  0.280000,  0.070000, 0.000000,  0.000000 
 214322752.000000, -0.622134 , 3.294917, 9.133404, 838881088.000000, -0.840000,  0.350000,  0.070000, 0.000000,  0.000000 
 214343040.000000, -0.693919 , 3.316452, 9.111869, 838901056.000000, -0.770000,  0.490000,  -0.070000, 0.000000,  0.000000 
 214362752.000000, -0.622134 , 3.326023, 9.097511, 838921344.000000, -0.560000,  0.420000,  -0.070000, 0.000000,  0.000000 
 214383360.000000, -0.693919 , 3.359523, 9.083155, 838941056.000000, -0.140000,  0.420000,  -0.070000, 0.000000,  0.000000 
 214402752.000000, -0.677169 , 3.330809, 9.097511, 838961600.000000, 0.070000,  0.350000,  -0.070000, 0.000000,  0.000000 
 214422720.000000, -0.646062 , 3.326023, 9.097511, 838980992.000000, -0.280000,  0.350000,  0.070000, 0.000000,  0.000000 
 214443008.000000, -0.648455 , 3.328416, 9.109475, 839001024.000000, -0.490000,  0.350000,  0.140000, 0.000000,  0.000000 
 214462720.000000, -0.681954 , 3.381058, 9.078369, 839021312.000000, -0.140000,  0.280000,  0.070000, 0.000000,  0.000000 
 214483264.000000, -0.684347 , 3.369094, 9.099905, 839040960.000000, 0.070000,  0.350000,  0.070000, 0.000000,  0.000000 
 214502656.000000, -0.679562 , 3.282953, 9.104690, 839061568.000000, -0.420000,  0.490000,  0.070000, 0.000000,  0.000000 
 214522688.000000, -0.662812 , 3.273381, 9.109475, 839080960.000000, -0.630000,  0.350000,  0.070000, 0.000000,  0.000000 
 214542976.000000, -0.634098 , 3.400201, 9.083155, 839100928.000000, -0.070000,  0.280000,  0.210000, 0.000000,  0.000000 
 214562624.000000, -0.622134 , 3.364309, 9.068797, 839121216.000000, 0.490000,  0.280000,  0.140000, 0.000000,  0.000000 
 214583232.000000, -0.698704 , 3.333202, 9.097511, 839140928.000000, 0.210000,  0.350000,  0.070000, 0.000000,  0.000000 
 214602624.000000, -0.667598 , 3.311667, 9.095119, 839161472.000000, -0.490000,  0.420000,  0.070000, 0.000000,  0.000000 
 214622592.000000, -0.602991 , 3.306881, 9.044869, 839180928.000000, -0.770000,  0.350000,  0.070000, 0.000000,  0.000000 
 214642880.000000, -0.667598 , 3.294917, 9.097511, 839200896.000000, -0.840000,  0.280000,  0.070000, 0.000000,  0.000000 
 214662592.000000, -0.636491 , 3.270989, 9.104690, 839221184.000000, -0.840000,  0.350000,  0.070000, 0.000000,  0.000000 
 214683136.000000, -0.667598 , 3.294917, 9.054441, 839240832.000000, -0.280000,  0.420000,  0.140000, 0.000000,  0.000000 
 214702528.000000, -0.667598 , 3.366701, 9.092726, 839261440.000000, 0.280000,  0.280000,  0.070000, 0.000000,  0.000000 
 214722560.000000, -0.696311 , 3.412165, 9.056834, 839280832.000000, 0.280000,  0.280000,  0.140000, 0.000000,  0.000000 
 214742848.000000, -0.679562 , 3.345166, 9.085547, 839300800.000000, -0.280000,  0.350000,  0.070000, 0.000000,  0.000000 
 214762496.000000, -0.689133 , 3.280560, 9.131011, 839321152.000000, -0.770000,  0.420000,  0.070000, 0.000000,  0.000000 
 214783104.000000, -0.641276 , 3.335595, 9.116654, 839340800.000000, -0.630000,  0.420000,  0.070000, 0.000000,  0.000000 
 214802496.000000, -0.650848 , 3.326023, 9.102298, 839361408.000000, -0.280000,  0.350000,  0.140000, 0.000000,  0.000000 
 214822464.000000, -0.705883 , 3.388237, 9.104690, 839380800.000000, -0.280000,  0.280000,  0.140000, 0.000000,  0.000000 
 214842816.000000, -0.672383 , 3.378666, 9.123833, 839400768.000000, -0.280000,  0.420000,  0.070000, 0.000000,  0.000000 
 214862464.000000, -0.655633 , 3.352344, 9.083155, 839440768.000000, -0.420000,  0.350000,  0.140000, 0.000000,  0.000000 
 214884992.000000, -0.650848 , 3.311667, 9.075976, 0.000000, 0.000000,  0.000000,  0.000000, 0.000000,  0.000000 
 214902464.000000, -0.679562 , 3.366701, 9.097511, 839463296.000000, -0.560000,  0.420000,  0.070000, 0.000000,  0.000000 
 214922432.000000, -0.619741 , 3.337988, 9.099905, 839480704.000000, -0.420000,  0.350000,  0.140000, 0.000000,  0.000000 
 214942720.000000, -0.681954 , 3.349952, 9.071191, 839500736.000000, -0.420000,  0.350000,  0.140000, 0.000000,  0.000000 
 214962432.000000, -0.717847 , 3.409772, 9.056834, 839521024.000000, 0.350000,  0.420000,  -0.070000, 0.000000,  0.000000 
 214982976.000000, -0.713061 , 3.393023, 9.059227, 839540672.000000, 0.210000,  0.350000,  -0.070000, 0.000000,  0.000000 
 215002368.000000, -0.629312 , 3.294917, 9.114261, 839561280.000000, -0.770000,  0.280000,  -0.070000, 0.000000,  0.000000 
 215022400.000000, -0.646062 , 3.230310, 9.099905, 839580672.000000, -1.680000,  0.280000,  0.070000, 0.000000,  0.000000 
 215042688.000000, -0.653241 , 3.285345, 9.095119, 839600640.000000, -1.050000,  0.210000,  0.140000, 0.000000,  0.000000 
 215062336.000000, -0.643669 , 3.397808, 9.075976, 839620992.000000, 0.490000,  0.140000,  0.280000, 0.000000,  0.000000 
 215082944.000000, -0.655633 , 3.414558, 9.049655, 839640640.000000, 0.980000,  0.420000,  0.070000, 0.000000,  0.000000 
 215102336.000000, -0.667598 , 3.369094, 9.075976, 839661248.000000, 0.140000,  0.420000,  0.070000, 0.000000,  0.000000 
 215122304.000000, -0.669990 , 3.340380, 9.056834, 839680640.000000, -0.980000,  0.280000,  0.070000, 0.000000,  0.000000 
 215142656.000000, -0.669990 , 3.311667, 9.107083, 839700608.000000, -1.330000,  0.350000,  0.070000, 0.000000,  0.000000 
 215162304.000000, -0.648455 , 3.268596, 9.150154, 839720896.000000, -0.980000,  0.350000,  0.070000, 0.000000,  0.000000 
 215182912.000000, -0.650848 , 3.316452, 9.080762, 839740608.000000, -0.350000,  0.350000,  0.070000, 0.000000,  0.000000 
 215202304.000000, -0.681954 , 3.364309, 9.080762, 839780544.000000, 0.210000,  0.420000,  0.070000, 665528448.000000,  1008.808838 
 215222272.000000, -0.686740 , 3.404987, 9.092726, 0.000000, 0.000000,  0.000000,  0.000000, 0.000000,  0.000000 
 215242560.000000, -0.658026 , 3.278167, 9.090333, 839800576.000000, -0.350000,  0.210000,  0.140000, 0.000000,  0.000000 
 215262272.000000, -0.667598 , 3.299703, 9.109475, 839820864.000000, -0.840000,  0.210000,  0.070000, 0.000000,  0.000000 
 215282816.000000, -0.653241 , 3.371487, 9.102298, 839840512.000000, -0.910000,  0.350000,  0.070000, 0.000000,  0.000000 
 215302208.000000, -0.655633 , 3.309274, 9.119047, 839861120.000000, -0.420000,  0.560000,  -0.070000, 0.000000,  0.000000 
 215322240.000000, -0.686740 , 3.323631, 9.116654, 839880512.000000, -0.280000,  0.420000,  -0.070000, 0.000000,  0.000000 
 215342656.000000, -0.681954 , 3.304488, 9.059227, 839900480.000000, -0.140000,  0.140000,  0.210000, 0.000000,  0.000000 
 215362176.000000, -0.648455 , 3.402594, 9.092726, 839920896.000000, 0.210000,  0.210000,  0.210000, 0.000000,  0.000000 
 215382784.000000, -0.689133 , 3.414558, 9.109475, 839940480.000000, 0.210000,  0.420000,  0.070000, 0.000000,  0.000000 
 215402176.000000, -0.696311 , 3.318845, 9.071191, 839961088.000000, -0.280000,  0.490000,  0.070000, 0.000000,  0.000000 
 215422144.000000, -0.612563 , 3.321238, 9.099905, 839980480.000000, -0.840000,  0.350000,  0.070000, 0.000000,  0.000000 
 215442432.000000, -0.579063 , 3.314059, 9.102298, 840000448.000000, -0.840000,  0.210000,  0.070000, 0.000000,  0.000000 
 215462144.000000, -0.669990 , 3.318845, 9.090333, 840020736.000000, -0.490000,  0.280000,  0.070000, 0.000000,  0.000000 
 215482752.000000, -0.715454 , 3.337988, 9.107083, 840040448.000000, -0.420000,  0.420000,  0.070000, 0.000000,  0.000000 
 215502080.000000, -0.669990 , 3.323631, 9.047262, 840060992.000000, -0.560000,  0.420000,  -0.070000, 0.000000,  0.000000 
 215522112.000000, -0.626920 , 3.369094, 9.071191, 840080384.000000, -0.560000,  0.350000,  0.070000, 0.000000,  0.000000 
 215542400.000000, -0.638884 , 3.345166, 9.116654, 840100352.000000, -0.350000,  0.280000,  0.140000, 0.000000,  0.000000 
 215562112.000000, -0.686740 , 3.306881, 9.083155, 840120704.000000, -0.210000,  0.350000,  0.140000, 0.000000,  0.000000 
 215582656.000000, -0.679562 , 3.333202, 9.083155, 840140352.000000, -0.350000,  0.490000,  -0.070000, 0.000000,  0.000000 
 215602048.000000, -0.665205 , 3.306881, 9.042477, 840160960.000000, -0.420000,  0.420000,  0.070000, 0.000000,  0.000000 
 215622016.000000, -0.617348 , 3.328416, 9.085547, 840180352.000000, -0.280000,  0.280000,  0.070000, 0.000000,  0.000000 
 215642368.000000, -0.677169 , 3.299703, 9.092726, 840200320.000000, -0.350000,  0.280000,  0.070000, 0.000000,  0.000000 
 215662016.000000, -0.643669 , 3.328416, 9.085547, 840220608.000000, -0.420000,  0.420000,  0.070000, 0.000000,  0.000000 
 215682624.000000, -0.648455 , 3.309274, 9.109475, 840240320.000000, -0.420000,  0.350000,  0.070000, 0.000000,  0.000000 
 215702016.000000, -0.643669 , 3.337988, 9.107083, 840260928.000000, -0.280000,  0.210000,  0.210000, 0.000000,  0.000000 
 215721984.000000, -0.624527 , 3.376273, 9.119047, 840280256.000000, -0.070000,  0.210000,  0.210000, 0.000000,  0.000000 
 215742272.000000, -0.665205 , 3.397808, 9.071191, 840300288.000000, 0.070000,  0.350000,  0.070000, 0.000000,  0.000000 
 215761984.000000, -0.686740 , 3.364309, 9.049655, 840320576.000000, 0.070000,  0.560000,  -0.140000, 0.000000,  0.000000 
 215782528.000000, -0.672383 , 3.354738, 9.068797, 840340288.000000, -0.490000,  0.490000,  -0.210000, 0.000000,  0.000000 
 215801920.000000, -0.691526 , 3.215954, 9.152546, 840360832.000000, -1.260000,  0.140000,  0.140000, 0.000000,  0.000000 
 215821952.000000, -0.667598 , 3.242275, 9.073583, 840380224.000000, -1.470000,  0.140000,  0.140000, 0.000000,  0.000000 
 215842240.000000, -0.626920 , 3.376273, 9.150154, 840400192.000000, -0.210000,  0.140000,  0.210000, 0.000000,  0.000000 
 215861888.000000, -0.655633 , 3.433701, 9.064013, 840420544.000000, 1.120000,  0.140000,  0.280000, 0.000000,  0.000000 
 215884480.000000, -0.708275 , 3.395415, 9.083155, 840440192.000000, 0.910000,  0.490000,  0.280000, 0.000000,  0.000000 
 215901888.000000, -0.672383 , 3.302095, 9.099905, 840462720.000000, -0.560000,  0.560000,  -0.140000, 0.000000,  0.000000 
 215921856.000000, -0.631705 , 3.244668, 9.169296, 840480192.000000, -1.470000,  0.280000,  0.070000, 0.000000,  0.000000 
 215942208.000000, -0.593420 , 3.318845, 9.109475, 840500160.000000, -1.260000,  0.210000,  0.070000, 0.000000,  0.000000 
 215961856.000000, -0.655633 , 3.311667, 9.080762, 840520448.000000, -0.910000,  0.280000,  0.070000, 0.000000,  0.000000 
 215982464.000000, -0.658026 , 3.354738, 9.087940, 840540160.000000, -0.070000,  0.420000,  -0.070000, 0.000000,  0.000000 
 216001856.000000, -0.636491 , 3.385844, 9.047262, 840560704.000000, 0.070000,  0.490000,  -0.070000, 0.000000,  0.000000 
 216021824.000000, -0.643669 , 3.323631, 9.078369, 840580160.000000, -0.420000,  0.420000,  0.070000, 0.000000,  0.000000 
 216042112.000000, -0.662812 , 3.285345, 9.114261, 840600128.000000, -0.770000,  0.280000,  0.070000, 0.000000,  0.000000 
 216061824.000000, -0.638884 , 3.304488, 9.095119, 840620416.000000, -0.700000,  0.280000,  0.070000, 0.000000,  0.000000 
 216082368.000000, -0.667598 , 3.369094, 9.080762, 840640128.000000, -0.210000,  0.210000,  0.140000, 0.000000,  0.000000 
 216101760.000000, -0.672383 , 3.354738, 9.085547, 840660672.000000, 0.210000,  0.350000,  0.070000, 0.000000,  0.000000 
 216121792.000000, -0.669990 , 3.321238, 9.107083, 840680064.000000, -0.070000,  0.490000,  0.070000, 0.000000,  0.000000 
 216142080.000000, -0.617348 , 3.302095, 9.114261, 840700096.000000, -0.630000,  0.280000,  0.070000, 0.000000,  0.000000 
 216161792.000000, -0.648455 , 3.352344, 9.080762, 840720384.000000, -0.350000,  0.140000,  0.210000, 0.000000,  0.000000 
 216182400.000000, -0.705883 , 3.395415, 9.114261, 840740032.000000, 0.210000,  0.280000,  0.140000, 0.000000,  0.000000 
 216201728.000000, -0.674776 , 3.388237, 9.097511, 840760640.000000, -0.070000,  0.420000,  0.140000, 0.000000,  0.000000 
 216221696.000000, -0.662812 , 3.333202, 9.073583, 840780032.000000, -0.490000,  0.420000,  -0.070000, 666527872.000000,  1008.807434 
 216242048.000000, -0.686740 , 3.306881, 9.092726, 840800000.000000, -0.910000,  0.350000,  -0.070000, 0.000000,  0.000000 
 216261696.000000, -0.626920 , 3.309274, 9.056834, 840820288.000000, -0.840000,  0.280000,  -0.070000, 0.000000,  0.000000 
 216282304.000000, -0.641276 , 3.261417, 9.131011, 840840000.000000, -0.560000,  0.350000,  0.140000, 0.000000,  0.000000 
 216301696.000000, -0.660419 , 3.299703, 9.078369, 840860544.000000, -0.210000,  0.350000,  0.140000, 0.000000,  0.000000 
 216321664.000000, -0.698704 , 3.373880, 9.085547, 840879936.000000, -0.210000,  0.350000,  0.070000, 0.000000,  0.000000 
 216341952.000000, -0.684347 , 3.330809, 9.064013, 840899968.000000, -0.210000,  0.350000,  0.070000, 0.000000,  0.000000 
 216361664.000000, -0.686740 , 3.354738, 9.087940, 840920256.000000, -0.210000,  0.420000,  0.070000, 0.000000,  0.000000 
 216382208.000000, -0.653241 , 3.349952, 9.080762, 840939904.000000, -0.350000,  0.350000,  0.070000, 0.000000,  0.000000 
 216401600.000000, -0.655633 , 3.335595, 9.087940, 840960512.000000, -0.420000,  0.350000,  0.070000, 0.000000,  0.000000 
 216421632.000000, -0.696311 , 3.330809, 9.087940, 840979904.000000, -0.490000,  0.350000,  0.070000, 0.000000,  0.000000 
 216441920.000000, -0.681954 , 3.311667, 9.109475, 840999872.000000, -0.350000,  0.490000,  0.070000, 0.000000,  0.000000 
 216461568.000000, -0.665205 , 3.330809, 9.023334, 841020224.000000, -0.210000,  0.350000,  0.140000, 0.000000,  0.000000 
 216482176.000000, -0.650848 , 3.347559, 9.078369, 841039872.000000, -0.140000,  0.210000,  0.140000, 0.000000,  0.000000 
 216501568.000000, -0.607777 , 3.335595, 9.090333, 841060480.000000, -0.210000,  0.350000,  0.140000, 0.000000,  0.000000 
 216521536.000000, -0.646062 , 3.290131, 9.114261, 841079872.000000, -0.350000,  0.420000,  0.070000, 0.000000,  0.000000 
 216541888.000000, -0.689133 , 3.323631, 9.090333, 841099840.000000, -0.490000,  0.350000,  0.070000, 0.000000,  0.000000 
 216561536.000000, -0.703490 , 3.388237, 9.056834, 841120128.000000, -0.280000,  0.350000,  -0.070000, 0.000000,  0.000000 
 216582144.000000, -0.665205 , 3.393023, 9.085547, 841139840.000000, -0.280000,  0.210000,  -0.070000, 0.000000,  0.000000 
 216601536.000000, -0.677169 , 3.347559, 9.083155, 841160384.000000, -0.350000,  0.210000,  0.140000, 0.000000,  0.000000 
 216621504.000000, -0.605384 , 3.242275, 9.116654, 841179776.000000, -1.120000,  0.280000,  0.140000, 0.000000,  0.000000 
 216641792.000000, -0.614955 , 3.333202, 9.107083, 841199808.000000, -0.910000,  0.210000,  0.140000, 0.000000,  0.000000 
 216661504.000000, -0.653241 , 3.354738, 9.095119, 841220096.000000, 0.210000,  0.140000,  0.140000, 0.000000,  0.000000 
 216682048.000000, -0.717847 , 3.433701, 9.061620, 841239744.000000, 0.770000,  0.350000,  0.140000, 0.000000,  0.000000 
 216701440.000000, -0.650848 , 3.393023, 9.080762, 841260352.000000, 0.770000,  0.350000,  0.140000, 0.000000,  0.000000 
 216721408.000000, -0.662812 , 3.297310, 9.126225, 841279744.000000, -0.980000,  0.280000,  0.140000, 0.000000,  0.000000 
 216741760.000000, -0.648455 , 3.266203, 9.123833, 841299712.000000, -1.190000,  0.350000,  0.140000, 0.000000,  0.000000 
 216761408.000000, -0.660419 , 3.302095, 9.123833, 841320064.000000, -0.770000,  0.420000,  0.140000, 0.000000,  0.000000 
 216782016.000000, -0.708275 , 3.357130, 9.075976, 841339712.000000, -0.070000,  0.350000,  0.140000, 0.000000,  0.000000 
 216801408.000000, -0.698704 , 3.385844, 9.064013, 841360320.000000, 0.210000,  0.350000,  0.140000, 0.000000,  0.000000 
 216821376.000000, -0.667598 , 3.357130, 9.080762, 841379648.000000, 0.210000,  0.420000,  0.140000, 0.000000,  0.000000 
 216841728.000000, -0.677169 , 3.290131, 9.104690, 841399680.000000, -0.490000,  0.280000,  0.070000, 0.000000,  0.000000 
 216861376.000000, -0.653241 , 3.311667, 9.097511, 841419968.000000, -0.770000,  0.280000,  0.070000, 0.000000,  0.000000 
 216883904.000000, -0.638884 , 3.357130, 9.073583, 841439680.000000, -0.560000,  0.350000,  0.070000, 0.000000,  0.000000 
 216901312.000000, -0.667598 , 3.321238, 9.083155, 841462208.000000, -0.140000,  0.350000,  0.070000, 0.000000,  0.000000 
 216921344.000000, -0.655633 , 3.297310, 9.097511, 841479616.000000, -0.140000,  0.350000,  0.070000, 0.000000,  0.000000 
 216941632.000000, -0.674776 , 3.345166, 9.061620, 841499584.000000, -0.280000,  0.280000,  0.070000, 0.000000,  0.000000 
 216961280.000000, -0.646062 , 3.385844, 9.090333, 841519936.000000, -0.070000,  0.280000,  0.140000, 0.000000,  0.000000 
 216981888.000000, -0.650848 , 3.393023, 9.078369, 841539584.000000, 0.140000,  0.280000,  0.140000, 0.000000,  0.000000 
 217001280.000000, -0.634098 , 3.364309, 9.073583, 841560192.000000, -0.070000,  0.420000,  0.140000, 0.000000,  0.000000 
 217021248.000000, -0.665205 , 3.311667, 9.066404, 841579584.000000, -0.700000,  0.420000,  0.140000, 0.000000,  0.000000 
 217041600.000000, -0.674776 , 3.270989, 9.135797, 841599552.000000, -1.050000,  0.350000,  0.070000, 0.000000,  0.000000 
 217061248.000000, -0.650848 , 3.316452, 9.102298, 841619840.000000, -0.700000,  0.280000,  0.070000, 0.000000,  0.000000 
 217081856.000000, -0.598206 , 3.337988, 9.068797, 841639552.000000, -0.210000,  0.210000,  0.140000, 0.000000,  0.000000 
 217101248.000000, -0.655633 , 3.333202, 9.128618, 841660096.000000, -0.210000,  0.280000,  0.070000, 0.000000,  0.000000 
 217121216.000000, -0.713061 , 3.349952, 9.061620, 841679488.000000, -0.210000,  0.420000,  0.070000, 0.000000,  0.000000 
 217141504.000000, -0.672383 , 3.330809, 9.075976, 841699520.000000, -0.560000,  0.490000,  0.070000, 0.000000,  0.000000 
 217161216.000000, -0.710668 , 3.302095, 9.104690, 841719808.000000, -0.630000,  0.350000,  0.070000, 0.000000,  0.000000 
 217181824.000000, -0.612563 , 3.304488, 9.119047, 841739456.000000, -0.420000,  0.350000,  0.070000, 0.000000,  0.000000 
 217201152.000000, -0.653241 , 3.400201, 9.090333, 841760128.000000, 0.070000,  0.350000,  0.140000, 0.000000,  0.000000 
 217221184.000000, -0.650848 , 3.407379, 9.095119, 841779456.000000, 0.210000,  0.280000,  0.140000, 667527360.000000,  1008.808105 
 217241472.000000, -0.708275 , 3.328416, 9.073583, 841799424.000000, -0.280000,  0.420000,  0.140000, 0.000000,  0.000000 
 217261120.000000, -0.662812 , 3.326023, 9.107083, 841819776.000000, -0.910000,  0.490000,  0.140000, 0.000000,  0.000000 
 217281728.000000, -0.648455 , 3.335595, 9.138189, 841839424.000000, -0.980000,  0.280000,  0.070000, 0.000000,  0.000000 
 217301120.000000, -0.634098 , 3.311667, 9.064013, 841860032.000000, -0.490000,  0.210000,  0.140000, 0.000000,  0.000000 
 217321088.000000, -0.655633 , 3.349952, 9.107083, 841879424.000000, 0.280000,  0.350000,  0.140000, 0.000000,  0.000000 
 217341440.000000, -0.634098 , 3.337988, 9.083155, 841899392.000000, 0.210000,  0.350000,  0.140000, 0.000000,  0.000000 
 217361088.000000, -0.629312 , 3.304488, 9.102298, 841919680.000000, -0.350000,  0.350000,  0.140000, 0.000000,  0.000000 
 217381824.000000, -0.622134 , 3.318845, 9.056834, 841939392.000000, -0.280000,  0.350000,  0.140000, 0.000000,  0.000000 
 217401088.000000, -0.696311 , 3.342773, 9.116654, 841960128.000000, -0.280000,  0.280000,  0.140000, 0.000000,  0.000000 
 217421056.000000, -0.679562 , 3.273381, 9.066404, 841979328.000000, -0.910000,  0.350000,  0.140000, 0.000000,  0.000000 
 217441344.000000, -0.636491 , 3.290131, 9.116654, 841999360.000000, -1.190000,  0.280000,  0.140000, 0.000000,  0.000000 
 217461056.000000, -0.643669 , 3.376273, 9.116654, 842019648.000000, -0.210000,  0.070000,  0.350000, 0.000000,  0.000000 
 217481600.000000, -0.698704 , 3.407379, 9.109475, 842039296.000000, 0.770000,  0.210000,  0.210000, 0.000000,  0.000000 
 217500992.000000, -0.693919 , 3.373880, 9.059227, 842059904.000000, 0.490000,  0.420000,  0.210000, 0.000000,  0.000000 
 217521024.000000, -0.638884 , 3.285345, 9.116654, 842079296.000000, -0.560000,  0.420000,  0.210000, 0.000000,  0.000000 
 217541312.000000, -0.619741 , 3.306881, 9.111869, 842099264.000000, -1.050000,  0.350000,  0.210000, 0.000000,  0.000000 
 217560960.000000, -0.624527 , 3.299703, 9.107083, 842119616.000000, -0.770000,  0.350000,  0.070000, 0.000000,  0.000000 
 217581568.000000, -0.698704 , 3.366701, 9.054441, 842139264.000000, -0.280000,  0.420000,  0.070000, 0.000000,  0.000000 
 217600960.000000, -0.629312 , 3.357130, 9.111869, 842159872.000000, -0.280000,  0.420000,  0.070000, 0.000000,  0.000000 
 217620928.000000, -0.696311 , 3.369094, 9.078369, 842179264.000000, 0.140000,  0.420000,  0.070000, 0.000000,  0.000000 
 217641280.000000, -0.631705 , 3.340380, 9.095119, 842199232.000000, -0.210000,  0.350000,  0.070000, 0.000000,  0.000000 
 217660928.000000, -0.679562 , 3.299703, 9.114261, 842219520.000000, -0.700000,  0.280000,  0.070000, 0.000000,  0.000000 
 217681536.000000, -0.681954 , 3.321238, 9.090333, 842239232.000000, -0.630000,  0.350000,  0.070000, 0.000000,  0.000000 
 217700928.000000, -0.693919 , 3.345166, 9.114261, 842259776.000000, -0.140000,  0.420000,  0.070000, 0.000000,  0.000000 
 217720896.000000, -0.665205 , 3.393023, 9.123833, 842279168.000000, 0.070000,  0.420000,  0.070000, 0.000000,  0.000000 
 217741184.000000, -0.674776 , 3.328416, 9.066404, 842299200.000000, -0.210000,  0.350000,  0.070000, 0.000000,  0.000000 
 217760896.000000, -0.646062 , 3.314059, 9.073583, 842319488.000000, -0.280000,  0.210000,  0.140000, 0.000000,  0.000000 
 217781440.000000, -0.658026 , 3.376273, 9.090333, 842339136.000000, -0.070000,  0.350000,  0.070000, 0.000000,  0.000000 
 217800832.000000, -0.643669 , 3.369094, 9.135797, 842359744.000000, 0.070000,  0.350000,  0.140000, 0.000000,  0.000000 
 217820864.000000, -0.686740 , 3.373880, 9.080762, 842379136.000000, 0.070000,  0.420000,  0.070000, 0.000000,  0.000000 
 217841152.000000, -0.631705 , 3.357130, 9.095119, 842399104.000000, -0.210000,  0.420000,  0.070000, 0.000000,  0.000000 
 217860800.000000, -0.684347 , 3.251846, 9.097511, 842419392.000000, -0.420000,  0.280000,  0.070000, 0.000000,  0.000000 
 217883328.000000, -0.677169 , 3.280560, 9.109475, 842439104.000000, -0.700000,  0.350000,  0.140000, 0.000000,  0.000000 
 217900800.000000, -0.665205 , 3.311667, 9.064013, 842461632.000000, -0.770000,  0.420000,  0.140000, 0.000000,  0.000000 
 217920768.000000, -0.679562 , 3.342773, 9.107083, 842479104.000000, -0.420000,  0.350000,  0.070000, 0.000000,  0.000000 
 217941056.000000, -0.674776 , 3.376273, 9.071191, 842499072.000000, 0.070000,  0.350000,  0.070000, 0.000000,  0.000000 
 217960768.000000, -0.674776 , 3.393023, 9.080762, 842519360.000000, 0.140000,  0.350000,  0.070000, 0.000000,  0.000000 
 217981376.000000, -0.624527 , 3.352344, 9.133404, 842539072.000000, -0.070000,  0.420000,  0.070000, 0.000000,  0.000000 
 218000768.000000, -0.679562 , 3.328416, 9.102298, 842559616.000000, -0.560000,  0.350000,  0.070000, 0.000000,  0.000000 
 218020736.000000, -0.655633 , 3.335595, 9.099905, 842579008.000000, -0.910000,  0.350000,  0.070000, 0.000000,  0.000000 
 218041024.000000, -0.684347 , 3.349952, 9.078369, 842599040.000000, -0.630000,  0.280000,  0.070000, 0.000000,  0.000000 
 218060736.000000, -0.646062 , 3.326023, 9.087940, 842619328.000000, -0.210000,  0.420000,  0.070000, 0.000000,  0.000000 
 218081280.000000, -0.641276 , 3.335595, 9.107083, 842638976.000000, -0.070000,  0.350000,  0.070000, 0.000000,  0.000000 
 218100672.000000, -0.658026 , 3.342773, 9.059227, 842659584.000000, -0.070000,  0.280000,  0.140000, 0.000000,  0.000000 
 218120704.000000, -0.653241 , 3.323631, 9.099905, 842678976.000000, -0.210000,  0.280000,  0.140000, 0.000000,  0.000000 
 218140992.000000, -0.662812 , 3.299703, 9.145369, 842698944.000000, -0.560000,  0.350000,  0.140000, 0.000000,  0.000000 
 218160640.000000, -0.681954 , 3.306881, 9.085547, 842719232.000000, -0.490000,  0.420000,  0.140000, 0.000000,  0.000000 
 218181248.000000, -0.681954 , 3.369094, 9.066404, 842738944.000000, -0.490000,  0.420000,  -0.070000, 0.000000,  0.000000 
 218200640.000000, -0.708275 , 3.421736, 9.080762, 842778944.000000, -0.350000,  0.280000,  0.070000, 668526784.000000,  1008.808228 
 218220608.000000, -0.672383 , 3.302095, 9.128618, 0.000000, 0.000000,  0.000000,  0.000000, 0.000000,  0.000000 
 218240896.000000, -0.681954 , 3.239882, 9.099905, 842798912.000000, -1.400000,  0.280000,  0.070000, 0.000000,  0.000000 
 218260608.000000, -0.619741 , 3.335595, 9.159724, 842819200.000000, -0.910000,  0.140000,  0.210000, 0.000000,  0.000000 
 218281152.000000, -0.660419 , 3.400201, 9.078369, 842838912.000000, 0.770000,  0.140000,  0.210000, 0.000000,  0.000000 
 218300544.000000, -0.655633 , 3.419343, 9.042477, 842878848.000000, -0.210000,  0.490000,  -0.070000, 0.000000,  0.000000 
 218320576.000000, -0.643669 , 3.302095, 9.090333, 0.000000, 0.000000,  0.000000,  0.000000, 0.000000,  0.000000 
 218340864.000000, -0.667598 , 3.302095, 9.104690, 842898816.000000, -1.120000,  0.350000,  0.070000, 0.000000,  0.000000 
 218360512.000000, -0.643669 , 3.266203, 9.104690, 842919168.000000, -1.050000,  0.350000,  0.070000, 0.000000,  0.000000 
 218381120.000000, -0.679562 , 3.328416, 9.075976, 842938816.000000, -0.350000,  0.350000,  0.070000, 0.000000,  0.000000 
 218400512.000000, -0.689133 , 3.330809, 9.104690, 842959424.000000, -0.350000,  0.350000,  0.070000, 0.000000,  0.000000 
 218420480.000000, -0.674776 , 3.390630, 9.068797, 842978816.000000, 0.210000,  0.420000,  0.070000, 0.000000,  0.000000 
 218440832.000000, -0.736989 , 3.347559, 9.107083, 842998784.000000, -0.140000,  0.420000,  0.070000, 0.000000,  0.000000 
 218460480.000000, -0.689133 , 3.290131, 9.085547, 843019072.000000, -0.840000,  0.350000,  0.070000, 0.000000,  0.000000 
 218481088.000000, -0.643669 , 3.254239, 9.080762, 843038784.000000, -1.050000,  0.280000,  0.070000, 0.000000,  0.000000 
 218500480.000000, -0.669990 , 3.330809, 9.104690, 843059328.000000, -0.350000,  0.350000,  0.140000, 0.000000,  0.000000 
 218520448.000000, -0.655633 , 3.395415, 9.087940, 843078720.000000, 0.490000,  0.490000,  0.140000, 0.000000,  0.000000 
 218540736.000000, -0.689133 , 3.354738, 9.083155, 843098752.000000, 0.210000,  0.490000,  0.070000, 0.000000,  0.000000 
 218560448.000000, -0.564706 , 3.282953, 9.073583, 843119040.000000, -0.350000,  0.280000,  0.070000, 0.000000,  0.000000 
 218580992.000000, -0.691526 , 3.340380, 9.107083, 843138688.000000, -0.420000,  0.210000,  0.070000, 0.000000,  0.000000 
 218600384.000000, -0.610170 , 3.378666, 9.095119, 843159296.000000, -0.070000,  0.350000,  0.140000, 0.000000,  0.000000 
 218620416.000000, -0.646062 , 3.335595, 9.066404, 843178688.000000, -0.070000,  0.350000,  0.070000, 0.000000,  0.000000 
 218640704.000000, -0.681954 , 3.366701, 9.056834, 843198656.000000, -0.420000,  0.420000,  0.070000, 0.000000,  0.000000 
 218660352.000000, -0.646062 , 3.342773, 9.147761, 843219008.000000, -0.770000,  0.350000,  0.070000, 0.000000,  0.000000 
 218680960.000000, -0.595813 , 3.318845, 9.111869, 843238656.000000, -0.770000,  0.280000,  0.070000, 0.000000,  0.000000 
 218700352.000000, -0.665205 , 3.294917, 9.075976, 843278656.000000, -0.140000,  0.280000,  0.070000, 0.000000,  0.000000 
 218720320.000000, -0.679562 , 3.335595, 9.097511, 0.000000, 0.000000,  0.000000,  0.000000, 0.000000,  0.000000 
 218740672.000000, -0.679562 , 3.373880, 9.078369, 843298624.000000, 0.140000,  0.350000,  0.070000, 0.000000,  0.000000 
 218760320.000000, -0.715454 , 3.390630, 9.071191, 843318912.000000, 0.140000,  0.420000,  0.070000, 0.000000,  0.000000 
 218780928.000000, -0.646062 , 3.340380, 9.087940, 843338624.000000, -0.350000,  0.420000,  0.070000, 0.000000,  0.000000 
 218800320.000000, -0.667598 , 3.371487, 9.107083, 843359168.000000, -0.350000,  0.350000,  0.070000, 0.000000,  0.000000 
 218820288.000000, -0.660419 , 3.354738, 9.092726, 843378560.000000, -0.350000,  0.350000,  0.070000, 0.000000,  0.000000 
 218840576.000000, -0.650848 , 3.321238, 9.128618, 843398592.000000, -0.420000,  0.490000,  0.070000, 0.000000,  0.000000 
 218860288.000000, -0.614955 , 3.340380, 9.092726, 843418880.000000, -0.490000,  0.420000,  0.070000, 0.000000,  0.000000 
 218882816.000000, -0.636491 , 3.335595, 9.075976, 843438528.000000, -0.350000,  0.210000,  0.140000, 0.000000,  0.000000 
 218900224.000000, -0.629312 , 3.340380, 9.119047, 843461056.000000, -0.280000,  0.280000,  0.140000, 0.000000,  0.000000 
 218920256.000000, -0.600598 , 3.318845, 9.116654, 843478528.000000, -0.280000,  0.350000,  0.070000, 0.000000,  0.000000 
 218940544.000000, -0.703490 , 3.361916, 9.107083, 843498496.000000, -0.420000,  0.350000,  0.140000, 0.000000,  0.000000 
 218960192.000000, -0.679562 , 3.371487, 9.066404, 843518848.000000, -0.350000,  0.420000,  -0.140000, 0.000000,  0.000000 
 218980800.000000, -0.696311 , 3.433701, 9.040084, 843538496.000000, -0.140000,  0.420000,  -0.140000, 0.000000,  0.000000 
 219000192.000000, -0.665205 , 3.311667, 9.133404, 843559104.000000, -0.560000,  0.210000,  0.070000, 0.000000,  0.000000 
 219020160.000000, -0.641276 , 3.278167, 9.126225, 843578496.000000, -1.330000,  0.140000,  0.140000, 0.000000,  0.000000 
 219040512.000000, -0.650848 , 3.342773, 9.078369, 843598464.000000, -0.980000,  0.280000,  0.070000, 0.000000,  0.000000 
 219060160.000000, -0.681954 , 3.354738, 9.109475, 843618752.000000, 0.140000,  0.280000,  0.140000, 0.000000,  0.000000 
 219080768.000000, -0.665205 , 3.369094, 9.068797, 843638464.000000, 0.560000,  0.420000,  0.140000, 0.000000,  0.000000 
 219100160.000000, -0.660419 , 3.378666, 9.097511, 843659008.000000, -0.070000,  0.420000,  0.140000, 0.000000,  0.000000 
 219120128.000000, -0.665205 , 3.306881, 9.061620, 843678400.000000, -0.770000,  0.280000,  0.070000, 0.000000,  0.000000 
 219140416.000000, -0.612563 , 3.304488, 9.083155, 843698432.000000, -0.980000,  0.280000,  0.140000, 0.000000,  0.000000 
 219160128.000000, -0.679562 , 3.330809, 9.092726, 843718720.000000, -0.560000,  0.420000,  -0.070000, 0.000000,  0.000000 
 219180736.000000, -0.641276 , 3.366701, 9.083155, 843738368.000000, -0.070000,  0.490000,  -0.070000, 0.000000,  0.000000 
 219200064.000000, -0.660419 , 3.352344, 9.107083, 843778368.000000, -0.210000,  0.350000,  0.070000, 669526272.000000,  1008.808960 
 219220096.000000, -0.636491 , 3.361916, 9.087940, 0.000000, 0.000000,  0.000000,  0.000000, 0.000000,  0.000000 
 219240384.000000, -0.614955 , 3.326023, 9.109475, 843798336.000000, -0.700000,  0.280000,  0.140000, 0.000000,  0.000000 
 219260032.000000, -0.638884 , 3.311667, 9.056834, 843838336.000000, -0.210000,  0.210000,  0.070000, 0.000000,  0.000000 
 219280640.000000, -0.622134 , 3.395415, 9.099905, 0.000000, 0.000000,  0.000000,  0.000000, 0.000000,  0.000000 
 219300032.000000, -0.669990 , 3.366701, 9.142976, 843858944.000000, 0.140000,  0.420000,  0.070000, 0.000000,  0.000000 
 219320000.000000, -0.607777 , 3.321238, 9.119047, 843878336.000000, -0.280000,  0.490000,  0.070000, 0.000000,  0.000000 
 219340288.000000, -0.660419 , 3.304488, 9.064013, 843898304.000000, -0.560000,  0.280000,  0.070000, 0.000000,  0.000000 
 219360000.000000, -0.653241 , 3.400201, 9.068797, 843918592.000000, -0.140000,  0.210000,  0.140000, 0.000000,  0.000000 
 219380544.000000, -0.684347 , 3.407379, 9.104690, 843938304.000000, 0.350000,  0.280000,  0.070000, 0.000000,  0.000000 
 219400000.000000, -0.667598 , 3.340380, 9.133404, 843958848.000000, -0.210000,  0.420000,  -0.070000, 0.000000,  0.000000 
 219419968.000000, -0.686740 , 3.297310, 9.099905, 843978240.000000, -0.910000,  0.490000,  -0.140000, 0.000000,  0.000000 
 219440256.000000, -0.612563 , 3.282953, 9.090333, 843998272.000000, -1.050000,  0.280000,  -0.140000, 0.000000,  0.000000 
 219459968.000000, -0.643669 , 3.352344, 9.107083, 844018560.000000, -0.630000,  0.210000,  -0.140000, 0.000000,  0.000000 
 219480512.000000, -0.674776 , 3.345166, 9.099905, 844038208.000000, -0.350000,  0.280000,  0.070000, 0.000000,  0.000000 
 219499904.000000, -0.665205 , 3.345166, 9.085547, 844058816.000000, -0.140000,  0.350000,  0.070000, 0.000000,  0.000000 
 219519936.000000, -0.689133 , 3.347559, 9.049655, 844078208.000000, -0.140000,  0.350000,  0.070000, 0.000000,  0.000000 
 219540224.000000, -0.660419 , 3.342773, 9.092726, 844098176.000000, -0.210000,  0.350000,  0.070000, 0.000000,  0.000000 
 219559872.000000, -0.655633 , 3.297310, 9.109475, 844118464.000000, -0.420000,  0.420000,  0.070000, 0.000000,  0.000000 
 219580480.000000, -0.634098 , 3.354738, 9.099905, 844138176.000000, -0.490000,  0.420000,  0.070000, 0.000000,  0.000000 
 219599872.000000, -0.626920 , 3.328416, 9.095119, 844158784.000000, -0.280000,  0.280000,  0.070000, 0.000000,  0.000000 
 219619840.000000, -0.677169 , 3.330809, 9.090333, 844178176.000000, -0.350000,  0.350000,  0.070000, 0.000000,  0.000000 
 219640128.000000, -0.705883 , 3.328416, 9.085547, 844198144.000000, -0.350000,  0.490000,  0.070000, 0.000000,  0.000000 
 219659840.000000, -0.684347 , 3.323631, 9.145369, 844218432.000000, -0.350000,  0.350000,  0.070000, 0.000000,  0.000000 
 219680448.000000, -0.662812 , 3.340380, 9.044869, 844238144.000000, -0.210000,  0.210000,  0.140000, 0.000000,  0.000000 
 219699840.000000, -0.658026 , 3.330809, 9.040084, 844258688.000000, -0.140000,  0.280000,  0.070000, 0.000000,  0.000000 
 219719808.000000, -0.643669 , 3.328416, 9.119047, 844278080.000000, -0.350000,  0.350000,  0.070000, 0.000000,  0.000000 
 219740096.000000, -0.710668 , 3.340380, 9.071191, 844298112.000000, -0.770000,  0.490000,  0.070000, 0.000000,  0.000000 
 219759808.000000, -0.665205 , 3.395415, 9.042477, 844318400.000000, -0.700000,  0.490000,  -0.140000, 0.000000,  0.000000 
 219780352.000000, -0.634098 , 3.361916, 9.097511, 844338048.000000, -0.210000,  0.350000,  -0.140000, 0.000000,  0.000000 
 219799744.000000, -0.696311 , 3.357130, 9.064013, 844358656.000000, 0.210000,  0.140000,  0.140000, 0.000000,  0.000000 
 219819776.000000, -0.677169 , 3.290131, 9.095119, 844378048.000000, -0.490000,  0.280000,  0.140000, 0.000000,  0.000000 
 219840064.000000, -0.665205 , 3.314059, 9.075976, 844398016.000000, -1.050000,  0.210000,  0.070000, 0.000000,  0.000000 
 219859712.000000, -0.629312 , 3.366701, 9.087940, 844418304.000000, -0.490000,  0.140000,  0.210000, 0.000000,  0.000000 
 219882240.000000, -0.662812 , 3.323631, 9.075976, 844438016.000000, 0.140000,  0.350000,  0.210000, 0.000000,  0.000000 
 219899712.000000, -0.626920 , 3.302095, 9.116654, 844460544.000000, -0.140000,  0.420000,  -0.070000, 0.000000,  0.000000 
 219919680.000000, -0.646062 , 3.357130, 9.059227, 844478016.000000, -0.630000,  0.280000,  0.070000, 0.000000,  0.000000 
 219939968.000000, -0.612563 , 3.326023, 9.061620, 844497984.000000, -0.630000,  0.210000,  0.070000, 0.000000,  0.000000 
 219959680.000000, -0.667598 , 3.321238, 9.078369, 844518272.000000, -0.560000,  0.280000,  0.070000, 0.000000,  0.000000 
 219980224.000000, -0.602991 , 3.328416, 9.107083, 844537984.000000, -0.560000,  0.420000,  0.070000, 0.000000,  0.000000 
 219999680.000000, -0.638884 , 3.369094, 9.087940, 844558528.000000, -0.350000,  0.490000,  -0.070000, 0.000000,  0.000000 
 220019648.000000, -0.614955 , 3.369094, 9.066404, 844577920.000000, -0.070000,  0.350000,  -0.070000, 0.000000,  0.000000 
 220039936.000000, -0.696311 , 3.335595, 9.054441, 844597888.000000, -0.280000,  0.280000,  0.140000, 0.000000,  0.000000 
 220059648.000000, -0.665205 , 3.302095, 9.092726, 844618240.000000, -0.560000,  0.280000,  0.070000, 0.000000,  0.000000 
 220080192.000000, -0.672383 , 3.328416, 9.049655, 844637888.000000, -0.350000,  0.350000,  0.070000, 0.000000,  0.000000 
 220099584.000000, -0.679562 , 3.390630, 9.114261, 844658496.000000, -0.070000,  0.280000,  0.070000, 0.000000,  0.000000 
 220119552.000000, -0.703490 , 3.290131, 9.147761, 844677888.000000, -0.420000,  0.420000,  0.070000, 0.000000,  0.000000 
 220139904.000000, -0.622134 , 3.275774, 9.085547, 844697856.000000, -0.770000,  0.420000,  0.070000, 0.000000,  0.000000 
 220159552.000000, -0.610170 , 3.383451, 9.066404, 844718144.000000, -0.210000,  0.140000,  0.210000, 0.000000,  0.000000 
 220180160.000000, -0.674776 , 3.359523, 9.111869, 844737856.000000, 0.630000,  0.210000,  0.210000, 0.000000,  0.000000 
 220199552.000000, -0.658026 , 3.388237, 9.087940, 844758464.000000, 0.420000,  0.420000,  0.210000, 0.000000,  0.000000 
 220219520.000000, -0.669990 , 3.337988, 9.099905, 844777792.000000, -0.490000,  0.420000,  -0.070000, 670525696.000000,  1008.808167 
 220239808.000000, -0.674776 , 3.302095, 9.087940, 844797824.000000, -1.120000,  0.420000,  -0.140000, 0.000000,  0.000000 
 220259520.000000, -0.658026 , 3.302095, 9.135797, 844818112.000000, -1.120000,  0.280000,  -0.140000, 0.000000,  0.000000 
 220280064.000000, -0.662812 , 3.285345, 9.102298, 844837760.000000, -0.630000,  0.280000,  0.070000, 0.000000,  0.000000 
 220299456.000000, -0.689133 , 3.347559, 9.068797, 844858368.000000, 0.070000,  0.210000,  0.070000, 0.000000,  0.000000 
 220319488.000000, -0.691526 , 3.395415, 9.075976, 844877760.000000, 0.420000,  0.350000,  0.070000, 0.000000,  0.000000 
 220339904.000000, -0.648455 , 3.306881, 9.099905, 844897728.000000, 0.070000,  0.420000,  0.070000, 0.000000,  0.000000 
 220359424.000000, -0.720240 , 3.311667, 9.126225, 844937728.000000, -0.840000,  0.350000,  0.070000, 0.000000,  0.000000 
 220380032.000000, -0.650848 , 3.321238, 9.099905, 0.000000, 0.000000,  0.000000,  0.000000, 0.000000,  0.000000 
 220399424.000000, -0.614955 , 3.318845, 9.097511, 844977728.000000, 0.070000,  0.420000,  0.070000, 0.000000,  0.000000 
 220419392.000000, -0.679562 , 3.347559, 9.071191, 0.000000, 0.000000,  0.000000,  0.000000, 0.000000,  0.000000 
 220439744.000000, -0.660419 , 3.321238, 9.068797, 844997696.000000, 0.210000,  0.350000,  0.070000, 0.000000,  0.000000 
 220459392.000000, -0.677169 , 3.342773, 9.104690, 845017984.000000, -0.280000,  0.350000,  0.070000, 0.000000,  0.000000 
 220480000.000000, -0.686740 , 3.285345, 9.114261, 845037696.000000, -0.910000,  0.420000,  -0.070000, 0.000000,  0.000000 
 220499392.000000, -0.665205 , 3.259024, 9.097511, 845058240.000000, -0.840000,  0.420000,  0.070000, 0.000000,  0.000000 
 220519360.000000, -0.650848 , 3.369094, 9.030513, 845077632.000000, -0.210000,  0.210000,  0.210000, 0.000000,  0.000000 
 220539648.000000, -0.650848 , 3.349952, 9.075976, 845097664.000000, 0.420000,  0.280000,  0.070000, 0.000000,  0.000000 
 220559360.000000, -0.701097 , 3.349952, 9.078369, 845117952.000000, 0.070000,  0.350000,  0.070000, 0.000000,  0.000000 
 220579904.000000, -0.689133 , 3.287738, 9.092726, 845137600.000000, -0.770000,  0.490000,  0.070000, 0.000000,  0.000000 
 220599296.000000, -0.662812 , 3.383451, 9.090333, 845158208.000000, -0.560000,  0.350000,  -0.070000, 0.000000,  0.000000 
 220619328.000000, -0.648455 , 3.354738, 9.097511, 845177600.000000, -0.560000,  0.280000,  -0.070000, 0.000000,  0.000000 
 220639616.000000, -0.648455 , 3.306881, 9.073583, 845197568.000000, -0.350000,  0.280000,  -0.070000, 0.000000,  0.000000 
 220659264.000000, -0.655633 , 3.254239, 9.087940, 845217856.000000, -1.050000,  0.350000,  -0.070000, 0.000000,  0.000000 
 220679872.000000, -0.658026 , 3.342773, 9.119047, 845237568.000000, -0.700000,  0.140000,  0.210000, 0.000000,  0.000000 
 220699264.000000, -0.713061 , 3.419343, 9.087940, 845258176.000000, 0.280000,  0.280000,  0.210000, 0.000000,  0.000000 
 220719232.000000, -0.634098 , 3.369094, 9.073583, 845277568.000000, 0.490000,  0.420000,  0.210000, 0.000000,  0.000000 
 220739520.000000, -0.646062 , 3.354738, 9.075976, 845297536.000000, 0.490000,  0.280000,  0.070000, 0.000000,  0.000000 
 220759232.000000, -0.641276 , 3.354738, 9.078369, 845317824.000000, -0.560000,  0.280000,  0.070000, 0.000000,  0.000000 
 220779840.000000, -0.667598 , 3.318845, 9.114261, 845337536.000000, -0.840000,  0.420000,  0.070000, 0.000000,  0.000000 
 220799232.000000, -0.595813 , 3.299703, 9.131011, 845358080.000000, -0.700000,  0.350000,  0.070000, 0.000000,  0.000000 
 220819200.000000, -0.660419 , 3.385844, 9.087940, 845377472.000000, -0.280000,  0.420000,  0.070000, 0.000000,  0.000000 
 220839488.000000, -0.679562 , 3.337988, 9.078369, 845397504.000000, -0.070000,  0.420000,  -0.070000, 0.000000,  0.000000 
 220859200.000000, -0.643669 , 3.311667, 9.097511, 845417792.000000, -0.070000,  0.490000,  -0.070000, 0.000000,  0.000000 
 220881728.000000, -0.660419 , 3.337988, 9.087940, 845437440.000000, -0.280000,  0.420000,  0.140000, 0.000000,  0.000000 
 220899136.000000, -0.610170 , 3.302095, 9.095119, 845460032.000000, -0.140000,  0.420000,  0.140000, 0.000000,  0.000000 
 220919104.000000, -0.655633 , 3.347559, 9.109475, 845477440.000000, 0.350000,  0.420000,  0.070000, 0.000000,  0.000000 
 220939456.000000, -0.698704 , 3.400201, 9.085547, 845497408.000000, 0.490000,  0.490000,  0.070000, 0.000000,  0.000000 
 220959104.000000, -0.655633 , 3.294917, 9.054441, 845517696.000000, 0.490000,  0.560000,  0.070000, 0.000000,  0.000000 
 220979712.000000, -0.643669 , 3.328416, 9.059227, 845537408.000000, -0.280000,  0.420000,  0.070000, 0.000000,  0.000000 
 220999104.000000, -0.622134 , 3.359523, 9.073583, 845558016.000000, -0.280000,  0.210000,  0.210000, 0.000000,  0.000000 
 221019072.000000, -0.681954 , 3.354738, 9.107083, 845577344.000000, 0.140000,  0.210000,  0.210000, 0.000000,  0.000000 
 221039360.000000, -0.650848 , 3.342773, 9.104690, 845597376.000000, 0.140000,  0.350000,  0.070000, 0.000000,  0.000000 
 221059072.000000, -0.612563 , 3.373880, 9.104690, 845617664.000000, -0.280000,  0.420000,  0.070000, 0.000000,  0.000000 
 221079680.000000, -0.669990 , 3.287738, 9.111869, 845637376.000000, -0.420000,  0.280000,  0.070000, 0.000000,  0.000000 
 221099008.000000, -0.667598 , 3.316452, 9.109475, 845657920.000000, -0.560000,  0.140000,  0.140000, 0.000000,  0.000000 
 221119040.000000, -0.638884 , 3.340380, 9.102298, 845677312.000000, -0.490000,  0.210000,  0.140000, 0.000000,  0.000000 
 221139328.000000, -0.617348 , 3.366701, 9.099905, 845697280.000000, -0.070000,  0.420000,  0.070000, 0.000000,  0.000000 
 221158976.000000, -0.641276 , 3.395415, 9.066404, 845717632.000000, 0.070000,  0.490000,  0.070000, 0.000000,  0.000000 
 221179648.000000, -0.677169 , 3.378666, 9.111869, 845737280.000000, -0.140000,  0.420000,  0.070000, 0.000000,  0.000000 
 221198976.000000, -0.641276 , 3.357130, 9.119047, 845757888.000000, -0.420000,  0.420000,  0.070000, 0.000000,  0.000000 
 221218944.000000, -0.684347 , 3.337988, 9.099905, 845777280.000000, -0.280000,  0.420000,  0.140000, 671525120.000000,  1008.804260 
 221239296.000000, -0.646062 , 3.388237, 9.078369, 845817536.000000, 0.210000,  0.280000,  0.070000, 0.000000,  0.000000 
 221258944.000000, -0.681954 , 3.407379, 9.078369, 0.000000, 0.000000,  0.000000,  0.000000, 0.000000,  0.000000 
 221279552.000000, -0.648455 , 3.347559, 9.097511, 845837248.000000, -0.140000,  0.350000,  0.070000, 0.000000,  0.000000 
 221298944.000000, -0.669990 , 3.285345, 9.080762, 845857792.000000, -0.490000,  0.420000,  0.070000, 0.000000,  0.000000 
 221318912.000000, -0.634098 , 3.364309, 9.059227, 845877184.000000, -0.350000,  0.350000,  0.070000, 0.000000,  0.000000 
 221339200.000000, -0.638884 , 3.357130, 9.044869, 845897216.000000, -0.210000,  0.350000,  0.070000, 0.000000,  0.000000 
 221358912.000000, -0.660419 , 3.381058, 9.068797, 845917504.000000, -0.280000,  0.420000,  0.070000, 0.000000,  0.000000 
 221379648.000000, -0.605384 , 3.299703, 9.078369, 845937152.000000, -0.490000,  0.420000,  0.070000, 0.000000,  0.000000 
 221398912.000000, -0.583849 , 3.345166, 9.087940, 845957952.000000, -0.350000,  0.420000,  0.140000, 0.000000,  0.000000 
 221418880.000000, -0.674776 , 3.326023, 9.097511, 845977152.000000, -0.210000,  0.420000,  0.070000, 0.000000,  0.000000 
 221439168.000000, -0.646062 , 3.378666, 9.092726, 845997120.000000, -0.280000,  0.350000,  0.140000, 0.000000,  0.000000 
 221458880.000000, -0.672383 , 3.314059, 9.061620, 846017472.000000, -0.490000,  0.420000,  0.140000, 0.000000,  0.000000 
 221479424.000000, -0.696311 , 3.378666, 9.040084, 846037120.000000, -0.070000,  0.490000,  -0.140000, 0.000000,  0.000000 
 221498816.000000, -0.662812 , 3.419343, 9.071191, 846057728.000000, 0.070000,  0.350000,  -0.140000, 0.000000,  0.000000 
 221518784.000000, -0.665205 , 3.316452, 9.147761, 846077120.000000, -0.700000,  0.280000,  -0.140000, 0.000000,  0.000000 
 221539136.000000, -0.662812 , 3.316452, 9.111869, 846097088.000000, -1.540000,  0.280000,  0.140000, 0.000000,  0.000000 
 221558784.000000, -0.626920 , 3.304488, 9.109475, 846117376.000000, -0.840000,  0.070000,  0.140000, 0.000000,  0.000000 
 221579392.000000, -0.684347 , 3.397808, 9.059227, 846137088.000000, 0.490000,  0.070000,  0.280000, 0.000000,  0.000000 
 221598784.000000, -0.655633 , 3.400201, 9.054441, 846157632.000000, 0.700000,  0.420000,  0.280000, 0.000000,  0.000000 
 221618752.000000, -0.693919 , 3.357130, 9.073583, 846177024.000000, -0.140000,  0.490000,  0.280000, 0.000000,  0.000000 
 221639040.000000, -0.636491 , 3.311667, 9.126225, 846217344.000000, -1.050000,  0.350000,  0.280000, 0.000000,  0.000000 
 221658752.000000, -0.691526 , 3.309274, 9.109475, 0.000000, 0.000000,  0.000000,  0.000000, 0.000000,  0.000000 
 221679296.000000, -0.655633 , 3.359523, 9.099905, 846236992.000000, -1.050000,  0.350000,  0.280000, 0.000000,  0.000000 
 221698688.000000, -0.636491 , 3.359523, 9.092726, 846257600.000000, -0.490000,  0.420000,  -0.070000, 0.000000,  0.000000 
 221718720.000000, -0.667598 , 3.378666, 9.068797, 846276992.000000, 0.070000,  0.280000,  0.070000, 0.000000,  0.000000 
 221739008.000000, -0.650848 , 3.340380, 9.078369, 846296960.000000, 0.070000,  0.350000,  0.070000, 0.000000,  0.000000 
 221758656.000000, -0.669990 , 3.299703, 9.085547, 846317312.000000, -0.350000,  0.420000,  0.070000, 0.000000,  0.000000 
 221779264.000000, -0.691526 , 3.282953, 9.126225, 846336960.000000, -0.840000,  0.350000,  0.070000, 0.000000,  0.000000 
 221798656.000000, -0.626920 , 3.337988, 9.075976, 846357568.000000, -0.770000,  0.210000,  0.070000, 0.000000,  0.000000 
 221818624.000000, -0.684347 , 3.366701, 9.083155, 846396928.000000, 0.070000,  0.420000,  0.070000, 0.000000,  0.000000 
 221838976.000000, -0.677169 , 3.385844, 9.085547, 0.000000, 0.000000,  0.000000,  0.000000, 0.000000,  0.000000 
 221858624.000000, -0.655633 , 3.285345, 9.066404, 846417216.000000, -0.420000,  0.350000,  0.070000, 0.000000,  0.000000 
 221881152.000000, -0.624527 , 3.345166, 9.068797, 846436928.000000, -0.560000,  0.280000,  0.140000, 0.000000,  0.000000 
 221898624.000000, -0.617348 , 3.349952, 9.083155, 846459456.000000, -0.210000,  0.350000,  0.070000, 0.000000,  0.000000 
 221918592.000000, -0.689133 , 3.414558, 9.087940, 846476864.000000, 0.070000,  0.350000,  0.070000, 0.000000,  0.000000 
 221938880.000000, -0.689133 , 3.342773, 9.068797, 846496896.000000, -0.210000,  0.350000,  0.070000, 0.000000,  0.000000 
 221958592.000000, -0.660419 , 3.292524, 9.085547, 846517184.000000, -0.700000,  0.350000,  0.070000, 0.000000,  0.000000 
 221979136.000000, -0.624527 , 3.323631, 9.092726, 846536832.000000, -0.770000,  0.280000,  0.070000, 0.000000,  0.000000 
 221998528.000000, -0.634098 , 3.318845, 9.109475, 846557440.000000, -0.560000,  0.350000,  0.070000, 0.000000,  0.000000 
 222018560.000000, -0.674776 , 3.376273, 9.092726, 846576832.000000, -0.350000,  0.280000,  0.070000, 0.000000,  0.000000 
 222038848.000000, -0.672383 , 3.340380, 9.080762, 846596800.000000, -0.210000,  0.350000,  0.070000, 0.000000,  0.000000 
 222058496.000000, -0.677169 , 3.383451, 9.083155, 846617152.000000, -0.070000,  0.490000,  0.070000, 0.000000,  0.000000 
 222079104.000000, -0.658026 , 3.373880, 9.028119, 846636800.000000, -0.070000,  0.420000,  0.070000, 0.000000,  0.000000 
 222098496.000000, -0.626920 , 3.364309, 9.116654, 846657408.000000, -0.070000,  0.280000,  0.140000, 0.000000,  0.000000 
 222118464.000000, -0.643669 , 3.337988, 9.092726, 846676800.000000, -0.420000,  0.350000,  0.070000, 0.000000,  0.000000 
 222138816.000000, -0.674776 , 3.318845, 9.078369, 846696768.000000, -0.490000,  0.490000,  0.070000, 0.000000,  0.000000 
 222158464.000000, -0.662812 , 3.323631, 9.087940, 846717056.000000, -0.420000,  0.420000,  0.070000, 0.000000,  0.000000 
 222179072.000000, -0.672383 , 3.366701, 9.066404, 846736768.000000, -0.210000,  0.350000,  0.140000, 0.000000,  0.000000 
 222198464.000000, -0.648455 , 3.369094, 9.090333, 846757376.000000, -0.070000,  0.350000,  0.070000, 0.000000,  0.000000 
 222218432.000000, -0.662812 , 3.381058, 9.107083, 846776704.000000, -0.140000,  0.280000,  0.210000, 672524608.000000,  1008.804749 
 222238720.000000, -0.634098 , 3.371487, 9.087940, 846796672.000000, -0.490000,  0.350000,  0.210000, 0.000000,  0.000000 
 222258432.000000, -0.689133 , 3.409772, 9.087940, 846817024.000000, -0.280000,  0.490000,  -0.140000, 0.000000,  0.000000 
 222278976.000000, -0.626920 , 3.395415, 9.092726, 846836672.000000, -0.210000,  0.420000,  -0.070000, 0.000000,  0.000000 
 222298368.000000, -0.686740 , 3.309274, 9.140583, 846857280.000000, -0.840000,  0.210000,  0.140000, 0.000000,  0.000000 
 222318336.000000, -0.650848 , 3.273381, 9.114261, 846876672.000000, -1.400000,  0.280000,  0.070000, 0.000000,  0.000000 
 222338688.000000, -0.593420 , 3.419343, 9.068797, 846896640.000000, -0.630000,  0.140000,  0.140000, 0.000000,  0.000000 
 222358336.000000, -0.677169 , 3.376273, 9.068797, 846916992.000000, 0.630000,  0.210000,  0.210000, 0.000000,  0.000000 
 222378944.000000, -0.691526 , 3.407379, 9.116654, 846936640.000000, 0.700000,  0.420000,  0.210000, 0.000000,  0.000000 
 222398336.000000, -0.672383 , 3.328416, 9.049655, 846957184.000000, -0.560000,  0.420000,  -0.070000, 0.000000,  0.000000 
 222418304.000000, -0.636491 , 3.280560, 9.133404, 846976576.000000, -1.540000,  0.210000,  -0.070000, 0.000000,  0.000000 
 222438592.000000, -0.655633 , 3.318845, 9.111869, 846996608.000000, -1.610000,  0.210000,  -0.070000, 0.000000,  0.000000 
 222458304.000000, -0.641276 , 3.366701, 9.126225, 847016896.000000, -0.910000,  0.280000,  -0.070000, 0.000000,  0.000000 
 222478848.000000, -0.689133 , 3.330809, 9.078369, 847036544.000000, -0.070000,  0.350000,  0.070000, 0.000000,  0.000000 
 222498240.000000, -0.674776 , 3.364309, 9.092726, 847057152.000000, 0.140000,  0.490000,  0.070000, 0.000000,  0.000000 
 222518272.000000, -0.669990 , 3.328416, 9.107083, 847076544.000000, -0.140000,  0.490000,  0.070000, 0.000000,  0.000000 
 222538560.000000, -0.665205 , 3.299703, 9.097511, 847096512.000000, -0.700000,  0.280000,  0.070000, 0.000000,  0.000000 
 222558208.000000, -0.684347 , 3.330809, 9.068797, 847116864.000000, -0.700000,  0.210000,  0.140000, 0.000000,  0.000000 
 222578816.000000, -0.667598 , 3.357130, 9.111869, 847136512.000000, -0.140000,  0.350000,  0.140000, 0.000000,  0.000000 
 222598208.000000, -0.667598 , 3.381058, 9.087940, 847157120.000000, 0.280000,  0.490000,  -0.070000, 0.000000,  0.000000 
 222618176.000000, -0.660419 , 3.304488, 9.056834, 847176512.000000, -0.280000,  0.350000,  0.070000, 0.000000,  0.000000 
 222638528.000000, -0.614955 , 3.323631, 9.059227, 847196480.000000, -0.630000,  0.210000,  0.140000, 0.000000,  0.000000 
 222658176.000000, -0.646062 , 3.416951, 9.083155, 847236480.000000, 0.280000,  0.350000,  0.070000, 0.000000,  0.000000 
 222678784.000000, -0.658026 , 3.404987, 9.102298, 0.000000, 0.000000,  0.000000,  0.000000, 0.000000,  0.000000 
 222698176.000000, -0.646062 , 3.349952, 9.061620, 847257024.000000, -0.070000,  0.420000,  0.070000, 0.000000,  0.000000 
 222718144.000000, -0.650848 , 3.316452, 9.080762, 847276416.000000, -0.700000,  0.420000,  0.070000, 0.000000,  0.000000 
 222738432.000000, -0.631705 , 3.340380, 9.111869, 847296448.000000, -0.840000,  0.280000,  0.070000, 0.000000,  0.000000 
 222758144.000000, -0.660419 , 3.342773, 9.087940, 847316736.000000, -0.560000,  0.280000,  0.070000, 0.000000,  0.000000 
 222778688.000000, -0.646062 , 3.318845, 9.075976, 847336384.000000, -0.280000,  0.350000,  0.070000, 0.000000,  0.000000 
 222798080.000000, -0.672383 , 3.328416, 9.104690, 847356992.000000, -0.140000,  0.280000,  0.070000, 0.000000,  0.000000 
 222818112.000000, -0.617348 , 3.357130, 9.064013, 847376384.000000, -0.140000,  0.280000,  0.070000, 0.000000,  0.000000 
 222838400.000000, -0.669990 , 3.359523, 9.090333, 847396352.000000, -0.210000,  0.350000,  0.070000, 0.000000,  0.000000 
 222858048.000000, -0.648455 , 3.400201, 9.111869, 847416704.000000, -0.420000,  0.420000,  0.070000, 0.000000,  0.000000 
 222880576.000000, -0.631705 , 3.378666, 9.090333, 847436352.000000, -0.490000,  0.420000,  0.070000, 0.000000,  0.000000 
 222898048.000000, -0.681954 , 3.359523, 9.078369, 847458880.000000, -0.420000,  0.350000,  0.070000, 0.000000,  0.000000 
 222918016.000000, -0.655633 , 3.352344, 9.107083, 847476352.000000, -0.420000,  0.420000,  -0.070000, 0.000000,  0.000000 
 222938368.000000, -0.636491 , 3.302095, 9.140583, 847496320.000000, -0.630000,  0.420000,  -0.070000, 0.000000,  0.000000 
 222958016.000000, -0.605384 , 3.294917, 9.121440, 847516608.000000, -0.770000,  0.280000,  0.140000, 0.000000,  0.000000 
 222978624.000000, -0.667598 , 3.359523, 9.095119, 847536320.000000, -0.490000,  0.280000,  0.070000, 0.000000,  0.000000 
 222998016.000000, -0.665205 , 3.378666, 9.121440, 847556864.000000, -0.490000,  0.350000,  0.140000, 0.000000,  0.000000 
 223017984.000000, -0.705883 , 3.352344, 9.092726, 847576256.000000, 0.210000,  0.490000,  0.140000, 0.000000,  0.000000 
 223038272.000000, -0.638884 , 3.385844, 9.133404, 847596288.000000, 0.210000,  0.350000,  0.280000, 0.000000,  0.000000 
 223057984.000000, -0.689133 , 3.388237, 9.059227, 847616576.000000, 0.210000,  0.280000,  0.210000, 0.000000,  0.000000 
 223078528.000000, -0.681954 , 3.347559, 9.080762, 847636224.000000, 0.070000,  0.490000,  0.070000, 0.000000,  0.000000 
 223097920.000000, -0.660419 , 3.309274, 9.049655, 847656832.000000, -0.770000,  0.490000,  0.140000, 0.000000,  0.000000 
 223117952.000000, -0.595813 , 3.314059, 9.164511, 847676224.000000, -1.050000,  0.350000,  0.070000, 0.000000,  0.000000 
 223138240.000000, -0.677169 , 3.361916, 9.087940, 847696192.000000, -0.490000,  0.350000,  0.070000, 0.000000,  0.000000 
 223157888.000000, -0.660419 , 3.371487, 9.080762, 847716544.000000, -0.140000,  0.490000,  -0.140000, 0.000000,  0.000000 
 223178496.000000, -0.672383 , 3.352344, 9.061620, 847736192.000000, -0.490000,  0.490000,  -0.140000, 0.000000,  0.000000 
 223197888.000000, -0.641276 , 3.309274, 9.114261, 847756800.000000, -0.980000,  0.350000,  -0.070000, 0.000000,  0.000000 
 223217856.000000, -0.658026 , 3.345166, 9.107083, 847776192.000000, -0.910000,  0.280000,  -0.070000, 673524032.000000,  1008.804138 
 223238144.000000, -0.705883 , 3.349952, 9.111869, 847796160.000000, -0.420000,  0.420000,  -0.070000, 0.000000,  0.000000 
 223257856.000000, -0.622134 , 3.342773, 9.052048, 847816448.000000, -0.070000,  0.280000,  0.070000, 0.000000,  0.000000 
 223278464.000000, -0.634098 , 3.400201, 9.083155, 847836160.000000, -0.140000,  0.280000,  0.070000, 0.000000,  0.000000 
 223297856.000000, -0.701097 , 3.287738, 9.109475, 847856704.000000, -0.490000,  0.350000,  0.070000, 0.000000,  0.000000 
 223317824.000000, -0.715454 , 3.309274, 9.109475, 847876096.000000, -0.770000,  0.350000,  0.140000, 0.000000,  0.000000 
 223338112.000000, -0.662812 , 3.335595, 9.080762, 847896128.000000, -0.350000,  0.420000,  0.210000, 0.000000,  0.000000 
 223357824.000000, -0.686740 , 3.433701, 9.054441, 847916416.000000, 0.070000,  0.420000,  0.070000, 0.000000,  0.000000 
 223378368.000000, -0.646062 , 3.347559, 9.078369, 847936064.000000, -0.070000,  0.560000,  0.070000, 0.000000,  0.000000 
 223397760.000000, -0.646062 , 3.323631, 9.095119, 847956672.000000, -0.630000,  0.630000,  0.070000, 0.000000,  0.000000 
 223417792.000000, -0.665205 , 3.311667, 9.075976, 847976064.000000, -0.840000,  0.350000,  -0.140000, 0.000000,  0.000000 
 223438080.000000, -0.684347 , 3.314059, 9.114261, 847996032.000000, -0.770000,  0.280000,  0.070000, 0.000000,  0.000000 
 223457728.000000, -0.660419 , 3.282953, 9.123833, 848016320.000000, -0.770000,  0.280000,  0.070000, 0.000000,  0.000000 
 223478336.000000, -0.669990 , 3.373880, 9.116654, 848036032.000000, -0.280000,  0.280000,  0.070000, 0.000000,  0.000000 
 223497728.000000, -0.722632 , 3.445665, 9.068797, 848056640.000000, 0.700000,  0.490000,  0.070000, 0.000000,  0.000000 
 223517696.000000, -0.667598 , 3.409772, 9.016156, 848076032.000000, 0.840000,  0.350000,  0.070000, 0.000000,  0.000000 
 223537984.000000, -0.674776 , 3.299703, 9.154939, 848096000.000000, -0.560000,  0.140000,  0.210000, 0.000000,  0.000000 
 223557696.000000, -0.595813 , 3.290131, 9.114261, 848116288.000000, -1.190000,  0.210000,  0.280000, 0.000000,  0.000000 
 223578304.000000, -0.643669 , 3.357130, 9.142976, 848136000.000000, -1.400000,  0.280000,  0.210000, 0.000000,  0.000000 
 223597696.000000, -0.655633 , 3.352344, 9.109475, 848156544.000000, -0.490000,  0.350000,  0.070000, 0.000000,  0.000000 
 223617664.000000, -0.624527 , 3.347559, 9.059227, 848175936.000000, -0.490000,  0.490000,  0.070000, 0.000000,  0.000000 
 223637952.000000, -0.725025 , 3.357130, 9.047262, 848195968.000000, -0.280000,  0.630000,  -0.210000, 0.000000,  0.000000 
 223657664.000000, -0.667598 , 3.371487, 9.109475, 848216256.000000, -0.560000,  0.560000,  -0.140000, 0.000000,  0.000000 
 223678208.000000, -0.665205 , 3.335595, 9.114261, 848235904.000000, -0.770000,  0.420000,  -0.070000, 0.000000,  0.000000 
 223697600.000000, -0.672383 , 3.290131, 9.138189, 848256512.000000, -1.050000,  0.210000,  -0.070000, 0.000000,  0.000000 
 223717568.000000, -0.672383 , 3.309274, 9.133404, 848275904.000000, -0.770000,  0.210000,  0.140000, 0.000000,  0.000000 
 223737920.000000, -0.646062 , 3.361916, 9.073583, 848295872.000000, 0.140000,  0.280000,  0.140000, 0.000000,  0.000000 
 223757568.000000, -0.643669 , 3.378666, 9.126225, 848316160.000000, 0.840000,  0.350000,  0.280000, 0.000000,  0.000000 
 223778176.000000, -0.658026 , 3.287738, 9.066404, 848335872.000000, 0.420000,  0.420000,  0.140000, 0.000000,  0.000000 
 223797568.000000, -0.581456 , 3.469593, 9.030513, 848356416.000000, 0.630000,  0.140000,  -0.210000, 0.000000,  0.000000 
 223817536.000000, -0.614955 , 3.493521, 9.037691, 848375808.000000, 1.120000,  -0.280000,  0.140000, 0.000000,  0.000000 
 223837824.000000, -0.744168 , 3.306881, 9.119047, 848395840.000000, -0.700000,  0.560000,  -0.420000, 0.000000,  0.000000 
 223857536.000000, -0.717847 , 3.254239, 9.071191, 848416128.000000, -2.590000,  0.910000,  -0.980000, 0.000000,  0.000000 
 223880064.000000, -0.679562 , 3.237489, 9.090333, 848435776.000000, -1.960000,  0.420000,  -0.490000, 0.000000,  0.000000 
 223897472.000000, -0.629312 , 3.285345, 9.061620, 848458368.000000, -0.770000,  -0.280000,  0.070000, 0.000000,  0.000000 
 223917504.000000, -0.653241 , 3.345166, 9.059227, 848475776.000000, 0.210000,  -0.490000,  0.210000, 0.000000,  0.000000 
 223937792.000000, -0.708275 , 3.404987, 9.030513, 848495744.000000, 0.980000,  -0.140000,  0.210000, 0.000000,  0.000000 
 223957440.000000, -0.744168 , 3.426522, 9.092726, 848516096.000000, 0.770000,  0.210000,  -0.140000, 0.000000,  0.000000 
 223978048.000000, -0.641276 , 3.268596, 9.071191, 848535744.000000, -0.490000,  0.350000,  0.070000, 0.000000,  0.000000 
 223997440.000000, -0.655633 , 3.254239, 9.107083, 848556352.000000, -1.610000,  0.280000,  0.140000, 0.000000,  0.000000 
 224017408.000000, -0.660419 , 3.330809, 9.123833, 848575744.000000, -0.770000,  0.350000,  0.420000, 0.000000,  0.000000 
 224037760.000000, -0.679562 , 3.388237, 9.128618, 848595712.000000, 0.560000,  0.560000,  0.210000, 0.000000,  0.000000 
 224057408.000000, -0.681954 , 3.400201, 9.056834, 848616000.000000, 0.490000,  0.770000,  0.070000, 0.000000,  0.000000 
 224078016.000000, -0.653241 , 3.328416, 9.042477, 848635712.000000, -0.420000,  0.630000,  0.070000, 0.000000,  0.000000 
 224097408.000000, -0.667598 , 3.275774, 9.104690, 848656256.000000, -1.330000,  0.490000,  0.070000, 0.000000,  0.000000 
 224117376.000000, -0.634098 , 3.311667, 9.140583, 848675648.000000, -1.260000,  0.350000,  0.070000, 0.000000,  0.000000 
 224137664.000000, -0.648455 , 3.299703, 9.095119, 848695680.000000, -0.490000,  0.280000,  0.070000, 0.000000,  0.000000 
 224157376.000000, -0.681954 , 3.354738, 9.078369, 848715968.000000, 0.420000,  0.280000,  -0.070000, 0.000000,  0.000000 
 224177984.000000, -0.658026 , 3.393023, 9.095119, 848735616.000000, 0.840000,  0.280000,  -0.070000, 0.000000,  0.000000 
 224197312.000000, -0.729811 , 3.290131, 9.066404, 848756288.000000, 0.630000,  0.560000,  -0.140000, 0.000000,  0.000000 
 224217344.000000, -0.727418 , 3.318845, 9.121440, 848775616.000000, 0.350000,  0.490000,  -0.140000, 674523520.000000,  1008.803650 
 224237632.000000, -0.643669 , 3.448057, 9.085547, 848795584.000000, 0.980000,  0.070000,  0.350000, 0.000000,  0.000000 
 224257280.000000, -0.602991 , 3.467200, 9.152546, 848815936.000000, 1.750000,  -0.350000,  0.630000, 0.000000,  0.000000 
 224277888.000000, -0.619741 , 3.462414, 9.054441, 848835584.000000, 1.470000,  -0.140000,  0.490000, 0.000000,  0.000000 
 224297280.000000, -0.648455 , 3.345166, 9.068797, 848856192.000000, -0.140000,  0.420000,  0.490000, 0.000000,  0.000000 
 224317248.000000, -0.662812 , 3.316452, 9.104690, 848875584.000000, -1.960000,  0.630000,  -0.140000, 0.000000,  0.000000 
 224337600.000000, -0.646062 , 3.306881, 9.131011, 848895552.000000, -1.890000,  0.350000,  0.070000, 0.000000,  0.000000 
 224357248.000000, -0.653241 , 3.366701, 9.083155, 848915840.000000, -0.630000,  0.280000,  0.140000, 0.000000,  0.000000 
 224377856.000000, -0.667598 , 3.381058, 9.059227, 848935552.000000, 0.350000,  0.420000,  -0.070000, 0.000000,  0.000000 
 224397248.000000, -0.691526 , 3.333202, 9.018548, 848956096.000000, 0.070000,  0.490000,  -0.210000, 0.000000,  0.000000 
 224417216.000000, -0.677169 , 3.326023, 9.071191, 848975488.000000, -0.700000,  0.420000,  -0.210000, 0.000000,  0.000000 
 224437504.000000, -0.674776 , 3.302095, 9.119047, 848995520.000000, -1.050000,  0.420000,  -0.140000, 0.000000,  0.000000 
 224457216.000000, -0.646062 , 3.294917, 9.111869, 849015808.000000, -0.630000,  0.350000,  -0.070000, 0.000000,  0.000000 
 224477760.000000, -0.672383 , 3.381058, 9.099905, 849035456.000000, 0.210000,  0.210000,  0.140000, 0.000000,  0.000000 
 224497152.000000, -0.679562 , 3.433701, 9.020942, 849056064.000000, 0.770000,  0.140000,  0.280000, 0.000000,  0.000000 
 224517184.000000, -0.650848 , 3.421736, 9.078369, 849075456.000000, 0.630000,  0.140000,  0.420000, 0.000000,  0.000000 
 224537472.000000, -0.689133 , 3.352344, 9.126225, 849095424.000000, 0.070000,  0.140000,  0.420000, 0.000000,  0.000000 
 224557120.000000, -0.650848 , 3.340380, 9.150154, 849115712.000000, -0.280000,  0.070000,  0.420000, 0.000000,  0.000000 
 224577728.000000, -0.619741 , 3.335595, 9.131011, 849135424.000000, -0.280000,  0.070000,  0.490000, 0.000000,  0.000000 
 224597120.000000, -0.581456 , 3.347559, 9.083155, 849156032.000000, 0.700000,  -0.280000,  0.700000, 0.000000,  0.000000 
 224617088.000000, -0.562313 , 3.419343, 9.023334, 849175424.000000, 1.750000,  -0.420000,  0.700000, 0.000000,  0.000000 
 224637376.000000, -0.669990 , 3.481557, 9.016156, 849195392.000000, 2.170000,  -0.140000,  0.210000, 0.000000,  0.000000 
 224657088.000000, -0.641276 , 3.488736, 9.020942, 849215680.000000, 0.980000,  0.350000,  -0.420000, 0.000000,  0.000000 
 224677696.000000, -0.626920 , 3.364309, 9.073583, 849235392.000000, -1.330000,  0.350000,  -0.560000, 0.000000,  0.000000 
 224697088.000000, -0.653241 , 3.292524, 9.126225, 849255936.000000, -3.920000,  0.490000,  -0.700000, 0.000000,  0.000000 
 224717056.000000, -0.725025 , 3.261417, 9.128618, 849275328.000000, -4.410000,  0.770000,  -0.910000, 0.000000,  0.000000 
 224737344.000000, -0.689133 , 3.321238, 9.097511, 849295360.000000, -2.870000,  0.770000,  -0.700000, 0.000000,  0.000000 
 224757056.000000, -0.744168 , 3.326023, 9.090333, 849315648.000000, -1.120000,  0.840000,  -0.560000, 0.000000,  0.000000 
 224777600.000000, -0.602991 , 3.314059, 9.121440, 849335296.000000, -0.280000,  0.420000,  -0.560000, 0.000000,  0.000000 
 224796992.000000, -0.653241 , 3.352344, 9.071191, 849355904.000000, -0.140000,  0.070000,  0.490000, 0.000000,  0.000000 
 224817024.000000, -0.655633 , 3.323631, 9.054441, 849375296.000000, -0.490000,  0.210000,  0.420000, 0.000000,  0.000000 
 224837312.000000, -0.643669 , 3.263810, 9.044869, 849395264.000000, -1.330000,  0.140000,  0.560000, 0.000000,  0.000000 
 224856960.000000, -0.626920 , 3.270989, 9.078369, 849415552.000000, -1.050000,  0.140000,  0.630000, 0.000000,  0.000000 
 224879488.000000, -0.607777 , 3.321238, 9.090333, 849435264.000000, -0.210000,  0.140000,  0.980000, 0.000000,  0.000000 
 224896960.000000, -0.655633 , 3.349952, 9.090333, 849457792.000000, 0.630000,  0.350000,  0.980000, 0.000000,  0.000000 
 224916928.000000, -0.655633 , 3.383451, 9.066404, 849475264.000000, 1.540000,  0.910000,  0.910000, 0.000000,  0.000000 
 224937216.000000, -0.665205 , 3.404987, 9.061620, 849495232.000000, 1.610000,  0.770000,  1.120000, 0.000000,  0.000000 
 224956928.000000, -0.586242 , 3.345166, 9.107083, 849515520.000000, 1.260000,  0.630000,  1.260000, 0.000000,  0.000000 
 224977472.000000, -0.591027 , 3.354738, 9.123833, 849535232.000000, 1.190000,  0.700000,  1.120000, 0.000000,  0.000000 
 224996928.000000, -0.629312 , 3.426522, 9.121440, 849555776.000000, 1.470000,  0.700000,  1.120000, 0.000000,  0.000000 
 225016896.000000, -0.638884 , 3.460021, 9.030513, 849575168.000000, 1.750000,  0.630000,  0.700000, 0.000000,  0.000000 
 225037184.000000, -0.598206 , 3.443272, 9.042477, 849595200.000000, 1.820000,  0.490000,  0.490000, 0.000000,  0.000000 
 225056896.000000, -0.638884 , 3.433701, 9.042477, 849615488.000000, 0.910000,  0.420000,  0.280000, 0.000000,  0.000000 
 225077440.000000, -0.701097 , 3.414558, 9.080762, 849635136.000000, -0.700000,  0.490000,  0.280000, 0.000000,  0.000000 
 225096832.000000, -0.679562 , 3.342773, 9.099905, 849655744.000000, -1.750000,  0.490000,  -0.140000, 0.000000,  0.000000 
 225116864.000000, -0.617348 , 3.373880, 9.083155, 849675136.000000, -1.960000,  0.280000,  -0.140000, 0.000000,  0.000000 
 225137152.000000, -0.626920 , 3.416951, 9.116654, 849695104.000000, -0.980000,  0.140000,  -0.070000, 0.000000,  0.000000 
 225156800.000000, -0.538385 , 3.500700, 9.068797, 849715392.000000, 0.280000,  -0.140000,  0.210000, 0.000000,  0.000000 
 225177408.000000, -0.638884 , 3.388237, 9.099905, 849735104.000000, -0.070000,  -0.070000,  0.070000, 0.000000,  0.000000 
 225196800.000000, -0.741775 , 3.345166, 9.013763, 849775104.000000, -1.750000,  0.560000,  -0.700000, 675522944.000000,  1008.805725 
 225216768.000000, -0.638884 , 3.433701, 9.044869, 0.000000, 0.000000,  0.000000,  0.000000, 0.000000,  0.000000 
 225237056.000000, -0.607777 , 3.421736, 9.104690, 849795072.000000, -1.120000,  0.560000,  -0.070000, 0.000000,  0.000000 
 225256768.000000, -0.629312 , 3.316452, 9.126225, 849815360.000000, -1.470000,  0.070000,  -0.280000, 0.000000,  0.000000 
 225277312.000000, -0.689133 , 3.306881, 9.075976, 849835072.000000, -1.540000,  0.560000,  -0.560000, 0.000000,  0.000000 
 225296768.000000, -0.655633 , 3.328416, 9.066404, 849855616.000000, -0.910000,  0.490000,  -0.350000, 0.000000,  0.000000 
 225316736.000000, -0.660419 , 3.354738, 9.047262, 849875008.000000, -0.770000,  0.280000,  -0.280000, 0.000000,  0.000000 
 225337152.000000, -0.655633 , 3.259024, 9.090333, 849895040.000000, -1.190000,  0.210000,  -0.280000, 0.000000,  0.000000 
 225356736.000000, -0.593420 , 3.275774, 9.087940, 849915392.000000, -0.980000,  0.140000,  0.210000, 0.000000,  0.000000 
 225377472.000000, -0.641276 , 3.287738, 9.162118, 849934976.000000, -0.070000,  0.280000,  0.280000, 0.000000,  0.000000 
 225396672.000000, -0.619741 , 3.407379, 9.095119, 849955712.000000, 0.980000,  0.560000,  0.070000, 0.000000,  0.000000 
 225416640.000000, -0.662812 , 3.481557, 9.028119, 849974976.000000, 1.680000,  0.560000,  -0.070000, 0.000000,  0.000000 
 225436992.000000, -0.734596 , 3.486342, 9.020942, 849994944.000000, 1.400000,  0.560000,  -0.140000, 0.000000,  0.000000 
 225456640.000000, -0.708275 , 3.381058, 9.099905, 850015232.000000, -0.700000,  0.560000,  -0.210000, 0.000000,  0.000000 
 225477248.000000, -0.602991 , 3.223132, 9.111869, 850034944.000000, -1.890000,  0.420000,  -0.070000, 0.000000,  0.000000 
 225496640.000000, -0.593420 , 3.275774, 9.142976, 850055488.000000, -2.660000,  0.070000,  0.350000, 0.000000,  0.000000 
 225516608.000000, -0.581456 , 3.342773, 9.080762, 850074880.000000, -0.910000,  0.070000,  0.350000, 0.000000,  0.000000 
 225536896.000000, -0.631705 , 3.448057, 9.013763, 850094912.000000, 1.260000,  0.210000,  0.280000, 0.000000,  0.000000 
 225556608.000000, -0.698704 , 3.436093, 8.977871, 850115200.000000, 1.820000,  0.280000,  0.140000, 0.000000,  0.000000 
 225577152.000000, -0.665205 , 3.414558, 9.061620, 850134848.000000, 0.840000,  0.630000,  -0.140000, 0.000000,  0.000000 
 225596544.000000, -0.636491 , 3.352344, 9.071191, 850155456.000000, -0.910000,  0.700000,  -0.350000, 0.000000,  0.000000 
 225616576.000000, -0.626920 , 3.330809, 9.159724, 850174848.000000, -1.680000,  0.630000,  -0.280000, 0.000000,  0.000000 
 225636864.000000, -0.693919 , 3.328416, 9.099905, 850194816.000000, -1.260000,  0.630000,  -0.210000, 0.000000,  0.000000 
 225656512.000000, -0.705883 , 3.440879, 9.059227, 850215168.000000, -1.260000,  0.560000,  -0.140000, 0.000000,  0.000000 
 225677120.000000, -0.674776 , 3.455236, 9.059227, 850234816.000000, 0.140000,  0.490000,  0.070000, 0.000000,  0.000000 
 225696512.000000, -0.691526 , 3.345166, 9.061620, 850255424.000000, -0.840000,  0.420000,  0.070000, 0.000000,  0.000000 
 225716480.000000, -0.624527 , 3.292524, 9.119047, 850274816.000000, -1.820000,  0.350000,  0.140000, 0.000000,  0.000000 
 225736832.000000, -0.667598 , 3.294917, 9.116654, 850294784.000000, -1.470000,  0.210000,  0.070000, 0.000000,  0.000000 
 225756480.000000, -0.684347 , 3.326023, 9.140583, 850315072.000000, -0.140000,  0.350000,  0.070000, 0.000000,  0.000000 
 225777088.000000, -0.703490 , 3.369094, 9.059227, 850334784.000000, 0.770000,  0.560000,  -0.070000, 0.000000,  0.000000 
 225796480.000000, -0.698704 , 3.369094, 9.030513, 850355328.000000, 1.050000,  0.560000,  -0.070000, 0.000000,  0.000000 
 225816448.000000, -0.667598 , 3.393023, 8.951550, 850374720.000000, 1.330000,  -0.140000,  0.560000, 0.000000,  0.000000 
 225836736.000000, -0.555135 , 3.397808, 9.064013, 850394752.000000, 1.330000,  -0.630000,  1.190000, 0.000000,  0.000000 
 225856448.000000, -0.504886 , 3.361916, 9.195618, 850415040.000000, 1.190000,  -0.490000,  1.470000, 0.000000,  0.000000 
 225878976.000000, -0.571885 , 3.431308, 9.154939, 850434688.000000, 1.120000,  0.420000,  0.980000, 0.000000,  0.000000 
 225896384.000000, -0.665205 , 3.546163, 9.018548, 850457280.000000, 1.960000,  1.330000,  0.210000, 0.000000,  0.000000 
 225916416.000000, -0.684347 , 3.620341, 8.951550, 850494656.000000, 0.070000,  0.770000,  -0.630000, 0.000000,  0.000000 
 225936704.000000, -0.705883 , 3.495914, 8.953942, 0.000000, 0.000000,  0.000000,  0.000000, 0.000000,  0.000000 
 225956352.000000, -0.672383 , 3.261417, 9.111869, 850515008.000000, -3.780000,  0.420000,  -0.700000, 0.000000,  0.000000 
 225976960.000000, -0.588634 , 3.168097, 9.188439, 850534656.000000, -5.460000,  0.140000,  -0.420000, 0.000000,  0.000000 
 225996352.000000, -0.629312 , 3.239882, 9.080762, 850555264.000000, -3.360000,  0.140000,  -0.070000, 0.000000,  0.000000 
 226016320.000000, -0.689133 , 3.402594, 9.028119, 850574656.000000, 0.700000,  0.490000,  -0.070000, 0.000000,  0.000000 
 226036672.000000, -0.696311 , 3.503092, 9.008978, 850594624.000000, 2.590000,  0.770000,  -0.210000, 0.000000,  0.000000 
 226056320.000000, -0.648455 , 3.493521, 9.013763, 850614912.000000, 1.610000,  0.490000,  -0.140000, 0.000000,  0.000000 
 226076928.000000, -0.612563 , 3.349952, 9.097511, 850634624.000000, -0.490000,  0.210000,  0.140000, 0.000000,  0.000000 
 226096320.000000, -0.660419 , 3.275774, 9.102298, 850655168.000000, -2.240000,  0.350000,  -0.070000, 0.000000,  0.000000 
 226116288.000000, -0.693919 , 3.347559, 9.087940, 850674560.000000, -1.610000,  0.350000,  -0.070000, 0.000000,  0.000000 
 226136576.000000, -0.662812 , 3.460021, 9.054441, 850694592.000000, 0.210000,  0.350000,  -0.070000, 0.000000,  0.000000 
 226156288.000000, -0.669990 , 3.445665, 9.102298, 850714880.000000, 0.980000,  0.420000,  -0.070000, 0.000000,  0.000000 
 226176896.000000, -0.665205 , 3.397808, 9.095119, 850734528.000000, 0.070000,  0.420000,  -0.070000, 0.000000,  0.000000 
 226196224.000000, -0.672383 , 3.335595, 9.042477, 850755136.000000, -0.910000,  0.350000,  -0.070000, 0.000000,  0.000000 
 226216192.000000, -0.655633 , 3.383451, 9.035298, 850774528.000000, -0.910000,  0.280000,  -0.280000, 676522368.000000,  1008.804077 
 226236544.000000, -0.646062 , 3.345166, 9.090333, 850794496.000000, -0.980000,  0.280000,  -0.070000, 0.000000,  0.000000 
 226256192.000000, -0.638884 , 3.275774, 9.097511, 850814784.000000, -1.680000,  0.140000,  0.070000, 0.000000,  0.000000 
 226276800.000000, -0.636491 , 3.333202, 9.142976, 850834496.000000, -1.120000,  0.070000,  0.210000, 0.000000,  0.000000 
 226296192.000000, -0.626920 , 3.407379, 9.104690, 850855104.000000, 0.630000,  0.140000,  0.350000, 0.000000,  0.000000 
 226316160.000000, -0.665205 , 3.460021, 9.059227, 850874432.000000, 1.820000,  0.350000,  0.350000, 0.000000,  0.000000 
 226336448.000000, -0.607777 , 3.450450, 9.016156, 850894464.000000, 1.470000,  0.350000,  0.350000, 0.000000,  0.000000 
 226356160.000000, -0.617348 , 3.402594, 9.073583, 850914752.000000, 1.470000,  0.420000,  0.140000, 0.000000,  0.000000 
 226376768.000000, -0.629312 , 3.378666, 9.087940, 850934400.000000, -1.050000,  0.490000,  0.140000, 0.000000,  0.000000 
 226396096.000000, -0.655633 , 3.333202, 9.054441, 850955008.000000, -1.260000,  0.490000,  0.070000, 0.000000,  0.000000 
 226416128.000000, -0.648455 , 3.357130, 9.042477, 850994368.000000, -0.630000,  0.490000,  0.140000, 0.000000,  0.000000 
 226436416.000000, -0.626920 , 3.378666, 9.085547, 0.000000, 0.000000,  0.000000,  0.000000, 0.000000,  0.000000 
 226456064.000000, -0.638884 , 3.337988, 9.056834, 851014720.000000, -0.420000,  0.490000,  0.350000, 0.000000,  0.000000 
 226476672.000000, -0.653241 , 3.354738, 9.080762, 851034368.000000, 0.070000,  0.630000,  0.350000, 0.000000,  0.000000 
 226496064.000000, -0.629312 , 3.397808, 9.042477, 851054976.000000, 0.070000,  0.630000,  -0.070000, 0.000000,  0.000000 
 226516032.000000, -0.643669 , 3.436093, 9.116654, 851074368.000000, -0.280000,  0.490000,  -0.070000, 0.000000,  0.000000 
 226536384.000000, -0.653241 , 3.373880, 9.157332, 851094336.000000, -0.420000,  0.420000,  -0.070000, 0.000000,  0.000000 
 226556032.000000, -0.677169 , 3.421736, 9.116654, 851114624.000000, -0.420000,  0.350000,  0.070000, 0.000000,  0.000000 
 226576640.000000, -0.679562 , 3.428915, 9.049655, 851134336.000000, 0.210000,  0.280000,  0.140000, 0.000000,  0.000000 
 226596032.000000, -0.643669 , 3.469593, 8.973085, 851154944.000000, 0.420000,  0.140000,  0.140000, 0.000000,  0.000000 
 226616000.000000, -0.602991 , 3.407379, 8.997013, 851174272.000000, -0.210000,  -0.210000,  0.140000, 0.000000,  0.000000 
 226636288.000000, -0.660419 , 3.266203, 9.133404, 851194304.000000, -1.610000,  0.070000,  0.070000, 0.000000,  0.000000 
 226656000.000000, -0.655633 , 3.249453, 9.083155, 851214592.000000, -2.380000,  0.350000,  -0.070000, 0.000000,  0.000000 
 226676544.000000, -0.648455 , 3.321238, 9.083155, 851234240.000000, -1.260000,  0.490000,  -0.070000, 0.000000,  0.000000 
 226695936.000000, -0.669990 , 3.385844, 9.071191, 851254848.000000, 0.350000,  0.490000,  -0.070000, 0.000000,  0.000000 
 226715968.000000, -0.693919 , 3.395415, 9.083155, 851274240.000000, 0.770000,  0.490000,  0.070000, 0.000000,  0.000000 
 226736256.000000, -0.660419 , 3.354738, 9.068797, 851294208.000000, 0.140000,  0.350000,  0.070000, 0.000000,  0.000000 
 226755904.000000, -0.624527 , 3.383451, 9.087940, 851314560.000000, -0.490000,  0.350000,  0.210000, 0.000000,  0.000000 
 226776512.000000, -0.679562 , 3.335595, 9.095119, 851334208.000000, -0.630000,  0.350000,  0.140000, 0.000000,  0.000000 
 226795904.000000, -0.713061 , 3.361916, 9.087940, 851354816.000000, -0.140000,  0.490000,  0.140000, 0.000000,  0.000000 
 226815872.000000, -0.696311 , 3.416951, 9.073583, 851374208.000000, 0.490000,  0.490000,  0.140000, 0.000000,  0.000000 
 226836224.000000, -0.612563 , 3.450450, 9.071191, 851394176.000000, 0.490000,  0.350000,  0.280000, 0.000000,  0.000000 
 226855872.000000, -0.655633 , 3.366701, 9.061620, 851414464.000000, 0.490000,  0.140000,  0.350000, 0.000000,  0.000000 
 226878400.000000, -0.669990 , 3.400201, 9.099905, 851434176.000000, -0.420000,  0.280000,  0.350000, 0.000000,  0.000000 
 226895872.000000, -0.681954 , 3.395415, 9.064013, 851456704.000000, -0.490000,  0.490000,  -0.070000, 0.000000,  0.000000 
 226915840.000000, -0.610170 , 3.347559, 9.032906, 851474112.000000, -0.210000,  0.350000,  0.070000, 0.000000,  0.000000 
 226936128.000000, -0.658026 , 3.371487, 9.066404, 851494144.000000, -0.490000,  0.140000,  0.070000, 0.000000,  0.000000 
 226955840.000000, -0.581456 , 3.361916, 9.107083, 851514432.000000, -0.980000,  0.280000,  0.070000, 0.000000,  0.000000 
 226976384.000000, -0.636491 , 3.385844, 9.102298, 851534080.000000, -0.700000,  0.420000,  0.070000, 0.000000,  0.000000 
 226995776.000000, -0.658026 , 3.488736, 9.018548, 851554688.000000, 0.420000,  0.630000,  -0.350000, 0.000000,  0.000000 
 227015808.000000, -0.725025 , 3.448057, 9.032906, 851574080.000000, 0.280000,  0.560000,  -0.420000, 0.000000,  0.000000 
 227036096.000000, -0.658026 , 3.292524, 9.078369, 851594048.000000, -1.540000,  0.140000,  -0.210000, 0.000000,  0.000000 
 227055744.000000, -0.624527 , 3.182454, 9.097511, 851614400.000000, -2.800000,  -0.070000,  0.070000, 0.000000,  0.000000 
 227076352.000000, -0.610170 , 3.294917, 9.140583, 851634048.000000, -1.470000,  -0.070000,  0.140000, 0.000000,  0.000000 
 227095744.000000, -0.595813 , 3.438486, 9.097511, 851654656.000000, 0.910000,  0.140000,  0.210000, 0.000000,  0.000000 
 227115712.000000, -0.705883 , 3.433701, 9.006584, 851674048.000000, 1.680000,  0.560000,  0.210000, 0.000000,  0.000000 
 227136064.000000, -0.686740 , 3.414558, 9.020942, 851694016.000000, 0.560000,  0.630000,  0.210000, 0.000000,  0.000000 
 227155712.000000, -0.614955 , 3.364309, 9.090333, 851714304.000000, -0.840000,  0.280000,  0.140000, 0.000000,  0.000000 
 227176320.000000, -0.641276 , 3.366701, 9.119047, 851734016.000000, -1.680000,  0.280000,  0.070000, 0.000000,  0.000000 
 227195712.000000, -0.653241 , 3.342773, 9.095119, 851754624.000000, -1.330000,  0.420000,  -0.070000, 0.000000,  0.000000 
 227215680.000000, -0.691526 , 3.357130, 9.064013, 851773952.000000, -0.350000,  0.560000,  -0.070000, 677521856.000000,  1008.803955 
 227235968.000000, -0.698704 , 3.448057, 9.085547, 851793984.000000, 0.420000,  0.490000,  -0.140000, 0.000000,  0.000000 
 227255680.000000, -0.681954 , 3.397808, 9.059227, 851814272.000000, 0.280000,  0.490000,  -0.070000, 0.000000,  0.000000 
 227276224.000000, -0.650848 , 3.388237, 9.102298, 851833920.000000, -0.560000,  0.420000,  0.070000, 0.000000,  0.000000 
 227295616.000000, -0.646062 , 3.369094, 9.111869, 851854528.000000, -0.910000,  0.280000,  0.070000, 0.000000,  0.000000 
 227315648.000000, -0.622134 , 3.414558, 9.080762, 851873920.000000, -0.420000,  0.350000,  0.070000, 0.000000,  0.000000 
 227335936.000000, -0.667598 , 3.407379, 9.085547, 851893888.000000, 0.070000,  0.490000,  0.070000, 0.000000,  0.000000 
 227355584.000000, -0.674776 , 3.385844, 9.083155, 851914176.000000, -0.140000,  0.490000,  -0.070000, 0.000000,  0.000000 
 227376192.000000, -0.672383 , 3.359523, 9.049655, 851933888.000000, -0.420000,  0.420000,  -0.140000, 0.000000,  0.000000 
 227395584.000000, -0.634098 , 3.347559, 9.064013, 851954432.000000, -0.840000,  0.210000,  -0.140000, 0.000000,  0.000000 
 227415552.000000, -0.665205 , 3.309274, 9.090333, 851973888.000000, -0.980000,  0.070000,  0.140000, 0.000000,  0.000000 
 227435904.000000, -0.602991 , 3.318845, 9.107083, 851993856.000000, -1.050000,  0.210000,  0.140000, 0.000000,  0.000000 
 227455552.000000, -0.710668 , 3.352344, 9.085547, 852014144.000000, -0.630000,  0.490000,  0.070000, 0.000000,  0.000000 
 227476160.000000, -0.650848 , 3.424129, 9.068797, 852033856.000000, 0.140000,  0.560000,  0.070000, 0.000000,  0.000000 
 227495552.000000, -0.684347 , 3.369094, 9.075976, 852054400.000000, 0.350000,  0.490000,  0.070000, 0.000000,  0.000000 
 227515520.000000, -0.634098 , 3.337988, 9.159724, 852073792.000000, -0.210000,  0.280000,  0.140000, 0.000000,  0.000000 
 227535808.000000, -0.591027 , 3.373880, 9.092726, 852093824.000000, -0.770000,  0.140000,  0.280000, 0.000000,  0.000000 
 227555520.000000, -0.684347 , 3.354738, 9.097511, 852114112.000000, -0.490000,  0.350000,  0.070000, 0.000000,  0.000000 
 227576064.000000, -0.588634 , 3.385844, 9.078369, 852133760.000000, -0.140000,  0.560000,  0.070000, 0.000000,  0.000000 
 227595456.000000, -0.677169 , 3.364309, 9.071191, 852154368.000000, -0.070000,  0.350000,  0.070000, 0.000000,  0.000000 
 227615424.000000, -0.679562 , 3.388237, 9.020942, 852173760.000000, -0.140000,  0.350000,  0.070000, 0.000000,  0.000000 
 227635776.000000, -0.646062 , 3.376273, 9.078369, 852193728.000000, -0.420000,  0.490000,  -0.210000, 0.000000,  0.000000 
 227655424.000000, -0.684347 , 3.340380, 9.078369, 852214080.000000, -0.840000,  0.420000,  -0.140000, 0.000000,  0.000000 
 227676032.000000, -0.698704 , 3.383451, 9.052048, 852233728.000000, -0.980000,  0.350000,  -0.140000, 0.000000,  0.000000 
 227695424.000000, -0.665205 , 3.337988, 9.078369, 852254336.000000, -0.840000,  0.350000,  -0.140000, 0.000000,  0.000000 
 227715392.000000, -0.658026 , 3.302095, 9.102298, 852273664.000000, -0.560000,  0.280000,  -0.070000, 0.000000,  0.000000 
 227735680.000000, -0.677169 , 3.388237, 9.035298, 852293696.000000, -0.140000,  0.210000,  -0.070000, 0.000000,  0.000000 
 227755392.000000, -0.689133 , 3.414558, 9.037691, 852313984.000000, 0.280000,  0.280000,  -0.070000, 0.000000,  0.000000 
 227775936.000000, -0.658026 , 3.366701, 9.097511, 852333696.000000, -0.140000,  0.280000,  0.070000, 0.000000,  0.000000 
 227795328.000000, -0.665205 , 3.383451, 9.064013, 852354240.000000, -0.350000,  0.280000,  0.070000, 0.000000,  0.000000 
 227815360.000000, -0.662812 , 3.433701, 9.044869, 852373632.000000, -0.210000,  0.280000,  0.070000, 0.000000,  0.000000 
 227835648.000000, -0.638884 , 3.390630, 9.056834, 852393600.000000, -0.210000,  0.350000,  -0.070000, 0.000000,  0.000000 
 227855296.000000, -0.643669 , 3.237489, 9.099905, 852413952.000000, -1.190000,  0.420000,  -0.070000, 0.000000,  0.000000 
 227877824.000000, -0.641276 , 3.290131, 9.102298, 852433600.000000, -1.750000,  0.210000,  0.140000, 0.000000,  0.000000 
 227895296.000000, -0.677169 , 3.354738, 9.099905, 852456128.000000, -0.700000,  0.210000,  0.210000, 0.000000,  0.000000 
 227915264.000000, -0.698704 , 3.409772, 9.052048, 852473600.000000, 0.700000,  0.420000,  0.280000, 0.000000,  0.000000 
 227935616.000000, -0.703490 , 3.414558, 9.066404, 852493568.000000, 1.050000,  0.490000,  0.210000, 0.000000,  0.000000 
