time,seconds_elapsed,z,y,x
1634125874515606500,0.0266064453125,0.12729232013225555,0.02232503518462181,-0.5522800087928772
1634125874535485400,0.0464853515625,0.15947476029396057,-0.16080431640148163,-0.8326876759529114
1634125874555364600,0.066364501953125,0.013217989355325699,-0.3840455412864685,-0.943035900592804
1634125874575243500,0.086243408203125,-0.240226611495018,-0.17143815755844116,-0.6572837829589844
1634125874595122700,0.106122802734375,-0.5164915919303894,0.44152307510375977,0.01776403747498989
1634125874615001600,0.126001708984375,-0.7069763541221619,0.7873712778091431,0.8521268367767334
1634125874634881500,0.145881591796875,-0.7412386536598206,0.9059910774230957,1.2488685846328735
1634125874654760700,0.1657607421875,-0.6292770504951477,0.7772132754325867,1.1073064804077148
1634125874674639400,0.185639404296875,-0.3870396316051483,0.26601606607437134,0.7760672569274902
1634125874694518500,0.2055185546875,-0.21070685982704163,-0.3604731559753418,0.47735583782196045
1634125874714397700,0.225397705078125,-0.1346575766801834,-0.8034707307815552,0.3075683116912842
1634125874734276600,0.245276611328125,-0.06774583458900452,-0.9045037627220154,0.2174413651227951
1634125874754155500,0.265155517578125,0.011672248132526875,-0.7389512658119202,0.2189893275499344
1634125874774035700,0.28503564453125,0.04272714629769325,-0.5311239361763,0.19178764522075653
1634125874793914600,0.30491455078125,-0.06915109604597092,-0.3061772882938385,0.05083587020635605
1634125874813793500,0.32479345703125,-0.19482220709323883,-0.10910788923501968,-0.022306013852357864
1634125874833672400,0.34467236328125,-0.22943277657032013,0.041265033185482025,0.057234760373830795
1634125874853551600,0.364551513671875,-0.1552959680557251,0.16222792863845825,0.2014675885438919
1634125874873430500,0.384430419921875,-0.15233750641345978,0.3211230933666229,0.20355191826820374
1634125874893310500,0.404310546875,-0.18780779838562012,0.3787638247013092,0.0823994129896164
1634125874913189600,0.424189697265625,-0.2535995841026306,0.30553874373435974,-0.09272584319114685
1634125874933068500,0.444068603515625,-0.35831740498542786,0.22430908679962158,-0.28751662373542786
1634125874952947200,0.463947265625,-0.48363083600997925,0.19807203114032745,-0.5196473598480225
1634125874972826400,0.483826416015625,-0.5229736566543579,0.1443479359149933,-0.751501202583313
1634125874992705000,0.503705078125,-0.48097580671310425,0.010657724924385548,-0.8506866693496704
1634125875012585200,0.523585205078125,-0.38190388679504395,0.046217095106840134,-0.8055409789085388
1634125875032464400,0.54346435546875,-0.14412817358970642,-0.12944257259368896,-0.7848384380340576
1634125875052343000,0.563343017578125,0.18306583166122437,-0.4796270430088043,-0.8518019914627075
1634125875072222200,0.58322216796875,0.4659145474433899,-0.5867792963981628,-1.0079416036605835
1634125875092101000,0.60310107421875,0.6563515663146973,-0.4717608094215393,-1.1202638149261475
1634125875111980300,0.622980224609375,0.773934006690979,-0.3781382441520691,-1.1583869457244873
1634125875131860200,0.642860107421875,0.8565730452537537,-0.026171639561653137,-1.308410882949829
1634125875151739100,0.6627392578125,0.7929380536079407,0.4560657739639282,-1.5904014110565186
1634125875171618300,0.682618408203125,0.47120538353919983,-0.020841166377067566,-1.5625312328338623
1634125875191497000,0.7024970703125,0.25303012132644653,-0.4266674518585205,-1.2341216802597046
1634125875211376000,0.722376220703125,0.02876356989145279,-0.9455121159553528,-0.9997284412384033
1634125875231255300,0.74225537109375,-0.42410239577293396,-1.830230474472046,-1.049647569656372
1634125875251135200,0.76213525390625,-0.9605050683021545,-1.9958025217056274,-1.1151643991470337
1634125875271014100,0.78201416015625,-1.4121372699737549,-1.7278730869293213,-0.7588213086128235
1634125875290893300,0.801893310546875,-1.7720160484313965,-1.4960243701934814,-0.07772547006607056
1634125875310772200,0.821772216796875,-1.805210828781128,-1.8126341104507446,0.6267052292823792
1634125875330651400,0.8416513671875,-0.7902544736862183,-1.2493799924850464,0.6235589981079102
1634125875350530000,0.861530029296875,-0.5707340836524963,-0.2117977738380432,0.4595246911048889
1634125875370409200,0.8814091796875,-1.1244951486587524,-0.05269517004489899,-0.6267785429954529
1634125875390289400,0.901289306640625,-1.8104684352874756,-0.10742153227329254,-1.0100789070129395
1634125875410168000,0.92116796875,-2.7096199989318848,-0.11121804267168045,-0.8687355518341064
1634125875430047200,0.941047119140625,-3.193179130554199,-0.09896682947874069,-0.33240389823913574
1634125875449926100,0.960926025390625,-2.8692755699157715,-0.6595518589019775,0.19635339081287384
1634125875469805300,0.980805419921875,-1.6316709518432617,-0.9896296262741089,0.8229092955589294
1634125875489684200,1.000684326171875,-0.7942890524864197,-0.38691967725753784,1.0249871015548706
1634125875509564200,1.020564208984375,-0.1869003176689148,0.036669667810201645,0.9203216433525085
1634125875529443300,1.040443359375,-0.03965583071112633,0.176789790391922,0.8906677961349487
1634125875549322200,1.060322265625,0.2614971399307251,0.20734475553035736,1.0066547393798828
1634125875569201200,1.080201171875,0.5131184458732605,-0.23449496924877167,1.2999180555343628
1634125875589080000,1.100080078125,0.593984842300415,0.1531737744808197,1.7507790327072144
1634125875608959200,1.119959228515625,0.7397581934928894,1.055129885673523,1.6879135370254517
1634125875628839200,1.139839111328125,1.0600037574768066,0.9529041647911072,1.065885066986084
1634125875648718000,1.159718017578125,0.9951117634773254,0.5326527953147888,0.5320863723754883
1634125875668597200,1.17959716796875,0.5768753290176392,0.6965518593788147,0.0329693928360939
1634125875688476200,1.19947607421875,0.27426061034202576,0.987384557723999,-0.29135504364967346
1634125875708355000,1.21935498046875,0.21115384995937347,1.4604796171188354,-0.25923722982406616
1634125875728234200,1.239234130859375,0.28865063190460205,2.149146318435669,-0.031493645161390305
1634125875748114200,1.2591142578125,0.4157058894634247,2.602705717086792,0.10685360431671143
1634125875767993000,1.2789931640625,0.15879659354686737,0.3193632960319519,-1.0718309879302979
1634125875787872300,1.298872314453125,-0.40704649686813354,-0.8009917736053467,-1.370250940322876
1634125875807751200,1.318751220703125,-0.7256634831428528,-1.1229647397994995,-1.3998209238052368
1634125875827630300,1.33863037109375,-0.8872318863868713,-0.945273756980896,-1.2559608221054077
1634125875847509200,1.35850927734375,-0.6057807803153992,-0.17148014903068542,-0.7824237942695618
1634125875867388200,1.37838818359375,-0.24269753694534302,0.5665369629859924,-0.2066008746623993
1634125875887268400,1.398268310546875,0.09785560518503189,0.835785448551178,-0.14969417452812195
1634125875907147300,1.418147216796875,0.2617109715938568,0.8382333517074585,-0.4582148790359497
1634125875927026200,1.438026123046875,0.3809470534324646,0.6889476180076599,-0.6961870789527893
1634125875946905000,1.457905029296875,0.46306145191192627,0.5225412845611572,-0.8783443570137024
1634125875966784300,1.4777841796875,0.5582393407821655,0.6178297996520996,-0.8785244822502136
1634125875986663200,1.4976630859375,0.7037470936775208,0.8712213635444641,-0.6141250729560852
1634125876006543000,1.517543212890625,0.7765706181526184,1.074198603630066,-0.5529442429542542
1634125876026422300,1.53742236328125,0.7182202339172363,1.0997402667999268,-0.7633970379829407
1634125876046301200,1.55730126953125,0.4864605963230133,0.7316827774047852,-0.919607400894165
1634125876066180400,1.577180419921875,0.13317976891994476,0.5058959722518921,-0.8006288409233093
1634125876086059000,1.59705908203125,-0.08620375394821167,0.5702475309371948,-0.35202479362487793
1634125876105938200,1.616938232421875,-0.14018341898918152,0.7564569711685181,0.11456625163555145
1634125876125818400,1.636818359375,-0.0415450781583786,0.8830759525299072,0.16107486188411713
1634125876145697000,1.656697021484375,0.11306269466876984,0.7836201786994934,-0.0882718488574028
1634125876165576200,1.676576171875,0.3185158967971802,0.4268125593662262,-0.2499089390039444
1634125876185455400,1.696455322265625,0.533953070640564,0.10052061825990677,-0.20545877516269684
1634125876205334300,1.716334228515625,0.7391484379768372,0.023421768099069595,-0.07281673699617386
1634125876225213200,1.736213134765625,0.8356081247329712,-0.01630207523703575,-0.026291033253073692
1634125876245093000,1.756093017578125,0.9086961150169373,0.42718806862831116,0.1647908240556717
1634125876264972300,1.77597216796875,0.8848123550415039,1.136385440826416,0.5918712019920349
1634125876284851200,1.795851318359375,1.120151162147522,1.1543806791305542,1.0048413276672363
1634125876304730000,1.815730224609375,1.4070744514465332,0.9975749850273132,0.8537265062332153
1634125876324609300,1.835609375,2.4000320434570312,1.2841591835021973,0.7826356291770935
1634125876344488200,1.85548828125,3.3912248611450195,1.150453805923462,0.32125452160835266
1634125876364367400,1.875367431640625,3.003491163253784,0.2588174343109131,-0.6643117070198059
1634125876384247300,1.895247314453125,2.216059446334839,-0.4114818572998047,-1.4788107872009277
1634125876404126200,1.915126220703125,1.2745901346206665,-0.9189333915710449,-1.923911452293396
1634125876424005400,1.93500537109375,0.6989186406135559,-0.6875787973403931,-2.139150619506836
1634125876443884000,1.954884033203125,0.5561961531639099,0.008475176058709621,-1.9855358600616455
1634125876463763200,1.97476318359375,0.6660706400871277,0.7283722758293152,-1.551923394203186
1634125876483642000,1.99464208984375,1.0578711032867432,1.3110897541046143,-1.2673602104187012
1634125876503522000,2.01452197265625,1.0563819408416748,1.380092740058899,-1.3996270895004272
1634125876523401200,2.034401123046875,0.8285315036773682,1.3014956712722778,-1.7193539142608643
1634125876543280000,2.054280029296875,0.5038830637931824,1.0380675792694092,-1.8608319759368896
1634125876563159300,2.0741591796875,0.15889467298984528,0.4660971760749817,-1.692315697669983
1634125876583038200,2.0940380859375,0.2762262523174286,0.11894233524799347,-0.974690318107605
1634125876602917000,2.113917236328125,0.3171263635158539,0.21521329879760742,-0.342399001121521
1634125876622797300,2.13379736328125,0.2530502676963806,1.186277985572815,-0.14098221063613892
1634125876642676200,2.15367626953125,-0.06725203990936279,0.8385820984840393,-0.6358891129493713
1634125876662555100,2.17355517578125,-0.14050458371639252,1.0920798778533936,-0.6401932835578918
1634125876682434300,2.193434326171875,-0.11727255582809448,0.9981223344802856,-0.42993444204330444
1634125876702313200,2.213313232421875,-0.16515804827213287,0.8192265033721924,-0.2540849447250366
1634125876722192400,2.2331923828125,-0.21332122385501862,0.7649094462394714,-0.16562001407146454
1634125876742071000,2.253071044921875,-0.18054699897766113,1.0674864053726196,-0.13338203728199005
1634125876761951200,2.272951171875,-0.20638248324394226,1.2766835689544678,-0.25940951704978943
1634125876781830400,2.292830322265625,-0.16219545900821686,1.5068058967590332,-0.40772825479507446
1634125876801709000,2.312708984375,0.013924125581979752,1.70989191532135,-0.4893486499786377
1634125876821588200,2.332588134765625,0.27279841899871826,1.668785810470581,-0.6597447395324707
1634125876841467100,2.352467041015625,0.48438525199890137,1.3069865703582764,-0.9647802710533142
1634125876861346300,2.37234619140625,0.5635663866996765,0.8860865235328674,-1.2200876474380493
1634125876881226200,2.392226318359375,0.4917861819267273,0.40862464904785156,-1.247134804725647
1634125876901105200,2.412105224609375,0.3740431070327759,-0.0337018147110939,-1.0363620519638062
1634125876920984300,2.431984375,0.22163352370262146,-0.2943990230560303,-0.6688823699951172
1634125876940863200,2.45186328125,0.05957088991999626,-0.3197286128997803,-0.27012529969215393
1634125876960742000,2.471741943359375,-0.0893779844045639,-0.11936257034540176,0.007677234709262848
1634125876980621000,2.49162109375,-0.17343293130397797,0.1625910848379135,0.15837855637073517
1634125877000500000,2.5115,-0.20710057020187378,0.4415166974067688,0.2299591451883316
1634125877020380000,2.5313798828125,-0.2134961485862732,0.625523030757904,0.27640920877456665
1634125877040258800,2.5512587890625,-0.24082042276859283,0.732667863368988,0.2628842294216156
1634125877060138000,2.571137939453125,-0.2423049807548523,0.7232425808906555,0.1945536881685257
1634125877080017200,2.59101708984375,-0.23299990594387054,0.7015171647071838,0.11437904089689255
1634125877099896000,2.61089599609375,-0.1682736873626709,0.7472370266914368,0.010850059799849987
1634125877119775000,2.63077490234375,-0.08284822851419449,0.8086516261100769,-0.17105665802955627
1634125877139655200,2.6506552734375,0.02440810762345791,0.795901894569397,-0.4042372703552246
1634125877159534000,2.6705341796875,0.13273724913597107,0.6425187587738037,-0.6509799361228943
1634125877179413000,2.6904130859375,0.23682095110416412,0.44442635774612427,-0.8504224419593811
1634125877199292000,2.7102919921875,0.35371825098991394,0.23183485865592957,-0.9321191310882568
1634125877219171000,2.730171142578125,0.4632108211517334,-0.019675344228744507,-0.8945436477661133
1634125877239050000,2.750050048828125,0.479115754365921,-0.36491382122039795,-0.8778232932090759
1634125877258929000,2.769928955078125,0.434393048286438,-0.6718913912773132,-0.8536755442619324
1634125877278809000,2.78980908203125,0.3901337683200836,-0.7136810421943665,-0.7518858909606934
1634125877298688000,2.80968798828125,0.38420355319976807,-0.5487468838691711,-0.6050478219985962
1634125877318567000,2.82956689453125,0.3894481956958771,-0.34245195984840393,-0.4537286162376404
1634125877338445800,2.84944580078125,0.3901333808898926,-0.20500017702579498,-0.2979973554611206
1634125877358325000,2.869324951171875,0.3373534083366394,-0.09796489030122757,-0.20260772109031677
1634125877378204200,2.8892041015625,0.24138018488883972,0.015382352285087109,-0.1407584547996521
1634125877398083800,2.909083740234375,0.14316654205322266,0.2665567696094513,-0.029417553916573524
1634125877417963000,2.928962890625,0.03612646088004112,0.6120266914367676,0.14605413377285004
1634125877437842000,2.948842041015625,-0.033232998102903366,0.7618807554244995,0.29694750905036926
1634125877457721000,2.96872119140625,-0.04275126755237579,0.6028150320053101,0.35173869132995605
1634125877477600000,2.98860009765625,-0.05245640128850937,0.28273290395736694,0.3271203339099884
1634125877497479000,3.00847900390625,-0.09491194039583206,0.027134014293551445,0.22107017040252686
1634125877517358000,3.028358154296875,-0.111874058842659,-0.09143941104412079,0.11471392214298248
1634125877537237800,3.04823779296875,-0.09088728576898575,-0.14759230613708496,0.02291104383766651
1634125877557117000,3.068116943359375,-0.07960773259401321,-0.16271333396434784,-0.07346421480178833
1634125877576996000,3.08799609375,-0.06107256934046745,-0.18733349442481995,-0.14192907512187958
1634125877596875000,3.107875,-0.08284059166908264,-0.13746292889118195,-0.1873946636915207
1634125877616754200,3.127754150390625,-0.05645598843693733,-0.024836726486682892,-0.0738556906580925
1634125877636632800,3.1476328125,-0.02878583036363125,0.13941657543182373,0.1699441522359848
1634125877656512000,3.167511962890625,0.004295157268643379,0.2654283046722412,0.3932715356349945
1634125877676392200,3.18739208984375,0.014597022905945778,0.299060195684433,0.5072757005691528
1634125877696270800,3.207270751953125,0.03804437816143036,0.3128103017807007,0.49527284502983093
1634125877716150000,3.22714990234375,0.1499582678079605,0.3325231075286865,0.4068182110786438
1634125877736029000,3.24702880859375,0.3223995268344879,0.4648486375808716,0.285954087972641
1634125877755908000,3.266908203125,0.4826417565345764,0.6078394055366516,0.16607512533664703
1634125877775787000,3.286787109375,0.5664551854133606,0.4886931777000427,0.07118282467126846
1634125877795667000,3.3066669921875,0.4707321524620056,0.14370237290859222,-0.03418489545583725
1634125877815546000,3.326546142578125,0.31057873368263245,-0.19082649052143097,-0.10524882376194
1634125877835425000,3.346425048828125,0.18091124296188354,-0.27089133858680725,-0.08052339404821396
1634125877855304000,3.366303955078125,0.12532615661621094,-0.12150499224662781,0.05157061666250229
1634125877875183000,3.38618310546875,0.12162414193153381,-0.007624386344105005,0.1913268119096756
1634125877895062000,3.40606201171875,0.08434338867664337,-0.007832135073840618,0.2059900313615799
1634125877914941200,3.425941162109375,0.018239915370941162,-0.14568409323692322,0.10505647957324982
1634125877934820900,3.44582080078125,-0.03711198270320892,-0.21358978748321533,-0.04774303734302521
1634125877954700500,3.465700439453125,-0.059281859546899796,-0.17875638604164124,-0.25339168310165405
1634125877974579500,3.485579345703125,-0.04144245758652687,-0.18601226806640625,-0.4352763891220093
1634125877994458400,3.505458251953125,-0.038720618933439255,-0.23054170608520508,-0.46167734265327454
1634125878014337500,3.525337646484375,-0.04579241946339607,-0.1524420976638794,-0.3075995445251465
1634125878034216400,3.545216552734375,-0.03594902530312538,0.013178122229874134,-0.07899294048547745
1634125878054096400,3.565096435546875,0.05062120035290718,0.1402202695608139,0.13878248631954193
1634125878073975600,3.5849755859375,0.17272301018238068,0.04536399617791176,0.17628873884677887
1634125878093854500,3.6048544921875,0.2708134949207306,-0.23070533573627472,0.0820547342300415
1634125878113733600,3.624733642578125,0.26892954111099243,-0.4504689872264862,-0.05503080040216446
1634125878133612300,3.6446123046875,0.2013590931892395,-0.5137555599212646,-0.1104051023721695
1634125878153491500,3.664491455078125,0.10423809289932251,-0.43760284781455994,-0.13292279839515686
1634125878173370600,3.68437060546875,0.025563383474946022,-0.3035139739513397,-0.1514340043067932
1634125878193250300,3.704250244140625,-0.05494308844208717,-0.18191206455230713,-0.10755682736635208
1634125878213129500,3.72412939453125,-0.15195246040821075,-0.04472985491156578,-0.0755147859454155
1634125878233008400,3.74400830078125,-0.2003439962863922,0.1192532479763031,-0.003819666802883148
1634125878252887600,3.763887451171875,-0.16785623133182526,0.2264869511127472,0.14796921610832214
1634125878272766500,3.783766357421875,-0.11665074527263641,0.21005293726921082,0.20864132046699524
1634125878292645400,3.803645263671875,-0.08411877602338791,0.11822442710399628,0.14381377398967743
1634125878312524500,3.823524658203125,-0.0662093237042427,-0.03187650814652443,0.10055269300937653
1634125878332404700,3.84340478515625,-0.06544264405965805,-0.15654638409614563,0.12357373535633087
1634125878352283400,3.863283447265625,-0.04160100594162941,-0.1950821578502655,0.19345682859420776
1634125878372162600,3.88316259765625,0.0029769830871373415,-0.18064989149570465,0.2265288531780243
1634125878392041500,3.90304150390625,0.017992818728089333,-0.11985771358013153,0.18710140883922577
1634125878411920600,3.922920654296875,0.03760655224323273,-0.09641528874635696,0.13869687914848328
1634125878431799300,3.94279931640625,0.009724901989102364,-0.1027618870139122,0.041655126959085464
1634125878451679500,3.962679443359375,-0.07954771816730499,-0.12132638692855835,-0.08528655767440796
1634125878471558700,3.98255859375,-0.1583225280046463,-0.19409868121147156,-0.14158467948436737
1634125878491437300,4.002437255859375,-0.1659076064825058,-0.157096266746521,-0.05735653638839722
1634125878511316500,4.02231640625,-0.1567247062921524,-0.07110760360956192,0.05872306600213051
1634125878531195400,4.0421953125,-0.10311176627874374,-0.02172316238284111,0.24057422578334808
1634125878551074600,4.062074462890625,-0.08527853339910507,-0.04196580499410629,0.3143709599971771
1634125878570953700,4.08195361328125,-0.08662395924329758,-0.11146418750286102,0.27603715658187866
1634125878590833400,4.10183349609375,-0.04592389240860939,-0.17691285908222198,0.2387101650238037
1634125878610712600,4.121712646484375,-0.014725269749760628,-0.19483831524848938,0.13696980476379395
1634125878630591500,4.141591552734375,0.0056820884346961975,-0.13227710127830505,-0.0019744832534343004
1634125878650470400,4.161470458984375,0.048389602452516556,-0.07142201066017151,-0.08273830264806747
1634125878670349600,4.181349609375,0.09837931394577026,-0.05685693770647049,-0.07152256369590759
1634125878690228500,4.201228515625,0.10839595645666122,-0.04933242127299309,-0.05298523232340813
1634125878710108400,4.2211083984375,0.06994092464447021,-0.01862548291683197,-0.07811017334461212
1634125878729987300,4.2409873046875,0.02730926312506199,0.045248061418533325,-0.14667892456054688
1634125878749866500,4.260866455078125,0.02311186119914055,0.08620747923851013,-0.19484731554985046
1634125878769745700,4.28074560546875,0.01359083503484726,0.11610117554664612,-0.22573982179164886
1634125878789624600,4.30062451171875,0.006622631102800369,0.1668340116739273,-0.2704962491989136
1634125878809503500,4.32050341796875,0.031383365392684937,0.17242836952209473,-0.2376924604177475
1634125878829382400,4.34038232421875,0.03009599633514881,0.21064713597297668,-0.19704888761043549
1634125878849262600,4.3602626953125,0.01181809976696968,0.29465287923812866,-0.22498652338981628
1634125878869141500,4.3801416015625,0.03234516829252243,0.37900081276893616,-0.30928051471710205
1634125878889020400,4.4000205078125,0.10596758872270584,0.27679020166397095,-0.3545495271682739
1634125878908899600,4.419899658203125,0.21473069489002228,-0.13660316169261932,-0.3276723027229309
1634125878928778500,4.439778564453125,0.21927620470523834,-0.3956374228000641,-0.2985248863697052
1634125878948657000,4.459656982421875,0.179011270403862,-0.3366323709487915,-0.2745617926120758
1634125878968535600,4.47953564453125,0.14696818590164185,-0.13101747632026672,-0.2743774652481079
1634125878988415700,4.499415771484375,0.15098686516284943,-0.0012394804507493973,-0.23199422657489777
1634125879008295000,4.519294921875,0.14462202787399292,-0.0409599244594574,-0.20925253629684448
1634125879028173600,4.539173583984375,0.061902131885290146,-0.19435667991638184,-0.19074998795986176
1634125879048052700,4.559052734375,-0.028933411464095116,-0.16659286618232727,-0.12545143067836761
1634125879067931600,4.578931640625,-0.06596626341342926,0.019112950190901756,-0.03451354801654816
1634125879087810800,4.598810791015625,-0.07052293419837952,0.23349197208881378,0.02532932348549366
1634125879107690000,4.61868994140625,-0.09223786741495132,0.34134894609451294,0.0531775988638401
1634125879127569700,4.638569580078125,-0.10202524811029434,0.4221862554550171,0.08835343271493912
1634125879147448800,4.65844873046875,-0.10477375984191895,0.49083995819091797,0.1390838474035263
1634125879167327700,4.67832763671875,-0.1277117282152176,0.5583949685096741,0.16110573709011078
1634125879187206700,4.69820654296875,-0.16090627014636993,0.6743134260177612,0.15218044817447662
1634125879207085800,4.7180859375,-0.17012520134449005,0.791366696357727,0.14100465178489685
1634125879226964700,4.73796484375,-0.16447296738624573,0.840454638004303,0.08370797336101532
1634125879246844700,4.7578447265625,-0.18004894256591797,0.786859929561615,-0.0059664309956133366
1634125879266723600,4.7777236328125,-0.21133477985858917,0.3340592384338379,-0.2827274203300476
1634125879286602800,4.797602783203125,-0.22789600491523743,-0.3939115107059479,-0.8294203281402588
1634125879306482000,4.81748193359375,-0.20102789998054504,-0.8832363486289978,-1.3770602941513062
1634125879326360600,4.837360595703125,-0.0940394401550293,-0.8710201382637024,-1.67156982421875
1634125879346239700,4.85723974609375,0.06926723569631577,-0.5318483710289001,-1.6567366123199463
1634125879366118700,4.87711865234375,0.2584645748138428,-0.1203572154045105,-1.489757776260376
1634125879385998800,4.896998779296875,0.40755558013916016,0.18819966912269592,-1.2995864152908325
1634125879405877800,4.916877685546875,0.445529043674469,0.43943268060684204,-1.2154512405395508
1634125879425756700,4.936756591796875,0.3594018220901489,0.6721267104148865,-1.2244325876235962
1634125879445635800,4.9566357421875,0.23362769186496735,0.8999208211898804,-1.273571252822876
1634125879465514800,4.9765146484375,0.0990663692355156,1.1046762466430664,-1.3025689125061035
1634125879485393700,4.9963935546875,-0.015777043998241425,1.2905848026275635,-1.294922947883606
1634125879505273900,5.01627392578125,-0.09213941544294357,1.4514189958572388,-1.2112964391708374
1634125879525152800,5.03615283203125,-0.14943116903305054,1.571197509765625,-1.0674889087677002
1634125879545031700,5.05603173828125,-0.1864190399646759,1.5807446241378784,-0.9206022024154663
1634125879564910600,5.07591064453125,-0.15709608793258667,1.3759874105453491,-0.7807749509811401
1634125879584789800,5.095789794921875,-0.05925319343805313,0.8998656868934631,-0.7356576323509216
1634125879604669000,5.1156689453125,0.08116783201694489,0.2955666184425354,-0.8420786261558533
1634125879624547800,5.1355478515625,0.3086637556552887,-0.28578659892082214,-0.9490644931793213
1634125879644427800,5.155427734375,0.5668451189994812,-0.6956108212471008,-0.996414303779602
1634125879664306700,5.175306640625,0.7693670988082886,-0.885574221611023,-0.990140974521637
1634125879684185900,5.195185791015625,0.8847233057022095,-0.9056574106216431,-0.988279402256012
1634125879704064800,5.215064697265625,0.9186339974403381,-0.8228792548179626,-1.036172866821289
1634125879723943700,5.234943603515625,0.8841615915298462,-0.6872292160987854,-1.0732957124710083
1634125879743822800,5.25482275390625,0.8198873996734619,-0.513565719127655,-1.0328136682510376
1634125879763701800,5.27470166015625,0.6985386610031128,-0.3164810836315155,-0.9825232625007629
1634125879783581700,5.294581787109375,0.5671091675758362,-0.17325501143932343,-0.9265255928039551
1634125879803460900,5.3144609375,0.4453061521053314,-0.07458136230707169,-0.8650693297386169
1634125879823339800,5.33433984375,0.3288360834121704,-0.05019763484597206,-0.784980058670044
1634125879843218700,5.35421875,0.2682991921901703,-0.16867738962173462,-0.6469371318817139
1634125879863097600,5.37409765625,0.28556692600250244,-0.4068347215652466,-0.4509831964969635
1634125879882976800,5.393976806640625,0.3104555308818817,-0.6841415762901306,-0.26797327399253845
1634125879902856700,5.413856689453125,0.3388890027999878,-0.9467095136642456,-0.1266235113143921
1634125879922735600,5.433735595703125,0.35044655203819275,-1.1024765968322754,-0.029272407293319702
1634125879942614800,5.45361474609375,0.3049691617488861,-1.1325520277023315,0.04879934713244438
1634125879962493700,5.47349365234375,0.16862852871418,-1.0514577627182007,0.13855350017547607
1634125879982372900,5.493372802734375,0.012749808840453625,-0.9595285654067993,0.2675918638706207
1634125880002251500,5.51325146484375,-0.11906374245882034,-0.8434832096099854,0.46728482842445374
1634125880022131700,5.533131591796875,-0.2365805208683014,-0.7271407842636108,0.6824626326560974
1634125880042011000,5.553010986328125,-0.353437602519989,-0.5782240629196167,0.868577241897583
1634125880061889500,5.5728896484375,-0.4297911524772644,-0.44023141264915466,1.0215537548065186
1634125880081768700,5.592768798828125,-0.43116268515586853,-0.36142274737358093,1.1694937944412231
1634125880101647600,5.612647705078125,-0.4061559736728668,-0.32876235246658325,1.2900465726852417
1634125880121526800,5.63252685546875,-0.373166024684906,-0.36355060338974,1.351660966873169
1634125880141405700,5.65240576171875,-0.3279383182525635,-0.4286845028400421,1.3448432683944702
1634125880161285600,5.67228564453125,-0.24424287676811218,-0.5419573783874512,1.3270901441574097
1634125880181164800,5.692164794921875,-0.17692473530769348,-0.6187612414360046,1.2990323305130005
1634125880201043700,5.712043701171875,-0.12352920323610306,-0.6824905276298523,1.2522103786468506
1634125880220922600,5.731922607421875,-0.09667255729436874,-0.7288973331451416,1.158007025718689
1634125880240801800,5.7518017578125,-0.08349736779928207,-0.7525951266288757,1.0226521492004395
1634125880260680700,5.7716806640625,-0.08753258734941483,-0.7673165202140808,0.8549752235412598
1634125880280559900,5.791559814453125,-0.09485859423875809,-0.7110103964805603,0.7014778256416321
1634125880300439600,5.811439453125,-0.07541076093912125,-0.5467763543128967,0.5577946901321411
1634125880320318700,5.831318603515625,-0.05674826353788376,-0.3440403640270233,0.41309964656829834
1634125880340198000,5.851197998046875,-0.03695747256278992,-0.17155608534812927,0.24298350512981415
1634125880360076500,5.87107666015625,-0.017810896039009094,-0.041900113224983215,0.05753302574157715
1634125880379955700,5.890955810546875,0.016457637771964073,0.029894959181547165,-0.0782315656542778
1634125880399834600,5.910834716796875,0.04425371438264847,0.14117708802223206,-0.1780453771352768
1634125880419714800,5.93071484375,0.04594407230615616,0.27731505036354065,-0.29287123680114746
1634125880439593700,5.95059375,0.1010274738073349,0.3742845356464386,-0.38249459862709045
1634125880459472600,5.97047265625,0.1752537488937378,0.4292509853839874,-0.48781532049179077
1634125880479351800,5.990351806640625,0.2411552369594574,0.43260228633880615,-0.6422975063323975
1634125880499230700,6.010230712890625,0.27727121114730835,0.4137452244758606,-0.8411511182785034
1634125880519109600,6.030109619140625,0.268798828125,0.3869822323322296,-1.0064163208007812
1634125880538988500,6.049988525390625,0.23780520260334015,0.35044845938682556,-1.0519940853118896
1634125880558868700,6.06986865234375,0.1272585391998291,0.44690972566604614,-1.0031687021255493
1634125880578747600,6.08974755859375,-0.05019373819231987,0.5947455167770386,-0.8860756754875183
1634125880598626600,6.10962646484375,-0.252984881401062,0.7367638945579529,-0.7541606426239014
1634125880618505700,6.129505615234375,-0.41001102328300476,0.8454251289367676,-0.6282683610916138
1634125880638385000,6.149385009765625,-0.48812299966812134,0.9195496439933777,-0.5258337259292603
1634125880658263800,6.169263916015625,-0.5362096428871155,0.9960010647773743,-0.4966946244239807
1634125880678143700,6.189143798828125,-0.6148051619529724,1.0115253925323486,-0.5080606937408447
1634125880698022700,6.209022705078125,-0.6338632702827454,0.9327300190925598,-0.44528084993362427
1634125880717901800,6.22890185546875,-0.5694388151168823,0.824127197265625,-0.27959537506103516
1634125880737780700,6.24878076171875,-0.46207115054130554,0.7751095294952393,-0.11434632539749146
1634125880757659600,6.26865966796875,-0.3916957974433899,0.747033953666687,-0.06726622581481934
1634125880777538800,6.288538818359375,-0.35847654938697815,0.6975536942481995,-0.11610627174377441
1634125880797418500,6.30841845703125,-0.3001864552497864,0.5786465406417847,-0.13602322340011597
1634125880817297700,6.328297607421875,-0.2115052193403244,0.44143202900886536,-0.10971679538488388
1634125880837176800,6.3481767578125,-0.1281445026397705,0.2750869691371918,-0.03430180251598358
1634125880857055700,6.3680556640625,-0.06247787922620773,0.05209251493215561,0.057716004550457
1634125880876934700,6.3879345703125,-0.02293095737695694,-0.18312840163707733,0.12792398035526276
1634125880896813600,6.4078134765625,0.002558646025136113,-0.4362730383872986,0.22234275937080383
1634125880916692700,6.427692626953125,0.012946618720889091,-0.6043986678123474,0.3588447570800781
1634125880936572700,6.44757275390625,0.005667573772370815,-0.6180257201194763,0.49809834361076355
1634125880956452400,6.467452392578125,-0.029031461104750633,-0.5343000292778015,0.5731616020202637
1634125880976331500,6.48733154296875,-0.12251223623752594,-0.4151036739349365,0.5919939279556274
1634125880996210400,6.50721044921875,-0.23786717653274536,-0.22313737869262695,0.6123237609863281
1634125881016089300,6.52708935546875,-0.31742537021636963,-0.006798808462917805,0.6894795894622803
1634125881035968500,6.546968505859375,-0.3542478084564209,0.17222778499126434,0.75058513879776
1634125881055848400,6.566848388671875,-0.3887968361377716,0.2892029285430908,0.7023974061012268
1634125881075727400,6.586727294921875,-0.41816088557243347,0.3123275637626648,0.5726571083068848
1634125881095606500,6.6066064453125,-0.41261062026023865,0.2944697439670563,0.48337846994400024
1634125881115485400,6.6264853515625,-0.3753871023654938,0.2319742888212204,0.4843127429485321
1634125881135364600,6.646364501953125,-0.29707062244415283,0.1562746912240982,0.5446972250938416
1634125881155243500,6.666243408203125,-0.1788276582956314,0.07065261900424957,0.6265370845794678
1634125881175123500,6.68612353515625,-0.017585905268788338,-0.04146133363246918,0.6428408622741699
1634125881195002600,6.706002685546875,0.13418321311473846,-0.20737257599830627,0.5688493847846985
1634125881214881500,6.725881591796875,0.28480249643325806,-0.3971431851387024,0.42725279927253723
1634125881234760400,6.745760498046875,0.35390639305114746,-0.5648823976516724,0.2945532202720642
1634125881254639400,6.765639404296875,0.35677236318588257,-0.662673830986023,0.2762076258659363
1634125881274518500,6.7855185546875,0.30981382727622986,-0.6333631873130798,0.33527278900146484
1634125881294397400,6.8053974609375,0.21897399425506592,-0.5309598445892334,0.4021265506744385
1634125881314277400,6.82527734375,0.14237451553344727,-0.34172865748405457,0.4201607406139374
1634125881334156500,6.845156494140625,0.07190980017185211,-0.1390361785888672,0.3772065043449402
1634125881354035500,6.865035400390625,-0.03870144113898277,0.07767564058303833,0.3281054198741913
1634125881373914400,6.884914306640625,-0.11211986839771271,0.22726453840732574,0.355634868144989
1634125881393793300,6.904793212890625,-0.07115321606397629,0.3503800332546234,0.4470882713794708
1634125881413672400,6.92467236328125,0.09139575064182281,0.3017944097518921,0.46545475721359253
1634125881433552400,6.944552490234375,0.3428029417991638,0.0832052081823349,0.3694227933883667
1634125881453431300,6.964431396484375,0.6158553957939148,-0.20950129628181458,0.21799525618553162
1634125881473310500,6.984310546875,0.8427555561065674,-0.48833486437797546,0.08451797068119049
1634125881493189600,7.004189697265625,1.033496618270874,-0.735447108745575,-0.035189591348171234
1634125881513068500,7.024068603515625,1.17801833152771,-1.0064820051193237,-0.14577506482601166
1634125881532947500,7.043947509765625,1.2701525688171387,-1.2100021839141846,-0.21880987286567688
1634125881552827400,7.063827392578125,1.2495224475860596,-1.2858201265335083,-0.2766262888908386
1634125881572706600,7.08370654296875,1.1390436887741089,-1.1797378063201904,-0.3103078007698059
1634125881592585500,7.10358544921875,0.9921165704727173,-0.9318439960479736,-0.3485763669013977
1634125881612464400,7.12346435546875,0.8498204350471497,-0.6518670916557312,-0.35304537415504456
1634125881632343600,7.143343505859375,0.6687511205673218,-0.3550463914871216,-0.3130418062210083
1634125881652222500,7.163222412109375,0.432449072599411,-0.045284390449523926,-0.29965633153915405
1634125881672101400,7.183101318359375,0.18353676795959473,0.18451721966266632,-0.33029085397720337
1634125881691981600,7.202981689453125,0.008340900763869286,0.38829997181892395,-0.4035046398639679
1634125881711860500,7.222860595703125,-0.060631733387708664,0.5117279887199402,-0.5137897729873657
1634125881731739600,7.24273974609375,-0.0956740528345108,0.600293755531311,-0.6523686647415161
1634125881751618300,7.262618408203125,-0.16592486202716827,0.6665140986442566,-0.8237741589546204
1634125881771497500,7.28249755859375,-0.23806288838386536,0.7293443083763123,-0.9759679436683655
1634125881791376400,7.30237646484375,-0.29143327474594116,0.81374591588974,-1.0795687437057495
1634125881811256300,7.32225634765625,-0.3052830994129181,0.9261304140090942,-1.1009972095489502
1634125881831135500,7.342135498046875,-0.29994598031044006,1.066798448562622,-1.0868456363677979
1634125881851014400,7.362014404296875,-0.26858413219451904,1.183793306350708,-1.1561617851257324
1634125881870893600,7.3818935546875,-0.22372455894947052,1.1573539972305298,-1.294976830482483
1634125881890772200,7.401772216796875,-0.21574416756629944,1.0444560050964355,-1.3596194982528687
1634125881910651400,7.4216513671875,-0.4724796414375305,0.9888863563537598,-1.1527832746505737
1634125881930530600,7.441530517578125,-0.6197817921638489,0.9022480249404907,-0.6328775882720947
1634125881950409700,7.46140966796875,-0.5319699645042419,0.7329568266868591,-0.09228184819221497
1634125881970288600,7.48128857421875,-0.5058994293212891,0.5692455172538757,0.10017713904380798
1634125881990167600,7.50116748046875,-0.5520970821380615,0.37142640352249146,0.018537092953920364
1634125882010046500,7.52104638671875,-0.5410787463188171,0.17812669277191162,-0.03985157236456871
1634125882029925600,7.540925537109375,-0.5346893072128296,0.021930065006017685,0.05789191275835037
1634125882049804800,7.5608046875,-0.5511579513549805,-0.08707660436630249,0.34950947761535645
1634125882069684500,7.5806845703125,-0.5860819220542908,-0.1685025990009308,0.8028997778892517
1634125882089563600,7.600563720703125,-0.6513973474502563,-0.11604057252407074,1.242690920829773
1634125882109442600,7.620442626953125,-0.6940150260925293,-0.01549946516752243,1.5403763055801392
1634125882129321500,7.640321533203125,-0.6865569949150085,0.11786507070064545,1.661011815071106
1634125882149200600,7.66020068359375,-0.6392742991447449,0.23304320871829987,1.6162527799606323
1634125882169079600,7.68007958984375,-0.5794360637664795,0.30846771597862244,1.4836963415145874
1634125882188958700,7.699958740234375,-0.4931624233722687,0.3517102599143982,1.3703142404556274
1634125882208838400,7.71983837890625,-0.36217308044433594,0.23184169828891754,1.2789812088012695
1634125882228717600,7.739717529296875,-0.2305644452571869,-0.013577394187450409,1.2162188291549683
1634125882248596700,7.7595966796875,-0.15244053304195404,-0.2685816287994385,1.199009656906128
1634125882268475600,7.7794755859375,-0.13449770212173462,-0.45839112997055054,1.199629306793213
1634125882288354600,7.7993544921875,-0.15358781814575195,-0.5991337299346924,1.2349040508270264
1634125882308233500,7.8192333984375,-0.18139539659023285,-0.6188191771507263,1.2689595222473145
1634125882328113700,7.83911376953125,-0.21803727746009827,-0.6044085025787354,1.3056740760803223
1634125882347992600,7.85899267578125,-0.23936663568019867,-0.5636965036392212,1.3444901704788208
1634125882367871500,7.87887158203125,-0.2925984859466553,-0.511563777923584,1.3847157955169678
1634125882387750700,7.898750732421875,-0.3103742301464081,-0.4895743429660797,1.4324511289596558
1634125882407629600,7.918629638671875,-0.26117634773254395,-0.5552943348884583,1.4519569873809814
1634125882427508500,7.938508544921875,-0.15024705231189728,-0.6860343217849731,1.3937405347824097
1634125882447387600,7.9583876953125,-0.06240188702940941,-0.7540691494941711,1.249444603919983
1634125882467267600,7.978267578125,-0.016741376370191574,-0.7264676690101624,1.028995394706726
1634125882487146500,7.998146484375,0.001700618420727551,-0.650188684463501,0.7996009588241577
1634125882507025400,8.018025390625,0.07246853411197662,-0.602008581161499,0.6024201512336731
1634125882526904600,8.037904541015624,0.19409288465976715,-0.6315500736236572,0.43480831384658813
1634125882546783700,8.05778369140625,0.3174894452095032,-0.6481794118881226,0.2411862164735794
1634125882566662700,8.07766259765625,0.40585801005363464,-0.6076543927192688,-0.02687881328165531
1634125882586542600,8.09754248046875,0.4412347674369812,-0.5399423837661743,-0.36091357469558716
1634125882606421500,8.11742138671875,0.42337706685066223,-0.4673750698566437,-0.6941532492637634
1634125882626300700,8.13730078125,0.32549649477005005,-0.38075530529022217,-0.9742610454559326
1634125882646179600,8.1571796875,0.20193447172641754,-0.25665462017059326,-1.1574046611785889
1634125882666058500,8.17705859375,0.14889313280582428,-0.1689496636390686,-1.2310075759887695
1634125882685937700,8.196937744140625,0.08168280124664307,-0.09055480360984802,-1.2470825910568237
1634125882705816600,8.216816650390625,-0.0898652970790863,-0.012389137409627438,-1.260485053062439
1634125882725696500,8.236696533203125,-0.32415810227394104,0.14901739358901978,-1.2103551626205444
1634125882745575700,8.25657568359375,-0.493410587310791,0.3847499489784241,-1.0540659427642822
1634125882765454600,8.27645458984375,-0.575230062007904,0.6424722671508789,-0.8500106334686279
1634125882785333800,8.296333740234376,-0.612167477607727,0.9190740585327148,-0.7062278389930725
1634125882805212400,8.31621240234375,-0.6030623912811279,1.1350008249282837,-0.6724351644515991
1634125882825091600,8.336091552734375,-0.5744876265525818,1.284109115600586,-0.7039351463317871
1634125882844971800,8.3559716796875,-0.4714641571044922,1.3073846101760864,-0.7204018831253052
1634125882864850400,8.375850341796875,-0.2765251398086548,1.2129801511764526,-0.7357534766197205
1634125882884729600,8.3957294921875,-0.08222135901451111,0.9580056667327881,-0.8363173604011536
1634125882904608500,8.4156083984375,0.051764365285634995,0.6573624014854431,-0.9866958856582642
1634125882924487700,8.43548779296875,0.1694609522819519,0.49452194571495056,-0.9977560639381409
1634125882944366600,8.45536669921875,0.3208228349685669,0.5516633987426758,-0.8399181962013245
1634125882964245500,8.47524560546875,0.455986350774765,0.7224432826042175,-0.706031858921051
1634125882984125400,8.49512548828125,0.48098209500312805,0.8671257495880127,-0.6583503484725952
1634125883004004400,8.51500439453125,0.42109590768814087,0.849845290184021,-0.5025880932807922
1634125883023883300,8.53488330078125,0.3285370171070099,0.5467904806137085,-0.2893258333206177
1634125883043762400,8.554762451171875,0.28881582617759705,0.2067190408706665,-0.0929865762591362
1634125883063641600,8.5746416015625,0.3479751944541931,0.053011681884527206,-0.023251457139849663
1634125883083520500,8.5945205078125,0.448640912771225,0.01622752659022808,-0.10898153483867645
1634125883103399400,8.6143994140625,0.5261765718460083,-0.034910138696432114,-0.29518255591392517
1634125883123279600,8.634279541015625,0.5604550242424011,-0.16616328060626984,-0.4345553517341614
1634125883143158500,8.654158447265624,0.5219359993934631,-0.32509440183639526,-0.4718141555786133
1634125883163037400,8.674037353515626,0.43314358592033386,-0.4356643855571747,-0.408610999584198
1634125883182916400,8.693916259765626,0.3437320291996002,-0.44135159254074097,-0.2355360984802246
1634125883202795500,8.71379541015625,0.2617097795009613,-0.37608465552330017,-0.02454371377825737
1634125883222674400,8.73367431640625,0.13947805762290955,-0.32007449865341187,0.15745939314365387
1634125883242554400,8.753554443359375,-0.03658280521631241,-0.3468199074268341,0.3016737699508667
1634125883262433500,8.77343359375,-0.2187306433916092,-0.44307753443717957,0.46270090341567993
1634125883282312400,8.7933125,-0.3323076367378235,-0.5203405618667603,0.6603447794914246
1634125883302191600,8.813191650390625,-0.4035702645778656,-0.519630491733551,0.8109291791915894
1634125883322070300,8.8330703125,-0.46634313464164734,-0.47349491715431213,0.8976383209228516
1634125883341949400,8.852949462890624,-0.5524649620056152,-0.3963552713394165,0.9431667327880859
1634125883361828600,8.87282861328125,-0.646206796169281,-0.35444769263267517,1.0317026376724243
1634125883381708300,8.892708251953126,-0.7701724767684937,-0.2458297312259674,1.1376951932907104
1634125883401587500,8.91258740234375,-0.8929600715637207,-0.11507230252027512,1.238197684288025
1634125883421466400,8.93246630859375,-0.9861894845962524,0.09720620512962341,1.3496276140213013
1634125883441345500,8.952345458984375,-1.042375922203064,0.3937269151210785,1.4572378396987915
1634125883461224400,8.972224365234375,-1.0421440601348877,0.6685447096824646,1.5125212669372559
1634125883481103400,8.992103271484375,-0.9949041604995728,0.8226896524429321,1.5401232242584229
1634125883500983600,9.011983642578125,-0.9600260257720947,0.8560853004455566,1.5265272855758667
1634125883520862500,9.031862548828125,-0.892265260219574,0.7095875144004822,1.4292774200439453
1634125883540741400,9.051741455078124,-0.7916945219039917,0.5474834442138672,1.2784143686294556
1634125883560620500,9.07162060546875,-0.6784442663192749,0.49999698996543884,1.1105902194976807
1634125883580499500,9.09149951171875,-0.5590965151786804,0.5559834241867065,0.9521998763084412
1634125883600378600,9.111378662109376,-0.45837703347206116,0.5938189029693604,0.7498422265052795
1634125883620258600,9.131258544921875,-0.34059464931488037,0.4893692433834076,0.5249029397964478
1634125883640137500,9.151137451171875,-0.22467468678951263,0.3231636583805084,0.29929855465888977
1634125883660016600,9.1710166015625,-0.12252066284418106,0.22739507257938385,0.11095935851335526
1634125883679895300,9.190895263671875,-0.05343484878540039,0.19453833997249603,-0.028970684856176376
1634125883699774500,9.2107744140625,-0.012342983856797218,0.1932571828365326,-0.09859292209148407
1634125883719653400,9.2306533203125,0.003161142347380519,0.1967601776123047,-0.09153395891189575
1634125883739532500,9.250532470703124,-0.03169022873044014,0.1902945190668106,-0.07914862781763077
1634125883759412500,9.27041259765625,-0.08436896651983261,0.176919624209404,-0.10626443475484848
1634125883779291400,9.29029150390625,-0.1035873219370842,0.18135587871074677,-0.13583214581012726
1634125883799170600,9.310170654296876,-0.08487808704376221,0.18569883704185486,-0.16979914903640747
1634125883819049500,9.330049560546875,-0.06551046669483185,0.15927518904209137,-0.22171472012996674
1634125883838928400,9.349928466796875,-0.07884566485881805,0.13424010574817657,-0.27268320322036743
1634125883858807600,9.3698076171875,-0.10144077241420746,0.14750202000141144,-0.2918711304664612
1634125883878686500,9.3896865234375,-0.11526510864496231,0.14545412361621857,-0.30854371190071106
1634125883898566400,9.40956640625,-0.08977532386779785,0.11596766114234924,-0.3646010458469391
1634125883918445300,9.4294453125,-0.04648648574948311,0.04357697069644928,-0.4277598559856415
1634125883938324500,9.449324462890624,-0.0184019822627306,-0.023923974484205246,-0.4834100306034088
1634125883958204000,9.469203857421874,-0.017016476020216942,-0.07969396561384201,-0.49064189195632935
1634125883978082800,9.489082763671876,-0.00810855720192194,-0.09979093074798584,-0.40293896198272705
1634125883997962000,9.5089619140625,-0.027960915118455887,-0.04011424258351326,-0.3160136342048645
1634125884017842200,9.52884228515625,-0.11361616849899292,0.04441661760210991,-0.29542475938796997
1634125884037720800,9.548720947265625,-0.27466121315956116,0.22885675728321075,-0.2698993384838104
1634125884057600000,9.56860009765625,-0.47556954622268677,0.4971984326839447,-0.19861578941345215
1634125884077479000,9.58847900390625,-0.6441504955291748,0.7348751425743103,-0.05698248744010925
1634125884097358000,9.608358154296875,-0.7476673126220703,0.9120709896087646,0.11793286353349686
1634125884117237000,9.628237060546875,-0.7516836524009705,1.0268596410751343,0.27903029322624207
1634125884137116000,9.648115966796874,-0.6535457968711853,1.0502115488052368,0.36949291825294495
1634125884156996000,9.66799609375,-0.5110734701156616,0.9121251106262207,0.34778714179992676
1634125884176875000,9.687875,-0.3388710916042328,0.6401504278182983,0.2010253369808197
1634125884196754000,9.70775390625,-0.12014827132225037,0.33276355266571045,0.034092675894498825
1634125884216633000,9.727633056640625,0.11385835707187653,0.08994198590517044,-0.07570517808198929
1634125884236512000,9.747511962890625,0.30310195684432983,-0.1111103892326355,-0.08882894366979599
1634125884256391200,9.76739111328125,0.43356332182884216,-0.29488232731819153,-0.011570937931537628
1634125884276271000,9.78727099609375,0.4867774248123169,-0.4243484139442444,0.07161931693553925
1634125884296150000,9.80714990234375,0.4596535265445709,-0.4862513840198517,0.11373230069875717
1634125884316029200,9.827029296875,0.3976288437843323,-0.47675031423568726,0.1368398368358612
1634125884335907800,9.846907958984374,0.33029305934906006,-0.41776177287101746,0.16483858227729797
1634125884355787000,9.866787109375,0.29250043630599976,-0.37884265184402466,0.20497417449951172
1634125884375666000,9.886666015625,0.2999438941478729,-0.4252728223800659,0.22855938971042633
1634125884395545000,9.906545166015626,0.34536775946617126,-0.5501168370246887,0.21888969838619232
1634125884415425000,9.926425048828126,0.3723578453063965,-0.6699334979057312,0.19768188893795013
1634125884435304000,9.946303955078125,0.38310691714286804,-0.7176267504692078,0.20796900987625122
1634125884455183000,9.96618310546875,0.4318733513355255,-0.7433218359947205,0.23302873969078064
1634125884475062000,9.98606201171875,0.5075552463531494,-0.8056675791740417,0.19647599756717682
1634125884494941000,10.00594091796875,0.5628945827484131,-0.9146921634674072,0.0923895612359047
1634125884514820000,10.025820068359375,0.5224775671958923,-0.9706825613975525,-0.005022707395255566
1634125884534699000,10.045698974609374,0.4313342869281769,-0.8872721791267395,-0.03654036298394203
1634125884554579000,10.065578857421874,0.3731774091720581,-0.7562257051467896,-0.030100282281637192
1634125884574457900,10.085457763671876,0.2932940423488617,-0.6330931186676025,-0.0611942857503891
1634125884594337000,10.1053369140625,0.1593366265296936,-0.4805561304092407,-0.11931997537612915
1634125884614216200,10.12521630859375,-0.008149790577590466,-0.2709825336933136,-0.20223583281040192
1634125884634094800,10.1450947265625,-0.1470828354358673,-0.07734547555446625,-0.29444026947021484
1634125884653974000,10.16497412109375,-0.2563076615333557,0.09406852722167969,-0.36941438913345337
1634125884673854200,10.184854248046875,-0.32444092631340027,0.29082781076431274,-0.37430450320243835
1634125884693732900,10.20473291015625,-0.3541593551635742,0.4349483251571655,-0.32424014806747437
1634125884713612000,10.224612060546875,-0.3485853672027588,0.5335661172866821,-0.2668900191783905
1634125884733491000,10.244490966796874,-0.35215410590171814,0.5773285627365112,-0.28872156143188477
1634125884753370000,10.2643701171875,-0.34989798069000244,0.6137626767158508,-0.4048280715942383
1634125884773249000,10.2842490234375,-0.30286362767219543,0.6503593325614929,-0.5483026504516602
1634125884793128000,10.3041279296875,-0.22276505827903748,0.6744527816772461,-0.6870749592781067
1634125884813008100,10.324008056640626,-0.15655480325222015,0.6276533007621765,-0.7837284803390503
1634125884832887000,10.343886962890625,-0.11025521159172058,0.5320575833320618,-0.8494313955307007
1634125884852766000,10.363765869140625,-0.08738820254802704,0.4967512786388397,-0.8402922749519348
1634125884872644900,10.383644775390625,-0.07391930371522903,0.5159504413604736,-0.7769600749015808
1634125884892524000,10.40352392578125,-0.05727073550224304,0.5454896688461304,-0.6757662892341614
1634125884912403200,10.4234033203125,-0.05187060311436653,0.5229659676551819,-0.5774750113487244
1634125884932281900,10.44328173828125,-0.058184776455163956,0.4741365313529968,-0.4921567142009735
1634125884952162300,10.463162353515624,-0.043944504112005234,0.4051920473575592,-0.40108612179756165
1634125884972041500,10.48304150390625,-0.02598538063466549,0.33539095520973206,-0.31848615407943726
1634125884991920000,10.502920166015626,0.021879080682992935,0.25180044770240784,-0.23911967873573303
1634125885011799300,10.52279931640625,0.09524122625589371,0.14795750379562378,-0.1817031353712082
1634125885031678500,10.542678466796875,0.1701728105545044,0.0015009120106697083,-0.12379935383796692
1634125885051557400,10.562557373046875,0.2120240330696106,-0.12413392961025238,-0.05758008733391762
1634125885071436300,10.582436279296875,0.2011050283908844,-0.20824933052062988,0.022718872874975204
1634125885091316200,10.602316162109375,0.1552448570728302,-0.23601065576076508,0.11203676462173462
1634125885111195400,10.6221953125,0.11662822961807251,-0.2607896327972412,0.1950937956571579
1634125885131074300,10.64207421875,0.0788826271891594,-0.2884182929992676,0.24451600015163422
1634125885150953200,10.661953125,0.04273984581232071,-0.28496885299682617,0.2740881145000458
1634125885170832400,10.681832275390626,0.038662806153297424,-0.24482542276382446,0.3040897250175476
1634125885190711300,10.701711181640626,0.07850946485996246,-0.21637935936450958,0.37299394607543945
1634125885210591200,10.72159130859375,0.11419840157032013,-0.21266992390155792,0.4185390770435333
1634125885230470400,10.741470458984375,0.11873456090688705,-0.24340932071208954,0.3961794376373291
1634125885250349300,10.761349365234375,0.10362911224365234,-0.2685641050338745,0.3397398293018341
1634125885270228500,10.781228515625,0.08573577553033829,-0.2849772274494171,0.29243892431259155
1634125885290107100,10.801107177734375,0.07604262232780457,-0.30125871300697327,0.288496732711792
1634125885309986300,10.820986328125,0.0707179456949234,-0.30342814326286316,0.322791188955307
1634125885329866500,10.840866455078125,0.0531289204955101,-0.2980414032936096,0.38403671979904175
1634125885349745200,10.8607451171875,-0.00613280339166522,-0.24582894146442413,0.43574732542037964
1634125885369624300,10.880624267578124,-0.07181137800216675,-0.19285881519317627,0.4712007939815521
1634125885389503200,10.900503173828126,-0.14507567882537842,-0.10923425853252411,0.49426740407943726
1634125885409382400,10.92038232421875,-0.18152393400669098,-0.027289077639579773,0.500394344329834
1634125885429261600,10.940261474609375,-0.1626938283443451,0.09023290872573853,0.5000152587890625
1634125885449140200,10.96014013671875,-0.07792714238166809,0.22415880858898163,0.4731350541114807
1634125885469019400,10.980019287109375,0.016526924446225166,0.30951178073883057,0.37460553646087646
1634125885488899300,10.9998994140625,0.09179327636957169,0.22921639680862427,0.18545933067798615
1634125885508778200,11.0197783203125,0.16265200078487396,0.0436321422457695,-0.03316039592027664
1634125885528657400,11.039657470703125,0.19912850856781006,-0.11095210909843445,-0.19240090250968933
1634125885548536300,11.059536376953124,0.2090715616941452,-0.17562144994735718,-0.2569861114025116
1634125885568415500,11.07941552734375,0.1840684711933136,-0.10905320197343826,-0.25508520007133484
1634125885588294100,11.099294189453126,0.13098829984664917,-0.0038855522871017456,-0.21576252579689026
1634125885608174300,11.11917431640625,0.05493326112627983,0.09184947609901428,-0.16248056292533875
1634125885628053500,11.139053466796875,-0.009400325827300549,0.14579705893993378,-0.11661384254693985
1634125885647932400,11.158932373046875,-0.057712242007255554,0.1432628184556961,-0.10400789976119995
1634125885667811300,11.178811279296875,-0.08698801696300507,0.1542523056268692,-0.1284347027540207
1634125885687690200,11.198690185546875,-0.08058644086122513,0.18692323565483093,-0.15653939545154572
1634125885707569400,11.2185693359375,-0.04345833882689476,0.20003202557563782,-0.18732291460037231
1634125885727449300,11.238449462890625,0.01614919863641262,0.16987580060958862,-0.23177652060985565
1634125885747328300,11.258328369140624,0.0693473070859909,0.10969001799821854,-0.2874111235141754
1634125885767207400,11.27820751953125,0.12975579500198364,0.050427354872226715,-0.3244325816631317
1634125885787086300,11.29808642578125,0.17759060859680176,0.025136027485132217,-0.3428693115711212
1634125885806965200,11.31796533203125,0.18958929181098938,0.025038639083504677,-0.3489459156990051
1634125885826844200,11.33784423828125,0.17803223431110382,0.020864134654402733,-0.34452053904533386
1634125885846723300,11.357723388671875,0.17472930252552032,-0.01586826704442501,-0.3086911141872406
1634125885866603300,11.377603271484375,0.16193227469921112,-0.028789129108190536,-0.28283798694610596
1634125885886482200,11.397482177734375,0.11947581171989441,-0.033969197422266006,-0.2931598722934723
1634125885906361300,11.417361328125,0.07897312939167023,-0.03141948580741882,-0.32274094223976135
1634125885926240500,11.437240478515625,0.0439857579767704,-0.005203817039728165,-0.3252994120121002
1634125885946119400,11.457119384765624,0.013159225694835186,0.024873077869415283,-0.30676570534706116
1634125885965997600,11.47699755859375,-0.0065999627113342285,0.042523644864559174,-0.2878369092941284
1634125885985876500,11.49687646484375,-0.00756491906940937,0.03937822952866554,-0.25339844822883606
1634125886005756400,11.51675634765625,-0.005647486541420221,0.034067511558532715,-0.21428635716438293
1634125886025635600,11.536635498046875,-0.011054771021008492,0.020238781347870827,-0.20617514848709106
1634125886045514500,11.556514404296875,-0.009410575032234192,-0.011305143125355244,-0.20653218030929565
1634125886065393400,11.576393310546875,0.003641710616648197,-0.06317946314811707,-0.18037821352481842
1634125886085272600,11.5962724609375,0.02526218257844448,-0.10082118213176727,-0.13798268139362335
1634125886105151500,11.6161513671875,0.02376832626760006,-0.09377160668373108,-0.107050321996212
1634125886125030400,11.636030517578124,0.028693532571196556,-0.08514294773340225,-0.08206494152545929
1634125886144910600,11.65591064453125,0.03686606511473656,-0.10940345376729965,-0.041747596114873886
1634125886164789500,11.67578955078125,0.03755311295390129,-0.12208221852779388,0.007643488235771656
1634125886184668400,11.69566845703125,0.03518911078572273,-0.12097065150737762,0.049393098801374435
1634125886204547300,11.71554736328125,0.04489469528198242,-0.12984228134155273,0.06954348832368851
1634125886224426500,11.735426513671875,0.03865370899438858,-0.1338590681552887,0.07611286640167236
1634125886244305700,11.7553056640625,0.037529587745666504,-0.15191224217414856,0.08761265128850937
1634125886264185300,11.775185302734375,0.0490986704826355,-0.151444211602211,0.10401414334774017
1634125886284064500,11.795064453125,0.06971615552902222,-0.1438334733247757,0.13942989706993103
1634125886303943400,11.814943359375,0.07685169577598572,-0.1201188862323761,0.16824837028980255
1634125886323822600,11.834822509765624,0.08940313011407852,-0.08562826365232468,0.19839733839035034
1634125886343701500,11.854701416015626,0.0924224853515625,-0.049390025436878204,0.22278356552124023
1634125886363580400,11.874580322265626,0.050846509635448456,-0.015499820932745934,0.21242526173591614
1634125886383459600,11.89445947265625,0.008942951448261738,-0.007911519147455692,0.1694558560848236
1634125886403339300,11.91433935546875,-0.006035108584910631,-0.026968879625201225,0.1293795257806778
1634125886423218400,11.934218505859375,-0.005409529432654381,-0.005254262592643499,0.11153045296669006
1634125886443097600,11.95409765625,-0.01789855770766735,0.006933228112757206,0.097920261323452
1634125886462976500,11.9739765625,-0.02693702094256878,0.0009988872334361076,0.06862808018922806
1634125886482855700,11.993855712890625,-0.026840880513191223,-0.019319701939821243,0.03139413148164749
1634125886502734300,12.013734375,-0.029501905664801598,-0.029848642647266388,0.0018939842702820897
1634125886522613500,12.033613525390624,-0.0335409939289093,-0.011615244671702385,-0.008118280209600925
1634125886542493700,12.05349365234375,-0.04062393680214882,0.009452756494283676,0.0014384734677150846
1634125886562372400,12.073372314453126,-0.0620114728808403,0.026200156658887863,0.024386581033468246
1634125886582251500,12.09325146484375,-0.10545800626277924,0.04230455681681633,0.0476260632276535
1634125886602130400,12.11313037109375,-0.15701286494731903,0.07462696731090546,0.06404672563076019
1634125886622009600,12.133009521484375,-0.1907404214143753,0.1197679191827774,0.0887276902794838
1634125886641888300,12.15288818359375,-0.213727667927742,0.14897237718105316,0.10120437294244766
1634125886661768400,12.1727685546875,-0.2211073338985443,0.16944225132465363,0.0833759754896164
1634125886681647600,12.192647705078125,-0.18035365641117096,0.15543195605278015,0.08557450771331787
1634125886701526500,12.212526611328125,-0.1235659196972847,0.15629850327968597,0.0856185108423233
1634125886721405400,12.232405517578124,-0.07583922892808914,0.1337655484676361,0.06371533870697021
1634125886741284600,12.25228466796875,-0.03618985787034035,0.09662951529026031,0.010081491433084011
1634125886761163500,12.27216357421875,-0.03782987967133522,0.07488536089658737,-0.03883662074804306
1634125886781042700,12.292042724609376,-0.06636902689933777,0.08518349379301071,-0.0429176427423954
1634125886800921300,12.31192138671875,-0.07616030424833298,0.11082902550697327,-0.006842505652457476
1634125886820801500,12.331801513671875,-0.07054592669010162,0.13659769296646118,0.041433487087488174
1634125886840680700,12.3516806640625,-0.05872206762433052,0.11789512634277344,0.07614549249410629
1634125886860559400,12.371559326171875,-0.04616686329245567,0.0826127678155899,0.08141588419675827
1634125886880438500,12.3914384765625,-0.023872917518019676,0.02476380206644535,0.07174752652645111
1634125886900317400,12.4113173828125,-0.009439828805625439,-0.008321357890963554,0.05221591889858246
1634125886920196600,12.431196533203124,0.008508766070008278,-0.031896837055683136,0.05914481356739998
1634125886940076500,12.45107666015625,0.008395712822675705,-0.025270022451877594,0.06386728584766388
1634125886959959600,12.47095947265625,-0.020156167447566986,-0.016883131116628647,0.06692229956388474
1634125886979838700,12.490838623046875,-0.053031161427497864,-0.018578965216875076,0.08560052514076233
1634125886999717600,12.510717529296874,-0.06571175903081894,-0.01850455440580845,0.1552092581987381
1634125887019596500,12.530596435546874,-0.05726243183016777,-0.005940515082329512,0.1845860481262207
1634125887039475700,12.550475830078126,-0.05161786079406738,0.002164016477763653,0.18217243254184723
1634125887059354600,12.570354736328126,-0.04475760459899902,0.005011891946196556,0.15171216428279877
1634125887079234600,12.590234619140626,-0.04907481372356415,0.014133729971945286,0.11273187398910522
1634125887099113700,12.61011376953125,-0.04412034898996353,0.024485614150762558,0.07909660041332245
1634125887118992600,12.62999267578125,-0.03493870422244072,0.014336238615214825,0.04339204356074333
1634125887138871600,12.64987158203125,-0.03891507163643837,0.007956236600875854,0.03780128434300423
1634125887158750500,12.66975048828125,-0.049993645399808884,0.021237732842564583,0.04423734173178673
1634125887178629600,12.689629638671875,-0.06977001577615738,0.04987337440252304,0.04900975525379181
1634125887198508800,12.7095087890625,-0.08284182846546173,0.06442952156066895,0.05600813031196594
1634125887218388500,12.729388427734374,-0.08193688839673996,0.07878822088241577,0.09523250162601471
1634125887238267600,12.749267578125,-0.051101524382829666,0.05456226319074631,0.14614960551261902
1634125887258146600,12.769146484375,-0.01739562302827835,-0.032359249889850616,0.1627500206232071
1634125887278025700,12.789025634765625,0.005875525996088982,-0.08890876173973083,0.1579677313566208
1634125887297904600,12.808904541015625,0.0142656359821558,-0.09920978546142578,0.12465028464794159
1634125887317783600,12.828783447265625,-0.0035420339554548264,-0.045944347977638245,0.09102972596883774
1634125887337663700,12.848663818359375,-0.024253571406006813,0.03631064295768738,0.04860466346144676
1634125887357542400,12.86854248046875,-0.047419432550668716,0.1484948843717575,-0.013188682496547699
1634125887377421600,12.888421630859375,-0.08317214995622635,0.26138684153556824,-0.1241389811038971
1634125887397300700,12.90830078125,-0.10423783957958221,0.3205876052379608,-0.24572668969631195
1634125887417179600,12.9281796875,-0.11502072215080261,0.37516605854034424,-0.32082462310791016
1634125887437058600,12.94805859375,-0.12934164702892303,0.42076751589775085,-0.3561955690383911
1634125887456937500,12.9679375,-0.13156898319721222,0.4131157696247101,-0.36477187275886536
1634125887476817700,12.987817626953126,-0.1170906126499176,0.3587929606437683,-0.33314627408981323
1634125887496696800,13.00769677734375,-0.08804170042276382,0.2725946009159088,-0.25924527645111084
1634125887516575500,13.027575439453125,-0.0687301754951477,0.18962693214416504,-0.1686529815196991
1634125887536454700,13.04745458984375,-0.06449025124311447,0.14685675501823425,-0.06322665512561798
1634125887556333600,13.06733349609375,-0.08717425912618637,0.12529993057250977,0.03091658093035221
1634125887576212700,13.087212646484375,-0.1226770356297493,0.09014669060707092,0.11932634562253952
1634125887596091400,13.10709130859375,-0.1565314531326294,0.09751182049512863,0.18283170461654663
1634125887615971600,13.1269716796875,-0.16097058355808258,0.09559882432222366,0.2188512235879898
1634125887635850800,13.146850830078124,-0.15378528833389282,0.09156888723373413,0.21924619376659393
1634125887655729400,13.1667294921875,-0.13085809350013733,0.05116884037852287,0.21837490797042847
1634125887675608600,13.186608642578125,-0.11478129774332047,0.018645212054252625,0.2126922607421875
1634125887695487700,13.20648779296875,-0.08519650995731354,0.004015804268419743,0.2084656059741974
1634125887715366700,13.22636669921875,-0.0719042718410492,-0.0023674611002206802,0.20316895842552185
1634125887735246600,13.24624658203125,-0.07151465117931366,-0.01448018103837967,0.20075562596321106
1634125887755125500,13.26612548828125,-0.08037827163934708,-0.05760457366704941,0.2208416610956192
1634125887775004700,13.286004638671875,-0.08322776854038239,-0.07401274889707565,0.2548398971557617
1634125887794883800,13.3058837890625,-0.09218432754278183,-0.05145520344376564,0.2838006615638733
1634125887814762500,13.325762451171874,-0.10183420032262802,-0.03306758403778076,0.30019983649253845
1634125887834641700,13.3456416015625,-0.12096906453371048,-0.032430268824100494,0.3114503026008606
1634125887854520600,13.3655205078125,-0.11772067099809647,-0.06862389296293259,0.34468722343444824
1634125887874400500,13.385400390625,-0.12638713419437408,-0.08213876932859421,0.3788941502571106
1634125887894279700,13.40527978515625,-0.14982342720031738,-0.06335857510566711,0.38884466886520386
1634125887914158600,13.42515869140625,-0.16736486554145813,-0.028588080778717995,0.38695430755615234
1634125887934037800,13.445037841796875,-0.18495924770832062,-0.0076227858662605286,0.3756473958492279
1634125887953912800,13.464912841796876,-0.2030239850282669,0.004717500880360603,0.3730121850967407
1634125887973791700,13.484791748046876,-0.19737981259822845,0.04760151728987694,0.3845917284488678
1634125887993671000,13.5046708984375,-0.18908974528312683,0.09296505153179169,0.382936030626297
1634125888013550800,13.52455078125,-0.16425403952598572,0.0980745255947113,0.3452979624271393
1634125888033429800,13.5444296875,-0.15003475546836853,0.07424689084291458,0.2630520164966583
1634125888053308700,13.56430859375,-0.13156481087207794,0.03647654131054878,0.18712326884269714
1634125888073187800,13.584187744140625,-0.10123610496520996,0.0006746891885995865,0.14973300695419312
1634125888093067000,13.60406689453125,-0.09761779755353928,-0.010834761895239353,0.13808444142341614
1634125888112946000,13.62394580078125,-0.12317527830600739,0.031179355457425117,0.12874822318553925
1634125888132824800,13.643824951171876,-0.18021182715892792,0.09648414701223373,0.12120457738637924
1634125888152704800,13.663704833984376,-0.281476765871048,0.19084757566452026,0.1385454684495926
1634125888172584000,13.683583984375,-0.3728853166103363,0.35811159014701843,0.20317292213439941
1634125888192462800,13.703462890625,-0.4485040009021759,0.58636474609375,0.2580452561378479
1634125888212341800,13.723341796875,-0.545806348323822,0.8323480486869812,0.24695228040218353
1634125888232221000,13.743220947265625,-0.6432026028633118,1.0192646980285645,0.16406001150608063
1634125888252099800,13.763099853515625,-0.7059507966041565,1.1329349279403687,0.04505426436662674
1634125888271978800,13.782978759765625,-0.692118227481842,1.1975141763687134,-0.005287832580506802
1634125888291859000,13.80285888671875,-0.5877984762191772,1.1969947814941406,0.03381892293691635
1634125888311737900,13.82273779296875,-0.4172179102897644,1.0196911096572876,0.07192835956811905
1634125888331616800,13.84261669921875,-0.18156813085079193,0.6458860039710999,0.06700139492750168
1634125888351495700,13.86249560546875,0.06963128596544266,0.25071993470191956,0.04259127005934715
1634125888371374800,13.882374755859376,0.30155569314956665,-0.06287465989589691,0.02760585956275463
1634125888391254000,13.90225390625,0.5113222599029541,-0.27506884932518005,0.07478846609592438
1634125888411133000,13.9221328125,0.7078712582588196,-0.3765713572502136,0.1035427376627922
1634125888431012900,13.942012939453125,0.9208740592002869,-0.4086450934410095,-0.06398604810237885
1634125888450891800,13.961891845703125,0.9928629994392395,-0.5477948188781738,-0.3695386052131653
1634125888470771000,13.98177099609375,0.8343703150749207,-0.8562474846839905,-0.35433676838874817
1634125888490649900,14.00164990234375,0.7718177437782288,-1.0821956396102905,0.10176735371351242
1634125888510528800,14.02152880859375,0.9290882349014282,-1.1939001083374023,0.5121683478355408
1634125888530408000,14.041407958984376,1.030139684677124,-1.1586363315582275,0.5245087742805481
1634125888550287600,14.06128759765625,0.9301896095275879,-0.9720197319984436,0.2990017235279083
1634125888570166800,14.081166748046876,0.7122812867164612,-0.7460214495658875,0.1536218672990799
1634125888590046000,14.1010458984375,0.46634531021118164,-0.5426118969917297,0.25441837310791016
1634125888609924900,14.1209248046875,0.26375487446784973,-0.38331806659698486,0.5008784532546997
1634125888629803800,14.1408037109375,0.17689457535743713,-0.26852360367774963,0.6891794800758362
1634125888649682700,14.1606826171875,0.12202471494674683,-0.1866060048341751,0.7201500535011292
1634125888669561900,14.180561767578125,0.11011834442615509,-0.1377711445093155,0.6545795202255249
1634125888689441800,14.20044189453125,0.10593242943286896,-0.11030371487140656,0.50838702917099
1634125888709320700,14.22032080078125,0.054291702806949615,-0.0329023152589798,0.28668975830078125
1634125888729199900,14.240199951171874,-0.06655921787023544,0.10273987054824829,0.06103498116135597
1634125888749078800,14.260078857421876,-0.20624516904354095,0.28051692247390747,-0.12401910871267319
1634125888768958000,14.2799580078125,-0.34481513500213623,0.4574492275714874,-0.23375017940998077
1634125888788836600,14.299836669921875,-0.4750571548938751,0.5721114873886108,-0.26044321060180664
1634125888808715800,14.3197158203125,-0.5738485455513,0.6629477739334106,-0.20813153684139252
1634125888828596000,14.339595947265625,-0.6586122512817383,0.7415379881858826,-0.13428175449371338
1634125888848474600,14.359474609375,-0.733745276927948,0.7735038995742798,-0.060835931450128555
1634125888868353800,14.379353759765625,-0.7887444496154785,0.7718896269798279,0.04213762655854225
1634125888888233000,14.39923291015625,-0.838062584400177,0.8115783929824829,0.13471688330173492
1634125888908112000,14.41911181640625,-0.8862850666046143,0.8728363513946533,0.2029954195022583
1634125888927991000,14.438990966796876,-0.9161609411239624,0.9223784804344177,0.33902692794799805
1634125888947869700,14.45886962890625,-0.8997588157653809,0.9798283576965332,0.4681747555732727
1634125888967750000,14.47875,-0.8958445191383362,1.0175931453704834,0.5163535475730896
1634125888987629000,14.498629150390625,-0.8582542538642883,1.007134199142456,0.5588764548301697
1634125889007507700,14.5185078125,-0.7205072641372681,0.9031046032905579,0.7105448246002197
1634125889027387000,14.538386962890625,-0.42442578077316284,0.6561329364776611,0.8373920917510986
1634125889047265800,14.558265869140625,-0.10488690435886383,0.21540449559688568,0.76491779088974
1634125889067145000,14.57814501953125,0.09976287186145782,-0.23581033945083618,0.5904470086097717
1634125889087023600,14.598023681640624,0.2084699124097824,-0.4975423216819763,0.4463497996330261
1634125889106903800,14.61790380859375,0.20789799094200134,-0.5588580369949341,0.35997244715690613
1634125889126783000,14.637782958984374,0.09353098273277283,-0.4656893014907837,0.3688879907131195
1634125889146661600,14.65766162109375,-0.07725256681442261,-0.25329428911209106,0.4055091440677643
1634125889166540800,14.677540771484376,-0.22575601935386658,0.03956780955195427,0.39371776580810547
1634125889186419700,14.697419677734375,-0.3955361247062683,0.3254603445529938,0.29078853130340576
1634125889206299000,14.717298828125,-0.5876309275627136,0.5779536962509155,0.1468912810087204
1634125889226178800,14.7371787109375,-0.7267521619796753,0.7666071653366089,0.09459619224071503
1634125889246057700,14.7570576171875,-0.7673890590667725,0.8797757625579834,0.09101055562496185
1634125889265937000,14.77693701171875,-0.7069869637489319,0.8485588431358337,0.12454286962747574
1634125889285815800,14.79681591796875,-0.5341612100601196,0.6658756136894226,0.14951755106449127
1634125889305694700,14.81669482421875,-0.3144998550415039,0.36789822578430176,0.09989184141159058
1634125889325574000,14.836573974609376,-0.17677004635334015,0.011143065989017487,-0.042005643248558044
1634125889345452800,14.856452880859376,-0.13915172219276428,-0.23261865973472595,-0.12791001796722412
1634125889365332700,14.876332763671876,-0.13476796448230743,-0.2881544530391693,-0.027578098699450493
1634125889385212000,14.8962119140625,-0.16414937376976013,-0.21580231189727783,0.16306321322917938
1634125889405090800,14.9160908203125,-0.19453325867652893,-0.10760292410850525,0.31142011284828186
1634125889424970000,14.935969970703125,-0.21155701577663422,-0.04297398775815964,0.31535688042640686
1634125889444849000,14.955848876953125,-0.22358523309230804,-0.10615666210651398,0.28157562017440796
1634125889464727800,14.975727783203125,-0.17989367246627808,-0.1882999986410141,0.31570351123809814
1634125889484606700,14.995606689453124,-0.05956979840993881,-0.3021182417869568,0.31861233711242676
1634125889504487000,15.01548681640625,0.09201804548501968,-0.4886586368083954,0.2476222813129425
1634125889524365800,15.03536572265625,0.16278928518295288,-0.6649127006530762,0.14653681218624115
1634125889544244700,15.05524462890625,0.1499147266149521,-0.739531934261322,0.08909923583269119
1634125889564124000,15.0751240234375,0.09535587579011917,-0.6902927756309509,0.1333194375038147
1634125889584002800,15.0950029296875,0.05433071404695511,-0.5578741431236267,0.24666692316532135
1634125889603881700,15.1148818359375,-0.01582413911819458,-0.41585665941238403,0.3280339539051056
1634125889623761000,15.134760986328125,-0.12581494450569153,-0.2904515564441681,0.35296788811683655
1634125889643640800,15.154640869140625,-0.24888747930526733,-0.14462371170520782,0.3834258019924164
1634125889663519700,15.174519775390625,-0.336381196975708,0.029708579182624817,0.4543803930282593
1634125889683398700,15.194398681640624,-0.3750966787338257,0.1628902405500412,0.5297014117240906
1634125889703277800,15.21427783203125,-0.37146320939064026,0.20392681658267975,0.5188350081443787
1634125889723157000,15.234156982421876,-0.33581382036209106,0.15425695478916168,0.4049096703529358
1634125889743036000,15.254035888671876,-0.2597944736480713,0.09180372953414917,0.22730274498462677
1634125889762914800,15.273914794921875,-0.17866604030132294,0.08125322312116623,0.019963447004556656
1634125889782794800,15.293794677734375,-0.12137012928724289,0.14224620163440704,-0.1369728296995163
1634125889802674000,15.313673828125,-0.10728845000267029,0.25331389904022217,-0.24047055840492249
1634125889822552800,15.333552734375,-0.10937494784593582,0.326682984828949,-0.29648372530937195
1634125889842431700,15.353431640625,-0.11488387733697891,0.332366019487381,-0.33535975217819214
1634125889862311000,15.373310791015625,-0.11265085637569427,0.3069480359554291,-0.3483840823173523
1634125889882189800,15.39318994140625,-0.09692462533712387,0.29322728514671326,-0.34164735674858093
1634125889902069800,15.41306982421875,-0.07452757656574249,0.2834502160549164,-0.32750529050827026
1634125889921949000,15.432948974609374,-0.053207237273454666,0.2407303899526596,-0.30027222633361816
1634125889941827800,15.452827880859376,-0.044975586235523224,0.18198181688785553,-0.26423829793930054
1634125889961707000,15.47270703125,-0.0033547275234013796,0.11911407858133316,-0.20358030498027802
1634125889981586200,15.492586181640625,0.03563053160905838,0.0730566754937172,-0.17765294015407562
1634125890001465300,15.51246533203125,0.038921840488910675,0.02946317382156849,-0.19139273464679718
1634125890021344300,15.53234423828125,0.024049954488873482,0.007784239947795868,-0.1978892832994461
1634125890041224200,15.55222412109375,-0.010975008830428123,0.03334532678127289,-0.15478132665157318
1634125890061103000,15.57210302734375,-0.08554369956254959,0.07926430553197861,-0.06585890799760818
1634125890080982300,15.591982177734375,-0.1597595512866974,0.1094253808259964,0.046402521431446075
1634125890100861200,15.611861083984374,-0.21927540004253387,0.12489277869462967,0.15653444826602936
1634125890120740000,15.631739990234376,-0.24929609894752502,0.15712419152259827,0.2601613700389862
1634125890140619300,15.651619384765626,-0.25707364082336426,0.18693910539150238,0.3362605571746826
1634125890160498200,15.671498291015626,-0.2320869415998459,0.1877674162387848,0.36855021119117737
1634125890180378000,15.691378173828125,-0.18501491844654083,0.1411932110786438,0.34244635701179504
1634125890200257300,15.71125732421875,-0.11732941120862961,0.0583735816180706,0.2721111476421356
1634125890220136200,15.73113623046875,-0.028824979439377785,-0.04040192812681198,0.18714924156665802
1634125890240015400,15.751015380859375,0.06617587804794312,-0.12655267119407654,0.10370007902383804
1634125890259894000,15.77089404296875,0.14321288466453552,-0.1989886611700058,0.04062093421816826
1634125890279773200,15.790773193359374,0.19308802485466003,-0.25006183981895447,0.03176058083772659
1634125890299652000,15.810652099609374,0.2143707573413849,-0.28612709045410156,0.04887883737683296
1634125890319532000,15.830531982421874,0.21343877911567688,-0.3127571642398834,0.062196411192417145
1634125890339411200,15.8504111328125,0.18861471116542816,-0.30491188168525696,0.06900783628225327
1634125890359290000,15.8702900390625,0.14626991748809814,-0.26490283012390137,0.06576196104288101
1634125890379169300,15.890169189453125,0.09284401684999466,-0.19122090935707092,0.06498155742883682
1634125890399048200,15.910048095703125,0.04468545317649841,-0.1313885599374771,0.06759782135486603
1634125890418927000,15.929927001953125,0.005965578369796276,-0.09424269944429398,0.046092282980680466
1634125890438806300,15.94980615234375,-0.04052383825182915,-0.07755309343338013,0.01581030711531639
1634125890458686200,15.969686279296875,-0.08217466622591019,-0.03369839861989021,0.000521275622304529
1634125890478565000,15.989565185546875,-0.0987057015299797,0.01352783478796482,0.009996817447245121
1634125890498444300,16.0094443359375,-0.1006321907043457,0.04569095000624657,0.029334209859371185
1634125890518323200,16.0293232421875,-0.09049362689256668,0.04619685932993889,0.038495730608701706
1634125890538202400,16.049202392578124,-0.0738479346036911,0.01384071446955204,0.022985856980085373
1634125890558081000,16.0690810546875,-0.05438936874270439,-0.0036242534406483173,-0.01790059357881546
1634125890577960200,16.088960205078124,-0.04304084926843643,0.020545806735754013,-0.050932783633470535
1634125890597840400,16.10884033203125,-0.014359395951032639,0.022224387153983116,-0.09238867461681366
1634125890617719300,16.12871923828125,0.013049192726612091,0.00866217352449894,-0.15294139087200165
1634125890637598200,16.14859814453125,0.045358262956142426,-0.01099774707108736,-0.2032904326915741
1634125890657477000,16.16847705078125,0.059281133115291595,-0.016232788562774658,-0.23172912001609802
1634125890677356300,16.188356201171874,0.051951535046100616,0.000014649704098701477,-0.22699464857578278
1634125890697235200,16.208235107421874,0.03701585531234741,0.024874666705727577,-0.21314792335033417
1634125890717114000,16.228114013671874,0.023334631696343422,0.035592567175626755,-0.1924809366464615
1634125890736994300,16.247994384765626,0.01563160866498947,0.058722179383039474,-0.16190244257450104
1634125890756873200,16.267873291015626,0.01573716290295124,0.06708657741546631,-0.1400347501039505
1634125890776752000,16.287752197265625,0.013305741362273693,0.04906787723302841,-0.14865632355213165
1634125890796631000,16.307631103515625,0.008141874335706234,0.017750434577465057,-0.1688535064458847
1634125890816510200,16.32751025390625,0.02711303159594536,0.010173141956329346,-0.17191091179847717
1634125890836389400,16.347389404296877,0.050694260746240616,0.006201302632689476,-0.15493488311767578
1634125890856268300,16.367268310546876,0.06260697543621063,-0.01006308477371931,-0.1342768371105194
1634125890876148200,16.387148193359376,0.07012619078159332,-0.024926479905843735,-0.11877475678920746
1634125890896027100,16.407027099609376,0.07249458879232407,-0.04137284681200981,-0.09216345846652985
1634125890915906300,16.42690625,0.0686052218079567,-0.05144967511296272,-0.0627528727054596
1634125890935785200,16.44678515625,0.05431731045246124,-0.04429520666599274,-0.053785331547260284
1634125890955664100,16.4666640625,0.04736175760626793,-0.027912680059671402,-0.04910217598080635
1634125890975543300,16.486543212890624,0.0299737136811018,0.004278277046978474,-0.03965810313820839
1634125890995422200,16.506422119140623,0.017861871048808098,0.002894265577197075,-0.0060852752067148685
1634125891015302100,16.52630224609375,-0.004544232040643692,0.008609870448708534,0.029694939032197
1634125891035181300,16.546181396484375,-0.02282785065472126,0.03295699506998062,0.0614606998860836
1634125891055060200,16.566060302734375,-0.03611258417367935,0.0615876168012619,0.0775190144777298
1634125891074939100,16.585939208984374,-0.048075202852487564,0.050025492906570435,0.06455947458744049
1634125891094818000,16.605818115234374,-0.06219518929719925,0.020144641399383545,0.04111429676413536
1634125891114697200,16.625697265625,-0.08310219645500183,0.026497945189476013,0.05044134333729744
1634125891134576400,16.645576416015626,-0.09000502526760101,0.05154413357377052,0.09075122326612473
1634125891154456000,16.6654560546875,-0.0859563946723938,0.07470839470624924,0.12676696479320526
1634125891174335200,16.685335205078125,-0.10003466159105301,0.07693040370941162,0.13942818343639374
1634125891194214100,16.705214111328125,-0.09500164538621902,0.0774761289358139,0.15820346772670746
1634125891214093300,16.72509326171875,-0.07574521750211716,0.05290358513593674,0.16963911056518555
1634125891233972200,16.74497216796875,-0.0590207464993,0.03429896757006645,0.17735564708709717
1634125891253851100,16.76485107421875,-0.04142900928854942,0.008194947615265846,0.17648328840732574
1634125891273731300,16.7847314453125,-0.02831795997917652,-0.000621335580945015,0.17047588527202606
1634125891293610000,16.80460986328125,-0.019441910088062286,-0.022111181169748306,0.16640710830688477
1634125891313489200,16.8244892578125,-0.004064198583364487,-0.03291313722729683,0.15822695195674896
1634125891333368300,16.844368408203124,0.005369075573980808,-0.039253637194633484,0.15510544180870056
1634125891353247200,16.864247314453124,0.007956777699291706,-0.029214804992079735,0.1561904400587082
1634125891373126100,16.884126220703124,0.013026065193116665,-0.02575361169874668,0.13473103940486908
1634125891393005000,16.904005126953123,0.01370627898722887,-0.0383562408387661,0.11006473749876022
1634125891412885200,16.92388525390625,0.028477899730205536,-0.05116105079650879,0.08897823840379715
1634125891432764400,16.943764404296875,0.03584239259362221,-0.046004798263311386,0.07876797020435333
1634125891452643000,16.96364306640625,0.05026504397392273,-0.027355369180440903,0.07773647457361221
1634125891472522200,16.983522216796874,0.05066154897212982,-0.02270280383527279,0.064956896007061
1634125891492401200,17.003401123046874,0.038563694804906845,-0.03494713082909584,0.03672285005450249
1634125891512280300,17.0232802734375,0.023201245814561844,-0.018260162323713303,0.005511149764060974
1634125891532159000,17.043158935546874,0.02264939621090889,0.018550071865320206,-0.0017463660333305597
1634125891552039200,17.0630390625,0.02574416808784008,0.0544174388051033,-0.014927967451512814
1634125891571918300,17.08291845703125,0.013812321238219738,0.059499453753232956,-0.05534784868359566
1634125891591797000,17.102796875,0.007784384768456221,0.04214290529489517,-0.10355939716100693
1634125891611676200,17.12267626953125,0.010478131473064423,0.04522952809929848,-0.12740923464298248
1634125891631555300,17.142555419921877,0.00958210974931717,0.07149968296289444,-0.1268535554409027
1634125891651434200,17.162434326171876,0.00787271372973919,0.09302051365375519,-0.11723074316978455
1634125891671313400,17.1823134765625,0.00831275898963213,0.06943817436695099,-0.12546738982200623
1634125891691193000,17.202193115234376,-0.0023734867572784424,0.04164664447307587,-0.15190871059894562
1634125891711072300,17.222072265625,-0.005707497708499432,0.06128372997045517,-0.15728163719177246
1634125891730951400,17.241951416015624,-0.015846017748117447,0.10620879381895065,-0.15007342398166656
1634125891750830000,17.261830078125,-0.03368644788861275,0.10923130810260773,-0.15313440561294556
1634125891770709200,17.281709228515624,-0.05277470499277115,0.06958166509866714,-0.14719060063362122
1634125891790588200,17.301588134765623,-0.05699523538351059,0.07073718309402466,-0.11235794425010681
1634125891810467300,17.32146728515625,-0.0391216017305851,0.10053177922964096,-0.08305470645427704
1634125891830347300,17.34134716796875,-0.02872569113969803,0.10237190127372742,-0.09929805248975754
1634125891850226200,17.36122607421875,-0.0237317755818367,0.059758275747299194,-0.1292119026184082
1634125891870105300,17.381105224609374,-0.012142402119934559,0.013187128119170666,-0.12249493598937988
1634125891889984300,17.400984375,-0.007765237707644701,0.010115844197571278,-0.09292951226234436
1634125891909863200,17.42086328125,-0.010685702785849571,0.016598928719758987,-0.06569644063711166
1634125891929742000,17.4407421875,-0.020486798137426376,0.024055179208517075,-0.035051602870225906
1634125891949621200,17.460621337890625,-0.035903967916965485,0.01587960682809353,-0.002466132864356041
1634125891969501400,17.48050146484375,-0.03950882703065872,0.011579535901546478,0.007742607034742832
1634125891989380600,17.500380615234373,-0.044883884489536285,0.008298387750983238,0.002451424254104495
1634125892009259500,17.520259521484373,-0.036616984754800797,-0.0016649868339300156,0.01303562056273222
1634125892029138700,17.540138671875,-0.01711403951048851,-0.0049906522035598755,0.043415118008852005
1634125892049017600,17.560017578125,-0.0014131520874798298,-0.026977818459272385,0.05315417796373367
1634125892068896500,17.579896484375,-0.009277290664613247,-0.054820988327264786,0.031460873782634735
1634125892088775700,17.599775634765624,-0.007192699238657951,-0.07310286164283752,0.022106366232037544
1634125892108655600,17.619655517578124,0.00813290849328041,-0.07095710933208466,0.04051543399691582
1634125892128534500,17.639534423828124,0.01581772416830063,-0.05932135879993439,0.06439681351184845
1634125892148413700,17.65941357421875,0.014072328805923462,-0.08071308583021164,0.0631631463766098
1634125892168292600,17.679292724609375,0.008799626491963863,-0.10143452137708664,0.043974798172712326
1634125892188171500,17.699171630859375,0.010150427930057049,-0.11135855317115784,0.0475240983068943
1634125892208050400,17.719050537109375,0.00876864604651928,-0.1005333960056305,0.06277962774038315
1634125892227929600,17.7389296875,-0.0028900504112243652,-0.09761928021907806,0.06283394247293472
1634125892247809500,17.7588095703125,-0.010224977508187294,-0.10481444746255875,0.05951155722141266
1634125892267688400,17.7786884765625,-0.011602448299527168,-0.10979944467544556,0.04869268462061882
1634125892287567600,17.798567626953126,-0.010835504159331322,-0.09821174293756485,0.04871601611375809
1634125892307446500,17.818446533203126,-0.01200378593057394,-0.0838456079363823,0.035966236144304276
1634125892327325700,17.83832568359375,-0.02066962607204914,-0.07982521504163742,0.016447149217128754
1634125892347204600,17.85820458984375,-0.027086421847343445,-0.08896442502737045,-0.005377214401960373
1634125892367083500,17.87808349609375,-0.037982258945703506,-0.07571663707494736,-0.010081512853503227
1634125892386963700,17.897963623046873,-0.048975296318531036,-0.04221498593688011,-0.019339609891176224
1634125892406842400,17.91784228515625,-0.04827418178319931,-0.020357174798846245,-0.04454079642891884
1634125892426721500,17.937721435546877,-0.0564279742538929,-0.021804610267281532,-0.08219929039478302
1634125892446600700,17.9576005859375,-0.06783714145421982,-0.006388545501977205,-0.0861940085887909
1634125892466479600,17.977479736328124,-0.059834074229002,0.020714977756142616,-0.06102686747908592
1634125892486358500,17.997358642578124,-0.04624085873365402,0.021107710897922516,-0.035922806710004807
1634125892506237400,18.017237548828124,-0.0482192263007164,0.027777016162872314,-0.05536284297704697
1634125892526117600,18.03711767578125,-0.04578128084540367,0.03438173979520798,-0.09105083346366882
1634125892545996500,18.05699658203125,-0.032403066754341125,0.03366277739405632,-0.11785633862018585
1634125892565875500,18.07687548828125,-0.023859914392232895,0.0385170541703701,-0.10777921229600906
1634125892585754600,18.096754638671875,-0.015378547832369804,0.04438972845673561,-0.09887062758207321
1634125892605633500,18.116633544921875,-0.016906756907701492,0.0576481856405735,-0.08859191089868546
1634125892625512700,18.1365126953125,-0.012564335949718952,0.07459154725074768,-0.08080419898033142
1634125892645391400,18.156391357421874,-0.014539346098899841,0.07600037008523941,-0.07618752866983414
1634125892665271600,18.176271484375,-0.013846606016159058,0.07177110016345978,-0.04686179757118225
1634125892685150700,18.196150634765626,0.003488748800009489,0.062247224152088165,-0.016632340848445892
1634125892705029400,18.216029296875,0.030754638835787773,0.05977332219481468,0.0010081513319164515
1634125892724908500,18.235908447265626,0.048977144062519073,0.038035087287425995,-0.002610828261822462
1634125892744787700,18.25578759765625,0.05657358095049858,0.013455692678689957,-0.02266293577849865
1634125892764666600,18.27566650390625,0.0592203214764595,0.0032797064632177353,-0.02501240000128746
1634125892784545500,18.295545654296873,0.0704292580485344,0.009193413890898228,-0.00590300839394331
1634125892804425500,18.315425537109373,0.08698888123035431,0.014988403767347336,0.0333988331258297
1634125892824304600,18.3353046875,0.08583582192659378,0.008002490736544132,0.0450935922563076
1634125892844183800,18.355183837890625,0.07508983463048935,-0.009097731672227383,0.03368155658245087
1634125892864062500,18.3750625,0.06413234770298004,-0.015291759744286537,0.038718901574611664
1634125892883941600,18.394941650390624,0.06101218983530998,-0.0034625306725502014,0.059182897210121155
1634125892903820500,18.414820556640624,0.07378364354372025,0.0005950620397925377,0.0898052528500557
1634125892923699700,18.43469970703125,0.0907525047659874,0.0008415393531322479,0.09921741485595703
1634125892943579600,18.45457958984375,0.10898846387863159,-0.02148691564798355,0.08543698489665985
1634125892963457500,18.47445751953125,0.11649560183286667,-0.048755668103694916,0.05737058073282242
1634125892983336700,18.494336669921875,0.1307767927646637,-0.0607241727411747,0.04309769347310066
1634125893003215600,18.514215576171875,0.12356646358966827,-0.05295448750257492,0.041397273540496826
1634125893023094500,18.534094482421875,0.09123919904232025,-0.03923577442765236,0.045811835676431656
1634125893042973400,18.553973388671874,0.04835320636630058,-0.022330937907099724,0.04931693896651268
1634125893062852600,18.5738525390625,0.0040720305405557156,-0.00527166249230504,0.04488542303442955
1634125893082732800,18.59373291015625,-0.0422450490295887,0.023947305977344513,0.05754827335476875
1634125893102611500,18.613611572265626,-0.08256295323371887,0.06061665713787079,0.07204665243625641
1634125893122490600,18.63349072265625,-0.100389264523983,0.06896988302469254,0.06659430265426636
1634125893142369500,18.65336962890625,-0.10373290628194809,0.05632481351494789,0.058482758700847626
1634125893162248700,18.673248779296873,-0.10462599992752075,0.05297822132706642,0.05490361154079437
1634125893182127600,18.693127685546877,-0.0963520035147667,0.05743404105305672,0.053870029747486115
1634125893202006500,18.713006591796876,-0.08257720619440079,0.048517316579818726,0.05853763967752457
1634125893221886700,18.73288671875,-0.08318173885345459,0.027760237455368042,0.05814984068274498
1634125893241765600,18.752765625,-0.09046979248523712,0.005701563321053982,0.06179427355527878
1634125893261644500,18.77264453125,-0.09023743122816086,0.006219080649316311,0.08119365572929382
1634125893281523700,18.792523681640624,-0.07706889510154724,0.02954903617501259,0.10728783160448074
1634125893301402600,18.812402587890624,-0.06306000798940659,0.03656826168298721,0.1257079839706421
1634125893321281800,18.83228173828125,-0.04370477423071861,0.006934254430234432,0.11550890654325485
1634125893341160400,18.852160400390623,-0.014954039826989174,-0.033385228365659714,0.08160647004842758
1634125893361040600,18.87204052734375,0.004047659691423178,-0.0667465329170227,0.04447174072265625
1634125893380919800,18.891919921875,0.023167558014392853,-0.07171746343374252,0.020554672926664352
1634125893400798500,18.911798583984375,0.038693077862262726,-0.0418219268321991,0.021069733425974846
1634125893420677600,18.931677734375,0.04226020351052284,-0.018533555790781975,0.018113644793629646
1634125893440556500,18.951556640625,0.022126616910099983,-0.022747166454792023,-0.001524509978480637
1634125893460435700,18.971435791015626,0.009025814943015575,-0.0406925193965435,-0.0298520028591156
1634125893480314600,18.991314697265626,0.004484241362661123,-0.016169026494026184,-0.03515252470970154
1634125893500194600,19.011194580078126,0.002456996124237776,0.025532640516757965,-0.021908465772867203
1634125893520073700,19.03107373046875,-0.0028192573226988316,0.024174291640520096,-0.02361077256500721
1634125893539952600,19.05095263671875,-0.016633030027151108,-0.01211502868682146,-0.04201521351933479
1634125893559831600,19.07083154296875,-0.03825407847762108,-0.03673440217971802,-0.07711676508188248
1634125893579710700,19.090710693359377,-0.06119609996676445,0.0073430221527814865,-0.07701703161001205
1634125893599589600,19.110589599609376,-0.07513805478811264,0.0592937245965004,-0.019296089187264442
1634125893619468800,19.13046875,-0.10138612985610962,0.08446137607097626,0.02949954941868782
1634125893639348500,19.150348388671876,-0.11576765030622482,0.05810469388961792,0.02346830628812313
1634125893659227600,19.1702275390625,-0.11633716523647308,0.032654669135808945,-0.019239040091633797
1634125893679106800,19.19010693359375,-0.09589096903800964,0.045467108488082886,-0.025756487622857094
1634125893698985500,19.2099853515625,-0.07185859978199005,0.08188557624816895,-0.007755914703011513
1634125893718864600,19.22986474609375,-0.048039816319942474,0.09065376222133636,-0.031665537506341934
1634125893738743600,19.24974365234375,-0.04569153115153313,0.07584143429994583,-0.08001735061407089
1634125893758622700,19.269622802734375,-0.038283415138721466,0.0604703351855278,-0.10589289665222168
1634125893778502700,19.289502685546875,-0.03074498102068901,0.07668015360832214,-0.09782432019710541
1634125893798381600,19.309381591796875,-0.026719797402620316,0.09864719957113266,-0.08329727500677109
1634125893818260700,19.3292607421875,-0.025379247963428497,0.09403956681489944,-0.08334629982709885
1634125893838139600,19.3491396484375,-0.020222259685397148,0.05173509940505028,-0.0860694944858551
1634125893858018600,19.3690185546875,-0.016708040609955788,-0.001680675894021988,-0.10764776170253754
1634125893877897700,19.388897705078126,0.0036280350759625435,-0.04942471534013748,-0.07894128561019897
1634125893897776600,19.408776611328125,0.02803635410964489,-0.04432126134634018,-0.007485513109713793
1634125893917656600,19.428656494140625,0.05353593826293945,-0.010067990981042385,0.06772725284099579
1634125893937535500,19.448535400390625,0.03946983069181442,-0.026745188981294632,0.07740972936153412
1634125893957414700,19.46841455078125,0.017715664580464363,-0.05516651272773743,0.0723128467798233
1634125893977297400,19.48829736328125,0.01381449494510889,-0.05832267180085182,0.09049712121486664
1634125893997176000,19.508176025390625,0.012583493255078793,-0.02854715846478939,0.11453986912965775
1634125894017055200,19.52805517578125,0.01100264023989439,-0.011133943684399128,0.120709627866745
1634125894036934100,19.54793408203125,0.013633353635668755,-0.027312535792589188,0.10892529040575027
1634125894056814000,19.56781396484375,0.016299664974212646,-0.039696745574474335,0.09173258394002914
1634125894076693200,19.587693359375,0.026302145794034004,-0.03833596035838127,0.08289114385843277
1634125894096572200,19.607572265625,0.026722967624664307,-0.019348308444023132,0.07260563224554062
1634125894116451300,19.627451416015624,0.019378501921892166,-0.013545280322432518,0.06609126925468445
1634125894136330200,19.647330322265624,0.014023994095623493,-0.027671772986650467,0.06061701104044914
1634125894156209200,19.667209228515624,0.016304371878504753,-0.034589022397994995,0.07365264743566513
1634125894176088000,19.687088134765624,0.031313326209783554,-0.027073673903942108,0.0808575451374054
1634125894195967200,19.70696728515625,0.04299820959568024,-0.016481079161167145,0.06046976149082184
1634125894215847200,19.72684716796875,0.05800508335232735,0.0002413252368569374,0.03958373889327049
1634125894235726000,19.74672607421875,0.06215943396091461,0.006743256002664566,0.008254301734268665
1634125894255605200,19.766605224609375,0.07067764550447464,-0.001763458363711834,-0.035513944923877716
1634125894275484400,19.786484375,0.09438226372003555,-0.013775289058685303,-0.06173354759812355
1634125894295363000,19.806363037109374,0.08363854140043259,0.0017501385882496834,-0.07326612621545792
1634125894315242200,19.8262421875,0.0755835473537445,0.028104249387979507,-0.07318061590194702
1634125894335121200,19.84612109375,0.06730012595653534,0.04977555200457573,-0.0611281618475914
1634125894355001000,19.8660009765625,0.04702761024236679,0.05790872499346733,-0.05688543617725372
1634125894374880300,19.88588037109375,0.01588664948940277,0.07468387484550476,-0.06570827215909958
1634125894394759200,19.90575927734375,0.013601213693618774,0.09935109317302704,-0.075709767639637
1634125894414638300,19.925638427734373,0.031594593077898026,0.10363040119409561,-0.08847375214099884
1634125894434517200,19.945517333984377,0.05467914417386055,0.06976337730884552,-0.10583706945180893
1634125894454396200,19.965396240234377,0.06980443745851517,0.04140836000442505,-0.11572287976741791
1634125894474275000,19.985275146484376,0.08886703103780746,0.028164083138108253,-0.1212993934750557
1634125894494155300,20.0051552734375,0.09404798597097397,0.02538851834833622,-0.12873823940753937
1634125894514034200,20.0250341796875,0.09285391867160797,0.015618665143847466,-0.14817720651626587
1634125894533913000,20.0449130859375,0.07822263985872269,-0.006306271534413099,-0.15832236409187317
1634125894553792300,20.064792236328124,0.06826623529195786,-0.027223587036132812,-0.15454921126365662
1634125894573671200,20.084671142578124,0.05151459947228432,-0.0485079251229763,-0.14775735139846802
1634125894593550000,20.104550048828123,0.029603175818920135,-0.06771757453680038,-0.12419719249010086
1634125894613429200,20.12442919921875,0.0049455417320132256,-0.06553605943918228,-0.08556146919727325
1634125894633309200,20.14430908203125,-0.00669376365840435,-0.043397750705480576,-0.05571126937866211
1634125894653188400,20.164188232421875,-0.0021943459287285805,-0.02805422618985176,-0.02094642072916031
1634125894673067000,20.18406689453125,-0.0217336006462574,-0.005553089547902346,-0.004105931613594294
1634125894692946200,20.2039462890625,-0.034469909965991974,-0.00543563487008214,0.007111360784620047
1634125894712825300,20.223825439453126,-0.04601356387138367,-0.009301118552684784,0.008046414703130722
1634125894732704300,20.243704345703126,-0.045349761843681335,-0.008682946674525738,0.015644215047359467
1634125894752583200,20.263583251953126,-0.045079849660396576,0.009282270446419716,0.022622089833021164
1634125894772463400,20.28346337890625,-0.04858505725860596,0.0059793973341584206,0.034752923995256424
1634125894792342300,20.30334228515625,-0.03860437124967575,-0.006097882054746151,0.06096762791275978
1634125894812221200,20.32322119140625,-0.01571459323167801,-0.008493752218782902,0.08458825200796127
1634125894832100000,20.34310009765625,0.008581339381635189,-0.013349851593375206,0.0842159241437912
1634125894851979300,20.362979248046877,0.012190761044621468,-0.023394379764795303,0.05823829770088196
1634125894871858200,20.382858154296876,0.01481690350919962,-0.046898502856492996,0.03204212710261345
1634125894891737300,20.4027373046875,0.017751753330230713,-0.05260035768151283,0.02069956436753273
1634125894911617300,20.4226171875,0.02017216943204403,-0.033896513283252716,0.01946183852851391
1634125894931496200,20.44249609375,0.020114600658416748,0.013871828094124794,0.0395888052880764
1634125894951375400,20.462375244140624,0.015311144292354584,0.050986532121896744,0.03957391530275345
1634125894971251000,20.4822509765625,0.021206004545092583,0.04522880166769028,0.023266740143299103
1634125894991130000,20.502130126953126,0.010991806164383888,0.020218078047037125,-0.00040504292701371014
1634125895011009000,20.522009033203126,0.020146599039435387,0.0187188982963562,0.004562028218060732
1634125895030888200,20.54188818359375,0.03516967222094536,0.026202287524938583,0.022800933569669724
1634125895050768100,20.56176806640625,0.03334900364279747,0.007315614260733128,0.024699879810214043
1634125895070647000,20.58164697265625,0.03542577847838402,-0.022935651242733,0.021098103374242783
1634125895090526200,20.601526123046874,0.04007925093173981,-0.028783615678548813,0.024269551038742065
1634125895110404900,20.62140478515625,0.05272211879491806,-0.037454359233379364,0.039037711918354034
1634125895130284000,20.641283935546873,0.05191003531217575,-0.05144137516617775,0.039544492959976196
1634125895150163200,20.6611630859375,0.04099298268556595,-0.07575859129428864,0.015659255906939507
1634125895170042000,20.6810419921875,0.03930511325597763,-0.09440352767705917,-0.0009307558066211641
1634125895189922000,20.700922119140625,0.02901487983763218,-0.1007828339934349,0.015557033941149712
1634125895209801200,20.72080126953125,0.013281858526170254,-0.1126326471567154,0.054008398205041885
1634125895229680000,20.74068017578125,0.0040609766729176044,-0.11989670991897583,0.061005957424640656
1634125895249559000,20.76055908203125,-0.018988287076354027,-0.09983304888010025,0.04448733851313591
1634125895269438000,20.78043798828125,-0.046006545424461365,-0.06953881680965424,0.03548466041684151
1634125895289317000,20.800317138671875,-0.06406575441360474,-0.05486397445201874,0.03822118788957596
1634125895309196000,20.820196044921875,-0.06702025979757309,-0.04787184298038483,0.04495951905846596
1634125895329076000,20.840075927734375,-0.0632387027144432,-0.031959399580955505,0.039712656289339066
1634125895348955100,20.859955078125,-0.06090511009097099,-0.0021673450246453285,0.030631698668003082
1634125895368834000,20.879833984375,-0.07278378307819366,0.00780255813151598,0.0036437755916267633
1634125895388713200,20.899713134765626,-0.0759245827794075,-0.0008350778371095657,-0.01590479537844658
1634125895408592000,20.919591796875,-0.08040720969438553,0.022909000515937805,0.005704640876501799
1634125895428471000,20.939470947265626,-0.07561619579792023,0.08624310046434402,0.05608873441815376
1634125895448350200,20.95935009765625,-0.07868770509958267,0.14632511138916016,0.0691952109336853
1634125895468230000,20.97922998046875,-0.06739053130149841,0.161317378282547,0.052760738879442215
1634125895488109000,20.999109130859374,-0.025972465053200722,0.13680773973464966,0.019128525629639626
1634125895507988000,21.018988037109374,0.032462745904922485,0.09485982358455658,-0.02022964507341385
1634125895527867100,21.0388671875,0.09388669580221176,0.05832058936357498,-0.06563922017812729
1634125895547746300,21.058746337890625,0.16348937153816223,0.008521785028278828,-0.11704804003238678
1634125895567625000,21.078625,0.22263453900814056,-0.025160718709230423,-0.16394655406475067
1634125895587504000,21.098504150390625,0.25422975420951843,-0.04991999641060829,-0.2053302377462387
1634125895607383000,21.118383056640624,0.26065513491630554,-0.047498900443315506,-0.20423689484596252
1634125895627263000,21.138262939453124,0.2699699103832245,-0.049639083445072174,-0.18371950089931488
1634125895647142100,21.15814208984375,0.2687281668186188,-0.05544228479266167,-0.178000345826149
1634125895667021000,21.17802099609375,0.2640664577484131,-0.06693749129772186,-0.19068408012390137
1634125895686900200,21.197900146484375,0.265813410282135,-0.060751184821128845,-0.20191779732704163
1634125895706779000,21.21777880859375,0.2555280327796936,-0.05983813852071762,-0.2012614607810974
1634125895726658000,21.237657958984375,0.2400090992450714,-0.0694829598069191,-0.20748849213123322
1634125895746537000,21.257536865234375,0.21732909977436066,-0.08058128505945206,-0.2128286510705948
1634125895766417200,21.277417236328127,0.19469746947288513,-0.09038606286048889,-0.2073182910680771
1634125895786296000,21.297296142578126,0.1686219573020935,-0.06952394545078278,-0.190242201089859
1634125895806175000,21.317175048828126,0.13558140397071838,-0.03679167851805687,-0.17246389389038086
1634125895826054100,21.33705419921875,0.10119999945163727,-0.033664196729660034,-0.1503055989742279
1634125895845933000,21.35693310546875,0.06869371980428696,-0.029571447521448135,-0.12915927171707153
1634125895865812000,21.37681201171875,0.039295393973588943,-0.020008457824587822,-0.11316687613725662
1634125895885691100,21.396691162109374,0.028004923835396767,-0.021822739392518997,-0.10470736026763916
1634125895905571000,21.416571044921874,0.038676079362630844,-0.025590913370251656,-0.10554614663124084
1634125895925450000,21.436449951171873,0.053128208965063095,-0.03212442249059677,-0.11053089052438736
1634125895945329200,21.4563291015625,0.06756024062633514,-0.030388887971639633,-0.12491650879383087
1634125895965208000,21.4762080078125,0.08430064469575882,-0.0475509837269783,-0.1469859778881073
1634125895985087000,21.4960869140625,0.10628277063369751,-0.058361347764730453,-0.17842042446136475
1634125896004966100,21.515966064453124,0.12755410373210907,-0.053010065108537674,-0.19405603408813477
1634125896024844800,21.5358447265625,0.1497614085674286,-0.054188646376132965,-0.18875019252300262
1634125896044725000,21.55572509765625,0.17120429873466492,-0.05010584369301796,-0.17656545341014862
1634125896064604200,21.575604248046876,0.1758575439453125,-0.061045531183481216,-0.19597375392913818
1634125896084482800,21.59548291015625,0.17768126726150513,-0.06241665780544281,-0.21304699778556824
1634125896104362000,21.615362060546875,0.17244914174079895,-0.045585837215185165,-0.21721886098384857
1634125896124241200,21.6352412109375,0.18128257989883423,-0.026202019304037094,-0.1959892064332962
1634125896144120000,21.6551201171875,0.1940179467201233,-0.01652308739721775,-0.17471197247505188
1634125896163999000,21.6749990234375,0.21547460556030273,-0.052548520267009735,-0.1789184957742691
1634125896183879000,21.69487890625,0.2274571806192398,-0.09481299668550491,-0.19524511694908142
1634125896203758000,21.714758056640626,0.25016552209854126,-0.10891421139240265,-0.1890881508588791
1634125896223637000,21.734636962890626,0.28859081864356995,-0.12027893960475922,-0.18016231060028076
1634125896243516000,21.754515869140626,0.332571804523468,-0.16971449553966522,-0.19749851524829865
1634125896263395000,21.77439501953125,0.3659331798553467,-0.24512678384780884,-0.2524861693382263
1634125896283274000,21.79427392578125,0.39728066325187683,-0.3031237721443176,-0.2793003022670746
1634125896303153200,21.814153076171873,0.4329310655593872,-0.34273001551628113,-0.2657637298107147
1634125896323033000,21.834033203125,0.45380640029907227,-0.37300825119018555,-0.2622815668582916
1634125896342912000,21.853912109375,0.4400749206542969,-0.40495023131370544,-0.2916486859321594
1634125896362791200,21.873791259765625,0.4331989586353302,-0.43717238306999207,-0.31626102328300476
1634125896382669800,21.893669921875,0.43544474244117737,-0.43515923619270325,-0.34245049953460693
1634125896402549000,21.913549072265624,0.40839168429374695,-0.43018972873687744,-0.3785535395145416
1634125896422428000,21.933427978515624,0.38955941796302795,-0.4203889071941376,-0.40615400671958923
1634125896442307000,21.95330712890625,0.3643283545970917,-0.3981693387031555,-0.4259306490421295
1634125896462187000,21.97318701171875,0.29693272709846497,-0.35278335213661194,-0.4508611857891083
1634125896482066000,21.99306591796875,0.1801661103963852,-0.26980558037757874,-0.42877745628356934
1634125896501945000,22.012945068359375,0.0605163499712944,-0.13755935430526733,-0.3544410169124603
1634125896521824000,22.032823974609375,-0.04980612173676491,-0.0005621211603283882,-0.2556586265563965
1634125896541703000,22.052702880859375,-0.15265370905399323,0.15354783833026886,-0.13854330778121948
1634125896561582000,22.07258203125,-0.24930468201637268,0.2889774441719055,-0.03537046164274216
1634125896581461000,22.0924609375,-0.31235677003860474,0.3874063789844513,0.050385382026433945
1634125896601340200,22.112340087890626,-0.3223305940628052,0.46672770380973816,0.10145393759012222
1634125896621220000,22.13222021484375,-0.28561535477638245,0.4995356798171997,0.08818767219781876
1634125896641099000,22.15209912109375,-0.1977216750383377,0.44803386926651,-0.010669499635696411
1634125896660978200,22.171978271484374,-0.08460723608732224,0.3258526027202606,-0.1211453452706337
1634125896680856800,22.19185693359375,0.01919829659163952,0.20564068853855133,-0.18394601345062256
1634125896700736000,22.211736083984373,0.1253463476896286,0.07452712953090668,-0.19193768501281738
1634125896720615000,22.231614990234377,0.2559207081794739,-0.05358816310763359,-0.1594880223274231
1634125896740494000,22.251494140625,0.3551271855831146,-0.16514956951141357,-0.11072420328855515
1634125896760374000,22.2713740234375,0.38226786255836487,-0.21901462972164154,-0.04534886032342911
1634125896780253000,22.2912529296875,0.3842388987541199,-0.1992942988872528,0.021504249423742294
1634125896800132000,22.311132080078124,0.3951994776725769,-0.17594760656356812,0.05291915684938431
1634125896820011000,22.331010986328124,0.4361635148525238,-0.19391360878944397,0.05072684586048126
1634125896839890000,22.350889892578124,0.4863835871219635,-0.25900089740753174,0.012210733257234097
1634125896859769000,22.37076904296875,0.5432879328727722,-0.3478955328464508,-0.044350821524858475
1634125896879648000,22.39064794921875,0.6038990020751953,-0.4662487208843231,-0.08514862507581711
1634125896899528000,22.41052783203125,0.6563400626182556,-0.5766534209251404,-0.08602316677570343
1634125896919406800,22.43040673828125,0.6871913075447083,-0.6678218841552734,-0.044994376599788666
1634125896939286000,22.4502861328125,0.6862782835960388,-0.7227924466133118,-0.009005445055663586
1634125896959165200,22.470165283203126,0.6446178555488586,-0.7161056995391846,0.0030976724810898304
1634125896979043600,22.490043701171874,0.5805857181549072,-0.6627696752548218,-0.005140797235071659
1634125896998922200,22.509922119140626,0.47728538513183594,-0.5721845626831055,-0.03137892857193947
1634125897018801400,22.529801513671874,0.35339900851249695,-0.4835842251777649,-0.061952438205480576
1634125897038681300,22.549681396484374,0.2729041874408722,-0.4163000285625458,-0.07771605998277664
1634125897058560300,22.569560302734374,0.27110227942466736,-0.3607029318809509,-0.11155382543802261
1634125897078439400,22.589439453125,0.26097914576530457,-0.3505135774612427,-0.21181170642375946
1634125897098318300,22.609318359375,0.18180333077907562,-0.33931177854537964,-0.30313804745674133
1634125897118197500,22.629197509765625,0.0998401865363121,-0.29334038496017456,-0.29478445649147034
1634125897138076400,22.649076416015625,0.07476670295000076,-0.20393961668014526,-0.22693324089050293
1634125897157955300,22.668955322265624,0.045750901103019714,-0.0931047797203064,-0.2291337251663208
1634125897177835500,22.68883544921875,-0.01917102001607418,0.002885623835027218,-0.3126147389411926
1634125897197714400,22.70871435546875,-0.09756432473659515,0.07450386881828308,-0.3540073037147522
1634125897217593300,22.72859326171875,-0.16845029592514038,0.1469797044992447,-0.3278266191482544
1634125897237472300,22.74847216796875,-0.23995764553546906,0.24487623572349548,-0.2782900333404541
1634125897257351400,22.768351318359375,-0.3027154505252838,0.37022361159324646,-0.23161683976650238
1634125897277230300,22.788230224609375,-0.3517065942287445,0.49536266922950745,-0.16640251874923706
1634125897297109200,22.808109130859375,-0.40858763456344604,0.5379906296730042,-0.09711267799139023
1634125897316988400,22.827988525390627,-0.4189509153366089,0.5372582077980042,-0.02336374670267105
1634125897336868400,22.847868408203126,-0.39874476194381714,0.5378482341766357,0.04088006913661957
1634125897356747300,22.867747314453126,-0.39390894770622253,0.5010649561882019,0.050067074596881866
1634125897376626200,22.887626220703126,-0.32798299193382263,0.4473446011543274,0.045602235943078995
1634125897396505300,22.90750537109375,-0.19792084395885468,0.3573852777481079,-0.006032016593962908
1634125897416384500,22.927384521484374,-0.061616092920303345,0.28048497438430786,-0.13565070927143097
1634125897436263400,22.947263427734374,0.051494449377059937,0.15789833664894104,-0.34247836470603943
1634125897456142300,22.967142333984373,0.10897452384233475,0.019690657034516335,-0.5450237989425659
1634125897476022500,22.9870224609375,0.14482426643371582,-0.0942266434431076,-0.6361523866653442
1634125897495901400,23.0069013671875,0.20537295937538147,-0.1993454247713089,-0.5593954920768738
1634125897515780400,23.0267802734375,0.2765461504459381,-0.3076859712600708,-0.4044741988182068
1634125897535659300,23.0466591796875,0.2894539535045624,-0.39271339774131775,-0.2982606887817383
1634125897555538400,23.066538330078124,0.24403828382492065,-0.3790108859539032,-0.2522710859775543
1634125897575417300,23.086417236328124,0.1921810805797577,-0.2459714263677597,-0.21391667425632477
1634125897595296300,23.106296142578124,0.14885233342647552,-0.08970995247364044,-0.21232755482196808
1634125897615176400,23.126176513671876,0.15981332957744598,0.024767514318227768,-0.27315986156463623
1634125897635055400,23.146055419921876,0.1884060949087143,0.10819210112094879,-0.3864893615245819
1634125897654934500,23.1659345703125,0.25163716077804565,0.16173698008060455,-0.4985283315181732
1634125897674813200,23.185813232421875,0.35065045952796936,0.2237551510334015,-0.5912892818450928
1634125897694692400,23.2056923828125,0.4300030767917633,0.19639915227890015,-0.6784940958023071
1634125897714571500,23.225571533203127,0.5463186502456665,0.12351954728364944,-0.7544496655464172
1634125897734450400,23.245450439453126,0.7325218915939331,-0.008401119150221348,-0.9785951972007751
1634125897754330400,23.265330322265626,0.833136260509491,-0.08947008103132248,-1.3324209451675415
1634125897774209300,23.285209228515626,0.8249459862709045,-0.2161565124988556,-1.578013300895691
1634125897794088400,23.30508837890625,0.8151372671127319,-0.5992327928543091,-1.5530855655670166
1634125897813967400,23.32496728515625,0.7698137760162354,-1.0959972143173218,-1.2380919456481934
1634125897833846300,23.34484619140625,0.6402743458747864,-1.384681224822998,-0.8300136923789978
1634125897853725400,23.364725341796873,0.4461776316165924,-1.2958314418792725,-0.42864346504211426
1634125897873604400,23.384604248046877,0.17547976970672607,-0.8957167863845825,0.014845679514110088
1634125897893484300,23.404484375,-0.2088865339756012,-0.34236156940460205,0.44572728872299194
1634125897913363500,23.424363525390625,-0.5926718711853027,0.24419361352920532,0.7957155704498291
1634125897933242400,23.444242431640625,-0.7993810772895813,0.714346706867218,1.0824443101882935
1634125897953121500,23.46412158203125,-0.82000333070755,0.9965404868125916,1.2611339092254639
1634125897973002000,23.484001953125,-0.676231324672699,1.0272399187088013,1.2509183883666992
1634125897992881200,23.503881103515624,-0.3665299117565155,0.8104126453399658,0.9686431288719177
1634125898012759800,23.523759765625,0.030316099524497986,0.3966466188430786,0.44031578302383423
1634125898032640000,23.543639892578124,0.40451666712760925,-0.12355024367570877,-0.1681363731622696
1634125898052519000,23.563518798828124,0.6566997170448303,-0.5949934720993042,-0.6045641899108887
1634125898072397800,23.583397705078124,0.7974446415901184,-0.898738443851471,-0.7664042711257935
1634125898092277000,23.603277099609375,0.7981953620910645,-1.0138795375823975,-0.7182661890983582
1634125898112156000,23.623156005859375,0.6270484924316406,-0.8586692214012146,-0.49500682950019836
1634125898132035000,23.64303515625,0.3451676070690155,-0.47664332389831543,-0.1974940448999405
1634125898151914000,23.6629140625,0.0658712089061737,-0.10274149477481842,0.07752062380313873
1634125898171793000,23.68279296875,-0.1640605628490448,0.1584348827600479,0.2559773623943329
1634125898191673000,23.702673095703126,-0.3065412640571594,0.2470114827156067,0.31300148367881775
1634125898211552000,23.722552001953126,-0.39388853311538696,0.25770068168640137,0.30351027846336365
1634125898231431000,23.742430908203126,-0.41169002652168274,0.2998332381248474,0.2445165514945984
1634125898251309800,23.762309814453126,-0.3479350209236145,0.3608747720718384,0.1338920146226883
1634125898271189000,23.78218896484375,-0.20959410071372986,0.3845001757144928,0.004016810096800327
1634125898291068000,23.80206787109375,-0.09648489952087402,0.261122465133667,-0.12245410680770874
1634125898310946800,23.82194677734375,0.05728713423013687,-0.000790799967944622,-0.14614787697792053
1634125898330827000,23.841826904296877,0.253432035446167,-0.22939157485961914,-0.17620588839054108
1634125898350706000,23.861705810546876,0.3754349648952484,-0.33951130509376526,-0.27788206934928894
1634125898370585000,23.881585205078125,0.45758292078971863,-0.3684420883655548,-0.43356648087501526
1634125898390464000,23.901464111328124,0.47162243723869324,-0.34692633152008057,-0.596081554889679
1634125898410343000,23.921343017578124,0.41230228543281555,-0.29096725583076477,-0.695290207862854
1634125898430222000,23.94122216796875,0.33847013115882874,-0.2908981442451477,-0.7317107915878296
1634125898450101000,23.96110107421875,0.2976893484592438,-0.394814670085907,-0.758545994758606
1634125898469981000,23.98098095703125,0.2602485120296478,-0.5176893472671509,-0.7674428820610046
1634125898489860000,24.000860107421875,0.242865651845932,-0.5659369826316833,-0.6849622130393982
1634125898509739000,24.020739013671875,0.21821019053459167,-0.5152104496955872,-0.5014786720275879
1634125898529618000,24.040617919921875,0.1752590835094452,-0.4340957701206207,-0.34077417850494385
1634125898549496800,24.060496826171875,0.10682175308465958,-0.36415213346481323,-0.25616201758384705
1634125898569376000,24.0803759765625,0.021592430770397186,-0.3106294274330139,-0.23756647109985352
1634125898589255000,24.1002548828125,-0.05226492881774902,-0.2256220430135727,-0.22590208053588867
1634125898609134000,24.120134033203126,-0.11446168273687363,-0.08541662991046906,-0.19548436999320984
1634125898629014000,24.140013916015626,-0.136959046125412,0.0528390146791935,-0.1403149664402008
1634125898648893000,24.159892822265626,-0.13729996979236603,0.13540129363536835,-0.12127406150102615
1634125898668772000,24.179772216796874,-0.14052683115005493,0.12453487515449524,-0.14510959386825562
1634125898688650800,24.199650634765625,-0.15716266632080078,0.06035155802965164,-0.18277937173843384
1634125898708530000,24.219530029296877,-0.1620488166809082,-0.0020341649651527405,-0.18315395712852478
1634125898728409000,24.2394091796875,-0.13429565727710724,-0.01271067839115858,-0.12230787426233292
1634125898748288000,24.2592880859375,-0.10658054053783417,0.013547882437705994,-0.028075281530618668
1634125898768168000,24.27916796875,-0.13241487741470337,0.012545640580356121,0.0423695407807827
