time,seconds_elapsed,z,y,x
1633780519154107400,0.023107421875,-0.040908243507146835,-0.03347587585449219,-0.03179731220006943
1633780519173986600,0.042986572265625,-0.025598589330911636,-0.008014736697077751,-0.08095315843820572
1633780519193865200,0.062865234375,-0.01696740835905075,-0.017381787300109863,-0.07566292583942413
1633780519213745400,0.082745361328125,-0.024029675871133804,-0.04711967706680298,-0.028949478641152382
1633780519233624600,0.10262451171875,-0.013916745781898499,-0.051649585366249084,0.04340662434697151
1633780519253503200,0.122503173828125,-0.0012200141791254282,-0.04226352274417877,0.0821811705827713
1633780519273383400,0.142383544921875,0.0031236601062119007,-0.019788026809692383,0.07030481845140457
1633780519293262600,0.1622626953125,-0.004861593712121248,-0.00761386938393116,0.028052780777215958
1633780519313141200,0.182141357421875,-0.008467743173241615,-0.0195094533264637,0.0053418539464473724
1633780519333020400,0.2020205078125,-0.015800723806023598,-0.026300564408302307,-0.008141271770000458
1633780519352900400,0.221900390625,-0.01263915840536356,-0.02254771813750267,-0.013749965466558933
1633780519372779300,0.241779296875,-0.016211245208978653,-0.019332056865096092,-0.017123503610491753
1633780519392658400,0.261658447265625,-0.02001420222222805,-0.026416640728712082,-0.011913050897419453
1633780519412538400,0.281538330078125,-0.022710340097546577,-0.040513165295124054,0.024719661101698875
1633780519432417300,0.301417236328125,-0.014280283823609352,-0.03194209188222885,0.08075805008411407
1633780519452296400,0.32129638671875,-0.009994986467063427,-0.057075135409832,0.10106630623340607
1633780519472176400,0.34117626953125,-0.026070555672049522,-0.03383435308933258,0.0884833112359047
1633780519492055300,0.36105517578125,-0.0036075483076274395,0.027249615639448166,0.07195580750703812
1633780519511934200,0.380934326171875,0.01832253858447075,0.011534892953932285,0.02074299566447735
1633780519531814400,0.400814453125,0.0070076193660497665,-0.03407108411192894,-0.006960618309676647
1633780519551693300,0.420693359375,0.02443637326359749,0.002338097430765629,0.006355208344757557
1633780519571572200,0.440572265625,0.03679432347416878,0.009149464778602123,0.02603629231452942
1633780519591452400,0.460452392578125,0.02735377475619316,0.014603856950998306,0.03247607871890068
1633780519611331600,0.48033154296875,0.01940133608877659,0.017786279320716858,0.02457462251186371
1633780519631210200,0.500210205078125,0.02184753492474556,0.01973445527255535,0.0011540940031409264
1633780519651090400,0.52009033203125,0.022902056574821472,0.005889516323804855,-0.011316102929413319
1633780519670969600,0.539969482421875,0.03215356543660164,0.014486614614725113,-0.0007773067336529493
1633780519690848300,0.55984814453125,0.015190666541457176,0.002503054216504097,0.016266008839011192
1633780519710727400,0.5797275390625,0.005799524486064911,0.008021963760256767,0.013827905990183353
1633780519730607400,0.599607421875,0.023648887872695923,0.03200187534093857,0.009993238374590874
1633780519750486300,0.619486328125,0.013646559789776802,0.03367162123322487,0.03160496801137924
1633780519770365400,0.639365478515625,-0.0021507362835109234,0.02732926607131958,0.0309384074062109
1633780519790245400,0.659245361328125,-0.010139953345060349,0.018698759377002716,0.0012452274095267057
1633780519810124300,0.679124267578125,-0.008483647368848324,0.012246407568454742,-0.014403348788619041
1633780519830003500,0.69900341796875,0.006702872924506664,0.008970060385763645,-0.012291258201003075
1633780519849883400,0.71888330078125,0.008774973452091217,0.00487504992634058,0.007704135961830616
1633780519869762300,0.73876220703125,0.00733509287238121,0.006430831737816334,0.036899782717227936
1633780519889641200,0.75864111328125,0.009335232898592949,-0.0060984124429523945,0.06824906915426254
1633780519909521400,0.778521484375,0.0027657102327793837,-0.006364952307194471,0.07978350669145584
1633780519929400300,0.798400390625,-0.006220881827175617,0.001191181130707264,0.06768978387117386
1633780519949279200,0.818279296875,-0.02412809245288372,0.010590247809886932,0.04960661754012108
1633780519969159400,0.838159423828125,-0.04065469279885292,0.014482386410236359,0.038249991834163666
1633780519989038600,0.85803857421875,-0.05229081213474274,0.007065276615321636,0.00618482381105423
1633780520008917200,0.877917236328125,-0.05794140323996544,0.008974893018603325,-0.022176358848810196
1633780520028796400,0.89779638671875,-0.05775819718837738,0.02572719007730484,-0.038702912628650665
1633780520048676600,0.917676513671875,-0.04743955656886101,0.027548562735319138,-0.034327901899814606
1633780520068555300,0.93755517578125,-0.0380425900220871,0.003836311399936676,-0.01905888319015503
1633780520088434400,0.957434326171875,-0.04534444212913513,-0.015501167625188828,-0.010881645604968071
1633780520108314400,0.977314453125,-0.05723518878221512,-0.011843315325677395,-0.019811224192380905
1633780520128193300,0.997193359375,-0.05447716265916824,0.008972231298685074,-0.031182637438178062
1633780520148072200,1.017072265625,-0.042508721351623535,0.024138759821653366,-0.02889275550842285
1633780520167952400,1.036952392578125,-0.0417947843670845,0.0185900516808033,-0.021630333736538887
1633780520187831300,1.056831298828125,-0.03805026412010193,-0.010253289714455605,-0.007761887274682522
1633780520207710200,1.076710205078125,-0.0343940369784832,-0.019433801993727684,0.008302208967506886
1633780520227590400,1.09659033203125,-0.03726603090763092,-0.025107355788350105,0.01588105410337448
1633780520247469300,1.11646923828125,-0.039194781333208084,0.00170192401856184,0.018160775303840637
1633780520267348200,1.13634814453125,-0.04494653642177582,-0.004420602694153786,0.027622263878583908
1633780520287228400,1.156228515625,-0.04699110984802246,-0.00948823057115078,0.03059982694685459
1633780520307107300,1.176107421875,-0.05681495741009712,-0.005832722410559654,0.012860815040767193
1633780520326986200,1.195986328125,-0.05125800520181656,-0.000264851376414299,-0.01835409551858902
1633780520346866400,1.215866455078125,-0.025401083752512932,0.024319641292095184,-0.027233034372329712
1633780520366745300,1.235745361328125,-0.030610641464591026,-0.0004320163279771805,-0.027945660054683685
1633780520386624300,1.255624267578125,-0.03671490028500557,-0.0032680798321962357,-0.04055076092481613
1633780520406503400,1.27550341796875,-0.029354745522141457,-0.0010396018624305725,-0.04435805603861809
1633780520426383400,1.29538330078125,-0.021516550332307816,-0.008371605537831783,-0.04362040013074875
1633780520446262300,1.31526220703125,-0.018877603113651276,-0.019784793257713318,-0.042726337909698486
1633780520466141400,1.335141357421875,-0.014363832771778107,-0.008572940714657307,-0.031862542033195496
1633780520486021400,1.355021484375,-0.014330463483929634,-0.0080695366486907,-0.01712668128311634
1633780520505900300,1.374900390625,-0.008736803196370602,-0.006938332226127386,-0.00242744293063879
1633780520525779200,1.394779296875,-0.0009481643792241812,-0.007680787704885006,0.028438029810786247
1633780520545659400,1.414659423828125,-0.0010973867028951645,0.0024714935570955276,0.05060815438628197
1633780520565538300,1.434538330078125,-0.00009335903450846672,0.0027104271575808525,0.04967577010393143
1633780520585417200,1.454417236328125,0.0041790916584432125,0.004857722669839859,0.023688891902565956
1633780520605297400,1.47429736328125,-0.0013019219040870667,-0.008890625089406967,0.0009385495213791728
1633780520625176300,1.49417626953125,-0.006704709026962519,-0.00645191827788949,-0.0071816211566329
1633780520645055200,1.51405517578125,-0.006091310176998377,0.009443488903343678,0.0018382460111752152
1633780520664935400,1.533935302734375,0.001220581354573369,0.034112125635147095,0.009708791971206665
1633780520684814300,1.553814453125,0.004808876663446426,0.043924953788518906,0.002931714290753007
1633780520704693200,1.573693359375,0.0033282069489359856,0.029602594673633575,-0.019588109105825424
1633780520724573400,1.593573486328125,-0.00036011100746691227,0.008797314949333668,-0.0312931202352047
1633780520744452400,1.613452392578125,0.0012344990391284227,-0.004326970782130957,-0.02556433714926243
1633780520764331300,1.633331298828125,0.003771538380533457,0.003760268911719322,-0.018901124596595764
1633780520784211500,1.65321142578125,0.01021779328584671,0.02206489071249962,-0.010937782935798168
1633780520804090400,1.67309033203125,0.011979704722762108,0.017436888068914413,0.009605595842003822
1633780520823969300,1.69296923828125,0.012790578417479992,0.007546695880591869,0.030836032703518867
1633780520843848200,1.71284814453125,0.006728693377226591,-0.005806232802569866,0.024225102737545967
1633780520863728400,1.732728271484375,0.0025370290968567133,0.004699228331446648,0.00248510017991066
1633780520883607300,1.752607177734375,0.006653024815022945,0.01919514685869217,-0.0032872436568140984
1633780520903486200,1.772486328125,0.002713048830628395,0.0035208752378821373,0.006014647893607616
1633780520923366400,1.792366455078125,-0.02398797497153282,-0.003624681383371353,0.0019517268519848585
1633780520943245300,1.812245361328125,-0.02884358912706375,0.007104846648871899,-0.013490955345332623
1633780520963124200,1.832124267578125,-0.009579963982105255,0.029812747612595558,-0.023088032379746437
1633780520983004400,1.85200439453125,-0.014350899495184422,0.029652714729309082,-0.012801270931959152
1633780521002883300,1.87188330078125,-0.025246551260352135,0.0036899056285619736,-0.011942325159907341
1633780521022762200,1.89176220703125,-0.027732159942388535,-0.015270004980266094,-0.013850271701812744
1633780521042642400,1.911642333984375,-0.020166652277112007,-0.006347883027046919,-0.019624006003141403
1633780521062521300,1.931521240234375,-0.018844297155737877,0.0003600604832172394,-0.02886038087308407
1633780521082400300,1.951400146484375,-0.026480000466108322,-0.02023281902074814,-0.031834084540605545
1633780521102280200,1.9712802734375,-0.0321880578994751,-0.0021191835403442383,-0.019119983538985252
1633780521122159400,1.991159423828125,-0.03961782902479172,-0.016607655212283134,-0.0005908854654990137
1633780521142038000,2.0110380859375,-0.04413294792175293,-0.03592568263411522,-0.0013461043126881123
1633780521161918200,2.030918212890625,-0.04395093023777008,-0.03261040523648262,-0.008584972470998764
1633780521181797400,2.05079736328125,-0.027358008548617363,-0.03840653598308563,-0.008307740092277527
1633780521201676000,2.070676025390625,-0.02663179114460945,-0.04401282221078873,-0.018041418865323067
1633780521221555200,2.09055517578125,-0.034771278500556946,-0.06280026584863663,-0.01739763841032982
1633780521241435400,2.110435302734375,-0.04140237346291542,-0.06310116499662399,-0.011814532801508904
1633780521261314000,2.13031396484375,-0.04252653196454048,-0.04809261113405228,-0.01155804842710495
1633780521281193200,2.150193115234375,-0.03847416862845421,-0.042082950472831726,-0.01764284074306488
1633780521301073400,2.170073486328125,-0.035707294940948486,-0.041475988924503326,-0.013373756781220436
1633780521320952000,2.1899521484375,-0.03657553344964981,-0.060897476971149445,-0.01331024058163166
1633780521340831200,2.209831298828125,-0.042588524520397186,-0.05927174910902977,-0.019254032522439957
1633780521360711400,2.22971142578125,-0.039655014872550964,-0.035876452922821045,-0.029651034623384476
1633780521380590000,2.249590087890625,-0.025884991511702538,-0.009453129023313522,-0.04590301215648651
1633780521400469200,2.26946923828125,-0.016240669414401054,-0.004372734576463699,-0.057748354971408844
1633780521420349200,2.28934912109375,-0.015534489415585995,-0.023040123283863068,-0.03659853711724281
1633780521440228000,2.30922802734375,-0.009973786771297455,-0.04185822978615761,-0.012638570740818977
1633780521460107300,2.329107177734375,-0.003410991281270981,-0.03182658553123474,-0.00886106863617897
1633780521479987200,2.3489873046875,-0.004538537468761206,-0.010463546961545944,-0.018146732822060585
1633780521499866400,2.368866455078125,-0.013547195121645927,-0.009849641472101212,-0.03152620047330856
1633780521519745000,2.3887451171875,-0.02604479342699051,-0.016740763559937477,-0.017803354188799858
1633780521539625200,2.408625244140625,-0.05119642615318298,-0.03987696021795273,-0.013941486366093159
1633780521559504400,2.42850439453125,-0.038227491080760956,-0.014859680086374283,-0.010201798751950264
1633780521579383000,2.448383056640625,-0.024263298138976097,0.01679442822933197,0.01406231801956892
1633780521599262200,2.46826220703125,-0.03221764415502548,0.012291117571294308,0.029722297564148903
1633780521619142400,2.488142333984375,-0.04441182315349579,-0.011395271867513657,0.029135338962078094
1633780521639021000,2.50802099609375,-0.05243184417486191,-0.02356318198144436,0.026339931413531303
1633780521658900200,2.527900146484375,-0.04123654589056969,-0.034413401037454605,0.01880345307290554
1633780521678780400,2.547780517578125,-0.010636866092681885,-0.035398613661527634,0.021870004013180733
1633780521698659000,2.5676591796875,0.0024514675606042147,-0.04325995594263077,0.03008428029716015
1633780521718538200,2.587538330078125,0.004611350130289793,-0.0566609725356102,0.03459276258945465
1633780521738418200,2.607418212890625,-0.0009350981563329697,-0.07123109698295593,0.02462751790881157
1633780521758297000,2.627297119140625,-0.016324952244758606,-0.05599616467952728,0.0415056049823761
1633780521778176300,2.64717626953125,-0.014304235577583313,-0.043766893446445465,0.07437998801469803
1633780521798056200,2.66705615234375,-0.015134216286242008,-0.026217807084321976,0.07908757776021957
1633780521817935000,2.68693505859375,-0.007589389570057392,-0.016003824770450592,0.05406632646918297
1633780521837814300,2.706814208984375,-0.005590666085481644,-0.009481952525675297,0.01103607751429081
1633780521857694200,2.726694091796875,0.00505318958312273,0.0008026426658034325,-0.0174163356423378
1633780521877573400,2.746573486328125,0.017353734001517296,0.017948172986507416,-0.02078481949865818
1633780521897452000,2.7664521484375,0.025634588673710823,0.008962723426520824,-0.016186833381652832
1633780521917332200,2.786332275390625,0.03675545006990433,0.000635768286883831,-0.013511762022972107
1633780521937211400,2.80621142578125,0.04212933033704758,0.0035239486023783684,-0.007624296471476555
1633780521957090000,2.826090087890625,0.03623511642217636,0.008384618908166885,-0.015108196064829826
1633780521976969200,2.84596923828125,0.028543133288621902,0.029364798218011856,-0.03251186013221741
1633780521996849400,2.865849365234375,0.027159802615642548,0.030197493731975555,-0.052645206451416016
1633780522016728000,2.88572802734375,0.02262658067047596,0.030341200530529022,-0.061702728271484375
1633780522036607200,2.905607177734375,0.02671598084270954,0.03542359918355942,-0.043384671211242676
1633780522056487400,2.9254873046875,0.0409163162112236,0.04097333177924156,-0.009609664790332317
1633780522076369700,2.94536962890625,0.05596223473548889,0.031381603330373764,0.0017342072678729892
1633780522096248800,2.965248779296875,0.05022210627794266,0.024260159581899643,-0.013457397930324078
1633780522116129000,2.98512890625,0.05728074535727501,0.03694568946957588,-0.028831996023654938
1633780522136007700,3.005007568359375,0.04357469826936722,0.03731286898255348,-0.029513342306017876
1633780522155886800,3.024886962890625,0.03501168638467789,0.0457104854285717,-0.04003822058439255
1633780522175767000,3.04476708984375,0.033392585813999176,0.051270220428705215,-0.03728574886918068
1633780522195645700,3.064645751953125,0.031125446781516075,0.0594545416533947,-0.023162316530942917
1633780522215524900,3.08452490234375,0.027393421158194542,0.05226046219468117,-0.014817379415035248
1633780522235403800,3.10440380859375,0.021481094881892204,0.028868991881608963,-0.006915397010743618
1633780522255283700,3.12428369140625,0.025756806135177612,0.03062056005001068,0.004960755817592144
1633780522275163000,3.144162841796875,0.026383966207504272,0.027042167261242867,0.01191672682762146
1633780522295041800,3.164041748046875,0.025796296074986458,0.020526709035038948,0.007026575971394777
1633780522314921700,3.183921630859375,0.01753731071949005,0.024468615651130676,0.010638508014380932
1633780522334801000,3.20380078125,0.009307333268225193,0.05316268652677536,0.010086813941597939
1633780522354679800,3.2236796875,-0.008077764883637428,0.043715283274650574,-0.0015531254466623068
1633780522374560000,3.24356005859375,-0.018737034872174263,0.011715489439666271,-0.005182820837944746
1633780522394438700,3.263438720703125,-0.026806503534317017,0.002297523431479931,0.0022538448683917522
1633780522414317800,3.28331787109375,-0.02853601984679699,0.00870267953723669,0.00449780561029911
1633780522434198000,3.303197998046875,-0.019888805225491524,-0.00004917290061712265,-0.007170206867158413
1633780522454076700,3.32307666015625,-0.015894606709480286,-0.01653057336807251,-0.018064284697175026
1633780522473955800,3.342955810546875,-0.012578119523823261,-0.033208344131708145,-0.02202284336090088
1633780522493836000,3.3628359375,-0.009421911090612411,-0.025283075869083405,-0.008452442474663258
1633780522513714700,3.382714599609375,-0.005641612224280834,-0.020663302391767502,-0.0030880554113537073
1633780522533593900,3.40259375,-0.012209569104015827,-0.013659096322953701,-0.01043988298624754
1633780522553474000,3.42247412109375,-0.019417330622673035,-0.020211728289723396,-0.02523389644920826
1633780522573352700,3.442352783203125,-0.022892039269208908,-0.022551391273736954,-0.024589523673057556
1633780522593232000,3.46223193359375,-0.02028554677963257,-0.02231728658080101,-0.0004892294527962804
1633780522613110800,3.48211083984375,-0.013834869489073753,-0.026191867887973785,0.02496081218123436
1633780522632990700,3.50199072265625,-0.003294914262369275,-0.018847627565264702,0.028604036197066307
1633780522652870000,3.521869873046875,-0.0009434018284082413,-0.013253670185804367,0.010760839097201824
1633780522672748800,3.541748779296875,0.0021580287721008062,-0.0037494520656764507,-0.017081821337342262
1633780522692628700,3.561628662109375,0.006783818826079369,-0.004540327470749617,-0.018830057233572006
1633780522712507600,3.581507568359375,0.012241850607097149,-0.0035326117649674416,0.004592406563460827
1633780522732386800,3.60138671875,0.010047314688563347,0.0023966869339346886,0.04021516814827919
1633780522752267000,3.62126708984375,0.0015149298124015331,-0.013944177888333797,0.05000551789999008
1633780522772145700,3.641145751953125,0.013769024051725864,-0.02123994566500187,0.032706368714571
1633780522792024800,3.66102490234375,0.012186307460069656,-0.0019610561430454254,0.018673907965421677
1633780522811905000,3.680905029296875,0.00522923469543457,0.012638958171010017,0.008815687149763107
1633780522831783700,3.70078369140625,0.01593191549181938,0.0048551177605986595,0.003123786300420761
1633780522851662800,3.720662841796875,0.03446318581700325,0.000747285783290863,0.011225483380258083
1633780522871541800,3.740541748046875,0.04983510076999664,0.009675775654613972,0.009769496507942677
1633780522891421700,3.760421630859375,0.04462841525673866,0.006322868168354034,0.0026958929374814034
1633780522911300900,3.78030078125,0.0335882306098938,-0.008376301266252995,0.0030728650745004416
1633780522931179800,3.8001796875,0.02447475492954254,0.0029910551384091377,0.013218899257481098
1633780522951059700,3.820059814453125,0.019201558083295822,0.014491201378405094,0.026155764237046242
1633780522970939000,3.83993896484375,0.013728058896958828,0.023547086864709854,0.03371796756982803
1633780522990817800,3.85981787109375,0.01549740694463253,0.021855857223272324,0.025222569704055786
1633780523010697700,3.87969775390625,0.019002631306648254,0.018679019063711166,0.0159820057451725
1633780523030577000,3.899576904296875,0.018602032214403152,0.011742005124688148,0.02188248746097088
1633780523050455800,3.919455810546875,0.015927713364362717,0.031058505177497864,0.020173363387584686
1633780523070333000,3.9393330078125,0.013022758066654205,0.044143740087747574,0.01114288903772831
1633780523090211800,3.9592119140625,-0.008568533696234226,0.01916494034230709,0.007989480160176754
1633780523110091000,3.979091064453125,-0.014884507283568382,0.0067068831995129585,0.017807183787226677
1633780523129970200,3.99897021484375,-0.0021429217886179686,-0.001643570140004158,0.03920799866318703
1633780523149849900,4.018849853515625,0.004873511381447315,-0.0067848945036530495,0.054177265614271164
1633780523169729000,4.03872900390625,-0.0006259426008909941,-0.0004729991778731346,0.05779055133461952
1633780523189608000,4.05860791015625,-0.0006994942668825388,0.002263016067445278,0.039969347417354584
1633780523209488000,4.07848779296875,-0.005250681657344103,0.007357357069849968,0.012112429365515709
1633780523229367000,4.098366943359375,-0.010354725643992424,-0.016190815716981888,0.0027572805993258953
1633780523249246000,4.118245849609375,-0.018406836315989494,-0.031191980466246605,0.00997356791049242
1633780523269126000,4.1381259765625,-0.026072030887007713,-0.0286327563226223,-0.00029622355941683054
1633780523289005000,4.158005126953125,-0.03363118693232536,-0.014907575212419033,-0.012825574725866318
1633780523308884000,4.177884033203125,-0.0315338671207428,0.008022313006222248,-0.016583237797021866
1633780523328763100,4.19776318359375,-0.035085875540971756,-0.0035131480544805527,-0.021342003718018532
1633780523348643000,4.21764306640625,-0.021829724311828613,-0.013087744824588299,-0.039288777858018875
1633780523368522000,4.23752197265625,-0.000046487199142575264,-0.009894314222037792,-0.05868079513311386
1633780523388401200,4.257401123046875,0.012728622183203697,-0.005630655214190483,-0.0723007470369339
1633780523408281000,4.277281005859375,0.019463565200567245,-0.012122048065066338,-0.08853403478860855
1633780523428160000,4.297159912109375,0.015671586617827415,-0.006458069663494825,-0.0705084353685379
1633780523448039200,4.3170390625,-0.0017264143098145723,-0.01534942165017128,-0.03665522485971451
1633780523467918800,4.3369189453125,-0.01470673643052578,-0.006971563678234816,-0.00772606348618865
1633780523487798000,4.356798095703125,-0.0012302522081881762,0.0014858022332191467,0.01432991586625576
1633780523507677200,4.37667724609375,0.03705604746937752,0.016006560996174812,0.011587826535105705
1633780523527556900,4.396556884765625,0.05108816921710968,0.015137664042413235,0.0013062048237770796
1633780523547436000,4.41643603515625,0.04637123644351959,0.020563706755638123,0.004098977893590927
1633780523567315000,4.43631494140625,0.025215566158294678,0.01718297228217125,0.0007925315294414759
1633780523587193900,4.45619384765625,0.004723244346678257,-0.013589819893240929,-0.0002514238585717976
1633780523607074000,4.476073974609375,-0.005422728136181831,-0.013317563571035862,0.008193004876375198
1633780523626953000,4.495952880859375,-0.004136057570576668,0.0006011473014950752,0.01003244612365961
1633780523646831900,4.515831787109375,0.015157702378928661,0.013148252852261066,-0.0042206053622066975
1633780523666712000,4.535712158203125,0.023451924324035645,0.013348587788641453,-0.01714598387479782
1633780523686591000,4.555591064453125,0.030803974717855453,0.01876058056950569,-0.024844462051987648
1633780523706470000,4.575469970703125,0.02951521798968315,0.009338309988379478,-0.029360882937908173
1633780523726350000,4.59535009765625,0.028018545359373093,-0.0014162780717015266,-0.029083607718348503
1633780523746229000,4.61522900390625,0.027091490104794502,0.012081953696906567,-0.014395259320735931
1633780523766108200,4.635108154296875,0.022886089980602264,0.010109721682965755,0.0012104948982596397
1633780523785986800,4.65498681640625,0.02323424443602562,0.012167081236839294,-0.017716532573103905
1633780523805867000,4.674866943359375,0.02516053058207035,0.015334702096879482,-0.053532280027866364
1633780523825746200,4.69474609375,0.03970425948500633,0.00325725506991148,-0.07403464615345001
1633780523845624800,4.714624755859375,0.05036620423197746,-0.0054452139884233475,-0.060794249176979065
1633780523865505000,4.734505126953125,0.04789714887738228,-0.024092886596918106,-0.025464728474617004
1633780523885384200,4.75438427734375,0.034358832985162735,-0.017616426572203636,-0.006583793088793755
1633780523905262800,4.774262939453125,0.024417705833911896,-0.00962834618985653,-0.020576633512973785
1633780523925143000,4.79414306640625,0.017562396824359894,-0.00450751930475235,-0.03367231413722038
1633780523945022000,4.81402197265625,0.007497023791074753,0.0010506073012948036,-0.011654284782707691
1633780523964900900,4.83390087890625,-0.006405258551239967,-0.017984986305236816,-0.005482539534568787
1633780523984780000,4.853780029296875,-0.006492583081126213,-0.019163107499480247,-0.02175649255514145
1633780524004660000,4.873659912109375,-0.01299988478422165,-0.008810522966086864,-0.053746357560157776
1633780524024539000,4.893538818359375,-0.02501162886619568,0.002107139676809311,-0.09228677302598953
1633780524044417800,4.913417724609375,-0.026525409892201424,0.01013155747205019,-0.11110944300889969
1633780524064298000,4.933298095703125,-0.03545195236802101,0.013071014545857906,-0.09632635116577148
1633780524084176100,4.953176025390625,-0.029471982270479202,0.008424357511103153,-0.08800771087408066
1633780524104055000,4.973054931640625,-0.02838185988366604,-0.006563047878444195,-0.06724879890680313
1633780524123935000,4.99293505859375,-0.019143039360642433,-0.0286044180393219,-0.03465680032968521
1633780524143814100,5.012814208984375,-0.01388760469853878,-0.04350029304623604,0.0007259927224367857
1633780524163693300,5.032693359375,0.0026836474426090717,-0.015010595321655273,0.03781583905220032
1633780524183572000,5.052572021484375,0.01159701868891716,-0.0031193578615784645,0.03618356212973595
1633780524203452200,5.0724521484375,0.007739104796200991,0.01874464936554432,0.028122689574956894
1633780524223331000,5.0923310546875,-0.0037003045435994864,0.024477090686559677,0.02076137810945511
1633780524243210000,5.1122099609375,-0.021873004734516144,0.01296534575521946,0.012099500745534897
1633780524263090200,5.132090087890625,-0.0247658584266901,-0.006671125069260597,0.011083315126597881
1633780524282969000,5.151968994140625,-0.02408749610185623,-0.015638133510947227,0.008591577410697937
1633780524302848000,5.171847900390625,-0.021895810961723328,-0.004119132645428181,-0.009402599185705185
1633780524322728200,5.191728271484375,-0.005365944001823664,0.014174791052937508,-0.02912691794335842
1633780524342607000,5.211607177734375,0.002546521369367838,0.018298687413334846,-0.029672034084796906
1633780524362486000,5.231486083984375,0.011513464152812958,0.010325518436729908,-0.012043449096381664
1633780524382365000,5.251364990234375,0.015594455413520336,-0.00011669192463159561,0.004090269096195698
1633780524402245000,5.2712451171875,0.0109496945515275,-0.010292085818946362,0.004327042493969202
1633780524422124000,5.2911240234375,0.009475486353039742,-0.015405597165226936,-0.008234785869717598
1633780524442003000,5.3110029296875,0.006857294123619795,0.013278823345899582,-0.007692810148000717
1633780524461883100,5.330883056640625,0.00514947809278965,0.026905860751867294,0.0023794365115463734
1633780524481762000,5.350761962890625,0.002178396563977003,0.016244947910308838,0.005879078060388565
1633780524501641000,5.370640869140625,0.0009047938510775566,0.008695349097251892,0.0037413001991808414
1633780524521520000,5.39052001953125,0.014175602234899998,0.02845723181962967,0.0006063802866265178
1633780524541400300,5.410400390625,0.020011652261018753,0.021989744156599045,-0.008890984579920769
1633780524561279000,5.430279052734375,0.015024853870272636,0.006100309081375599,-0.007219778373837471
1633780524581158100,5.450158203125,0.019630279392004013,0.005718201398849487,0.009697725996375084
1633780524601038000,5.4700380859375,0.018826475366950035,0.010194336995482445,0.03370434418320656
1633780524620917000,5.4899169921875,0.0006651681615039706,-0.00019400473684072495,0.028514042496681213
1633780524640796200,5.509796142578125,-0.005058764014393091,0.004824189469218254,0.00260441517457366
1633780524660676000,5.529676025390625,0.0037040109746158123,0.03058844432234764,0.007448760326951742
1633780524680555000,5.549554931640625,-0.004820844158530235,0.0341249480843544,0.016509676352143288
1633780524700434200,5.56943408203125,-0.003594596404582262,0.016178622841835022,0.018694724887609482
1633780524720313000,5.58931298828125,0.00011704117059707642,0.00971630122512579,0.032592810690402985
1633780524740193000,5.609193115234375,-0.0004253068473190069,0.009884161874651909,0.03872987627983093
1633780524760072000,5.629072021484375,-0.008876768872141838,0.008573955856263638,0.027432803064584732
1633780524779951000,5.648951171875,-0.019340939819812775,0.0020297011360526085,0.01885283924639225
1633780524799831000,5.6688310546875,-0.01804230362176895,0.005571507848799229,0.02495446614921093
1633780524819710000,5.6887099609375,-0.008285429328680038,0.02101733162999153,0.03691902011632919
1633780524839589000,5.708589111328125,-0.008554388768970966,0.020704738795757294,0.04523824155330658
1633780524859469000,5.728468994140625,-0.011702392250299454,0.005019005388021469,0.038622986525297165
1633780524879348000,5.748347900390625,-0.014133425429463387,-0.0033600591123104095,0.02836795710027218
1633780524899227100,5.76822705078125,-0.01896585151553154,-0.01219777762889862,0.004672445356845856
1633780524919106000,5.78810595703125,-0.02983344905078411,-0.017480548471212387,-0.02300640195608139
1633780524938986000,5.807986083984375,-0.03635178133845329,0.0015011942014098167,-0.01923239603638649
1633780524958865200,5.827865234375,-0.03665008023381233,0.010677055455744267,0.00717573519796133
1633780524978744000,5.847744140625,-0.03742474317550659,-0.007730691693723202,0.015273312106728554
1633780524998624000,5.8676240234375,-0.03656391054391861,-0.006396922282874584,0.007715418469160795
1633780525018503200,5.887503173828125,-0.032542817294597626,0.006355729885399342,0.0022544539533555508
1633780525038382000,5.907382080078125,-0.03305015712976456,0.007461206056177616,-0.019985655322670937
1633780525058261200,5.92726123046875,-0.036283500492572784,-0.0073856511153280735,-0.03763575479388237
1633780525078141200,5.94714111328125,-0.03528508171439171,-0.018088363111019135,-0.020016014575958252
1633780525098020400,5.967020263671875,-0.019434085115790367,-0.01124773919582367,0.014265347272157669
1633780525117899300,5.986899169921875,-0.006374276243150234,-0.0012614335864782333,0.027797864750027657
1633780525137779200,6.006779296875,-0.0007144080009311438,-0.0035900790244340897,0.024224471300840378
1633780525157658400,6.026658447265625,0.0018512712558731437,-0.02186192199587822,0.007559320889413357
1633780525177537300,6.046537353515625,0.005783528089523315,-0.01674053631722927,-0.019732387736439705
1633780525197416200,6.066416259765625,0.0043539023026824,-0.012038042768836021,-0.03412046283483505
1633780525217296400,6.08629638671875,0.008921796455979347,0.005306175909936428,-0.022996092215180397
1633780525237175300,6.10617529296875,0.009697536006569862,0.017251301556825638,0.004607861395925283
1633780525257054200,6.12605419921875,0.0034748432226479053,-0.0006910990923643112,0.013039825484156609
1633780525276934100,6.14593408203125,0.012990022078156471,-0.004021071828901768,-0.0033180355094373226
1633780525296813300,6.165813232421875,0.013415880501270294,-0.004107832442969084,-0.021662913262844086
1633780525316692500,6.1856923828125,0.012319793924689293,0.01842188462615013,-0.04798569157719612
1633780525336572200,6.205572265625,0.006470208987593651,0.026260748505592346,-0.0718751847743988
1633780525356451300,6.225451416015625,0.002677611541002989,0.01620987430214882,-0.06780198961496353
1633780525376330500,6.24533056640625,0.01082113292068243,-0.007287867367267609,-0.039167530834674835
1633780525396209200,6.265209228515625,0.0166097991168499,-0.015564912930130959,-0.016064569354057312
1633780525416089300,6.28508935546875,0.02396383136510849,-0.0064705428667366505,-0.0035288447979837656
1633780525435968300,6.30496826171875,0.019878001883625984,-0.009206670336425304,0.003392660990357399
1633780525455847200,6.32484716796875,0.022796351462602615,-0.01244789082556963,0.019450904801487923
1633780525475727400,6.344727294921875,0.02192641608417034,-0.01579876057803631,0.04354546219110489
1633780525495606300,6.364606201171875,0.016706956550478935,-0.024328958243131638,0.04838725924491882
1633780525515485200,6.384485107421875,0.00706255529075861,-0.02231556363403797,0.034551411867141724
1633780525535364000,6.404364013671875,-0.005616242066025734,-0.023705892264842987,0.009749987162649632
1633780525555244300,6.424244384765625,-0.005388560704886913,-0.01433828379958868,-0.010401660576462746
1633780525575123200,6.444123291015625,-0.004117029719054699,-0.005944184493273497,-0.015990227460861206
1633780525595002000,6.464002197265625,-0.009073982015252113,-0.018496625125408173,-0.013691806234419346
1633780525614882300,6.48388232421875,-0.00891635287553072,-0.026596583425998688,-0.005799455568194389
1633780525634761200,6.50376123046875,-0.009603834711015224,-0.019906306639313698,0.007385123521089554
1633780525654640000,6.52364013671875,-0.016492316499352455,-0.005179714877158403,0.029867392033338547
1633780525674520300,6.543520263671875,-0.020730450749397278,0.003589966334402561,0.03725920245051384
1633780525694399200,6.563399169921875,-0.02764541655778885,-0.011692491360008717,0.01649675890803337
1633780525714278100,6.583278076171875,-0.03121456690132618,-0.032814495265483856,0.010110538452863693
1633780525734157300,6.6031572265625,-0.019715262576937675,-0.037435926496982574,0.024031125009059906
1633780525754037200,6.623037353515625,-0.010459091514348984,-0.03882932662963867,0.02554960548877716
1633780525773916200,6.642916259765625,-0.0018482161685824394,-0.04886927083134651,0.015016493387520313
1633780525793795300,6.66279541015625,0.005556969437748194,-0.054547131061553955,0.0022064221557229757
1633780525813675300,6.68267529296875,0.0024334483314305544,-0.044295698404312134,0.0018350095488131046
1633780525833554200,6.70255419921875,-0.0034779401030391455,-0.03792013227939606,-0.0015672510489821434
1633780525853433300,6.722433349609375,-0.005149370059370995,-0.020550420507788658,-0.0025778482668101788
1633780525873312300,6.742312255859375,-0.02530824765563011,-0.025168776512145996,-0.0037517244927585125
1633780525893192200,6.762192138671875,-0.033532630652189255,-0.014241989701986313,-0.01521119475364685
1633780525913071000,6.782071044921875,-0.010499779134988785,0.0015276949852705002,-0.03096744790673256
1633780525932950300,6.8019501953125,-0.00302657438442111,-0.0091080442070961,-0.026642324402928352
1633780525952830200,6.821830322265625,0.0042204782366752625,-0.01943177729845047,-0.030878329649567604
1633780525972709000,6.841709228515625,-0.008132267743349075,-0.029415525496006012,-0.044852081686258316
1633780525992588300,6.86158837890625,-0.007206898182630539,-0.04042350500822067,-0.051788076758384705
1633780526012467200,6.88146728515625,0.014286832883954048,-0.00651200208812952,-0.05141378566622734
1633780526032347100,6.90134716796875,0.032178305089473724,0.02041972056031227,-0.040980108082294464
1633780526052226300,6.921226318359375,0.04044688865542412,0.02070530131459236,-0.021853655576705933
1633780526072105500,6.94110546875,0.03737596794962883,0.027037978172302246,0.00554645387455821
1633780526091985400,6.9609853515625,0.03564230725169182,0.022967081516981125,0.045941296964883804
1633780526111864600,6.980864501953125,0.02400408685207367,0.02109622210264206,0.08516249060630798
1633780526131743500,7.000743408203125,0.021597201004624367,0.028849821537733078,0.09125879406929016
1633780526151622700,7.02062255859375,0.023676803335547447,0.04127798229455948,0.06867410242557526
1633780526171502300,7.04050244140625,0.0013597689103335142,0.03308071196079254,0.03533586114645004
1633780526191381500,7.060381591796875,-0.008476505056023598,0.032538510859012604,-0.015364081598818302
1633780526211260700,7.0802607421875,0.0038167734164744616,0.05072649195790291,-0.046703439205884933
1633780526231140400,7.100140380859375,0.014152755960822105,0.05359365791082382,-0.0541270487010479
1633780526251019500,7.12001953125,0.011354614049196243,0.026730302721261978,-0.05048120766878128
1633780526270898700,7.139898681640625,0.012305431067943573,0.009213002398610115,-0.023740500211715698
1633780526290778400,7.1597783203125,0.013705810531973839,0.0061403121799230576,0.0170200876891613
1633780526310657500,7.179657470703125,0.0025847540237009525,0.005994593724608421,0.03694557026028633
1633780526330536400,7.199536376953125,-0.0018080298323184252,0.013948515988886356,0.03713768348097801
1633780526350415400,7.219415283203125,-0.009709333069622517,0.014146344736218452,0.03536234796047211
1633780526370295600,7.239295654296875,-0.013231087476015091,0.007057439535856247,0.03075789473950863
1633780526390174500,7.259174560546875,-0.008706416003406048,-0.014435455203056335,0.03789615258574486
1633780526410053400,7.279053466796875,-0.0018103783950209618,-0.018336603417992592,0.04183296486735344
1633780526429933600,7.29893359375,-0.0035686357878148556,0.0076377857476472855,0.008225494995713234
1633780526449812500,7.3188125,-0.018908444792032242,0.008962973952293396,-0.030177554115653038
1633780526469691400,7.33869140625,-0.023820871487259865,-0.002568393014371395,-0.041984330862760544
1633780526489570300,7.3585703125,-0.011867627501487732,0.002241041511297226,-0.010325150564312935
1633780526509450500,7.378450439453125,-0.023525558412075043,0.0009722346439957619,0.006174852140247822
1633780526529329700,7.39832958984375,-0.03346022963523865,0.006556645967066288,-0.03585077077150345
1633780526549208300,7.418208251953125,-0.044435787945985794,0.028749121353030205,-0.06210764870047569
1633780526569088500,7.438088623046875,-0.04871359467506409,0.035197749733924866,-0.04345930740237236
1633780526588967700,7.4579677734375,-0.033640842884778976,0.03132286295294762,-0.009877094067633152
1633780526608846300,7.477846435546875,-0.03184190019965172,-0.002536454237997532,0.009992280974984169
1633780526628725500,7.4977255859375,-0.03224300965666771,-0.02393028326332569,0.017039988189935684
1633780526648605700,7.517605712890625,-0.020883502438664436,-0.01715758815407753,0.02308272011578083
1633780526668484400,7.537484375,-0.014518371783196926,-0.005748933181166649,0.01860557124018669
1633780526688363500,7.557363525390625,-0.02393609844148159,-0.008534873835742474,-0.008464079350233078
1633780526708243500,7.577243408203125,-0.03645636886358261,-0.018468713387846947,-0.00623797532171011
1633780526728122400,7.597122314453125,-0.015852339565753937,0.019002918154001236,0.03560947626829147
1633780526748001500,7.61700146484375,-0.009743273258209229,0.013126597739756107,0.06523153185844421
1633780526767880400,7.63688037109375,-0.010280543938279152,-0.037029366940259933,0.04645982012152672
1633780526787760400,7.656760498046875,-0.011591378599405289,-0.12290136516094208,0.01703808829188347
1633780526807639300,7.676639404296875,-0.036799393594264984,-0.17797385156154633,-0.09316769987344742
1633780526827518500,7.6965185546875,-0.0649983212351799,-0.16022735834121704,-0.27016958594322205
1633780526847398400,7.7163984375,-0.04592807590961456,-0.08076025545597076,-0.2865201234817505
1633780526867277300,7.73627734375,-0.00014037871733307838,-0.03337734565138817,-0.0801398754119873
1633780526887156500,7.756156494140625,0.009858952835202217,-0.0006618639454245567,0.15409864485263824
1633780526907035400,7.776035400390625,-0.03151087835431099,0.0171961709856987,0.24644798040390015
1633780526926915300,7.795915283203125,-0.07568322867155075,0.04935920238494873,0.1422232985496521
1633780526946794500,7.81579443359375,-0.10987337678670883,0.06346075236797333,-0.03452470898628235
1633780526966673400,7.83567333984375,-0.1240602657198906,0.026031211018562317,-0.132806196808815
1633780526986553300,7.85555322265625,-0.12438204139471054,-0.05077016353607178,-0.08182770758867264
1633780527006432500,7.8754326171875,-0.10503365099430084,-0.07986892014741898,0.04713395610451698
1633780527026311400,7.8953115234375,-0.07562567293643951,-0.06377485394477844,0.08401638269424438
1633780527046190600,7.915190673828125,-0.07192793488502502,0.013208604417741299,-0.053456541150808334
1633780527066070500,7.935070556640625,-0.07370241731405258,0.038265161216259,-0.2919711470603943
1633780527085949200,7.95494921875,-0.07316596060991287,0.06278368830680847,-0.4221663475036621
1633780527105828400,7.974828369140625,-0.06433679163455963,0.0571698397397995,-0.35927993059158325
1633780527125708000,7.9947080078125,-0.06099807843565941,0.0015356410294771194,-0.18267104029655457
1633780527145587200,8.014587158203126,-0.05116279423236847,-0.01831461489200592,-0.04621553048491478
1633780527165466400,8.03446630859375,-0.009854525327682495,0.0012919511646032333,-0.035246968269348145
1633780527185345300,8.05434521484375,-0.010885720141232014,0.0385708212852478,-0.09456412494182587
1633780527205225200,8.07422509765625,-0.008474879898130894,-0.0007973797619342804,-0.10331105440855026
1633780527225104400,8.0941044921875,-0.024967331439256668,-0.0646977573633194,-0.04872123897075653
1633780527244983300,8.1139833984375,-0.04984280467033386,-0.0386112779378891,0.006688457913696766
1633780527264863200,8.13386328125,-0.03895042836666107,0.0019778069108724594,0.05501031503081322
1633780527284742100,8.1537421875,-0.015615406446158886,-0.012913974933326244,0.21729595959186554
1633780527304621300,8.173621337890625,-0.0015527720097452402,-0.03710632026195526,0.3692264258861542
1633780527324500200,8.193500244140624,-0.02409234456717968,-0.032941076904535294,0.20913568139076233
1633780527344380200,8.213380126953124,-0.013982465490698814,-0.02838572859764099,-0.17261092364788055
1633780527364259300,8.23325927734375,-0.005913938395678997,-0.07950867712497711,-0.471465140581131
1633780527384138000,8.253137939453126,-0.03051103837788105,-0.09942298382520676,-0.4894166588783264
1633780527404018200,8.27301806640625,-0.0414627268910408,-0.05664484202861786,-0.28769996762275696
1633780527423897300,8.2928974609375,-0.022377418354153633,-0.04527335613965988,0.015263714827597141
1633780527443776300,8.3127763671875,0.028978930786252022,-0.0015627415850758553,0.2814236283302307
1633780527463655200,8.3326552734375,0.07348182052373886,0.03726836293935776,0.30270129442214966
1633780527483535400,8.352535400390625,0.059391289949417114,0.028536133468151093,0.0871492549777031
1633780527503414300,8.372414306640625,0.022597167640924454,-0.023210562765598297,-0.1377263218164444
1633780527523293200,8.392293212890625,-0.01866411417722702,-0.02098381146788597,-0.23015178740024567
1633780527543173400,8.41217333984375,-0.043118223547935486,0.02381397783756256,-0.17027753591537476
1633780527563052300,8.43205224609375,-0.024392809718847275,0.04631751775741577,-0.019347047433257103
1633780527582931200,8.45193115234375,0.04571380093693733,0.0712527483701706,0.10778190195560455
1633780527602810000,8.47181005859375,0.10046219825744629,0.02655194327235222,0.045089054852724075
1633780527622690300,8.491690185546876,0.09482374787330627,-0.062037475407123566,-0.09929411113262177
1633780527642569200,8.5115693359375,0.08329132944345474,-0.08932361006736755,-0.1193510964512825
1633780527662448000,8.5314482421875,0.045026183128356934,-0.05040961503982544,-0.003157248254865408
1633780527682328300,8.551328369140625,-0.0034026724752038717,-0.01328638568520546,0.1794038563966751
1633780527702207200,8.571207275390625,0.014935941435396671,0.0487188994884491,0.2651594579219818
1633780527722086100,8.591086181640625,0.015848509967327118,0.06822136044502258,0.12214655429124832
1633780527741965300,8.61096533203125,0.02667096257209778,0.0017608879134058952,-0.08108192682266235
1633780527761845000,8.630844970703125,0.016665006056427956,-0.03293744474649429,-0.1494489312171936
1633780527781724200,8.65072412109375,0.007776755839586258,-0.010554523207247257,-0.11188731342554092
1633780527801603300,8.670603271484374,0.028455598279833794,0.06138624623417854,-0.04064062982797623
1633780527821483000,8.69048291015625,0.07402536273002625,0.0891970843076706,0.09039697796106339
1633780527841362200,8.710362060546874,0.122365303337574,0.08952371031045914,0.1809842884540558
1633780527861241000,8.730240966796876,0.10036839544773102,0.010699731297791004,0.04554150626063347
1633780527881120300,8.750120361328126,0.022151067852973938,-0.0696745291352272,-0.16080611944198608
1633780527901000200,8.770000244140626,-0.038917187601327896,-0.13231530785560608,-0.2337849736213684
1633780527920879000,8.789879150390625,-0.07182034850120544,-0.06870214641094208,-0.19189228117465973
1633780527940758300,8.80975830078125,-0.05102970078587532,0.0251091867685318,-0.07006378471851349
1633780527960638200,8.82963818359375,0.013865284621715546,0.1173199787735939,0.08577345311641693
1633780527980517000,8.84951708984375,0.06680834293365479,0.1148335337638855,0.1983826905488968
1633780528000396300,8.869396240234375,0.10331915318965912,0.05249638855457306,0.2667366862297058
1633780528020275200,8.889275146484374,0.13197386264801025,-0.017803199589252472,0.19186922907829285
1633780528040155100,8.909155029296874,0.05956802889704704,-0.12572361528873444,-0.07499527931213379
1633780528060034300,8.929034423828124,-0.04646293818950653,-0.16870631277561188,-0.3200032413005829
1633780528079913700,8.948913818359374,-0.09645190834999084,-0.08385537564754486,-0.3324982523918152
1633780528099793700,8.968793701171874,-0.10948709398508072,0.05124306306242943,-0.20404420793056488
1633780528119672800,8.9886728515625,-0.06132413446903229,0.14229092001914978,-0.008711695671081543
1633780528139551700,9.0085517578125,0.04381094127893448,0.1813902109861374,0.170939639210701
1633780528159430700,9.0284306640625,0.0791674256324768,0.12223285436630249,0.23814071714878082
1633780528179310800,9.048310791015625,0.07314755022525787,0.04690702632069588,0.23064348101615906
1633780528199189800,9.068189697265625,0.07476198673248291,0.05217711627483368,0.21351395547389984
1633780528219068700,9.088068603515625,0.04178888350725174,0.07949826866388321,0.1717335730791092
1633780528238947600,9.107947509765625,-0.010427192784845829,0.08598849922418594,0.13842979073524475
1633780528258827800,9.127827880859375,-0.05091439560055733,0.014095519669353962,0.11165765672922134
1633780528278706700,9.147706787109374,-0.09149783849716187,-0.12957100570201874,0.07808247953653336
1633780528298585600,9.167585693359374,-0.10420204699039459,-0.22968971729278564,0.031683795154094696
1633780528318465800,9.1874658203125,-0.054282475262880325,-0.20218363404273987,0.01863231137394905
1633780528338344700,9.2073447265625,-0.0009784256108105183,-0.11494027078151703,0.04227671027183533
1633780528358223600,9.2272236328125,0.0347871258854866,-0.007290104404091835,0.06824555993080139
1633780528378102800,9.247102783203125,0.06318831443786621,0.05490868538618088,0.07724268734455109
1633780528397982700,9.266982666015625,0.09739700704813004,0.0636400505900383,0.0991753414273262
1633780528417861600,9.286861572265625,0.13575467467308044,0.09410558640956879,0.128824844956398
1633780528437740800,9.30674072265625,0.15979862213134766,0.05076691880822182,0.07364977896213531
1633780528457620700,9.326620849609375,0.1328720897436142,-0.1603282392024994,-0.10278809815645218
1633780528477499600,9.346499755859375,0.06664808094501495,-0.3076002597808838,-0.3023054301738739
1633780528497378800,9.36637890625,0.037114109843969345,-0.26048797369003296,-0.3478117883205414
1633780528517257700,9.3862578125,0.04335525259375572,-0.09489826112985611,-0.23049907386302948
1633780528537137700,9.4061376953125,0.06412521749734879,0.085685133934021,-0.0923381969332695
1633780528557016600,9.4260166015625,0.06673157215118408,0.18510006368160248,-0.0253997091203928
1633780528576895700,9.445895751953126,0.02890743874013424,0.18767987191677094,-0.0315907783806324
1633780528596775700,9.465775634765626,-0.04264324530959129,0.13444869220256805,-0.09242846071720123
1633780528616654600,9.485654541015625,-0.061043571680784225,0.12894858419895172,-0.15278463065624237
1633780528636533800,9.50553369140625,-0.038004860281944275,0.13367217779159546,-0.16422328352928162
1633780528656412700,9.52541259765625,-0.014190408401191235,0.06790895760059357,-0.09228986501693726
1633780528676292600,9.545292724609375,0.013308999128639698,-0.03800833597779274,0.030956245958805084
1633780528696171800,9.565171875,0.0612579844892025,-0.08021140843629837,0.16286154091358185
1633780528716050700,9.58505078125,0.08571780472993851,-0.09732836484909058,0.23032425343990326
1633780528735930600,9.6049306640625,0.05603303760290146,-0.1294962763786316,0.21698112785816193
1633780528755809800,9.624809814453124,0.01284484937787056,-0.14127591252326965,0.1677154004573822
1633780528775688700,9.644688720703124,-0.0139538012444973,-0.0848560631275177,0.052405036985874176
1633780528795567900,9.66456787109375,-0.009568984620273113,-0.02876383811235428,-0.1038336232304573
1633780528815447800,9.68444775390625,0.032180774956941605,-0.003180340863764286,-0.20310449600219727
1633780528835326700,9.70432666015625,0.07068522274494171,0.023438043892383575,-0.16926495730876923
1633780528855206000,9.724205810546875,0.10821366310119629,0.038385339081287384,-0.08085299283266068
1633780528875084500,9.74408447265625,0.13362669944763184,0.03904373571276665,-0.018542639911174774
1633780528894964700,9.76396484375,0.1226751059293747,0.027308445423841476,0.03592526912689209
1633780528914844000,9.783843994140625,0.09033188968896866,0.026111427694559097,0.09078618139028549
1633780528934722600,9.80372265625,0.043314773589372635,0.02828705497086048,0.12446992844343185
1633780528954602800,9.823602783203125,0.004974203184247017,0.02483610063791275,0.1165236085653305
1633780528974482000,9.84348193359375,-0.0054051317274570465,0.014230767264962196,0.08490194380283356
1633780528994360600,9.863360595703124,-0.011303333565592766,-0.002427969127893448,0.06069663539528847
1633780529014239700,9.88323974609375,-0.01756664551794529,-0.016118811443448067,0.03276768699288368
1633780529034119700,9.90311962890625,0.0046632010489702225,-0.002295464277267456,-0.00921262614428997
1633780529053998600,9.92299853515625,0.03572217747569084,0.04038586840033531,-0.025732289999723434
1633780529073877200,9.942877197265625,0.04889681935310364,0.05821593105792999,-0.011465512216091156
1633780529093757400,9.96275732421875,0.027532555162906647,0.05030233412981033,0.05190117284655571
1633780529113636600,9.98263671875,-0.016520170494914055,-0.004623256623744965,0.1211676299571991
1633780529133515300,10.002515380859375,-0.059898920357227325,-0.03220883384346962,0.13150306046009064
1633780529153394400,10.02239453125,-0.07422992587089539,-0.022384963929653168,0.12541507184505463
1633780529173274400,10.0422744140625,-0.08501331508159637,-0.013124722987413406,0.15516725182533264
1633780529193153300,10.0621533203125,-0.06702817231416702,-0.0026632286608219147,0.1493735909461975
1633780529213032400,10.082032470703124,-0.046951282769441605,-0.036321572959423065,0.09127996861934662
1633780529232911400,10.101911376953124,-0.050360701978206635,-0.09640367329120636,0.01687888614833355
1633780529252791300,10.121791259765626,-0.05329451337456703,-0.09454797953367233,-0.031940385699272156
1633780529272670200,10.141670166015626,-0.06775840371847153,-0.08677101135253906,-0.03238113969564438
1633780529292549400,10.16154931640625,-0.07040474563837051,-0.05544963479042053,0.03319704905152321
1633780529312429300,10.18142919921875,-0.07761947810649872,-0.06729809194803238,0.1452559232711792
1633780529332308200,10.20130810546875,-0.10294413566589355,-0.08376246690750122,0.25165247917175293
1633780529352187400,10.2211875,-0.09468474239110947,-0.06867318600416183,0.30265313386917114
1633780529372066600,10.241066650390625,-0.0757998526096344,-0.09072887152433395,0.28487449884414673
1633780529391946200,10.2609462890625,-0.09533288329839706,-0.10818640887737274,0.15737159550189972
1633780529411825400,10.280825439453125,-0.10574360936880112,-0.08738690614700317,-0.018851369619369507
1633780529431704300,10.300704345703124,-0.08020620793104172,-0.020681317895650864,-0.12720195949077606
1633780529451584300,10.320584228515624,-0.05166357010602951,0.036919645965099335,-0.14726704359054565
1633780529471463400,10.34046337890625,-0.025799237191677094,0.0018211668357253075,-0.11951204389333725
1633780529491342300,10.36034228515625,-0.003987935371696949,-0.0009147124364972115,-0.07381028681993484
1633780529511221500,10.380221435546876,0.0030098059214651585,0.04041387885808945,-0.028711212798953056
1633780529531101400,10.400101318359376,0.006128652021288872,0.03784479200839996,0.01240004412829876
1633780529550980400,10.41998046875,0.023494265973567963,-0.014540128409862518,0.04546157270669937
1633780529570859500,10.439859619140625,0.013619196601212025,-0.07445716857910156,0.05861875042319298
1633780529590738200,10.45973828125,-0.003407278098165989,-0.09159644693136215,0.03006012924015522
1633780529610618400,10.479618408203125,0.011435642838478088,-0.027982303872704506,-0.003677576081827283
1633780529630497500,10.49949755859375,0.04120612516999245,0.012253706343472004,-0.031479474157094955
1633780529650376200,10.519376220703125,0.06402523070573807,0.009689953178167343,-0.04375498741865158
1633780529670256400,10.53925634765625,0.05136210098862648,-0.012003532610833645,-0.029093662276864052
1633780529690135600,10.559135498046874,0.012701883912086487,-0.05785077437758446,0.048400696367025375
1633780529710014500,10.579014404296874,0.018090980127453804,-0.003708253614604473,0.09506135433912277
1633780529729893400,10.598893310546876,0.03684531897306442,0.04154983162879944,0.005689501762390137
1633780529749773600,10.618773681640626,0.011740455403923988,0.0024671945720911026,-0.16237539052963257
1633780529769652500,10.638652587890626,-0.006830357946455479,-0.038199283182621,-0.22406166791915894
1633780529789531400,10.658531494140625,-0.014175977557897568,-0.023094870150089264,-0.1602589339017868
1633780529809411300,10.678411376953125,0.009582892060279846,0.02530718222260475,-0.11180069297552109
1633780529829290500,10.69829052734375,0.044522035866975784,0.07100889086723328,-0.12499009817838669
1633780529849169400,10.71816943359375,0.06780573725700378,0.09200504422187805,-0.17337799072265625
1633780529869048300,10.73804833984375,0.040247850120067596,0.08426433801651001,-0.2071353644132614
1633780529888928500,10.757928466796875,0.0010309293866157532,0.03995956480503082,-0.17241162061691284
1633780529908807200,10.77780712890625,-0.041259199380874634,-0.012761712074279785,-0.14005005359649658
1633780529928686300,10.797686279296874,-0.09601633250713348,-0.05832652002573013,-0.20478692650794983
1633780529948565500,10.8175654296875,-0.11791231483221054,0.03246793523430824,-0.2969878613948822
1633780529968445200,10.837445068359376,-0.09823751449584961,0.20680443942546844,-0.3364570736885071
1633780529988324400,10.857324462890626,-0.046922847628593445,0.36333635449409485,-0.34399881958961487
1633780530008203300,10.877203369140625,0.00776277668774128,0.42115718126296997,-0.33371537923812866
1633780530028083200,10.897083251953125,0.04581652954220772,0.3757168650627136,-0.24409934878349304
1633780530047962400,10.91696240234375,0.08009885251522064,0.26153650879859924,-0.09524467587471008
1633780530067841300,10.93684130859375,0.08194240182638168,0.04952247813344002,0.012121726758778095
1633780530087720700,10.956720703125,0.06214171648025513,-0.09812270849943161,0.10510620474815369
1633780530107600600,10.9766005859375,0.07392986863851547,-0.1433408111333847,0.27346110343933105
1633780530127479600,10.9964794921875,0.09716576337814331,-0.1294347643852234,0.4233990013599396
1633780530147358700,11.016358642578124,0.07287637889385223,-0.18321886658668518,0.4759397804737091
1633780530167238700,11.03623876953125,-0.05002922564744949,-0.25004228949546814,0.4754796326160431
1633780530187117600,11.05611767578125,-0.16654565930366516,-0.26010051369667053,0.43815305829048157
1633780530206996700,11.075996826171876,-0.21941019594669342,-0.2634216845035553,0.3971952795982361
1633780530226875600,11.095875732421876,-0.24173292517662048,-0.29996293783187866,0.3498349189758301
1633780530246755600,11.115755615234375,-0.2113644927740097,-0.29491686820983887,0.29347333312034607
1633780530266634800,11.135634765625,-0.12033328413963318,-0.2191774994134903,0.29327210783958435
1633780530286513700,11.155513671875,-0.06123349443078041,-0.09645041078329086,0.352742463350296
1633780530306392600,11.175392578125,-0.004750609397888184,0.04864956811070442,0.3920837640762329
1633780530326272500,11.1952724609375,0.04838414490222931,0.13911905884742737,0.3354276716709137
1633780530346151700,11.215151611328125,0.07282006740570068,0.1196264699101448,0.17665795981884003
1633780530366030600,11.235030517578124,0.061810918152332306,0.07369107753038406,-0.014193649403750896
1633780530385910500,11.25491064453125,0.02141779102385044,-0.03890795260667801,-0.17829817533493042
1633780530405789700,11.274789794921874,-0.012900322675704956,-0.11061327159404755,-0.26771482825279236
1633780530425668400,11.29466845703125,-0.031094342470169067,-0.1187124252319336,-0.2790992856025696
1633780530445547500,11.314547607421876,-0.038880813866853714,-0.0781036764383316,-0.21541665494441986
1633780530465427700,11.334427734375,-0.04650827869772911,-0.027683589607477188,-0.15440060198307037
1633780530485306600,11.354306640625,-0.06422515213489532,-0.002260182984173298,-0.10210644453763962
1633780530505185500,11.374185546875,-0.07411199063062668,-0.017478467896580696,-0.018737977370619774
1633780530525064700,11.394064697265625,-0.07848887890577316,-0.03407665342092514,0.09067180007696152
1633780530544944600,11.413944580078125,-0.04085150361061096,-0.027604972943663597,0.1711793839931488
1633780530564823600,11.433823486328125,0.031004834920167923,0.00612060260027647,0.17463041841983795
1633780530584702500,11.453702392578125,0.09012085199356079,0.015595017932355404,0.1133725643157959
1633780530604582700,11.473582763671875,0.12191275507211685,-0.018041174858808517,0.03376308083534241
1633780530624461600,11.493461669921874,0.11997558176517487,-0.0903431698679924,-0.054254766553640366
1633780530644340500,11.513340576171874,0.07208967208862305,-0.18884655833244324,-0.15761734545230865
1633780530664219600,11.5332197265625,0.0007608713349327445,-0.24381354451179504,-0.2543368935585022
1633780530684099600,11.553099609375,-0.07628251612186432,-0.2892632484436035,-0.2940939962863922
1633780530703978500,11.572978515625,-0.1276862621307373,-0.30378034710884094,-0.2784479558467865
1633780530723857700,11.592857666015625,-0.18662063777446747,-0.3053230345249176,-0.22780568897724152
1633780530743737600,11.612737548828125,-0.23371697962284088,-0.25696995854377747,-0.16876111924648285
1633780530763616500,11.632616455078125,-0.21759864687919617,-0.14344988763332367,-0.13623495399951935
1633780530783495700,11.65249560546875,-0.1759779304265976,-0.07063496112823486,-0.17539528012275696
1633780530803374600,11.67237451171875,-0.15330331027507782,-0.04696788638830185,-0.2858167588710785
1633780530823254500,11.692254638671875,-0.1650703251361847,-0.03409944847226143,-0.39638906717300415
1633780530843133700,11.7121337890625,-0.1705038994550705,-0.04320045933127403,-0.3887172341346741
1633780530863012600,11.7320126953125,-0.15095220506191254,-0.10918714106082916,-0.30339905619621277
1633780530882891800,11.751891845703126,-0.14848202466964722,-0.11649968475103378,-0.1672588288784027
1633780530902771700,11.771771728515626,-0.12394574284553528,-0.11694175750017166,0.024341771379113197
1633780530922650600,11.791650634765626,-0.09385502338409424,-0.07690466195344925,0.25329020619392395
1633780530942529800,11.81152978515625,-0.08237443119287491,-0.08410386741161346,0.4634304344654083
1633780530962408400,11.831408447265625,-0.09289918839931488,-0.12538620829582214,0.5566293001174927
1633780530982288600,11.85128857421875,-0.14287222921848297,-0.16461995244026184,0.488187313079834
1633780531002167800,11.871167724609375,-0.19123883545398712,-0.1789051741361618,0.29096904397010803
1633780531022046500,11.89104638671875,-0.18421411514282227,-0.1572323888540268,0.04143477976322174
1633780531041926700,11.9109267578125,-0.15602146089076996,-0.07067883014678955,-0.1745576411485672
1633780531061805600,11.9308056640625,-0.14278171956539154,0.025873947888612747,-0.2549684941768646
1633780531081685200,11.950685302734374,-0.10952477157115936,0.09275117516517639,-0.19051100313663483
1633780531101564200,11.970564208984374,-0.07092566043138504,0.135788232088089,-0.09283731132745743
1633780531121444400,11.9904443359375,-0.040324557572603226,0.1257523000240326,-0.05285488814115524
1633780531141323300,12.0103232421875,-0.013036932796239853,0.10059794038534164,-0.07589089870452881
1633780531161202200,12.0302021484375,0.022169876843690872,0.04838877171278,-0.12416314333677292
1633780531181082400,12.050082275390626,0.05235285311937332,0.0030675726011395454,-0.13592928647994995
1633780531200961000,12.0699609375,0.07938980311155319,-0.026637693867087364,-0.08424915373325348
1633780531220840200,12.089840087890625,0.09995360672473907,0.005793573334813118,-0.0007744053145870566
1633780531240719400,12.10971923828125,0.10584429651498795,0.02885567955672741,0.09423132240772247
1633780531260599000,12.12959912109375,0.10187668353319168,0.04547031223773956,0.15625157952308655
1633780531280478200,12.149478271484375,0.09955834597349167,0.03518304228782654,0.15453116595745087
1633780531300357000,12.169357177734375,0.09666719287633896,0.03629964590072632,0.12000883370637894
1633780531320236300,12.189236328125,0.10771959275007248,0.044624850153923035,0.07130216807126999
1633780531340116200,12.2091162109375,0.13143225014209747,0.05833159014582634,0.026777805760502815
1633780531359995100,12.2289951171875,0.14876064658164978,0.0774819478392601,0.00020463147666305304
1633780531379874300,12.248874267578126,0.1470535695552826,0.03972814232110977,-0.002004532143473625
1633780531399754200,12.268754150390626,0.13085782527923584,-0.004475902300328016,-0.0197594054043293
1633780531419633200,12.288633056640625,0.11905959993600845,0.01231511402875185,-0.057005736976861954
1633780531439512300,12.30851220703125,0.09904922544956207,0.05949324741959572,-0.08238385617733002
1633780531459391200,12.32839111328125,0.06567484140396118,0.09721716493368149,-0.04714629054069519
1633780531479271200,12.348271240234375,0.045157741755247116,0.14004316926002502,0.059122636914253235
1633780531499150300,12.368150390625,0.0467684231698513,0.218835711479187,0.17402605712413788
1633780531519029200,12.388029296875,0.07534550875425339,0.31217020750045776,0.22074958682060242
1633780531538908200,12.407908203125,0.09026036411523819,0.32098090648651123,0.21813112497329712
1633780531558788400,12.427788330078124,0.08887345343828201,0.271234393119812,0.2226925939321518
1633780531578667300,12.447667236328124,0.07676653563976288,0.15085533261299133,0.24067166447639465
1633780531598546200,12.467546142578126,0.06326226145029068,0.06564532220363617,0.23798581957817078
1633780531618426400,12.48742626953125,0.08503612875938416,0.06695535033941269,0.15001578629016876
1633780531638305300,12.50730517578125,0.11124523729085922,0.1111089438199997,0.012816337868571281
1633780531658184200,12.52718408203125,0.12068609148263931,0.13961531221866608,-0.09479653835296631
1633780531678063000,12.54706298828125,0.10122998058795929,0.14597350358963013,-0.11437026411294937
1633780531697943300,12.566943359375,0.08695133030414581,0.1362515091896057,-0.1070813462138176
1633780531717822200,12.586822265625,0.07048624008893967,0.13041143119335175,-0.12913082540035248
1633780531737701000,12.606701171875,0.06551680713891983,0.12386099249124527,-0.14755436778068542
1633780531757580300,12.626580322265625,0.05611565336585045,0.11665784567594528,-0.1415674239397049
1633780531777460200,12.646460205078125,0.05210744962096214,0.08898815512657166,-0.10815615952014923
1633780531797339100,12.666339111328124,0.06733299791812897,0.06128286197781563,-0.04642956703901291
1633780531817218300,12.68621826171875,0.08965213596820831,0.049635808914899826,0.038325220346450806
1633780531837098200,12.70609814453125,0.10046253353357315,0.022997062653303146,0.09808879345655441
1633780531856977200,12.72597705078125,0.0885562151670456,-0.007653277367353439,0.1037149503827095
1633780531876856300,12.745856201171875,0.07100638747215271,-0.03512173518538475,0.0947975441813469
1633780531896735200,12.7657353515625,0.055865779519081116,-0.05965370684862137,0.08727011829614639
1633780531916615200,12.785615234375,0.05023680999875069,-0.06129167228937149,0.09048280864953995
1633780531936494000,12.805494140625,0.03299558907747269,-0.04376445338129997,0.09560775011777878
1633780531956373200,12.825373291015625,0.02653525210916996,-0.029519949108362198,0.09670313447713852
1633780531976252400,12.84525244140625,0.01589282415807247,-0.02696610614657402,0.0887097492814064
1633780531996132000,12.865132080078125,0.0058983066119253635,-0.01742399111390114,0.07548370957374573
1633780532016011300,12.88501123046875,0.0049145519733428955,-0.007967039942741394,0.04480733722448349
1633780532035890200,12.90489013671875,-0.010700833052396774,-0.00792042724788189,0.007893010973930359
1633780532055769000,12.92476904296875,-0.02755739726126194,-0.03427610918879509,-0.025161558762192726
1633780532075651600,12.944651611328124,-0.03770847246050835,-0.04712039232254028,-0.056789956986904144
1633780532095530500,12.964530517578124,-0.046868905425071716,-0.04429057613015175,-0.07610376179218292
1633780532115409700,12.98440966796875,-0.0397268682718277,-0.03832266107201576,-0.08580238372087479
1633780532135289600,13.00428955078125,-0.025315333157777786,-0.0423317477107048,-0.08304069936275482
1633780532155168500,13.02416845703125,-0.023317772895097733,-0.040473200380802155,-0.06440369039773941
1633780532175047700,13.044047607421875,-0.025354329496622086,-0.028512539342045784,-0.036297570914030075
1633780532194926600,13.063926513671875,-0.029691731557250023,-0.016609836369752884,-0.004088289104402065
1633780532214806500,13.083806640625,-0.029417535290122032,-0.012726799584925175,0.026077987626194954
1633780532234685700,13.103685791015625,-0.04110674187541008,-0.01133077871054411,0.03676789999008179
1633780532254564600,13.123564697265625,-0.04530677944421768,-0.014779528602957726,0.033061932772397995
1633780532274443500,13.143443603515625,-0.034302376210689545,-0.01569187268614769,0.02104976773262024
1633780532294323700,13.16332373046875,-0.021030599251389503,-0.01808176562190056,0.005233041010797024
1633780532314202600,13.18320263671875,-0.01547173224389553,-0.00878074113279581,-0.013789796270430088
1633780532334081500,13.20308154296875,-0.005070635117590427,0.008929560892283916,-0.020397860556840897
1633780532353960400,13.22296044921875,-0.014804385602474213,-0.007163172122091055,-0.009776914492249489
1633780532373840600,13.242840576171876,-0.014320903457701206,-0.03375881165266037,0.0048294952139258385
1633780532393719600,13.262719482421875,-0.0076293665915727615,-0.03374915197491646,0.0246924739331007
1633780532413598500,13.282598388671875,-0.0101367412135005,-0.00005367118865251541,0.029273757711052895
1633780532433478700,13.302478759765625,-0.012414860539138317,0.01669483818113804,0.006323835346847773
1633780532453357800,13.32235791015625,-0.008687491528689861,0.009662927128374577,-0.014522969722747803
1633780532473236500,13.342236572265625,-0.005623404867947102,0.013813748955726624,-0.026256822049617767
1633780532493115600,13.36211572265625,-0.0016575411427766085,0.006856042891740799,-0.037481386214494705
1633780532512995600,13.38199560546875,-0.006451665889471769,-0.0066494205966591835,-0.04749744385480881
1633780532532874500,13.40187451171875,-0.009999098256230354,0.001994089223444462,-0.03382343053817749
1633780532552753700,13.421753662109374,0.0009339336538687348,0.02719617262482643,0.009070796892046928
1633780532572632600,13.441632568359376,0.018078453838825226,0.022012656554579735,0.03304043784737587
1633780532592512500,13.461512451171876,0.018334057182073593,-0.0027555497363209724,0.027359630912542343
1633780532612391700,13.4813916015625,0.020313628017902374,0.010213548317551613,-0.0019229217432439327
1633780532632270600,13.5012705078125,0.020493149757385254,0.010882141068577766,-0.038271404802799225
1633780532652150500,13.521150634765625,0.005868745502084494,0.01679656282067299,-0.05397627502679825
1633780532672029400,13.541029541015625,-0.011747438460588455,0.021825019270181656,-0.0515790618956089
1633780532691908600,13.56090869140625,-0.012541034258902073,0.0360240712761879,-0.034184157848358154
1633780532711787800,13.580787841796875,0.0031596492044627666,0.030869856476783752,-0.0280924029648304
1633780532731667500,13.60066748046875,0.012205187231302261,0.015729635953903198,-0.03282548859715462
1633780532751546600,13.620546630859375,0.00866913702338934,-0.016011111438274384,-0.01370282843708992
1633780532771425500,13.640425537109374,-0.0015847121831029654,-0.08175894618034363,0.013661986216902733
1633780532791304700,13.6603046875,-0.008798089809715748,-0.1140335202217102,0.007432071957737207
1633780532811184600,13.6801845703125,0.004045622888952494,-0.08885043114423752,-0.06167328357696533
1633780532831063600,13.7000634765625,0.012164372019469738,-0.033283352851867676,-0.14439798891544342
1633780532850942700,13.719942626953125,0.010666352696716785,0.00578911229968071,-0.1512826532125473
1633780532870822700,13.73982275390625,0.00011307047680020332,0.01851285994052887,-0.10387419164180756
1633780532890701600,13.75970166015625,-0.003701401175931096,0.03305269032716751,-0.027322618290781975
1633780532910580700,13.779580810546875,0.012742286548018456,0.05304504185914993,0.05556587129831314
1633780532930459400,13.79945947265625,0.05015568807721138,0.07614576816558838,0.11589575558900833
1633780532950339600,13.819339599609375,0.06697124987840652,0.07577759027481079,0.16289079189300537
1633780532970218800,13.83921875,0.06437552720308304,0.02646198309957981,0.20081394910812378
1633780532990097400,13.859097412109374,0.05936770886182785,-0.012092234566807747,0.2104288786649704
1633780533009976600,13.8789765625,0.048282310366630554,0.025650782510638237,0.15222324430942535
1633780533029856800,13.898856689453124,0.05282333493232727,0.07440118491649628,0.040082767605781555
1633780533049735400,13.9187353515625,0.053385764360427856,0.09249953180551529,-0.03665854036808014
1633780533069614600,13.938614501953126,0.061279237270355225,0.1656234711408615,-0.01510192733258009
1633780533089491700,13.95849169921875,0.06491872668266296,0.15785838663578033,0.0781666561961174
1633780533109370600,13.97837060546875,0.030960284173488617,0.051334165036678314,0.17883868515491486
1633780533129249500,13.99824951171875,0.011390569619834423,-0.004586522933095694,0.23530925810337067
1633780533149128700,14.018128662109374,0.03311591595411301,0.022598478943109512,0.23442567884922028
1633780533169008600,14.038008544921874,0.06520196050405502,0.09252020716667175,0.1619204729795456
1633780533188887600,14.057887451171876,0.07026883214712143,0.1052425429224968,0.07768216729164124
1633780533208766700,14.0777666015625,0.052066948264837265,0.06467743217945099,0.020314954221248627
1633780533228645600,14.097645751953126,0.02199258841574192,0.007049660198390484,-0.0014712547417730093
1633780533248525600,14.117525634765625,-0.0033376223873347044,-0.057047538459300995,0.0012612021528184414
1633780533268404700,14.13740478515625,-0.018864572048187256,-0.051822613924741745,-0.014677225612103939
1633780533288283600,14.15728369140625,-0.013384834863245487,-0.010204262100160122,-0.05714261904358864
1633780533308163600,14.17716357421875,-0.010501035489141941,0.005923491902649403,-0.09123968333005905
1633780533328042800,14.197042724609375,0.0029333133716136217,0.009605888277292252,-0.08045671880245209
1633780533347921700,14.216921630859375,0.012231329455971718,0.012962376698851585,-0.040176644921302795
1633780533367800800,14.23680078125,0.009335450828075409,0.013532501645386219,-0.0002436322974972427
1633780533387680500,14.256680419921874,-0.008769217878580093,0.0074493540450930595,0.01286160759627819
1633780533407559700,14.2765595703125,-0.01224691141396761,0.01618390902876854,0.0036051813513040543
1633780533427438800,14.29643896484375,-0.01846456527709961,0.028259441256523132,-0.01068061962723732
1633780533447317500,14.3163173828125,-0.021085236221551895,-0.0006683636456727982,-0.0146250631660223
1633780533467197700,14.33619775390625,-0.01700323075056076,-0.03142092376947403,-0.01642051339149475
1633780533487076600,14.35607666015625,-0.006935512647032738,-0.028832733631134033,-0.02117648348212242
1633780533506955500,14.37595556640625,0.0010573584586381912,-0.010305644944310188,-0.011419529095292091
1633780533526835700,14.395835693359375,0.018857857212424278,-0.005086291115731001,-0.000681036151945591
1633780533546714600,14.415714599609375,0.00878507737070322,-0.004851347301155329,0.008279277011752129
1633780533566593500,14.435593505859375,-0.004636356141418219,-0.016222018748521805,0.008117618970572948
1633780533586472700,14.45547265625,-0.0136796236038208,0.0022557489573955536,0.013874501921236515
1633780533606352600,14.4753525390625,-0.018357407301664352,0.02266622707247734,0.016050055623054504
1633780533626231600,14.4952314453125,-0.012314004823565483,0.018784280866384506,-0.003997037652879953
1633780533646110500,14.5151103515625,-0.017181826755404472,0.005593775771558285,-0.036501817405223846
1633780533665989600,14.53498974609375,-0.024069175124168396,0.00567688699811697,-0.051932401955127716
1633780533685869600,14.55486962890625,-0.014286251738667488,0.009660618379712105,-0.0460120253264904
1633780533705748500,14.57474853515625,0.0024421936832368374,0.01114222314208746,-0.023318419232964516
1633780533725627600,14.594627685546875,0.010790791362524033,0.0009900033473968506,0.00817935448139906
1633780533745507800,14.6145078125,0.00012179533950984478,-0.012011049315333366,0.031022630631923676
1633780533765386500,14.634386474609375,-0.007381591945886612,-0.008080583065748215,0.03267795592546463
1633780533785265700,14.654265625,0.004027468618005514,0.020298132672905922,0.02350129559636116
1633780533805144600,14.67414453125,0.014688258059322834,0.019950471818447113,0.017079466953873634
1633780533825024500,14.6940244140625,0.0057585593312978745,-0.002241668291389942,0.008005509153008461
1633780533844903700,14.713903564453124,0.0041075218468904495,-0.006920199375599623,-0.0039441632106900215
1633780533864782600,14.733782470703124,0.018560968339443207,0.01869584619998932,-0.009067199192941189
1633780533884661800,14.753661865234376,0.039712388068437576,0.05821823328733444,-0.017701150849461555
1633780533904541700,14.773541748046876,0.04455062001943588,0.08420500159263611,-0.032802432775497437
1633780533924420600,14.793420654296876,0.0482209250330925,0.05444576218724251,-0.03130202740430832
1633780533944299800,14.8132998046875,0.06004440039396286,-0.03981234133243561,-0.01097785122692585
1633780533964179700,14.8331796875,0.0791701227426529,-0.13192127645015717,-0.02918410860002041
1633780533984058600,14.85305859375,0.0838833674788475,-0.18451344966888428,-0.09149519354104996
1633780534003937800,14.872937744140625,0.05551096796989441,-0.18606393039226532,-0.15745607018470764
1633780534023816700,14.892816650390625,0.025530362501740456,-0.1290905475616455,-0.1890658289194107
1633780534043696600,14.912696533203125,0.0011473132763057947,-0.03042609989643097,-0.15983884036540985
1633780534063575800,14.932575927734375,-0.00771664921194315,0.015101386234164238,-0.07413966208696365
1633780534083454500,14.952454345703124,-0.0063230255618691444,0.05463344603776932,0.03117329627275467
1633780534103333400,14.97233349609375,-0.005329314153641462,0.0552198551595211,0.13599446415901184
1633780534123213300,14.99221337890625,-0.0018689173739403486,0.03539587929844856,0.17370948195457458
1633780534143092500,15.012092529296876,-0.012014802545309067,0.02370491996407509,0.1446932852268219
1633780534162971400,15.031971435546875,-0.031911641359329224,0.011934681795537472,0.06445960700511932
1633780534182851300,15.051851318359375,-0.027518780902028084,-0.0015924638137221336,-0.03525227680802345
1633780534202730500,15.07173046875,-0.019643910229206085,-0.014915063045918941,-0.08152613043785095
1633780534222609400,15.091609375,-0.012257101014256477,-0.015281514264643192,-0.07520831376314163
1633780534242488300,15.11148828125,-0.0033468659967184067,0.004426014609634876,-0.09596089273691177
1633780534262368500,15.131368408203125,-0.007961463183164597,0.020793719217181206,-0.12617985904216766
1633780534282247400,15.151247314453125,-0.011232228949666023,0.023826446384191513,-0.12628966569900513
1633780534302126300,15.171126220703124,-0.03259783983230591,-0.003594248555600643,-0.08095058798789978
1633780534322006500,15.191006591796874,-0.042926397174596786,-0.014089923352003098,-0.026108315214514732
1633780534341885400,15.210885498046874,-0.03430590778589249,0.003170323558151722,0.023537253960967064
1633780534361764400,15.230764404296876,-0.008212507702410221,0.02175598032772541,0.0679609626531601
1633780534381643300,15.250643310546875,0.004923571832478046,0.018708381801843643,0.09534499794244766
1633780534401523500,15.2705234375,0.005871934816241264,-0.00236681941896677,0.0995698794722557
1633780534421402400,15.29040234375,0.01073111779987812,-0.01777256280183792,0.08393319696187973
1633780534441281300,15.31028125,0.012953406199812889,-0.025243282318115234,0.06264252215623856
1633780534461160400,15.330160400390625,0.009506182745099068,-0.021646376699209213,0.032598406076431274
1633780534481040400,15.350040283203125,0.008387605659663677,-0.020259249955415726,0.022967752069234848
1633780534500919300,15.369919189453125,0.011832345277071,-0.014658630825579166,0.017113840207457542
1633780534520798500,15.389798583984375,0.014292089268565178,-0.010692540556192398,0.0046581001952290535
1633780534540678400,15.409678466796874,0.005833737552165985,-0.013616486452519894,-0.007576853968203068
1633780534560557300,15.429557373046874,0.008038148283958435,-0.00037167128175497055,-0.01909540966153145
1633780534580436500,15.4494365234375,0.012513246387243271,-0.027580995112657547,-0.06258968263864517
1633780534600315400,15.4693154296875,0.013079080730676651,-0.039598479866981506,-0.10065365582704544
1633780534620195300,15.4891953125,0.036169614642858505,-0.03992080315947533,-0.06258171796798706
1633780534640074500,15.509074462890625,0.05009681358933449,-0.037464745342731476,0.05419932305812836
1633780534659953400,15.528953369140625,0.04667717218399048,-0.02698315680027008,0.14652758836746216
1633780534679833300,15.548833251953125,0.03801226243376732,-0.009380042552947998,0.16555440425872803
1633780534699712300,15.568712158203125,0.03308631852269173,0.013972454704344273,0.1347847580909729
1633780534719591400,15.58859130859375,0.02148078754544258,0.01870099827647209,0.07218886911869049
1633780534739470600,15.608470703125,0.0012476218398660421,0.012484564445912838,0.01261474471539259
1633780534759350300,15.628350341796875,-0.020832745358347893,0.016519293189048767,-0.042789388447999954
1633780534779229400,15.6482294921875,-0.02191382274031639,0.026669440791010857,-0.07629754394292831
1633780534799108400,15.6681083984375,-0.001091156154870987,0.0280463770031929,-0.07794616371393204
1633780534818988300,15.68798828125,0.010466702282428741,0.03045288659632206,-0.04119933769106865
1633780534838867500,15.707867431640626,0.018885836005210876,0.017949236556887627,-0.030152060091495514
1633780534858746400,15.727746337890625,0.021501248702406883,-0.007826773449778557,-0.04650792479515076
1633780534878625300,15.747625244140625,0.00880400650203228,-0.021376904100179672,-0.048461295664310455
1633780534898505500,15.76750537109375,0.005037339404225349,-0.023157998919487,0.0013536501210182905
1633780534918384400,15.78738427734375,-0.0030985581688582897,-0.0186788160353899,0.07544494420289993
1633780534938263300,15.80726318359375,-0.00814275536686182,-0.00946068111807108,0.12292307615280151
1633780534958143500,15.8271435546875,-0.017791150137782097,-0.022292017936706543,0.09335380792617798
1633780534978022400,15.8470224609375,-0.015758465975522995,-0.020346874371170998,0.025853335857391357
1633780534997901300,15.8669013671875,0.0030705947428941727,0.0016980832442641258,-0.019193969666957855
1633780535017780200,15.8867802734375,0.01889432966709137,0.0018416820093989372,-0.031911008059978485
1633780535037660400,15.906660400390624,0.01664133369922638,-0.01924244500696659,-0.03463320434093475
1633780535057539600,15.92653955078125,-0.006238012108951807,-0.028156228363513947,-0.042578671127557755
1633780535077417700,15.946417724609375,-0.015937115997076035,-0.018563605844974518,-0.0452168732881546
1633780535097297000,15.966296875,-0.02607630379498005,0.005323884077370167,-0.03370030224323273
1633780535117176800,15.9861767578125,-0.019448554143309593,0.02111402526497841,0.004330951254814863
1633780535137056000,16.006055908203123,-0.01091039925813675,0.02903907001018524,0.038211971521377563
1633780535156934700,16.0259345703125,-0.005414689891040325,0.015416461043059826,0.03610972315073013
1633780535176814800,16.04581494140625,-0.011124842800199986,-0.018326859921216965,-0.008677791804075241
1633780535196694000,16.065694091796875,-0.027581825852394104,-0.04559933394193649,-0.03295230120420456
1633780535216572700,16.08557275390625,-0.043785445392131805,-0.042021721601486206,-0.005997243337333202
1633780535236451800,16.105451904296874,-0.014117121696472168,-0.0066682263277471066,0.023826753720641136
1633780535256332000,16.12533203125,-0.012493964284658432,-0.020739156752824783,0.01937812566757202
1633780535276210700,16.145210693359374,0.00854305550456047,-0.002908027730882168,0.02115035243332386
1633780535296089900,16.16508984375,0.020896779373288155,-0.001262439414858818,0.03128078579902649
1633780535315970000,16.184969970703126,0.024403244256973267,-0.005758675746619701,0.021607616916298866
1633780535335848700,16.2048486328125,0.027567749843001366,-0.015332125127315521,0.0019242707639932632
1633780535355728000,16.224727783203125,0.01616447977721691,-0.002041333355009556,-0.009262035600841045
1633780535375606800,16.244606689453125,0.024690384045243263,0.008694945834577084,0.00001350638922303915
1633780535395486700,16.26448681640625,0.01087217777967453,0.007762388326227665,-0.001934785395860672
1633780535415366000,16.284365966796877,0.004782148636877537,0.012569097802042961,-0.01354648731648922
1633780535435244800,16.304244873046876,-0.0009911989327520132,0.035034213215112686,-0.0073436833918094635
1633780535455124000,16.3241240234375,-0.005710862576961517,0.052731551229953766,0.003976727835834026
1633780535475004000,16.34400390625,-0.0022015604190528393,0.05367423593997955,0.0017001142259687185
1633780535494882800,16.3638828125,-0.010221794247627258,0.026236388832330704,-0.023863596841692924
1633780535514762000,16.383761962890624,-0.011030240915715694,0.0038958974182605743,-0.03823939338326454
1633780535534641700,16.4036416015625,-0.0011742569040507078,0.00004760175943374634,-0.018720539286732674
1633780535554520800,16.423520751953124,-0.006574003025889397,-0.006025400478392839,0.008813673630356789
1633780535574400000,16.44339990234375,0.0007272301008924842,0.021111978217959404,0.04086087644100189
1633780535594279700,16.46327978515625,-0.0002935889642685652,0.027654241770505905,0.054195232689380646
1633780535614158800,16.483158935546875,-0.007879424840211868,0.02837626077234745,0.03827890753746033
1633780535634037800,16.503037841796875,-0.01220762450248003,0.010711460374295712,0.004861471243202686
1633780535653917000,16.5229169921875,0.0007363440236076713,0.028610650449991226,-0.021464264020323753
1633780535673796900,16.542796875,-0.00796589907258749,0.016119131818413734,-0.025297081097960472
1633780535693675800,16.56267578125,-0.016469215974211693,0.002077757380902767,-0.011776894330978394
1633780535713555000,16.582554931640626,-0.013116433285176754,-0.002109079621732235,-0.005169401876628399
1633780535733433900,16.602433837890626,-0.009293602779507637,0.0008107293397188187,-0.011520851403474808
1633780535753313800,16.622313720703126,-0.00013214629143476486,0.012013159692287445,-0.011531458236277103
1633780535773193000,16.64219287109375,-0.002081359038129449,0.007816522382199764,0.0032318057492375374
1633780535793071900,16.66207177734375,-0.005759569816291332,-0.0023381300270557404,0.032404303550720215
1633780535812951800,16.681951904296874,-0.010366108268499374,0.02081495150923729,0.025354210287332535
1633780535832831000,16.7018310546875,-0.020971862599253654,0.02975125052034855,-0.01621849089860916
1633780535852710000,16.7217099609375,-0.030346466228365898,0.03204220160841942,-0.03675694391131401
1633780535872588800,16.7415888671875,-0.0036887149326503277,0.060042623430490494,-0.021497318521142006
1633780535892469000,16.761468994140625,0.038837116211652756,0.02280443347990513,-0.02493414655327797
1633780535912348000,16.781347900390625,0.04444662854075432,-0.0345681756734848,-0.0405321829020977
1633780535932226800,16.801226806640624,0.05948226526379585,-0.04448138549923897,0.014115536585450172
1633780535952107000,16.82110693359375,0.06267489492893219,-0.054915063083171844,0.0908958911895752
1633780535971986000,16.84098583984375,0.060260117053985596,-0.04987376183271408,0.1629958152770996
1633780535991864800,16.86086474609375,0.05539683625102043,-0.039303217083215714,0.23211729526519775
1633780536011743700,16.88074365234375,0.0524858720600605,-0.008500214666128159,0.23445402085781097
1633780536031624000,16.9006240234375,0.02102256752550602,0.024986177682876587,0.1457654982805252
1633780536051502800,16.9205029296875,-0.010951993986964226,0.0699501633644104,0.009558357298374176
1633780536071381800,16.9403818359375,-0.03511165827512741,0.11418899893760681,-0.09312248229980469
1633780536091262000,16.960261962890623,-0.06108635663986206,0.08644848316907883,-0.12682366371154785
1633780536111140900,16.980140869140627,-0.0626254454255104,0.027332855388522148,-0.12098481506109238
1633780536131019800,17.000019775390626,-0.04227006807923317,-0.030422106385231018,-0.12120188027620316
1633780536150899000,17.01989892578125,-0.0047327750362455845,-0.037800535559654236,-0.09757982939481735
1633780536170779000,17.03977880859375,0.019322920590639114,-0.03785436600446701,-0.03105911612510681
1633780536190657800,17.05965771484375,0.016577595844864845,-0.026291800662875175,0.043106116354465485
1633780536210537000,17.079536865234374,0.0134792011231184,0.008734099566936493,0.08530116826295853
1633780536230416000,17.099415771484374,0.011896131560206413,0.04896862804889679,0.08702855557203293
1633780536250295800,17.1192958984375,0.0014394869795069098,0.04296916350722313,0.06097309663891792
1633780536270175000,17.139175048828125,-0.00997566245496273,0.028692811727523804,0.007320810575038195
1633780536290054000,17.159053955078125,-0.0038184798322618008,0.02649221569299698,-0.04054921492934227
1633780536309933800,17.178933837890625,0.006845753639936447,0.014804749749600887,-0.0591324083507061
1633780536329813000,17.19881298828125,0.013587091118097305,-0.0004633478820323944,-0.03383604437112808
1633780536349692000,17.21869189453125,0.022599080577492714,-0.004342487547546625,0.012696070596575737
1633780536369571000,17.238571044921876,0.02839367464184761,-0.0028918934985995293,0.05213477090001106
1633780536389450800,17.25845068359375,0.0320502370595932,-0.011797557584941387,0.05718090385198593
1633780536409330000,17.278329833984376,0.016533466055989265,-0.023542281240224838,0.029338696971535683
1633780536429209000,17.298208984375,0.0049301134422421455,0.011633498594164848,0.003894567023962736
1633780536449088800,17.3180888671875,0.002648116322234273,0.018823053687810898,-0.01733561046421528
1633780536468968000,17.337968017578124,0.004029273055493832,0.03490476310253143,-0.03308583423495293
1633780536488846800,17.357846923828124,0.0019800993613898754,0.025503989309072495,-0.03877948224544525
1633780536508725800,17.377725830078123,0.004963688552379608,0.02069469913840294,-0.025586318224668503
1633780536528606000,17.39760595703125,0.005775902885943651,-0.016862643882632256,-0.016111189499497414
1633780536548484900,17.41748486328125,-0.00498646404594183,-0.0381745919585228,-0.014891993254423141
1633780536568364000,17.437364013671875,0.0030458271503448486,-0.008364404551684856,-0.018525516614317894
1633780536588242700,17.45724267578125,0.0071910652332007885,0.040313079953193665,-0.007656428497284651
1633780536608123000,17.477122802734375,-0.00787892285734415,0.058716535568237305,0.0031487923115491867
1633780536628002000,17.497001953125,-0.015540819615125656,0.07638028264045715,0.01229279674589634
1633780536647880700,17.516880615234374,-0.030436472967267036,0.0876193419098854,0.030131695792078972
1633780536667761000,17.536760986328126,-0.04326014220714569,0.06718751043081284,0.04715218394994736
1633780536687640000,17.55664013671875,-0.04718058928847313,0.054135456681251526,0.05760946869850159
1633780536707518700,17.576518798828126,-0.04611822962760925,0.0664360299706459,0.07234732806682587
1633780536727398000,17.59639794921875,-0.02515854686498642,0.07451153546571732,0.08191266655921936
1633780536747278000,17.616278076171874,-0.0204787515103817,0.04965328425168991,0.052986156195402145
1633780536767156700,17.63615673828125,-0.012457182630896568,0.015039835125207901,0.009531017392873764
1633780536787036000,17.656035888671877,0.0012299740919843316,-0.00600656121969223,-0.019072944298386574
1633780536806916000,17.675916015625,0.0023491806350648403,-0.01580727845430374,-0.021741200238466263
1633780536826794800,17.695794677734376,-0.011095942929387093,-0.0265817753970623,-0.009076923131942749
1633780536846674000,17.715673828125,-0.0034871967509388924,0.017832165583968163,0.010495812632143497
1633780536866552800,17.735552734375,0.011049622669816017,0.047692831605672836,0.038857974112033844
1633780536886432800,17.755432861328124,0.003785740816965699,0.04296346753835678,0.059314899146556854
1633780536906312000,17.77531201171875,-0.004435832612216473,0.02854865789413452,0.03848772495985031
1633780536926190800,17.79519091796875,-0.005730639211833477,0.036656275391578674,0.009647492319345474
1633780536946070000,17.815070068359375,0.003539586905390024,0.042625442147254944,-0.009653573855757713
1633780536965949700,17.83494970703125,-0.0011196322739124298,0.026910599321126938,-0.018471339717507362
1633780536985828900,17.854828857421875,0.005900696851313114,0.030908577144145966,-0.014254153706133366
1633780537005708000,17.8747080078125,0.022732427343726158,0.027098722755908966,-0.006696860305964947
1633780537025587700,17.894587646484375,0.031738072633743286,0.019260546192526817,-0.007762919180095196
1633780537045467000,17.914466796875,0.03035539947450161,0.00984568614512682,-0.015226450748741627
1633780537065346000,17.934345947265626,0.033828411251306534,0.02183011919260025,-0.01294176559895277
1633780537085225000,17.954224853515626,0.03690997138619423,0.007661894895136356,0.013094935566186905
1633780537105105000,17.97410498046875,0.02146333083510399,-0.0008710874244570732,0.03339437022805214
1633780537124984000,17.993984130859374,0.013213835656642914,0.0002900809049606323,0.04013967886567116
1633780537144863000,18.013863037109374,0.009076141752302647,-0.004137147683650255,0.023794546723365784
1633780537164742000,18.033741943359374,0.01423953752964735,0.00029489491134881973,0.0024927379563450813
1633780537184622000,18.0536220703125,0.005866904743015766,0.001990601420402527,-0.00014959159307181835
1633780537204501000,18.0735009765625,0.0013656389201059937,0.0027777282521128654,-0.003487976733595133
1633780537224380000,18.0933798828125,0.006766359321773052,0.00892284233123064,-0.0001107226125895977
1633780537244260000,18.113260009765625,0.007933784276247025,-0.004692601040005684,0.0071669104509055614
1633780537264139000,18.133138916015625,-0.01330333761870861,-0.0070075844414532185,0.013662738725543022
1633780537284018000,18.153017822265625,-0.011130142956972122,-0.013312429189682007,0.0035417848266661167
1633780537303896800,18.172896728515624,-0.00948772020637989,-0.00573429511860013,0.0018169862451031804
1633780537323777000,18.192777099609376,-0.013410653918981552,0.009301510639488697,0.009239915758371353
1633780537343656000,18.212656005859376,-0.02900160662829876,-0.006045650690793991,0.00010218971874564886
1633780537363534800,18.232534912109376,-0.04191349074244499,-0.016128981485962868,-0.0207219235599041
1633780537383415000,18.2524150390625,-0.04127516970038414,-0.02672751434147358,-0.029194481670856476
1633780537403294200,18.272294189453124,-0.030365288257598877,-0.007669814396649599,-0.024197794497013092
1633780537423172900,18.2921728515625,-0.013659898191690445,-0.008168864995241165,-0.008780968375504017
1633780537443052000,18.312052001953123,-0.009414955973625183,-0.0032053478062152863,0.010033122263848782
1633780537462932000,18.331931884765623,-0.01717720367014408,-0.011440467089414597,0.02359437756240368
1633780537482811000,18.351810791015627,-0.021977588534355164,-0.020027153193950653,0.015347549691796303
1633780537502690000,18.37168994140625,-0.02169220708310604,-0.014742767438292503,-0.0017863116227090359
1633780537522569000,18.39156884765625,-0.02129959873855114,0.003628527745604515,-0.008324620313942432
1633780537542449000,18.411448974609375,-0.018672626465559006,0.0039332471787929535,-0.009866233915090561
1633780537562327800,18.431327880859374,-0.013835073448717594,-0.012295156717300415,-0.012604983523488045
1633780537582207000,18.45120703125,-0.0160712618380785,-0.029538949951529503,-0.00932353176176548
1633780537602087000,18.4710869140625,-0.01283310167491436,-0.031993165612220764,-0.005343500524759293
1633780537621965800,18.4909658203125,-0.0044333492405712605,0.00017371773719787598,0.010871490463614464
1633780537641845000,18.510844970703126,0.001894188579171896,0.004649696871638298,0.012649502605199814
1633780537661724000,18.530723876953125,-0.013972457498311996,0.004199795424938202,-0.002179425209760666
1633780537681603800,18.550603759765625,-0.014173125848174095,0.00440219696611166,-0.020739976316690445
1633780537701483000,18.57048291015625,-0.012075504288077354,0.008403261192142963,-0.020386433228850365
1633780537721362000,18.59036181640625,-0.005048248916864395,0.013682748191058636,-0.006013813428580761
1633780537741241000,18.610240966796876,-0.0022893026471138,0.008140741847455502,-0.0022312719374895096
1633780537761121000,18.63012109375,0.011975731700658798,-0.002045244909822941,-0.0017534422222524881
1633780537781000000,18.65,0.025065958499908447,-0.004889664705842733,0.0035335782449692488
1633780537800879000,18.669879150390624,0.040246665477752686,-0.01632939651608467,0.0025821481831371784
1633780537820757800,18.6897578125,0.038229212164878845,-0.018015563488006592,0.017198758199810982
1633780537840638000,18.709637939453124,0.02391420118510723,-0.025756053626537323,0.047736477106809616
1633780537860517000,18.72951708984375,0.0045708222314715385,0.0032175909727811813,0.0649314671754837
1633780537880395800,18.749395751953124,-0.0027907565236091614,0.04701070487499237,0.03939930349588394
1633780537900276000,18.76927587890625,0.012451735325157642,0.054129213094711304,0.010667640715837479
1633780537920155100,18.789155029296875,0.0008125100284814835,0.012987121008336544,-0.0027871455531567335
1633780537940033800,18.80903369140625,0.015036411583423615,0.02373329922556877,-0.009502016939222813
1633780537959913000,18.828912841796875,0.009439933113753796,0.004716347903013229,-0.05190155282616615
1633780537979793200,18.848793212890627,-0.0023032985627651215,0.011309126392006874,-0.10412617772817612
1633780537999672000,18.868672119140626,-0.0031625661067664623,0.014527815394103527,-0.10427406430244446
1633780538019551000,18.888551025390626,0.002842470770701766,0.020872700959444046,-0.03790732100605965
1633780538039430000,18.908429931640626,0.0165299940854311,0.019510483369231224,0.05805967003107071
1633780538059310000,18.92831005859375,0.031971752643585205,0.00734584778547287,0.09659069031476974
1633780538079188700,18.948188720703126,0.033866848796606064,0.010969716124236584,0.06483260542154312
1633780538099068000,18.96806787109375,0.02430538646876812,0.014983600936830044,0.01606341265141964
1633780538118948000,18.987947998046874,0.0121773611754179,0.01738034561276436,-0.0029607247561216354
1633780538138826800,19.00782666015625,0.011742999777197838,0.009465696290135384,-0.006060910876840353
1633780538158706000,19.027705810546873,0.013307606801390648,0.0041814520955085754,-0.01689811237156391
1633780538178584800,19.047584716796877,0.017182398587465286,-0.0012223999947309494,-0.03258252143859863
1633780538198464800,19.06746484375,0.022180836647748947,-0.005465461872518063,-0.038469038903713226
1633780538218344000,19.087343994140625,0.015450317412614822,-0.0028563914820551872,-0.00886459182947874
1633780538238222800,19.107222900390624,0.014739185571670532,0.0017134184017777443,0.031027257442474365
1633780538258102000,19.12710205078125,0.012820368632674217,0.008115492761135101,0.047245755791664124
1633780538277982000,19.14698193359375,-0.003341153496876359,0.009574987925589085,0.028439389541745186
1633780538297860900,19.16686083984375,-0.014188466593623161,-0.0013070562854409218,0.007648243568837643
1633780538317740000,19.186739990234376,-0.006599177606403828,-0.003357616253197193,0.011308018118143082
1633780538337619700,19.20661962890625,0.002525602001696825,-0.0014895740896463394,0.01999642699956894
1633780538357499000,19.226498779296875,0.0048014922067523,0.0013424083590507507,0.007168810814619064
1633780538377378000,19.2463779296875,0.005390721373260021,0.0012846998870372772,-0.013350768014788628
1633780538397257000,19.266257080078127,0.0004110934678465128,-0.029746565967798233,-0.025467483326792717
1633780538417137000,19.286136962890627,-0.003121668705716729,-0.024093545973300934,-0.01642690971493721
1633780538437015800,19.306015869140627,-0.007010181434452534,0.015849560499191284,0.012474956922233105
1633780538456895000,19.32589501953125,0.0061800600960850716,0.07877667993307114,0.03246898204088211
1633780538476774000,19.34577392578125,0.01194320060312748,0.0725984126329422,0.0071311527863144875
1633780538496653800,19.36565380859375,-0.020115261897444725,-0.016797956079244614,-0.041766270995140076
1633780538516533000,19.385532958984374,-0.022395331412553787,-0.07631595432758331,-0.04655924066901207
1633780538536412000,19.405411865234374,-0.005983790382742882,-0.054806068539619446,-0.0025339326821267605
1633780538556291800,19.425291748046874,0.0013482405338436365,-0.010062403976917267,0.029921166598796844
1633780538576171000,19.4451708984375,-0.0024787026923149824,0.011935100890696049,0.05431229993700981
1633780538596049700,19.465049560546873,-0.008812044747173786,0.009991721250116825,0.05572718009352684
1633780538615928800,19.4849287109375,-0.00226280908100307,-0.03518950194120407,0.004732018336653709
1633780538635809000,19.50480908203125,0.014262410812079906,-0.04455412179231644,-0.04171342775225639
1633780538655688000,19.52468798828125,0.03465262055397034,-0.03051639348268509,-0.01426879595965147
1633780538675566800,19.54456689453125,0.039651233702898026,-0.0016065305098891258,0.03490346670150757
1633780538695445800,19.56444580078125,0.026055777445435524,0.0012408606708049774,0.034290898591279984
1633780538715326000,19.584325927734376,0.00525846891105175,-0.020962249487638474,-0.012728933244943619
1633780538735204900,19.604204833984376,-0.0011029639281332493,-0.01057271659374237,-0.0412878543138504
1633780538755083800,19.624083740234376,-0.003024109173566103,-0.029107509180903435,-0.03769576549530029
1633780538774964000,19.6439638671875,-0.002460093004629016,-0.0031493576243519783,-0.016120143234729767
1633780538794843000,19.6638427734375,0.009067876264452934,0.02523043006658554,0.013137487694621086
1633780538814721800,19.6837216796875,-0.0003696491476148367,0.028058813884854317,0.006724374834448099
1633780538834601000,19.70360107421875,-0.018688013777136803,0.00005267094820737839,-0.03659119829535484
1633780538854481000,19.72348095703125,-0.009289687499403954,-0.033214688301086426,-0.06268582493066788
1633780538874359800,19.74335986328125,0.003576260292902589,-0.03958934172987938,-0.030312838032841682
1633780538894239000,19.763239013671875,0.01492980681359768,-0.021359950304031372,0.01855326071381569
1633780538914118000,19.783117919921875,0.011966342106461525,0.004363478161394596,0.028086841106414795
1633780538933997800,19.802997802734374,0.00004380219615995884,-0.008128302171826363,0.01145513728260994
1633780538953877000,19.822876953125,-0.00913487933576107,-0.002581605687737465,0.005836833268404007
1633780538973756000,19.842755859375,-0.005798746831715107,0.036730483174324036,0.01587812788784504
1633780538993634800,19.862634765625,0.006635135039687157,0.06703799217939377,0.010985243134200573
1633780539013515000,19.882514892578126,0.003861080389469862,0.018102634698152542,-0.04552356153726578
1633780539033394000,19.902393798828125,-0.005792703945189714,-0.05895145982503891,-0.0948701798915863
1633780539053273000,19.922273193359374,0.002863203641027212,-0.04283831641077995,-0.06247309222817421
1633780539073152800,19.94215283203125,-0.0016334566753357649,-0.02086273953318596,0.003950083628296852
1633780539093033000,19.962032958984373,-0.001124564092606306,0.004706411622464657,0.04351551830768585
1633780539112911600,19.98191162109375,0.010473314672708511,0.028439775109291077,0.08021394163370132
1633780539132790800,20.001790771484377,0.0016912335995584726,0.007334277033805847,0.06293244659900665
1633780539152670700,20.021670654296877,0.004128007218241692,-0.023521171882748604,-0.01691768877208233
1633780539172549600,20.041549560546876,0.02286238968372345,-0.016238633543252945,-0.055754683911800385
1633780539192428800,20.0614287109375,0.03274744376540184,0.025405308231711388,-0.022176656872034073
1633780539212307700,20.0813076171875,0.010571704246103764,0.007976865395903587,-0.013013706542551517
1633780539232187600,20.101187744140624,-0.013293860480189323,-0.017626265063881874,-0.03412996232509613
1633780539252066600,20.121066650390624,-0.00008831871673464775,-0.01709246262907982,-0.04918603599071503
1633780539271945700,20.14094580078125,0.013949497602880001,0.0041978731751441956,-0.04418895021080971
1633780539291825700,20.16082568359375,0.012323104776442051,0.006791260093450546,-0.0486750453710556
1633780539311704600,20.18070458984375,0.019736358895897865,0.026603922247886658,-0.030866160988807678
1633780539331583700,20.200583740234375,0.01411697268486023,0.029322274029254913,0.0032051154412329197
1633780539351462700,20.220462646484375,0.020040370523929596,0.05466829985380173,0.017441945150494576
1633780539371342600,20.240342529296875,0.019051089882850647,0.08215067535638809,-0.005093235522508621
1633780539391221800,20.2602216796875,0.021979589015245438,0.06635037064552307,-0.056405745446681976
1633780539411100700,20.2801005859375,0.028279870748519897,0.05803992971777916,-0.06384184211492538
1633780539430979800,20.299979736328126,0.027162427082657814,0.016663789749145508,-0.04617119953036308
1633780539450859800,20.31985986328125,-0.08624126762151718,0.21117348968982697,0.5549349784851074
1633780539470738700,20.33973876953125,0.08498215675354004,0.04261002317070961,0.7134255766868591
1633780539490617900,20.359617919921874,0.03817296773195267,-0.17443645000457764,0.1429690718650818
1633780539510496500,20.37949658203125,-0.07695325464010239,-0.3721703290939331,-0.42712637782096863
1633780539530376700,20.399376708984374,-0.016619179397821426,-0.08666963875293732,-0.5675122141838074
