 Acc_timestamp,Accx,Accy,Accz,Gyro_timestamp,Gyrox,Gyroy,Gyroz,Baro_timestamp,Pressure_Reading
 208469696.000000, 0.825524 , 0.665205, 9.667004, 0.000000, 0.000000,  0.000000,  0.000000, 0.000000,  0.000000 
 208489088.000000, 0.768096 , 0.686740, 9.626326, 824533824.000000, -0.420000,  0.420000,  0.070000, 0.000000,  0.000000 
 208509440.000000, 0.847059 , 0.689133, 9.645468, 824553216.000000, -0.420000,  0.350000,  0.070000, 0.000000,  0.000000 
 208529088.000000, 0.780060 , 0.672383, 9.662218, 824573504.000000, -0.490000,  0.420000,  0.070000, 0.000000,  0.000000 
 208549056.000000, 0.837488 , 0.665205, 9.619147, 824593216.000000, -0.630000,  0.420000,  0.070000, 0.000000,  0.000000 
 208569664.000000, 0.789631 , 0.696311, 9.645468, 824613184.000000, -0.420000,  0.350000,  0.210000, 0.000000,  0.000000 
 208589056.000000, 0.784846 , 0.710668, 9.647861, 824633792.000000, -0.140000,  0.420000,  0.070000, 0.000000,  0.000000 
 208609344.000000, 0.849452 , 0.669990, 9.616754, 824653184.000000, -0.280000,  0.280000,  0.070000, 0.000000,  0.000000 
 208629056.000000, 0.789631 , 0.686740, 9.616754, 824673472.000000, -0.490000,  0.280000,  0.070000, 0.000000,  0.000000 
 208649024.000000, 0.792024 , 0.681954, 9.647861, 824693120.000000, -0.700000,  0.490000,  0.070000, 0.000000,  0.000000 
 208669632.000000, 0.799203 , 0.686740, 9.659825, 824713152.000000, -0.770000,  0.420000,  0.070000, 0.000000,  0.000000 
 208689024.000000, 0.780060 , 0.653241, 9.621540, 824733696.000000, -0.630000,  0.280000,  0.070000, 0.000000,  0.000000 
 208709312.000000, 0.782453 , 0.708275, 9.655040, 824753088.000000, -0.350000,  0.280000,  0.070000, 0.000000,  0.000000 
 208728960.000000, 0.772882 , 0.703490, 9.621540, 824773440.000000, -0.140000,  0.280000,  0.070000, 0.000000,  0.000000 
 208748992.000000, 0.808774 , 0.698704, 9.607183, 824793088.000000, 0.070000,  0.280000,  0.070000, 0.000000,  0.000000 
 208769536.000000, 0.830309 , 0.715454, 9.640682, 824813056.000000, 0.070000,  0.210000,  0.070000, 0.000000,  0.000000 
 208788992.000000, 0.811167 , 0.679562, 9.635897, 824833664.000000, -0.140000,  0.280000,  0.070000, 0.000000,  0.000000 
 208809280.000000, 0.789631 , 0.681954, 9.628718, 824853120.000000, -0.280000,  0.350000,  0.070000, 0.000000,  0.000000 
 208828928.000000, 0.782453 , 0.665205, 9.626326, 824873344.000000, -0.350000,  0.490000,  0.070000, 0.000000,  0.000000 
 208848896.000000, 0.782453 , 0.681954, 9.619147, 824893056.000000, -0.490000,  0.490000,  0.070000, 0.000000,  0.000000 
 208869504.000000, 0.768096 , 0.653241, 9.631111, 824913024.000000, -0.420000,  0.420000,  0.140000, 0.000000,  0.000000 
 208888896.000000, 0.825524 , 0.667598, 9.635897, 824933632.000000, -0.280000,  0.350000,  0.070000, 0.000000,  0.000000 
 208909184.000000, 0.770489 , 0.715454, 9.633504, 824953024.000000, -0.210000,  0.350000,  0.070000, 0.000000,  0.000000 
 208928896.000000, 0.856631 , 0.681954, 9.621540, 824973312.000000, -0.350000,  0.420000,  0.070000, 0.000000,  0.000000 
 208948864.000000, 0.820738 , 0.658026, 9.631111, 824992960.000000, -0.490000,  0.420000,  0.070000, 0.000000,  0.000000 
 208969472.000000, 0.784846 , 0.691526, 9.645468, 825012992.000000, -0.490000,  0.420000,  0.140000, 0.000000,  0.000000 
 208988864.000000, 0.803988 , 0.696311, 9.623933, 825033536.000000, -0.280000,  0.420000,  0.070000, 0.000000,  0.000000 
 209009152.000000, 0.799203 , 0.703490, 9.631111, 825073216.000000, -0.280000,  0.350000,  0.070000, 0.000000,  0.000000 
 209028800.000000, 0.818345 , 0.701097, 9.652647, 0.000000, 0.000000,  0.000000,  0.000000, 0.000000,  0.000000 
 209048832.000000, 0.765703 , 0.715454, 9.607183, 825092928.000000, -0.420000,  0.350000,  0.070000, 0.000000,  0.000000 
 209071360.000000, 0.837488 , 0.701097, 9.619147, 825112896.000000, -0.560000,  0.420000,  0.070000, 0.000000,  0.000000 
 209088768.000000, 0.789631 , 0.681954, 9.652647, 825135424.000000, -0.630000,  0.350000,  0.070000, 0.000000,  0.000000 
 209109120.000000, 0.789631 , 0.710668, 9.635897, 825152896.000000, -0.560000,  0.420000,  0.070000, 0.000000,  0.000000 
 209128768.000000, 0.770489 , 0.658026, 9.643075, 825173184.000000, -0.420000,  0.420000,  0.070000, 0.000000,  0.000000 
 209148736.000000, 0.818345 , 0.691526, 9.611969, 825192896.000000, -0.280000,  0.350000,  0.070000, 0.000000,  0.000000 
 209169344.000000, 0.787239 , 0.739382, 9.626326, 825212864.000000, -0.280000,  0.350000,  0.140000, 0.000000,  0.000000 
 209188736.000000, 0.780060 , 0.681954, 9.674182, 825233472.000000, -0.070000,  0.420000,  0.210000, 0.000000,  0.000000 
 209209024.000000, 0.801596 , 0.617348, 9.659825, 825252864.000000, -0.420000,  0.490000,  0.280000, 0.000000,  0.000000 
 209228736.000000, 0.792024 , 0.648455, 9.736395, 825273152.000000, -0.560000,  0.420000,  0.210000, 0.000000,  0.000000 
 209248704.000000, 0.808774 , 0.679562, 9.600004, 825292800.000000, -0.070000,  0.420000,  0.140000, 0.000000,  0.000000 
 209269312.000000, 0.849452 , 0.768096, 9.652647, 825312832.000000, 0.910000,  0.070000,  -0.070000, 0.000000,  0.000000 
 209288704.000000, 0.792024 , 0.612563, 9.533006, 825333376.000000, 1.330000,  -0.630000,  -0.210000, 0.000000,  0.000000 
 209308992.000000, 0.780060 , 0.758525, 9.671788, 825352768.000000, 1.190000,  0.700000,  0.140000, 0.000000,  0.000000 
 209328640.000000, 0.830309 , 0.782453, 9.645468, 825373056.000000, 0.210000,  -0.140000,  -0.280000, 0.000000,  0.000000 
 209348672.000000, 0.796810 , 0.689133, 9.652647, 825392768.000000, 0.280000,  0.070000,  -0.070000, 0.000000,  0.000000 
 209369216.000000, 0.801596 , 0.641276, 9.635897, 825412736.000000, -0.700000,  0.560000,  0.210000, 0.000000,  0.000000 
 209388608.000000, 0.784846 , 0.710668, 9.597611, 825433344.000000, -0.770000,  0.700000,  0.070000, 0.000000,  0.000000 
 209408896.000000, 0.811167 , 0.729811, 9.631111, 825452736.000000, -0.280000,  0.140000,  0.070000, 0.000000,  0.000000 
 209428608.000000, 0.792024 , 0.732204, 9.647861, 825473024.000000, -0.280000,  0.140000,  -0.070000, 0.000000,  0.000000 
 209448576.000000, 0.768096 , 0.725025, 9.645468, 825492672.000000, -0.280000,  0.630000,  0.070000, 0.000000,  0.000000 
 209469184.000000, 0.837488 , 0.660419, 9.643075, 825512704.000000, -0.630000,  0.560000,  0.140000, 826172800.000000,  1010.466919 
 209488576.000000, 0.765703 , 0.629312, 9.647861, 825533312.000000, -0.770000,  0.280000,  0.070000, 0.000000,  0.000000 
 209508864.000000, 0.792024 , 0.674776, 9.655040, 825552640.000000, -0.420000,  0.210000,  0.070000, 0.000000,  0.000000 
 209528576.000000, 0.806381 , 0.703490, 9.650253, 825572992.000000, -0.420000,  0.280000,  0.070000, 0.000000,  0.000000 
 209548544.000000, 0.748954 , 0.729811, 9.638289, 825592640.000000, 0.140000,  0.350000,  0.070000, 0.000000,  0.000000 
 209569088.000000, 0.835095 , 0.708275, 9.633504, 825612672.000000, 0.140000,  0.280000,  0.070000, 0.000000,  0.000000 
 209588544.000000, 0.801596 , 0.701097, 9.626326, 825633216.000000, -0.280000,  0.350000,  0.070000, 0.000000,  0.000000 
 209608832.000000, 0.811167 , 0.720240, 9.626326, 825652608.000000, -0.350000,  0.350000,  0.140000, 0.000000,  0.000000 
 209628480.000000, 0.760918 , 0.713061, 9.645468, 825672896.000000, -0.350000,  0.350000,  0.070000, 0.000000,  0.000000 
 209648512.000000, 0.851845 , 0.679562, 9.619147, 825692608.000000, -0.350000,  0.350000,  0.070000, 0.000000,  0.000000 
 209669056.000000, 0.811167 , 0.672383, 9.643075, 825712576.000000, -0.210000,  0.420000,  0.070000, 0.000000,  0.000000 
 209688448.000000, 0.792024 , 0.720240, 9.638289, 825733184.000000, -0.210000,  0.280000,  0.070000, 0.000000,  0.000000 
 209708736.000000, 0.825524 , 0.739382, 9.621540, 825752576.000000, -0.140000,  0.280000,  0.140000, 0.000000,  0.000000 
 209728448.000000, 0.813560 , 0.725025, 9.633504, 825772864.000000, -0.140000,  0.350000,  0.070000, 0.000000,  0.000000 
 209748416.000000, 0.818345 , 0.720240, 9.616754, 825792512.000000, -0.210000,  0.350000,  0.070000, 0.000000,  0.000000 
 209769024.000000, 0.808774 , 0.701097, 9.647861, 825812544.000000, -0.350000,  0.350000,  0.140000, 0.000000,  0.000000 
 209788480.000000, 0.813560 , 0.689133, 9.628718, 825833088.000000, -0.420000,  0.490000,  0.140000, 0.000000,  0.000000 
 209808704.000000, 0.765703 , 0.725025, 9.621540, 825852544.000000, -0.280000,  0.490000,  0.140000, 0.000000,  0.000000 
 209828416.000000, 0.844666 , 0.734596, 9.633504, 825872832.000000, -0.280000,  0.210000,  0.070000, 0.000000,  0.000000 
 209848384.000000, 0.827917 , 0.725025, 9.602397, 825892480.000000, 0.140000,  0.280000,  0.070000, 0.000000,  0.000000 
 209868992.000000, 0.789631 , 0.732204, 9.619147, 825912512.000000, -0.210000,  0.350000,  0.070000, 0.000000,  0.000000 
 209888384.000000, 0.806381 , 0.703490, 9.664611, 825933056.000000, -0.490000,  0.420000,  0.070000, 0.000000,  0.000000 
 209908672.000000, 0.784846 , 0.684347, 9.626326, 825952448.000000, -0.700000,  0.350000,  0.070000, 0.000000,  0.000000 
 209928320.000000, 0.818345 , 0.691526, 9.638289, 825972736.000000, -0.420000,  0.420000,  0.140000, 0.000000,  0.000000 
 209948352.000000, 0.813560 , 0.722632, 9.623933, 825992448.000000, -0.280000,  0.350000,  0.070000, 0.000000,  0.000000 
 209968896.000000, 0.825524 , 0.715454, 9.619147, 826012416.000000, 0.070000,  0.280000,  0.070000, 0.000000,  0.000000 
 209988288.000000, 0.780060 , 0.715454, 9.611969, 826033024.000000, -0.070000,  0.210000,  0.070000, 0.000000,  0.000000 
 210008576.000000, 0.808774 , 0.753739, 9.600004, 826052416.000000, -0.070000,  0.350000,  0.140000, 0.000000,  0.000000 
 210028288.000000, 0.794417 , 0.736989, 9.645468, 826072704.000000, -0.140000,  0.420000,  0.140000, 0.000000,  0.000000 
 210048256.000000, 0.811167 , 0.715454, 9.657433, 826092352.000000, -0.140000,  0.280000,  0.070000, 0.000000,  0.000000 
 210070784.000000, 0.770489 , 0.722632, 9.578469, 826112384.000000, -0.140000,  0.280000,  0.070000, 0.000000,  0.000000 
 210088256.000000, 0.799203 , 0.696311, 9.602397, 826134912.000000, -0.140000,  0.280000,  0.070000, 0.000000,  0.000000 
 210108544.000000, 0.818345 , 0.684347, 9.650253, 826152320.000000, -0.280000,  0.350000,  0.070000, 0.000000,  0.000000 
 210128256.000000, 0.799203 , 0.686740, 9.638289, 826172672.000000, -0.140000,  0.420000,  0.140000, 0.000000,  0.000000 
 210148224.000000, 0.827917 , 0.736989, 9.633504, 826192320.000000, -0.070000,  0.350000,  0.140000, 0.000000,  0.000000 
 210168768.000000, 0.815953 , 0.746561, 9.611969, 826212352.000000, -0.140000,  0.210000,  0.140000, 0.000000,  0.000000 
 210188224.000000, 0.820738 , 0.689133, 9.616754, 826232896.000000, -0.490000,  0.350000,  0.070000, 0.000000,  0.000000 
 210208512.000000, 0.827917 , 0.722632, 9.614362, 826252288.000000, -0.560000,  0.420000,  0.070000, 0.000000,  0.000000 
 210228160.000000, 0.792024 , 0.756132, 9.600004, 826272576.000000, -0.560000,  0.420000,  0.070000, 0.000000,  0.000000 
 210248192.000000, 0.820738 , 0.693919, 9.628718, 826292288.000000, -0.490000,  0.280000,  0.070000, 0.000000,  0.000000 
 210268736.000000, 0.803988 , 0.641276, 9.631111, 826312256.000000, -0.560000,  0.210000,  0.070000, 0.000000,  0.000000 
 210288128.000000, 0.823131 , 0.667598, 9.628718, 826332864.000000, -0.350000,  0.280000,  0.070000, 0.000000,  0.000000 
 210308416.000000, 0.787239 , 0.770489, 9.647861, 826352256.000000, -0.070000,  0.280000,  0.070000, 0.000000,  0.000000 
 210328128.000000, 0.820738 , 0.748954, 9.621540, 826372544.000000, 0.210000,  0.280000,  0.070000, 0.000000,  0.000000 
 210348096.000000, 0.818345 , 0.703490, 9.657433, 826412224.000000, -0.350000,  0.350000,  0.070000, 0.000000,  0.000000 
 210368704.000000, 0.811167 , 0.717847, 9.650253, 0.000000, 0.000000,  0.000000,  0.000000, 0.000000,  0.000000 
 210388096.000000, 0.782453 , 0.710668, 9.647861, 826432768.000000, -0.420000,  0.350000,  0.070000, 0.000000,  0.000000 
 210408384.000000, 0.803988 , 0.698704, 9.659825, 826452160.000000, -0.350000,  0.350000,  0.070000, 0.000000,  0.000000 
 210428032.000000, 0.815953 , 0.698704, 9.626326, 826472512.000000, -0.350000,  0.420000,  0.070000, 0.000000,  0.000000 
 210448064.000000, 0.837488 , 0.748954, 9.690931, 826492160.000000, -0.420000,  0.350000,  0.140000, 0.000000,  0.000000 
 210468608.000000, 0.758525 , 0.701097, 9.667004, 826512128.000000, -0.420000,  0.350000,  0.070000, 827172224.000000,  1010.467896 
 210488000.000000, 0.777667 , 0.701097, 9.655040, 826532736.000000, -0.350000,  0.280000,  0.070000, 0.000000,  0.000000 
 210508352.000000, 0.818345 , 0.739382, 9.640682, 826552128.000000, -0.140000,  0.280000,  0.070000, 0.000000,  0.000000 
 210528000.000000, 0.854238 , 0.689133, 9.611969, 826572416.000000, -0.420000,  0.350000,  0.070000, 0.000000,  0.000000 
 210547968.000000, 0.808774 , 0.713061, 9.645468, 826592128.000000, -0.490000,  0.490000,  0.140000, 0.000000,  0.000000 
 210568576.000000, 0.792024 , 0.753739, 9.633504, 826612096.000000, -0.420000,  0.490000,  0.070000, 0.000000,  0.000000 
 210587968.000000, 0.820738 , 0.725025, 9.616754, 826632704.000000, -0.210000,  0.210000,  0.070000, 0.000000,  0.000000 
 210608256.000000, 0.832702 , 0.739382, 9.662218, 826652096.000000, -0.280000,  0.280000,  0.070000, 0.000000,  0.000000 
 210627968.000000, 0.772882 , 0.662812, 9.659825, 826672384.000000, -0.630000,  0.420000,  0.070000, 0.000000,  0.000000 
 210647936.000000, 0.823131 , 0.739382, 9.657433, 826692032.000000, -0.630000,  0.420000,  0.070000, 0.000000,  0.000000 
 210668672.000000, 0.780060 , 0.686740, 9.645468, 826712064.000000, -0.560000,  0.350000,  0.070000, 0.000000,  0.000000 
 210687936.000000, 0.803988 , 0.701097, 9.645468, 826732800.000000, -0.420000,  0.350000,  0.070000, 0.000000,  0.000000 
 210708224.000000, 0.837488 , 0.748954, 9.633504, 826752000.000000, -0.210000,  0.350000,  0.070000, 0.000000,  0.000000 
 210727872.000000, 0.808774 , 0.679562, 9.628718, 826772352.000000, -0.140000,  0.280000,  0.070000, 0.000000,  0.000000 
 210747904.000000, 0.792024 , 0.748954, 9.635897, 826792000.000000, -0.280000,  0.280000,  0.070000, 0.000000,  0.000000 
 210768448.000000, 0.789631 , 0.725025, 9.686146, 826811968.000000, -0.350000,  0.490000,  0.070000, 0.000000,  0.000000 
 210787904.000000, 0.801596 , 0.693919, 9.626326, 826832576.000000, -0.420000,  0.420000,  0.140000, 0.000000,  0.000000 
 210808192.000000, 0.875773 , 0.696311, 9.633504, 826851968.000000, -0.350000,  0.420000,  0.070000, 0.000000,  0.000000 
 210827840.000000, 0.787239 , 0.708275, 9.616754, 826872256.000000, -0.350000,  0.350000,  0.070000, 0.000000,  0.000000 
 210847808.000000, 0.799203 , 0.689133, 9.643075, 826891904.000000, -0.280000,  0.350000,  0.070000, 0.000000,  0.000000 
 210868416.000000, 0.851845 , 0.713061, 9.647861, 826911936.000000, -0.420000,  0.420000,  0.070000, 0.000000,  0.000000 
 210887808.000000, 0.823131 , 0.729811, 9.643075, 826932480.000000, -0.350000,  0.420000,  0.070000, 0.000000,  0.000000 
 210908096.000000, 0.784846 , 0.768096, 9.616754, 826951872.000000, -0.350000,  0.210000,  0.070000, 0.000000,  0.000000 
 210927808.000000, 0.799203 , 0.686740, 9.623933, 826972224.000000, -0.350000,  0.280000,  0.070000, 0.000000,  0.000000 
 210947776.000000, 0.801596 , 0.696311, 9.652647, 826991872.000000, -0.420000,  0.350000,  0.070000, 0.000000,  0.000000 
 210968320.000000, 0.830309 , 0.698704, 9.631111, 827011840.000000, -0.630000,  0.350000,  0.070000, 0.000000,  0.000000 
 210987712.000000, 0.823131 , 0.686740, 9.662218, 827032448.000000, -0.630000,  0.280000,  0.070000, 0.000000,  0.000000 
 211008064.000000, 0.823131 , 0.715454, 9.619147, 827051840.000000, -0.560000,  0.210000,  0.070000, 0.000000,  0.000000 
 211027712.000000, 0.782453 , 0.722632, 9.633504, 827072128.000000, -0.280000,  0.210000,  0.070000, 0.000000,  0.000000 
 211047744.000000, 0.866202 , 0.717847, 9.631111, 827091840.000000, -0.140000,  0.350000,  0.070000, 0.000000,  0.000000 
 211070272.000000, 0.820738 , 0.722632, 9.633504, 827111808.000000, -0.070000,  0.350000,  0.070000, 0.000000,  0.000000 
 211087680.000000, 0.849452 , 0.710668, 9.626326, 827134336.000000, -0.140000,  0.280000,  0.070000, 0.000000,  0.000000 
 211107968.000000, 0.808774 , 0.734596, 9.604790, 827151808.000000, -0.210000,  0.210000,  0.070000, 0.000000,  0.000000 
 211127680.000000, 0.792024 , 0.696311, 9.638289, 827172096.000000, -0.280000,  0.350000,  0.070000, 0.000000,  0.000000 
 211147648.000000, 0.794417 , 0.703490, 9.623933, 827191744.000000, -0.420000,  0.420000,  0.140000, 0.000000,  0.000000 
 211168256.000000, 0.775275 , 0.710668, 9.607183, 827211776.000000, -0.420000,  0.420000,  0.070000, 0.000000,  0.000000 
 211187648.000000, 0.873380 , 0.736989, 9.573684, 827232320.000000, -0.350000,  0.280000,  0.070000, 0.000000,  0.000000 
 211207936.000000, 0.806381 , 0.741775, 9.659825, 827251712.000000, -0.350000,  0.280000,  0.070000, 0.000000,  0.000000 
 211227584.000000, 0.796810 , 0.703490, 9.621540, 827272064.000000, -0.280000,  0.420000,  0.070000, 0.000000,  0.000000 
 211247616.000000, 0.820738 , 0.705883, 9.631111, 827291712.000000, -0.490000,  0.420000,  0.070000, 0.000000,  0.000000 
 211268224.000000, 0.775275 , 0.710668, 9.609575, 827311680.000000, -0.420000,  0.350000,  0.070000, 0.000000,  0.000000 
 211287616.000000, 0.808774 , 0.717847, 9.647861, 827332288.000000, -0.350000,  0.420000,  0.070000, 0.000000,  0.000000 
 211307904.000000, 0.839881 , 0.672383, 9.655040, 827351680.000000, -0.280000,  0.350000,  0.070000, 0.000000,  0.000000 
 211327552.000000, 0.801596 , 0.725025, 9.621540, 827371968.000000, -0.350000,  0.280000,  0.070000, 0.000000,  0.000000 
 211347520.000000, 0.736989 , 0.701097, 9.633504, 827391680.000000, -0.490000,  0.350000,  0.070000, 0.000000,  0.000000 
 211368128.000000, 0.787239 , 0.703490, 9.588040, 827411648.000000, -0.560000,  0.420000,  0.070000, 0.000000,  0.000000 
 211387520.000000, 0.787239 , 0.696311, 9.621540, 827432256.000000, -0.350000,  0.280000,  0.070000, 0.000000,  0.000000 
 211407808.000000, 0.818345 , 0.725025, 9.623933, 827451648.000000, -0.420000,  0.280000,  0.070000, 0.000000,  0.000000 
 211427520.000000, 0.784846 , 0.686740, 9.623933, 827471936.000000, -0.490000,  0.350000,  0.070000, 0.000000,  0.000000 
 211447488.000000, 0.827917 , 0.679562, 9.657433, 827491584.000000, -0.560000,  0.350000,  0.140000, 0.000000,  0.000000 
 211468096.000000, 0.803988 , 0.681954, 9.628718, 827511616.000000, -0.490000,  0.350000,  0.140000, 828171648.000000,  1010.466064 
 211487488.000000, 0.801596 , 0.717847, 9.645468, 827532160.000000, -0.210000,  0.350000,  0.070000, 0.000000,  0.000000 
 211507776.000000, 0.806381 , 0.634098, 9.659825, 827551552.000000, 0.070000,  0.280000,  0.070000, 0.000000,  0.000000 
 211527424.000000, 0.772882 , 0.744168, 9.683753, 827571904.000000, -0.140000,  0.280000,  0.070000, 0.000000,  0.000000 
 211547456.000000, 0.787239 , 0.696311, 9.645468, 827591552.000000, -0.280000,  0.350000,  0.070000, 0.000000,  0.000000 
 211568000.000000, 0.792024 , 0.708275, 9.633504, 827611520.000000, -0.490000,  0.350000,  0.070000, 0.000000,  0.000000 
 211587392.000000, 0.763310 , 0.720240, 9.616754, 827632128.000000, -0.420000,  0.350000,  0.140000, 0.000000,  0.000000 
 211607744.000000, 0.796810 , 0.717847, 9.652647, 827651520.000000, -0.210000,  0.350000,  0.140000, 0.000000,  0.000000 
 211627392.000000, 0.784846 , 0.703490, 9.635897, 827671808.000000, -0.210000,  0.280000,  0.070000, 0.000000,  0.000000 
 211647424.000000, 0.815953 , 0.727418, 9.597611, 827691520.000000, -0.210000,  0.280000,  0.070000, 0.000000,  0.000000 
 211667968.000000, 0.784846 , 0.679562, 9.635897, 827711488.000000, -0.140000,  0.280000,  0.070000, 0.000000,  0.000000 
 211687360.000000, 0.796810 , 0.748954, 9.640682, 827732096.000000, -0.420000,  0.210000,  0.070000, 0.000000,  0.000000 
 211707648.000000, 0.803988 , 0.691526, 9.647861, 827751488.000000, -0.630000,  0.490000,  0.070000, 0.000000,  0.000000 
 211727360.000000, 0.806381 , 0.741775, 9.657433, 827771776.000000, -0.910000,  0.420000,  0.070000, 0.000000,  0.000000 
 211747328.000000, 0.839881 , 0.669990, 9.640682, 827791424.000000, -0.700000,  0.210000,  0.070000, 0.000000,  0.000000 
 211767936.000000, 0.801596 , 0.672383, 9.640682, 827811456.000000, -0.560000,  0.280000,  0.070000, 0.000000,  0.000000 
 211787328.000000, 0.808774 , 0.736989, 9.621540, 827832000.000000, -0.140000,  0.350000,  0.070000, 0.000000,  0.000000 
 211807616.000000, 0.837488 , 0.715454, 9.631111, 827851456.000000, -0.140000,  0.420000,  0.070000, 0.000000,  0.000000 
 211827264.000000, 0.820738 , 0.727418, 9.607183, 827871680.000000, 0.140000,  0.210000,  0.070000, 0.000000,  0.000000 
 211847296.000000, 0.808774 , 0.725025, 9.659825, 827891392.000000, -0.140000,  0.280000,  0.070000, 0.000000,  0.000000 
 211867840.000000, 0.768096 , 0.720240, 9.635897, 827911360.000000, -0.280000,  0.350000,  0.140000, 0.000000,  0.000000 
 211887232.000000, 0.803988 , 0.720240, 9.611969, 827931968.000000, -0.420000,  0.420000,  0.140000, 0.000000,  0.000000 
 211907584.000000, 0.808774 , 0.691526, 9.609575, 827951360.000000, -0.560000,  0.420000,  0.140000, 0.000000,  0.000000 
 211927232.000000, 0.808774 , 0.686740, 9.614362, 827971648.000000, -0.560000,  0.420000,  0.070000, 0.000000,  0.000000 
 211947200.000000, 0.830309 , 0.686740, 9.676575, 827991360.000000, -0.490000,  0.350000,  0.070000, 0.000000,  0.000000 
 211967808.000000, 0.803988 , 0.708275, 9.659825, 828011328.000000, -0.210000,  0.280000,  0.070000, 0.000000,  0.000000 
 211987200.000000, 0.866202 , 0.691526, 9.614362, 828031936.000000, -0.350000,  0.420000,  0.070000, 0.000000,  0.000000 
 212007488.000000, 0.796810 , 0.705883, 9.628718, 828051328.000000, -0.350000,  0.350000,  0.070000, 0.000000,  0.000000 
 212027200.000000, 0.801596 , 0.715454, 9.623933, 828071616.000000, -0.280000,  0.350000,  0.070000, 0.000000,  0.000000 
 212047168.000000, 0.744168 , 0.696311, 9.647861, 828091264.000000, -0.420000,  0.280000,  0.070000, 0.000000,  0.000000 
 212069696.000000, 0.835095 , 0.696311, 9.631111, 828111296.000000, -0.280000,  0.280000,  0.070000, 0.000000,  0.000000 
 212087168.000000, 0.827917 , 0.710668, 9.635897, 828133824.000000, -0.490000,  0.420000,  0.070000, 0.000000,  0.000000 
 212107456.000000, 0.818345 , 0.722632, 9.664611, 828151232.000000, -0.490000,  0.420000,  0.070000, 0.000000,  0.000000 
 212127104.000000, 0.801596 , 0.696311, 9.619147, 828171520.000000, -0.700000,  0.490000,  0.070000, 0.000000,  0.000000 
 212147136.000000, 0.808774 , 0.736989, 9.619147, 828191232.000000, -0.490000,  0.350000,  0.070000, 0.000000,  0.000000 
 212167680.000000, 0.758525 , 0.741775, 9.590433, 828211200.000000, -0.210000,  0.280000,  0.070000, 0.000000,  0.000000 
 212187072.000000, 0.768096 , 0.624527, 9.607183, 828231808.000000, -0.280000,  0.350000,  0.070000, 0.000000,  0.000000 
 212207424.000000, 0.799203 , 0.677169, 9.640682, 828251200.000000, -0.350000,  0.490000,  0.210000, 0.000000,  0.000000 
 212227072.000000, 0.794417 , 0.686740, 9.707682, 828271488.000000, -0.350000,  0.630000,  0.210000, 0.000000,  0.000000 
 212247040.000000, 0.837488 , 0.722632, 9.657433, 828291136.000000, -0.350000,  0.280000,  0.210000, 0.000000,  0.000000 
 212267648.000000, 0.784846 , 0.715454, 9.595219, 828311168.000000, -0.280000,  0.350000,  0.070000, 0.000000,  0.000000 
 212287040.000000, 0.772882 , 0.665205, 9.633504, 828331776.000000, -0.140000,  0.280000,  0.070000, 0.000000,  0.000000 
 212307328.000000, 0.782453 , 0.689133, 9.638289, 828351104.000000, -0.280000,  0.210000,  0.070000, 0.000000,  0.000000 
 212326976.000000, 0.820738 , 0.686740, 9.652647, 828371456.000000, -0.350000,  0.490000,  0.070000, 0.000000,  0.000000 
 212347008.000000, 0.825524 , 0.696311, 9.664611, 828391104.000000, -0.490000,  0.490000,  0.210000, 0.000000,  0.000000 
 212367616.000000, 0.825524 , 0.746561, 9.657433, 828411072.000000, -0.280000,  0.350000,  0.070000, 0.000000,  0.000000 
 212386944.000000, 0.859023 , 0.727418, 9.643075, 828431680.000000, -0.280000,  0.350000,  0.070000, 0.000000,  0.000000 
 212407296.000000, 0.794417 , 0.729811, 9.631111, 828451072.000000, -0.140000,  0.140000,  0.070000, 0.000000,  0.000000 
 212426944.000000, 0.820738 , 0.684347, 9.616754, 828471360.000000, -0.420000,  0.350000,  0.070000, 0.000000,  0.000000 
 212446976.000000, 0.844666 , 0.686740, 9.638289, 828491072.000000, -0.770000,  0.560000,  0.070000, 0.000000,  0.000000 
 212467520.000000, 0.811167 , 0.701097, 9.676575, 828511040.000000, -0.770000,  0.420000,  0.070000, 829171136.000000,  1010.462158 
 212486912.000000, 0.835095 , 0.710668, 9.626326, 828531648.000000, -0.490000,  0.280000,  0.070000, 0.000000,  0.000000 
 212507200.000000, 0.827917 , 0.684347, 9.631111, 828551040.000000, -0.280000,  0.280000,  0.070000, 0.000000,  0.000000 
 212526912.000000, 0.796810 , 0.710668, 9.640682, 828571328.000000, 0.070000,  0.350000,  0.140000, 0.000000,  0.000000 
 212546880.000000, 0.813560 , 0.705883, 9.657433, 828590976.000000, 0.070000,  0.280000,  0.070000, 0.000000,  0.000000 
 212567488.000000, 0.808774 , 0.708275, 9.623933, 828611008.000000, 0.070000,  0.210000,  0.070000, 0.000000,  0.000000 
 212587200.000000, 0.854238 , 0.710668, 9.588040, 828631552.000000, -0.280000,  0.350000,  0.070000, 0.000000,  0.000000 
 212607296.000000, 0.789631 , 0.701097, 9.626326, 828651264.000000, -0.490000,  0.350000,  0.070000, 0.000000,  0.000000 
 212626816.000000, 0.751346 , 0.674776, 9.623933, 828671360.000000, -0.420000,  0.420000,  0.070000, 0.000000,  0.000000 
 212646848.000000, 0.803988 , 0.669990, 9.638289, 828690944.000000, -0.490000,  0.490000,  0.070000, 0.000000,  0.000000 
 212667392.000000, 0.818345 , 0.720240, 9.662218, 828710912.000000, -0.350000,  0.420000,  0.070000, 0.000000,  0.000000 
 212686784.000000, 0.878166 , 0.713061, 9.623933, 828731520.000000, -0.420000,  0.420000,  0.070000, 0.000000,  0.000000 
 212707136.000000, 0.835095 , 0.717847, 9.590433, 828750912.000000, -0.490000,  0.280000,  0.070000, 0.000000,  0.000000 
 212726784.000000, 0.811167 , 0.686740, 9.588040, 828771200.000000, -0.350000,  0.350000,  0.070000, 0.000000,  0.000000 
 212746752.000000, 0.803988 , 0.665205, 9.616754, 828790912.000000, -0.420000,  0.420000,  0.140000, 0.000000,  0.000000 
 212767360.000000, 0.796810 , 0.703490, 9.652647, 828810880.000000, -0.420000,  0.490000,  0.070000, 0.000000,  0.000000 
 212786816.000000, 0.818345 , 0.717847, 9.623933, 828831488.000000, -0.350000,  0.560000,  0.070000, 0.000000,  0.000000 
 212807040.000000, 0.806381 , 0.691526, 9.676575, 828850880.000000, -0.420000,  0.350000,  0.070000, 0.000000,  0.000000 
 212826752.000000, 0.751346 , 0.744168, 9.595219, 828871168.000000, -0.490000,  0.350000,  0.070000, 0.000000,  0.000000 
 212846720.000000, 0.775275 , 0.669990, 9.626326, 828890816.000000, -0.490000,  0.280000,  0.070000, 0.000000,  0.000000 
 212867328.000000, 0.837488 , 0.669990, 9.621540, 828910848.000000, -0.630000,  0.420000,  0.070000, 0.000000,  0.000000 
 212886720.000000, 0.815953 , 0.744168, 9.664611, 828931392.000000, -0.420000,  0.420000,  0.070000, 0.000000,  0.000000 
 212907008.000000, 0.827917 , 0.660419, 9.674182, 828950784.000000, -0.490000,  0.420000,  0.070000, 0.000000,  0.000000 
 212926656.000000, 0.803988 , 0.744168, 9.674182, 828971136.000000, -0.350000,  0.420000,  0.140000, 0.000000,  0.000000 
 212946688.000000, 0.868595 , 0.662812, 9.614362, 828990784.000000, -0.280000,  0.420000,  0.070000, 0.000000,  0.000000 
 212967232.000000, 0.811167 , 0.672383, 9.623933, 829010752.000000, -0.280000,  0.280000,  0.140000, 0.000000,  0.000000 
 212986624.000000, 0.818345 , 0.720240, 9.626326, 829031360.000000, -0.210000,  0.350000,  0.070000, 0.000000,  0.000000 
 213006976.000000, 0.806381 , 0.710668, 9.628718, 829050752.000000, -0.280000,  0.280000,  0.070000, 0.000000,  0.000000 
 213026624.000000, 0.823131 , 0.708275, 9.633504, 829071040.000000, -0.210000,  0.280000,  0.140000, 0.000000,  0.000000 
 213046592.000000, 0.784846 , 0.684347, 9.616754, 829090752.000000, -0.070000,  0.350000,  0.070000, 0.000000,  0.000000 
 213069120.000000, 0.818345 , 0.672383, 9.655040, 829110720.000000, -0.280000,  0.350000,  0.140000, 0.000000,  0.000000 
 213086592.000000, 0.780060 , 0.720240, 9.633504, 829133248.000000, -0.140000,  0.420000,  0.070000, 0.000000,  0.000000 
 213106880.000000, 0.832702 , 0.722632, 9.650253, 829171008.000000, -0.070000,  0.210000,  0.070000, 0.000000,  0.000000 
 213126592.000000, 0.784846 , 0.739382, 9.616754, 0.000000, 0.000000,  0.000000,  0.000000, 0.000000,  0.000000 
 213146560.000000, 0.806381 , 0.689133, 9.604790, 829190656.000000, -0.280000,  0.210000,  0.070000, 0.000000,  0.000000 
 213167168.000000, 0.808774 , 0.686740, 9.592826, 829210688.000000, -0.490000,  0.280000,  0.070000, 0.000000,  0.000000 
 213186560.000000, 0.811167 , 0.693919, 9.645468, 829231232.000000, -0.560000,  0.560000,  0.070000, 0.000000,  0.000000 
 213206848.000000, 0.820738 , 0.681954, 9.647861, 829250624.000000, -0.700000,  0.490000,  0.070000, 0.000000,  0.000000 
 213226496.000000, 0.782453 , 0.681954, 9.643075, 829270912.000000, -0.490000,  0.210000,  0.070000, 0.000000,  0.000000 
 213246528.000000, 0.772882 , 0.748954, 9.623933, 829290624.000000, -0.140000,  0.210000,  0.070000, 0.000000,  0.000000 
 213267072.000000, 0.820738 , 0.734596, 9.611969, 829310592.000000, 0.210000,  0.140000,  0.070000, 0.000000,  0.000000 
 213286464.000000, 0.794417 , 0.720240, 9.607183, 829331200.000000, 0.210000,  0.210000,  0.070000, 0.000000,  0.000000 
 213306752.000000, 0.811167 , 0.703490, 9.631111, 829350592.000000, -0.210000,  0.350000,  0.070000, 0.000000,  0.000000 
 213326464.000000, 0.820738 , 0.686740, 9.650253, 829370880.000000, -0.630000,  0.490000,  0.070000, 0.000000,  0.000000 
 213346432.000000, 0.801596 , 0.701097, 9.652647, 829390592.000000, -0.630000,  0.420000,  0.140000, 0.000000,  0.000000 
 213367040.000000, 0.837488 , 0.734596, 9.609575, 829410560.000000, -0.420000,  0.350000,  0.140000, 0.000000,  0.000000 
 213386432.000000, 0.825524 , 0.705883, 9.607183, 829431104.000000, -0.140000,  0.350000,  0.140000, 0.000000,  0.000000 
 213406720.000000, 0.777667 , 0.736989, 9.609575, 829450560.000000, -0.070000,  0.350000,  0.070000, 0.000000,  0.000000 
 213426432.000000, 0.844666 , 0.677169, 9.631111, 829470848.000000, -0.210000,  0.350000,  0.070000, 0.000000,  0.000000 
 213446400.000000, 0.808774 , 0.717847, 9.614362, 829490496.000000, -0.420000,  0.350000,  0.070000, 0.000000,  0.000000 
 213467008.000000, 0.837488 , 0.710668, 9.635897, 829510528.000000, -0.490000,  0.490000,  0.070000, 830170560.000000,  1010.460815 
 213486400.000000, 0.813560 , 0.686740, 9.640682, 829531072.000000, -0.420000,  0.350000,  0.070000, 0.000000,  0.000000 
 213506688.000000, 0.818345 , 0.708275, 9.611969, 829550464.000000, -0.560000,  0.350000,  0.070000, 0.000000,  0.000000 
 213526336.000000, 0.782453 , 0.732204, 9.597611, 829570752.000000, -0.420000,  0.420000,  0.070000, 0.000000,  0.000000 
 213546368.000000, 0.806381 , 0.722632, 9.676575, 829610432.000000, -0.210000,  0.140000,  0.070000, 0.000000,  0.000000 
 213566912.000000, 0.808774 , 0.729811, 9.662218, 0.000000, 0.000000,  0.000000,  0.000000, 0.000000,  0.000000 
 213586304.000000, 0.813560 , 0.717847, 9.628718, 829631040.000000, -0.420000,  0.420000,  0.070000, 0.000000,  0.000000 
 213606592.000000, 0.803988 , 0.672383, 9.628718, 829650432.000000, -0.630000,  0.350000,  0.070000, 0.000000,  0.000000 
 213626304.000000, 0.827917 , 0.641276, 9.635897, 829670720.000000, -0.700000,  0.350000,  0.070000, 0.000000,  0.000000 
 213646272.000000, 0.811167 , 0.725025, 9.609575, 829690432.000000, -0.420000,  0.280000,  0.070000, 0.000000,  0.000000 
 213666880.000000, 0.844666 , 0.732204, 9.619147, 829710400.000000, -0.210000,  0.350000,  0.070000, 0.000000,  0.000000 
 213686272.000000, 0.799203 , 0.746561, 9.638289, 829730944.000000, -0.140000,  0.350000,  0.070000, 0.000000,  0.000000 
 213706560.000000, 0.796810 , 0.689133, 9.602397, 829750400.000000, -0.280000,  0.280000,  0.070000, 0.000000,  0.000000 
 213726272.000000, 0.808774 , 0.674776, 9.631111, 829770688.000000, -0.420000,  0.420000,  0.070000, 0.000000,  0.000000 
 213746240.000000, 0.837488 , 0.660419, 9.607183, 829790336.000000, -0.210000,  0.420000,  0.140000, 0.000000,  0.000000 
 213766848.000000, 0.815953 , 0.739382, 9.650253, 829810368.000000, -0.140000,  0.280000,  0.140000, 0.000000,  0.000000 
 213786240.000000, 0.847059 , 0.720240, 9.602397, 829830912.000000, -0.210000,  0.210000,  0.140000, 0.000000,  0.000000 
 213806528.000000, 0.787239 , 0.760918, 9.645468, 829850368.000000, -0.350000,  0.420000,  0.140000, 0.000000,  0.000000 
 213826176.000000, 0.751346 , 0.658026, 9.633504, 829870592.000000, -0.420000,  0.420000,  0.140000, 0.000000,  0.000000 
 213846208.000000, 0.839881 , 0.736989, 9.614362, 829890304.000000, -0.210000,  0.350000,  0.070000, 0.000000,  0.000000 
 213866752.000000, 0.803988 , 0.715454, 9.626326, 829910272.000000, -0.210000,  0.280000,  0.070000, 0.000000,  0.000000 
 213886144.000000, 0.796810 , 0.739382, 9.640682, 829930880.000000, -0.280000,  0.280000,  0.070000, 0.000000,  0.000000 
 213906432.000000, 0.777667 , 0.669990, 9.635897, 829950272.000000, -0.490000,  0.420000,  0.070000, 0.000000,  0.000000 
 213926144.000000, 0.811167 , 0.689133, 9.643075, 829970560.000000, -0.700000,  0.420000,  0.070000, 0.000000,  0.000000 
 213946112.000000, 0.811167 , 0.638884, 9.614362, 829990208.000000, -0.630000,  0.280000,  0.070000, 0.000000,  0.000000 
 213966720.000000, 0.806381 , 0.669990, 9.621540, 830010240.000000, -0.420000,  0.140000,  0.070000, 0.000000,  0.000000 
 213986112.000000, 0.801596 , 0.701097, 9.635897, 830030784.000000, -0.210000,  0.350000,  0.070000, 0.000000,  0.000000 
 214006400.000000, 0.827917 , 0.765703, 9.647861, 830050176.000000, -0.210000,  0.420000,  0.070000, 0.000000,  0.000000 
 214026048.000000, 0.827917 , 0.691526, 9.635897, 830070528.000000, -0.070000,  0.280000,  0.070000, 0.000000,  0.000000 
 214046080.000000, 0.803988 , 0.703490, 9.611969, 830090176.000000, -0.280000,  0.210000,  -0.070000, 0.000000,  0.000000 
 214068608.000000, 0.823131 , 0.689133, 9.619147, 830110144.000000, -0.420000,  0.280000,  0.070000, 0.000000,  0.000000 
 214086016.000000, 0.768096 , 0.660419, 9.578469, 830132672.000000, -0.560000,  0.420000,  0.070000, 0.000000,  0.000000 
 214106368.000000, 0.827917 , 0.696311, 9.652647, 830150144.000000, -0.560000,  0.490000,  0.070000, 0.000000,  0.000000 
 214126016.000000, 0.808774 , 0.741775, 9.671788, 830170432.000000, -0.420000,  0.560000,  0.140000, 0.000000,  0.000000 
 214145984.000000, 0.813560 , 0.701097, 9.652647, 830190144.000000, -0.210000,  0.420000,  0.140000, 0.000000,  0.000000 
 214166592.000000, 0.782453 , 0.741775, 9.647861, 830210112.000000, -0.280000,  0.210000,  0.070000, 0.000000,  0.000000 
 214185984.000000, 0.811167 , 0.667598, 9.592826, 830230720.000000, -0.350000,  0.280000,  0.070000, 0.000000,  0.000000 
 214206272.000000, 0.808774 , 0.667598, 9.643075, 830250112.000000, -0.560000,  0.350000,  0.070000, 0.000000,  0.000000 
 214225984.000000, 0.818345 , 0.679562, 9.659825, 830270400.000000, -0.630000,  0.490000,  0.070000, 0.000000,  0.000000 
 214245952.000000, 0.784846 , 0.693919, 9.657433, 830290048.000000, -0.560000,  0.490000,  0.070000, 0.000000,  0.000000 
 214266560.000000, 0.806381 , 0.734596, 9.662218, 830310080.000000, -0.210000,  0.350000,  0.070000, 0.000000,  0.000000 
 214285952.000000, 0.784846 , 0.746561, 9.647861, 830330624.000000, -0.350000,  0.280000,  0.070000, 0.000000,  0.000000 
 214306240.000000, 0.784846 , 0.708275, 9.616754, 830350016.000000, -0.490000,  0.280000,  0.070000, 0.000000,  0.000000 
 214325888.000000, 0.851845 , 0.763310, 9.614362, 830370368.000000, -0.560000,  0.350000,  0.070000, 0.000000,  0.000000 
 214345920.000000, 0.803988 , 0.669990, 9.669396, 830390016.000000, -0.630000,  0.350000,  0.070000, 0.000000,  0.000000 
 214366464.000000, 0.815953 , 0.710668, 9.667004, 830430592.000000, -0.420000,  0.350000,  0.070000, 0.000000,  0.000000 
 214385856.000000, 0.777667 , 0.679562, 9.602397, 0.000000, 0.000000,  0.000000,  0.000000, 0.000000,  0.000000 
 214406208.000000, 0.751346 , 0.729811, 9.626326, 830449984.000000, -0.280000,  0.350000,  0.070000, 0.000000,  0.000000 
 214425856.000000, 0.806381 , 0.736989, 9.640682, 830470272.000000, -0.210000,  0.350000,  0.070000, 0.000000,  0.000000 
 214446144.000000, 0.792024 , 0.703490, 9.674182, 830510272.000000, -0.350000,  0.350000,  0.070000, 831170304.000000,  1010.458618 
 214466432.000000, 0.832702 , 0.732204, 9.657433, 0.000000, 0.000000,  0.000000,  0.000000, 0.000000,  0.000000 
 214485824.000000, 0.794417 , 0.703490, 9.638289, 830530560.000000, -0.350000,  0.280000,  0.070000, 0.000000,  0.000000 
 214506112.000000, 0.851845 , 0.703490, 9.595219, 830549952.000000, -0.280000,  0.280000,  0.070000, 0.000000,  0.000000 
 214525824.000000, 0.844666 , 0.727418, 9.645468, 830570240.000000, -0.210000,  0.350000,  0.070000, 0.000000,  0.000000 
 214545792.000000, 0.787239 , 0.684347, 9.645468, 830589888.000000, -0.490000,  0.420000,  0.070000, 0.000000,  0.000000 
 214566400.000000, 0.811167 , 0.643669, 9.683753, 830609920.000000, -0.630000,  0.490000,  0.140000, 0.000000,  0.000000 
 214585792.000000, 0.801596 , 0.679562, 9.662218, 830630464.000000, -0.490000,  0.420000,  0.070000, 0.000000,  0.000000 
 214606080.000000, 0.789631 , 0.751346, 9.595219, 830649856.000000, -0.210000,  0.140000,  0.070000, 0.000000,  0.000000 
 214625728.000000, 0.803988 , 0.693919, 9.611969, 830670144.000000, -0.210000,  0.210000,  0.070000, 0.000000,  0.000000 
 214645760.000000, 0.794417 , 0.727418, 9.631111, 830689856.000000, -0.280000,  0.280000,  0.070000, 0.000000,  0.000000 
 214666496.000000, 0.880559 , 0.734596, 9.678967, 830709824.000000, -0.700000,  0.560000,  0.070000, 0.000000,  0.000000 
 214685696.000000, 0.796810 , 0.703490, 9.657433, 830730560.000000, -0.910000,  0.420000,  0.070000, 0.000000,  0.000000 
 214705984.000000, 0.811167 , 0.653241, 9.628718, 830749824.000000, -0.910000,  0.350000,  0.070000, 0.000000,  0.000000 
 214725696.000000, 0.780060 , 0.684347, 9.611969, 830770112.000000, -0.560000,  0.210000,  0.070000, 0.000000,  0.000000 
 214745664.000000, 0.796810 , 0.667598, 9.638289, 830789824.000000, -0.560000,  0.210000,  0.070000, 0.000000,  0.000000 
 214766272.000000, 0.792024 , 0.744168, 9.650253, 830809792.000000, 0.140000,  0.140000,  0.070000, 0.000000,  0.000000 
 214785664.000000, 0.818345 , 0.672383, 9.645468, 830830400.000000, 0.140000,  0.280000,  0.070000, 0.000000,  0.000000 
 214805952.000000, 0.854238 , 0.725025, 9.643075, 830849792.000000, -0.490000,  0.420000,  0.070000, 0.000000,  0.000000 
 214825664.000000, 0.844666 , 0.729811, 9.655040, 830870080.000000, -0.560000,  0.350000,  0.070000, 0.000000,  0.000000 
 214845632.000000, 0.789631 , 0.679562, 9.645468, 830889728.000000, -0.420000,  0.350000,  0.070000, 0.000000,  0.000000 
 214866240.000000, 0.792024 , 0.741775, 9.619147, 830909696.000000, -0.210000,  0.350000,  0.070000, 0.000000,  0.000000 
 214885632.000000, 0.842274 , 0.672383, 9.616754, 830930304.000000, -0.280000,  0.350000,  0.070000, 0.000000,  0.000000 
 214905920.000000, 0.796810 , 0.689133, 9.611969, 830949696.000000, -0.490000,  0.210000,  0.070000, 0.000000,  0.000000 
 214925568.000000, 0.775275 , 0.658026, 9.623933, 830969984.000000, -0.420000,  0.420000,  0.140000, 0.000000,  0.000000 
 214945600.000000, 0.820738 , 0.672383, 9.631111, 830989696.000000, -0.560000,  0.420000,  0.070000, 0.000000,  0.000000 
 214966144.000000, 0.772882 , 0.698704, 9.623933, 831009664.000000, -0.420000,  0.350000,  0.070000, 0.000000,  0.000000 
 214985536.000000, 0.825524 , 0.725025, 9.628718, 831030272.000000, -0.280000,  0.420000,  0.070000, 0.000000,  0.000000 
 215005824.000000, 0.811167 , 0.722632, 9.650253, 831049664.000000, -0.140000,  0.350000,  0.070000, 0.000000,  0.000000 
 215025536.000000, 0.815953 , 0.677169, 9.595219, 831069952.000000, -0.210000,  0.210000,  0.070000, 0.000000,  0.000000 
 215045504.000000, 0.784846 , 0.693919, 9.607183, 831089600.000000, -0.420000,  0.210000,  0.070000, 0.000000,  0.000000 
 215068032.000000, 0.792024 , 0.703490, 9.592826, 831109632.000000, -0.490000,  0.280000,  0.070000, 0.000000,  0.000000 
 215085504.000000, 0.870987 , 0.684347, 9.678967, 831132160.000000, -0.560000,  0.420000,  0.070000, 0.000000,  0.000000 
 215105792.000000, 0.832702 , 0.715454, 9.683753, 831149568.000000, -0.560000,  0.490000,  0.070000, 0.000000,  0.000000 
 215125440.000000, 0.784846 , 0.710668, 9.645468, 831169920.000000, -0.700000,  0.420000,  0.070000, 0.000000,  0.000000 
 215145472.000000, 0.811167 , 0.677169, 9.621540, 831189568.000000, -0.350000,  0.350000,  0.070000, 0.000000,  0.000000 
 215166016.000000, 0.830309 , 0.698704, 9.645468, 831209536.000000, -0.210000,  0.280000,  0.070000, 0.000000,  0.000000 
 215185472.000000, 0.796810 , 0.703490, 9.588040, 831230144.000000, -0.140000,  0.210000,  0.070000, 0.000000,  0.000000 
 215205760.000000, 0.837488 , 0.698704, 9.659825, 831249536.000000, -0.070000,  0.350000,  0.070000, 0.000000,  0.000000 
 215225408.000000, 0.839881 , 0.684347, 9.611969, 831269824.000000, -0.490000,  0.420000,  0.140000, 0.000000,  0.000000 
 215245440.000000, 0.801596 , 0.686740, 9.631111, 831289536.000000, -0.420000,  0.490000,  0.140000, 0.000000,  0.000000 
 215265984.000000, 0.815953 , 0.722632, 9.633504, 831309504.000000, -0.350000,  0.350000,  0.140000, 0.000000,  0.000000 
 215285376.000000, 0.748954 , 0.677169, 9.652647, 831330112.000000, -0.210000,  0.280000,  0.140000, 0.000000,  0.000000 
 215305664.000000, 0.744168 , 0.725025, 9.635897, 831349504.000000, -0.210000,  0.350000,  0.070000, 0.000000,  0.000000 
 215325376.000000, 0.823131 , 0.677169, 9.614362, 831369792.000000, -0.350000,  0.280000,  0.070000, 0.000000,  0.000000 
 215345344.000000, 0.832702 , 0.720240, 9.626326, 831389440.000000, -0.560000,  0.420000,  0.070000, 0.000000,  0.000000 
 215365952.000000, 0.825524 , 0.679562, 9.681360, 831409472.000000, -0.350000,  0.420000,  0.070000, 0.000000,  0.000000 
 215385344.000000, 0.823131 , 0.665205, 9.643075, 831430016.000000, -0.210000,  0.350000,  0.070000, 0.000000,  0.000000 
 215405632.000000, 0.806381 , 0.739382, 9.619147, 831449408.000000, -0.210000,  0.210000,  0.070000, 0.000000,  0.000000 
 215425344.000000, 0.763310 , 0.748954, 9.628718, 831469760.000000, -0.210000,  0.350000,  0.070000, 0.000000,  0.000000 
 215445312.000000, 0.777667 , 0.708275, 9.626326, 831509440.000000, -0.770000,  0.560000,  0.070000, 832169472.000000,  1010.461426 
 215465856.000000, 0.815953 , 0.710668, 9.652647, 0.000000, 0.000000,  0.000000,  0.000000, 0.000000,  0.000000 
 215485312.000000, 0.789631 , 0.667598, 9.657433, 831529984.000000, -0.840000,  0.420000,  0.070000, 0.000000,  0.000000 
 215505600.000000, 0.825524 , 0.612563, 9.564112, 831549376.000000, -0.630000,  0.280000,  0.070000, 0.000000,  0.000000 
 215525248.000000, 0.847059 , 0.763310, 9.621540, 831569664.000000, 0.280000,  0.070000,  0.070000, 0.000000,  0.000000 
 215545280.000000, 0.808774 , 0.768096, 9.628718, 831589376.000000, 0.490000,  -0.210000,  -0.280000, 0.000000,  0.000000 
 215565824.000000, 0.789631 , 0.669990, 9.683753, 831609344.000000, 0.140000,  0.210000,  -0.280000, 0.000000,  0.000000 
 215585216.000000, 0.832702 , 0.667598, 9.664611, 831629952.000000, -0.490000,  0.560000,  0.140000, 0.000000,  0.000000 
 215605504.000000, 0.878166 , 0.713061, 9.600004, 831649344.000000, -0.560000,  0.280000,  0.070000, 0.000000,  0.000000 
 215625216.000000, 0.844666 , 0.715454, 9.604790, 831669632.000000, -0.350000,  0.140000,  0.070000, 0.000000,  0.000000 
 215645184.000000, 0.815953 , 0.784846, 9.655040, 831689280.000000, -0.070000,  0.280000,  0.070000, 0.000000,  0.000000 
 215665792.000000, 0.832702 , 0.708275, 9.621540, 831709312.000000, -0.350000,  0.490000,  0.070000, 0.000000,  0.000000 
 215685184.000000, 0.811167 , 0.696311, 9.611969, 831729856.000000, -0.490000,  0.350000,  0.070000, 0.000000,  0.000000 
 215705472.000000, 0.835095 , 0.701097, 9.647861, 831749248.000000, -0.490000,  0.350000,  0.070000, 0.000000,  0.000000 
 215725120.000000, 0.815953 , 0.648455, 9.657433, 831769600.000000, -0.420000,  0.350000,  0.140000, 0.000000,  0.000000 
 215745152.000000, 0.811167 , 0.686740, 9.671788, 831789248.000000, -0.280000,  0.350000,  0.070000, 0.000000,  0.000000 
 215765696.000000, 0.787239 , 0.686740, 9.650253, 831809216.000000, -0.280000,  0.280000,  0.070000, 0.000000,  0.000000 
 215785152.000000, 0.839881 , 0.689133, 9.638289, 831829824.000000, -0.140000,  0.420000,  0.140000, 0.000000,  0.000000 
 215805440.000000, 0.787239 , 0.696311, 9.650253, 831849216.000000, 0.140000,  0.350000,  0.070000, 0.000000,  0.000000 
 215825088.000000, 0.792024 , 0.701097, 9.616754, 831869504.000000, -0.070000,  0.210000,  0.070000, 0.000000,  0.000000 
 215845056.000000, 0.792024 , 0.741775, 9.602397, 831889216.000000, -0.210000,  0.280000,  0.070000, 0.000000,  0.000000 
 215865664.000000, 0.777667 , 0.667598, 9.652647, 831909184.000000, -0.420000,  0.350000,  0.070000, 0.000000,  0.000000 
 215885056.000000, 0.794417 , 0.736989, 9.657433, 831929792.000000, -0.700000,  0.490000,  0.140000, 0.000000,  0.000000 
 215905344.000000, 0.818345 , 0.698704, 9.643075, 831949184.000000, -0.700000,  0.560000,  0.070000, 0.000000,  0.000000 
 215925056.000000, 0.878166 , 0.708275, 9.631111, 831969472.000000, -0.700000,  0.420000,  0.070000, 0.000000,  0.000000 
 215945024.000000, 0.792024 , 0.662812, 9.602397, 831989120.000000, -0.420000,  0.350000,  0.070000, 0.000000,  0.000000 
 215965632.000000, 0.811167 , 0.689133, 9.628718, 832009152.000000, -0.350000,  0.280000,  0.070000, 0.000000,  0.000000 
 215985024.000000, 0.775275 , 0.684347, 9.604790, 832029696.000000, -0.280000,  0.280000,  0.140000, 0.000000,  0.000000 
 216005312.000000, 0.815953 , 0.701097, 9.667004, 832049088.000000, -0.140000,  0.490000,  0.070000, 0.000000,  0.000000 
 216024960.000000, 0.801596 , 0.715454, 9.664611, 832069440.000000, -0.280000,  0.420000,  0.070000, 0.000000,  0.000000 
 216044992.000000, 0.830309 , 0.701097, 9.683753, 832089088.000000, -0.280000,  0.420000,  0.070000, 0.000000,  0.000000 
 216067520.000000, 0.818345 , 0.715454, 9.578469, 832109056.000000, -0.280000,  0.420000,  0.070000, 0.000000,  0.000000 
 216084928.000000, 0.787239 , 0.732204, 9.609575, 832131648.000000, -0.210000,  0.280000,  0.140000, 0.000000,  0.000000 
 216105280.000000, 0.820738 , 0.672383, 9.633504, 832149056.000000, -0.350000,  0.420000,  0.070000, 0.000000,  0.000000 
 216124928.000000, 0.827917 , 0.703490, 9.645468, 832169344.000000, -0.420000,  0.420000,  0.140000, 0.000000,  0.000000 
 216144896.000000, 0.811167 , 0.684347, 9.640682, 832188992.000000, -0.210000,  0.420000,  0.070000, 0.000000,  0.000000 
 216165504.000000, 0.787239 , 0.720240, 9.652647, 832209024.000000, -0.140000,  0.420000,  0.070000, 0.000000,  0.000000 
 216184896.000000, 0.787239 , 0.739382, 9.643075, 832229568.000000, 0.070000,  0.280000,  0.070000, 0.000000,  0.000000 
 216205184.000000, 0.820738 , 0.693919, 9.645468, 832248960.000000, -0.070000,  0.280000,  0.070000, 0.000000,  0.000000 
 216224896.000000, 0.849452 , 0.732204, 9.626326, 832269312.000000, -0.350000,  0.280000,  0.070000, 0.000000,  0.000000 
 216244864.000000, 0.811167 , 0.703490, 9.638289, 832288960.000000, -0.490000,  0.420000,  0.070000, 0.000000,  0.000000 
 216265408.000000, 0.842274 , 0.720240, 9.631111, 832308928.000000, -0.490000,  0.490000,  0.070000, 0.000000,  0.000000 
 216284864.000000, 0.830309 , 0.684347, 9.638289, 832329536.000000, -0.420000,  0.420000,  0.070000, 0.000000,  0.000000 
 216305152.000000, 0.799203 , 0.658026, 9.609575, 832348928.000000, -0.560000,  0.280000,  0.070000, 0.000000,  0.000000 
 216324800.000000, 0.839881 , 0.701097, 9.628718, 832369216.000000, -0.350000,  0.280000,  0.070000, 0.000000,  0.000000 
 216344832.000000, 0.835095 , 0.729811, 9.623933, 832388928.000000, -0.140000,  0.350000,  0.070000, 0.000000,  0.000000 
 216365376.000000, 0.815953 , 0.763310, 9.662218, 832408896.000000, 0.350000,  0.210000,  0.070000, 0.000000,  0.000000 
 216384768.000000, 0.811167 , 0.736989, 9.619147, 832429504.000000, 0.210000,  0.210000,  0.070000, 0.000000,  0.000000 
 216405056.000000, 0.839881 , 0.708275, 9.595219, 832448896.000000, -0.420000,  0.210000,  0.070000, 0.000000,  0.000000 
 216424768.000000, 0.803988 , 0.705883, 9.631111, 832469184.000000, -1.050000,  0.350000,  0.070000, 0.000000,  0.000000 
 216444736.000000, 0.813560 , 0.705883, 9.650253, 832508864.000000, -1.260000,  0.490000,  0.070000, 833168896.000000,  1010.462585 
 216465344.000000, 0.782453 , 0.634098, 9.652647, 0.000000, 0.000000,  0.000000,  0.000000, 0.000000,  0.000000 
 216484736.000000, 0.827917 , 0.710668, 9.669396, 832529408.000000, -0.630000,  0.490000,  0.070000, 0.000000,  0.000000 
 216505024.000000, 0.763310 , 0.691526, 9.623933, 832548800.000000, 0.280000,  0.140000,  0.070000, 0.000000,  0.000000 
 216524672.000000, 0.815953 , 0.725025, 9.578469, 832569152.000000, 0.980000,  0.140000,  0.070000, 0.000000,  0.000000 
 216544704.000000, 0.830309 , 0.691526, 9.623933, 832588800.000000, 0.910000,  0.210000,  0.210000, 0.000000,  0.000000 
 216565312.000000, 0.832702 , 0.710668, 9.659825, 832608768.000000, 0.770000,  0.420000,  0.210000, 0.000000,  0.000000 
 216584640.000000, 0.815953 , 0.717847, 9.631111, 832629376.000000, 0.770000,  0.420000,  0.210000, 0.000000,  0.000000 
 216604992.000000, 0.801596 , 0.770489, 9.664611, 832648768.000000, 0.980000,  0.280000,  0.140000, 0.000000,  0.000000 
 216624640.000000, 0.827917 , 0.746561, 9.631111, 832669056.000000, 0.840000,  0.140000,  0.140000, 0.000000,  0.000000 
 216644608.000000, 0.808774 , 0.796810, 9.628718, 832688768.000000, 0.420000,  0.140000,  0.140000, 0.000000,  0.000000 
 216665216.000000, 0.815953 , 0.835095, 9.638289, 832708736.000000, -0.420000,  0.140000,  -0.070000, 0.000000,  0.000000 
 216684608.000000, 0.787239 , 0.746561, 9.643075, 832729344.000000, -1.960000,  0.420000,  -0.140000, 0.000000,  0.000000 
 216704896.000000, 0.770489 , 0.579063, 9.643075, 832748736.000000, -3.500000,  1.120000,  0.070000, 0.000000,  0.000000 
 216724608.000000, 0.811167 , 0.516850, 9.707682, 832769024.000000, -3.430000,  1.190000,  0.280000, 0.000000,  0.000000 
 216744576.000000, 0.796810 , 0.617348, 9.678967, 832788672.000000, -1.260000,  0.560000,  0.070000, 0.000000,  0.000000 
 216765184.000000, 0.842274 , 0.763310, 9.643075, 832808704.000000, 1.190000,  -0.140000,  0.070000, 0.000000,  0.000000 
 216784576.000000, 0.830309 , 0.794417, 9.640682, 832829248.000000, 1.960000,  -0.140000,  -0.070000, 0.000000,  0.000000 
 216804864.000000, 0.748954 , 0.772882, 9.621540, 832848704.000000, 0.980000,  0.280000,  0.070000, 0.000000,  0.000000 
 216824512.000000, 0.777667 , 0.660419, 9.616754, 832868992.000000, -0.560000,  0.420000,  0.140000, 0.000000,  0.000000 
 216844544.000000, 0.803988 , 0.624527, 9.702895, 832888640.000000, -0.840000,  0.420000,  0.140000, 0.000000,  0.000000 
 216865088.000000, 0.801596 , 0.610170, 9.655040, 832908608.000000, -0.280000,  0.700000,  0.210000, 0.000000,  0.000000 
 216884480.000000, 0.768096 , 0.775275, 9.681360, 832929216.000000, 1.190000,  0.350000,  0.210000, 0.000000,  0.000000 
 216904832.000000, 0.799203 , 0.823131, 9.638289, 832948608.000000, 2.100000,  0.350000,  0.070000, 0.000000,  0.000000 
 216924480.000000, 0.842274 , 0.811167, 9.619147, 832968896.000000, 1.820000,  0.070000,  0.070000, 0.000000,  0.000000 
 216944448.000000, 0.799203 , 0.748954, 9.566505, 832988608.000000, 0.910000,  0.490000,  0.280000, 0.000000,  0.000000 
 216965056.000000, 0.801596 , 0.715454, 9.621540, 833008576.000000, -0.070000,  0.560000,  0.210000, 0.000000,  0.000000 
 216984448.000000, 0.780060 , 0.758525, 9.623933, 833029184.000000, -0.280000,  0.280000,  0.140000, 0.000000,  0.000000 
 217004736.000000, 0.782453 , 0.744168, 9.674182, 833048576.000000, -0.140000,  0.490000,  0.070000, 0.000000,  0.000000 
 217024448.000000, 0.780060 , 0.772882, 9.671788, 833068864.000000, -0.210000,  0.560000,  0.070000, 0.000000,  0.000000 
 217044416.000000, 0.835095 , 0.717847, 9.621540, 833088512.000000, -0.420000,  0.280000,  0.070000, 0.000000,  0.000000 
 217066944.000000, 0.784846 , 0.705883, 9.621540, 833108544.000000, -0.630000,  0.140000,  0.070000, 0.000000,  0.000000 
 217084416.000000, 0.792024 , 0.760918, 9.674182, 833131072.000000, -0.350000,  0.420000,  0.140000, 0.000000,  0.000000 
 217104704.000000, 0.859023 , 0.832702, 9.602397, 833148480.000000, 0.070000,  0.140000,  0.140000, 0.000000,  0.000000 
 217124352.000000, 0.849452 , 0.727418, 9.619147, 833168768.000000, 0.140000,  0.210000,  0.140000, 0.000000,  0.000000 
 217144384.000000, 0.827917 , 0.624527, 9.659825, 833188480.000000, -0.280000,  0.770000,  0.280000, 0.000000,  0.000000 
 217164928.000000, 0.825524 , 0.713061, 9.667004, 833208448.000000, 0.210000,  0.700000,  0.350000, 0.000000,  0.000000 
 217184320.000000, 0.825524 , 0.930808, 9.513863, 833229056.000000, 2.030000,  0.070000,  0.210000, 0.000000,  0.000000 
 217204672.000000, 0.849452 , 0.634098, 9.611969, 833248448.000000, 1.540000,  -0.350000,  0.210000, 0.000000,  0.000000 
 217224320.000000, 0.741775 , 0.736989, 9.611969, 833268736.000000, 1.260000,  1.050000,  0.910000, 0.000000,  0.000000 
 217244288.000000, 0.856631 , 0.940379, 9.590433, 833288448.000000, 2.030000,  1.330000,  0.280000, 0.000000,  0.000000 
 217264896.000000, 0.902094 , 0.971486, 9.592826, 833308416.000000, 1.680000,  -0.770000,  -0.210000, 0.000000,  0.000000 
 217284288.000000, 0.787239 , 0.684347, 9.681360, 833329024.000000, 1.050000,  -0.280000,  -0.070000, 0.000000,  0.000000 
 217304576.000000, 0.748954 , 0.581456, 9.659825, 833348416.000000, -1.470000,  0.910000,  0.560000, 0.000000,  0.000000 
 217324288.000000, 0.782453 , 0.780060, 9.578469, 833368704.000000, -2.100000,  2.240000,  0.560000, 0.000000,  0.000000 
 217344256.000000, 0.875773 , 0.866202, 9.621540, 833388352.000000, -0.210000,  2.240000,  0.140000, 0.000000,  0.000000 
 217364864.000000, 0.818345 , 0.882952, 9.655040, 833408384.000000, 0.630000,  -1.120000,  -0.490000, 0.000000,  0.000000 
 217384256.000000, 0.803988 , 0.758525, 9.650253, 833428928.000000, 0.280000,  0.770000,  0.070000, 0.000000,  0.000000 
 217404544.000000, 0.770489 , 0.667598, 9.671788, 833448320.000000, -0.490000,  1.330000,  0.350000, 0.000000,  0.000000 
 217424192.000000, 0.849452 , 0.665205, 9.640682, 833468608.000000, -0.420000,  1.330000,  0.210000, 0.000000,  0.000000 
 217444224.000000, 0.808774 , 0.789631, 9.657433, 833488320.000000, 1.050000,  -0.140000,  0.070000, 0.000000,  0.000000 
 217464768.000000, 0.818345 , 0.768096, 9.650253, 833508288.000000, 2.450000,  0.490000,  0.140000, 834168384.000000,  1010.461792 
 217484160.000000, 0.796810 , 0.823131, 9.600004, 833528896.000000, 2.800000,  0.560000,  0.350000, 0.000000,  0.000000 
 217504448.000000, 0.811167 , 0.861416, 9.585647, 833548288.000000, 2.590000,  0.210000,  0.350000, 0.000000,  0.000000 
 217524160.000000, 0.849452 , 0.902094, 9.621540, 833568576.000000, 2.380000,  0.070000,  0.280000, 0.000000,  0.000000 
 217544128.000000, 0.782453 , 0.916451, 9.588040, 833588288.000000, 1.610000,  0.140000,  0.140000, 0.000000,  0.000000 
 217564736.000000, 0.772882 , 0.839881, 9.614362, 833608256.000000, 0.560000,  0.350000,  0.210000, 0.000000,  0.000000 
 217584128.000000, 0.825524 , 0.849452, 9.638289, 833628800.000000, -0.280000,  0.420000,  0.210000, 0.000000,  0.000000 
 217604544.000000, 0.808774 , 0.813560, 9.576077, 833648192.000000, -0.700000,  0.210000,  0.070000, 0.000000,  0.000000 
 217624128.000000, 0.748954 , 0.803988, 9.616754, 833668608.000000, -0.840000,  0.210000,  0.140000, 0.000000,  0.000000 
 217644096.000000, 0.775275 , 0.815953, 9.635897, 833688192.000000, -1.260000,  1.050000,  0.140000, 0.000000,  0.000000 
 217664640.000000, 0.847059 , 0.823131, 9.604790, 833708160.000000, -1.050000,  0.630000,  0.140000, 0.000000,  0.000000 
 217684032.000000, 0.899701 , 0.729811, 9.604790, 833728768.000000, -1.050000,  0.140000,  -0.070000, 0.000000,  0.000000 
 217704384.000000, 0.796810 , 0.753739, 9.664611, 833748160.000000, -1.540000,  -0.140000,  0.070000, 0.000000,  0.000000 
 217724032.000000, 0.784846 , 0.839881, 9.602397, 833768448.000000, -1.190000,  0.770000,  0.070000, 0.000000,  0.000000 
 217744064.000000, 0.811167 , 0.844666, 9.573684, 833788160.000000, -0.280000,  0.420000,  0.070000, 0.000000,  0.000000 
 217764608.000000, 0.806381 , 0.808774, 9.659825, 833808128.000000, -0.770000,  0.140000,  -0.140000, 0.000000,  0.000000 
 217784064.000000, 0.827917 , 0.775275, 9.643075, 833828736.000000, -1.540000,  0.490000,  -0.140000, 0.000000,  0.000000 
 217804352.000000, 0.820738 , 0.619741, 9.702895, 833848128.000000, -2.520000,  0.560000,  0.140000, 0.000000,  0.000000 
 217824000.000000, 0.756132 , 0.701097, 9.662218, 833868416.000000, -1.400000,  0.910000,  0.350000, 0.000000,  0.000000 
 217843968.000000, 0.789631 , 0.787239, 9.487542, 833888064.000000, 0.770000,  0.630000,  0.140000, 0.000000,  0.000000 
 217864576.000000, 0.789631 , 0.892523, 9.561719, 833908096.000000, 2.240000,  -0.280000,  0.140000, 0.000000,  0.000000 
 217883968.000000, 0.799203 , 0.868595, 9.609575, 833928640.000000, 1.890000,  -0.560000,  -0.140000, 0.000000,  0.000000 
 217904256.000000, 0.806381 , 0.808774, 9.602397, 833948032.000000, 0.560000,  0.490000,  0.070000, 0.000000,  0.000000 
 217923904.000000, 0.806381 , 0.708275, 9.683753, 833968384.000000, -0.910000,  0.840000,  0.140000, 0.000000,  0.000000 
 217943936.000000, 0.854238 , 0.789631, 9.600004, 834008000.000000, -0.210000,  0.140000,  -0.070000, 0.000000,  0.000000 
 217964480.000000, 0.765703 , 0.856631, 9.628718, 0.000000, 0.000000,  0.000000,  0.000000, 0.000000,  0.000000 
 217983872.000000, 0.789631 , 0.847059, 9.623933, 834028608.000000, 0.280000,  0.210000,  -0.070000, 0.000000,  0.000000 
 218004224.000000, 0.792024 , 0.782453, 9.614362, 834048000.000000, -0.210000,  0.630000,  0.140000, 0.000000,  0.000000 
 218023872.000000, 0.808774 , 0.758525, 9.674182, 834068288.000000, -0.770000,  0.420000,  0.140000, 0.000000,  0.000000 
 218043840.000000, 0.839881 , 0.851845, 9.628718, 834088000.000000, -1.260000,  0.140000,  -0.070000, 0.000000,  0.000000 
 218066368.000000, 0.811167 , 0.923629, 9.662218, 834107968.000000, 0.350000,  0.490000,  0.210000, 0.000000,  0.000000 
 218083840.000000, 0.801596 , 0.741775, 9.590433, 834130496.000000, -0.070000,  0.560000,  -0.070000, 0.000000,  0.000000 
 218104128.000000, 0.825524 , 0.792024, 9.552148, 834147968.000000, -1.050000,  0.140000,  0.210000, 0.000000,  0.000000 
 218123840.000000, 0.758525 , 0.808774, 9.576077, 834168256.000000, -0.420000,  0.700000,  0.070000, 0.000000,  0.000000 
 218143808.000000, 0.803988 , 0.832702, 9.678967, 834187904.000000, -0.140000,  0.210000,  -0.070000, 0.000000,  0.000000 
 218164416.000000, 0.837488 , 0.789631, 9.580862, 834207936.000000, -0.770000,  0.210000,  -0.070000, 0.000000,  0.000000 
 218183808.000000, 0.787239 , 0.787239, 9.640682, 834228480.000000, -0.630000,  0.630000,  0.210000, 0.000000,  0.000000 
 218204096.000000, 0.801596 , 0.748954, 9.595219, 834247872.000000, -0.490000,  0.560000,  0.070000, 0.000000,  0.000000 
 218223744.000000, 0.811167 , 0.827917, 9.635897, 834268224.000000, -0.210000,  0.140000,  0.070000, 0.000000,  0.000000 
 218243776.000000, 0.842274 , 0.813560, 9.626326, 834287872.000000, 0.140000,  0.420000,  0.070000, 0.000000,  0.000000 
 218264320.000000, 0.823131 , 0.777667, 9.621540, 834307840.000000, 0.140000,  0.420000,  0.210000, 0.000000,  0.000000 
 218283712.000000, 0.765703 , 0.866202, 9.628718, 834328448.000000, 0.140000,  0.280000,  0.140000, 0.000000,  0.000000 
 218304064.000000, 0.799203 , 0.870987, 9.600004, 834347840.000000, -0.490000,  0.490000,  -0.070000, 0.000000,  0.000000 
 218323712.000000, 0.849452 , 0.801596, 9.619147, 834368128.000000, -0.700000,  0.560000,  0.140000, 0.000000,  0.000000 
 218343680.000000, 0.799203 , 0.813560, 9.667004, 834387840.000000, -0.840000,  0.770000,  0.070000, 0.000000,  0.000000 
 218364288.000000, 0.796810 , 0.736989, 9.647861, 834407808.000000, -0.700000,  0.420000,  0.070000, 0.000000,  0.000000 
 218383680.000000, 0.811167 , 0.830309, 9.592826, 834428416.000000, -0.350000,  0.280000,  0.070000, 0.000000,  0.000000 
 218403968.000000, 0.825524 , 0.844666, 9.588040, 834447808.000000, -0.280000,  0.280000,  -0.280000, 0.000000,  0.000000 
 218423680.000000, 0.827917 , 0.844666, 9.597611, 834468096.000000, -0.490000,  -0.280000,  -0.210000, 0.000000,  0.000000 
 218443648.000000, 0.794417 , 0.760918, 9.923036, 834487744.000000, -1.260000,  0.420000,  0.140000, 0.000000,  0.000000 
 218464256.000000, 0.775275 , 0.818345, 9.686146, 834507776.000000, -1.540000,  0.910000,  0.070000, 835167808.000000,  1010.462219 
 218483648.000000, 0.897308 , 0.899701, 9.693325, 834528320.000000, -1.540000,  0.420000,  -0.490000, 0.000000,  0.000000 
 218503936.000000, 0.789631 , 0.698704, 9.719646, 834547712.000000, -0.210000,  -0.980000,  -0.070000, 0.000000,  0.000000 
 218523584.000000, 0.796810 , 0.662812, 9.647861, 834568000.000000, -1.470000,  1.330000,  0.280000, 0.000000,  0.000000 
 218543616.000000, 0.815953 , 0.705883, 9.695717, 834587712.000000, -0.840000,  1.260000,  0.420000, 0.000000,  0.000000 
 218564160.000000, 0.806381 , 0.696311, 9.585647, 834607680.000000, 1.890000,  -0.210000,  0.280000, 0.000000,  0.000000 
 218583552.000000, 0.801596 , 0.744168, 9.662218, 834628288.000000, 2.800000,  0.070000,  0.420000, 0.000000,  0.000000 
 218603904.000000, 0.789631 , 0.837488, 9.619147, 834647680.000000, 4.130000,  0.420000,  0.630000, 0.000000,  0.000000 
 218623552.000000, 0.849452 , 0.993021, 9.549755, 834667968.000000, 5.040000,  -0.070000,  0.490000, 0.000000,  0.000000 
 218643520.000000, 0.842274 , 0.983450, 9.616754, 834687680.000000, 4.480000,  -0.490000,  0.490000, 0.000000,  0.000000 
 218664320.000000, 0.770489 , 0.995414, 9.571291, 834707648.000000, 2.520000,  0.490000,  0.490000, 0.000000,  0.000000 
 218683520.000000, 0.751346 , 0.959522, 9.604790, 834728384.000000, 0.350000,  1.190000,  0.350000, 0.000000,  0.000000 
 218703808.000000, 0.849452 , 0.832702, 9.647861, 834747648.000000, -1.960000,  0.910000,  0.070000, 0.000000,  0.000000 
 218723520.000000, 0.832702 , 0.832702, 9.621540, 834767936.000000, -3.430000,  0.350000,  0.070000, 0.000000,  0.000000 
 218743488.000000, 0.753739 , 0.720240, 9.643075, 834787584.000000, -3.220000,  0.630000,  0.070000, 0.000000,  0.000000 
 218764096.000000, 0.763310 , 0.772882, 9.621540, 834807616.000000, -2.310000,  1.260000,  0.140000, 0.000000,  0.000000 
 218783488.000000, 0.803988 , 0.847059, 9.655040, 834828160.000000, -1.330000,  0.770000,  0.140000, 0.000000,  0.000000 
 218803776.000000, 0.792024 , 0.899701, 9.614362, 834847616.000000, -0.350000,  0.770000,  0.140000, 0.000000,  0.000000 
 218823424.000000, 0.794417 , 0.894916, 9.621540, 834867840.000000, 0.280000,  0.210000,  0.140000, 0.000000,  0.000000 
 218843456.000000, 0.763310 , 0.854238, 9.566505, 834887552.000000, -0.070000,  0.350000,  -0.070000, 0.000000,  0.000000 
 218864000.000000, 0.806381 , 0.899701, 9.638289, 834907520.000000, -0.840000,  0.280000,  -0.070000, 0.000000,  0.000000 
 218883392.000000, 0.820738 , 0.792024, 9.585647, 834928128.000000, -1.400000,  0.140000,  -0.070000, 0.000000,  0.000000 
 218903680.000000, 0.803988 , 0.760918, 9.638289, 834947520.000000, -1.540000,  0.490000,  0.070000, 0.000000,  0.000000 
 218923392.000000, 0.789631 , 0.799203, 9.640682, 834967808.000000, -1.050000,  0.630000,  0.070000, 0.000000,  0.000000 
 218943360.000000, 0.789631 , 0.842274, 9.588040, 834987520.000000, -0.350000,  0.350000,  -0.070000, 0.000000,  0.000000 
 218963968.000000, 0.844666 , 0.827917, 9.573684, 835007488.000000, 0.140000,  -0.140000,  -0.070000, 0.000000,  0.000000 
 218983360.000000, 0.782453 , 0.842274, 9.604790, 835028032.000000, -0.210000,  0.070000,  -0.070000, 0.000000,  0.000000 
 219003648.000000, 0.827917 , 0.825524, 9.616754, 835047488.000000, -0.490000,  0.350000,  -0.070000, 0.000000,  0.000000 
 219023360.000000, 0.823131 , 0.827917, 9.611969, 835067776.000000, -0.770000,  0.280000,  0.070000, 0.000000,  0.000000 
 219043328.000000, 0.830309 , 0.870987, 9.588040, 835087424.000000, -0.770000,  0.280000,  0.070000, 0.000000,  0.000000 
 219065856.000000, 0.782453 , 0.844666, 9.616754, 835107456.000000, -0.700000,  0.350000,  -0.070000, 0.000000,  0.000000 
 219083328.000000, 0.823131 , 0.808774, 9.643075, 835129984.000000, -1.050000,  0.420000,  -0.070000, 0.000000,  0.000000 
 219103616.000000, 0.763310 , 0.784846, 9.619147, 835147392.000000, -0.980000,  0.280000,  0.070000, 0.000000,  0.000000 
 219123264.000000, 0.796810 , 0.789631, 9.640682, 835167680.000000, -0.700000,  0.350000,  0.070000, 0.000000,  0.000000 
 219143296.000000, 0.796810 , 0.815953, 9.619147, 835187392.000000, -0.280000,  0.350000,  0.070000, 0.000000,  0.000000 
 219163840.000000, 0.772882 , 0.859023, 9.614362, 835207360.000000, 0.140000,  0.280000,  0.070000, 0.000000,  0.000000 
 219183232.000000, 0.792024 , 0.830309, 9.616754, 835227968.000000, 0.140000,  0.280000,  0.070000, 0.000000,  0.000000 
 219203520.000000, 0.801596 , 0.813560, 9.614362, 835247360.000000, -0.280000,  0.070000,  0.070000, 0.000000,  0.000000 
 219223232.000000, 0.803988 , 0.796810, 9.631111, 835267648.000000, -0.420000,  0.350000,  0.070000, 0.000000,  0.000000 
 219243200.000000, 0.796810 , 0.830309, 9.611969, 835287360.000000, -0.280000,  0.280000,  -0.070000, 0.000000,  0.000000 
 219263808.000000, 0.815953 , 0.873380, 9.609575, 835307328.000000, -0.210000,  0.280000,  -0.140000, 0.000000,  0.000000 
 219283200.000000, 0.859023 , 0.830309, 9.621540, 835327872.000000, -0.770000,  0.210000,  -0.070000, 0.000000,  0.000000 
 219303488.000000, 0.870987 , 0.780060, 9.623933, 835347264.000000, -1.260000,  0.490000,  -0.070000, 0.000000,  0.000000 
 219323200.000000, 0.801596 , 0.789631, 9.611969, 835367616.000000, -1.260000,  0.490000,  -0.070000, 0.000000,  0.000000 
 219343168.000000, 0.823131 , 0.808774, 9.616754, 835387264.000000, -0.910000,  0.350000,  -0.070000, 0.000000,  0.000000 
 219363712.000000, 0.758525 , 0.808774, 9.616754, 835407296.000000, -0.490000,  0.420000,  -0.070000, 0.000000,  0.000000 
 219383104.000000, 0.839881 , 0.772882, 9.609575, 835427840.000000, -0.350000,  0.420000,  -0.070000, 0.000000,  0.000000 
 219403456.000000, 0.815953 , 0.758525, 9.638289, 835447232.000000, -0.140000,  0.210000,  -0.070000, 0.000000,  0.000000 
 219423104.000000, 0.837488 , 0.811167, 9.633504, 835467520.000000, -0.140000,  0.350000,  0.140000, 0.000000,  0.000000 
 219443072.000000, 0.837488 , 0.835095, 9.664611, 835507200.000000, 0.210000,  0.280000,  0.070000, 836167296.000000,  1010.463318 
 219463680.000000, 0.808774 , 0.815953, 9.669396, 0.000000, 0.000000,  0.000000,  0.000000, 0.000000,  0.000000 
 219483072.000000, 0.811167 , 0.870987, 9.621540, 835527808.000000, 0.070000,  0.350000,  0.140000, 0.000000,  0.000000 
 219503360.000000, 0.808774 , 0.794417, 9.590433, 835547200.000000, 0.420000,  0.350000,  0.140000, 0.000000,  0.000000 
 219523072.000000, 0.808774 , 0.837488, 9.609575, 835567488.000000, 0.630000,  0.210000,  0.070000, 0.000000,  0.000000 
 219543040.000000, 0.806381 , 0.856631, 9.631111, 835587136.000000, 0.700000,  0.070000,  0.070000, 0.000000,  0.000000 
 219563648.000000, 0.787239 , 0.837488, 9.604790, 835607168.000000, 0.350000,  0.420000,  0.140000, 0.000000,  0.000000 
 219583040.000000, 0.787239 , 0.818345, 9.678967, 835627712.000000, -0.280000,  0.490000,  0.140000, 0.000000,  0.000000 
 219603328.000000, 0.835095 , 0.818345, 9.626326, 835647104.000000, -0.560000,  0.350000,  0.070000, 0.000000,  0.000000 
 219622976.000000, 0.756132 , 0.885344, 9.592826, 835667456.000000, -0.630000,  0.280000,  0.070000, 0.000000,  0.000000 
 219643008.000000, 0.792024 , 0.818345, 9.609575, 835687104.000000, -0.700000,  0.140000,  -0.140000, 0.000000,  0.000000 
 219663552.000000, 0.811167 , 0.782453, 9.623933, 835707072.000000, -0.910000,  0.350000,  0.210000, 0.000000,  0.000000 
 219682944.000000, 0.808774 , 0.880559, 9.645468, 835727680.000000, -0.700000,  0.840000,  0.210000, 0.000000,  0.000000 
 219703296.000000, 0.799203 , 0.892523, 9.667004, 835747072.000000, -0.350000,  0.210000,  -0.140000, 0.000000,  0.000000 
 219722944.000000, 0.787239 , 0.772882, 9.647861, 835767360.000000, -0.630000,  0.140000,  -0.070000, 0.000000,  0.000000 
 219742912.000000, 0.813560 , 0.784846, 9.600004, 835787072.000000, -0.770000,  0.560000,  0.210000, 0.000000,  0.000000 
 219763520.000000, 0.820738 , 0.899701, 9.592826, 835807040.000000, -0.770000,  0.280000,  0.140000, 0.000000,  0.000000 
 219782976.000000, 0.837488 , 0.885344, 9.602397, 835827648.000000, 0.420000,  0.280000,  -0.210000, 0.000000,  0.000000 
 219803200.000000, 0.808774 , 0.827917, 9.643075, 835847040.000000, -0.630000,  0.280000,  -0.210000, 0.000000,  0.000000 
 219822912.000000, 0.777667 , 0.756132, 9.631111, 835867328.000000, -1.890000,  0.560000,  0.070000, 0.000000,  0.000000 
 219842880.000000, 0.825524 , 0.758525, 9.647861, 835886976.000000, -2.170000,  0.630000,  0.070000, 0.000000,  0.000000 
 219863488.000000, 0.806381 , 0.760918, 9.614362, 835907008.000000, -1.330000,  0.280000,  -0.140000, 0.000000,  0.000000 
 219882880.000000, 0.839881 , 0.758525, 9.638289, 835927552.000000, -0.210000,  0.070000,  -0.140000, 0.000000,  0.000000 
 219903168.000000, 0.796810 , 0.887737, 9.604790, 835946944.000000, 0.700000,  0.070000,  -0.140000, 0.000000,  0.000000 
 219922816.000000, 0.820738 , 0.775275, 9.600004, 835967296.000000, 0.420000,  0.280000,  -0.140000, 0.000000,  0.000000 
 219942848.000000, 0.849452 , 0.811167, 9.686146, 835986944.000000, -0.210000,  0.560000,  0.210000, 0.000000,  0.000000 
 219963392.000000, 0.818345 , 0.815953, 9.597611, 836006912.000000, -0.560000,  0.630000,  0.070000, 0.000000,  0.000000 
 219982784.000000, 0.830309 , 0.818345, 9.633504, 836027520.000000, -0.560000,  0.420000,  0.070000, 0.000000,  0.000000 
 220003072.000000, 0.796810 , 0.837488, 9.645468, 836046912.000000, -0.700000,  0.420000,  0.140000, 0.000000,  0.000000 
 220022784.000000, 0.780060 , 0.851845, 9.633504, 836067200.000000, -0.700000,  0.700000,  0.280000, 0.000000,  0.000000 
 220042752.000000, 0.808774 , 0.777667, 9.647861, 836086912.000000, -0.630000,  0.910000,  0.280000, 0.000000,  0.000000 
 220065280.000000, 0.844666 , 0.808774, 9.554541, 836106880.000000, 0.560000,  0.560000,  0.280000, 0.000000,  0.000000 
 220082752.000000, 0.866202 , 0.928415, 9.621540, 836129408.000000, 1.260000,  -0.420000,  -0.140000, 0.000000,  0.000000 
 220103040.000000, 0.815953 , 0.847059, 9.611969, 836146816.000000, 0.350000,  -0.140000,  -0.140000, 0.000000,  0.000000 
 220122752.000000, 0.768096 , 0.734596, 9.650253, 836167168.000000, -1.050000,  1.260000,  0.350000, 0.000000,  0.000000 
 220142720.000000, 0.799203 , 0.765703, 9.623933, 836186816.000000, -1.120000,  0.980000,  0.280000, 0.000000,  0.000000 
 220163328.000000, 0.794417 , 0.839881, 9.590433, 836206848.000000, -0.420000,  0.070000,  -0.070000, 0.000000,  0.000000 
 220182720.000000, 0.803988 , 0.902094, 9.588040, 836227392.000000, 0.210000,  -0.070000,  -0.140000, 0.000000,  0.000000 
 220203008.000000, 0.758525 , 0.839881, 9.583255, 836246784.000000, 0.210000,  0.350000,  -0.070000, 0.000000,  0.000000 
 220222656.000000, 0.801596 , 0.782453, 9.633504, 836267072.000000, -0.840000,  0.420000,  -0.070000, 0.000000,  0.000000 
 220242688.000000, 0.792024 , 0.751346, 9.674182, 836286784.000000, -1.120000,  0.490000,  0.070000, 0.000000,  0.000000 
 220263232.000000, 0.832702 , 0.818345, 9.657433, 836306752.000000, -0.770000,  0.630000,  0.070000, 0.000000,  0.000000 
 220282624.000000, 0.787239 , 0.844666, 9.571291, 836327360.000000, 0.070000,  0.420000,  0.070000, 0.000000,  0.000000 
 220302912.000000, 0.815953 , 0.827917, 9.600004, 836346752.000000, 0.420000,  0.210000,  0.070000, 0.000000,  0.000000 
 220322624.000000, 0.815953 , 0.806381, 9.621540, 836367040.000000, 0.210000,  0.140000,  0.140000, 0.000000,  0.000000 
 220342592.000000, 0.827917 , 0.775275, 9.611969, 836386688.000000, -0.070000,  0.350000,  0.070000, 0.000000,  0.000000 
 220363200.000000, 0.851845 , 0.801596, 9.655040, 836406720.000000, -0.210000,  0.420000,  0.140000, 0.000000,  0.000000 
 220382592.000000, 0.825524 , 0.849452, 9.688539, 836427328.000000, 0.070000,  0.350000,  0.070000, 0.000000,  0.000000 
 220402880.000000, 0.827917 , 0.827917, 9.623933, 836446656.000000, 0.350000,  0.350000,  0.070000, 0.000000,  0.000000 
 220422592.000000, 0.806381 , 0.854238, 9.635897, 836467008.000000, 0.350000,  0.210000,  0.070000, 0.000000,  0.000000 
 220442560.000000, 0.796810 , 0.792024, 9.602397, 836486656.000000, -0.070000,  0.280000,  0.070000, 0.000000,  0.000000 
 220463104.000000, 0.825524 , 0.753739, 9.647861, 836506688.000000, -0.280000,  0.280000,  0.070000, 837166720.000000,  1010.463867 
 220482560.000000, 0.880559 , 0.847059, 9.623933, 836527232.000000, -0.280000,  0.350000,  0.070000, 0.000000,  0.000000 
 220502848.000000, 0.823131 , 0.882952, 9.619147, 836546624.000000, -0.140000,  0.280000,  0.070000, 0.000000,  0.000000 
 220522496.000000, 0.796810 , 0.808774, 9.647861, 836586624.000000, -0.490000,  0.630000,  0.140000, 0.000000,  0.000000 
 220542528.000000, 0.744168 , 0.815953, 9.626326, 0.000000, 0.000000,  0.000000,  0.000000, 0.000000,  0.000000 
 220563072.000000, 0.820738 , 0.813560, 9.664611, 836606592.000000, -0.700000,  0.560000,  0.140000, 0.000000,  0.000000 
 220582464.000000, 0.775275 , 0.803988, 9.602397, 836627200.000000, -0.630000,  0.140000,  0.140000, 0.000000,  0.000000 
 220602752.000000, 0.803988 , 0.823131, 9.623933, 836646592.000000, -0.350000,  0.140000,  0.140000, 0.000000,  0.000000 
 220622464.000000, 0.830309 , 0.827917, 9.638289, 836666880.000000, 0.140000,  0.280000,  0.070000, 0.000000,  0.000000 
 220642432.000000, 0.815953 , 0.851845, 9.595219, 836686528.000000, 0.210000,  0.350000,  0.070000, 0.000000,  0.000000 
 220663040.000000, 0.808774 , 0.861416, 9.664611, 836706560.000000, 0.070000,  0.280000,  0.140000, 0.000000,  0.000000 
 220682432.000000, 0.835095 , 0.813560, 9.621540, 836727104.000000, -0.420000,  0.420000,  0.070000, 0.000000,  0.000000 
 220702720.000000, 0.792024 , 0.811167, 9.638289, 836746496.000000, -0.700000,  0.490000,  0.070000, 0.000000,  0.000000 
 220722432.000000, 0.825524 , 0.856631, 9.614362, 836766848.000000, -0.560000,  0.420000,  0.070000, 0.000000,  0.000000 
 220742400.000000, 0.799203 , 0.815953, 9.609575, 836786496.000000, -0.140000,  0.350000,  0.070000, 0.000000,  0.000000 
 220762944.000000, 0.847059 , 0.844666, 9.597611, 836806528.000000, 0.070000,  0.210000,  0.070000, 0.000000,  0.000000 
 220782400.000000, 0.835095 , 0.808774, 9.674182, 836827072.000000, -0.070000,  0.350000,  0.070000, 0.000000,  0.000000 
 220802688.000000, 0.825524 , 0.863809, 9.623933, 836846528.000000, -0.490000,  0.350000,  0.070000, 0.000000,  0.000000 
 220822336.000000, 0.859023 , 0.859023, 9.645468, 836866752.000000, -0.560000,  0.490000,  0.070000, 0.000000,  0.000000 
 220842368.000000, 0.827917 , 0.796810, 9.607183, 836886464.000000, -0.770000,  0.350000,  0.070000, 0.000000,  0.000000 
 220862912.000000, 0.770489 , 0.756132, 9.600004, 836906432.000000, -0.700000,  0.210000,  0.070000, 0.000000,  0.000000 
 220882304.000000, 0.837488 , 0.796810, 9.597611, 836927040.000000, -0.490000,  0.420000,  0.070000, 0.000000,  0.000000 
 220902592.000000, 0.815953 , 0.837488, 9.645468, 836946432.000000, -0.280000,  0.280000,  0.070000, 0.000000,  0.000000 
 220922304.000000, 0.811167 , 0.830309, 9.621540, 836966720.000000, -0.280000,  0.350000,  0.070000, 0.000000,  0.000000 
 220942272.000000, 0.768096 , 0.830309, 9.602397, 836986368.000000, -0.420000,  0.350000,  0.140000, 0.000000,  0.000000 
 220962880.000000, 0.820738 , 0.818345, 9.628718, 837006400.000000, -0.560000,  0.420000,  0.140000, 0.000000,  0.000000 
 220982272.000000, 0.796810 , 0.832702, 9.585647, 837026944.000000, -0.490000,  0.280000,  0.140000, 0.000000,  0.000000 
 221002560.000000, 0.808774 , 0.815953, 9.600004, 837046336.000000, -0.490000,  0.140000,  0.140000, 0.000000,  0.000000 
 221022208.000000, 0.806381 , 0.763310, 9.609575, 837066624.000000, -0.490000,  0.420000,  0.140000, 0.000000,  0.000000 
 221042240.000000, 0.832702 , 0.827917, 9.631111, 837086336.000000, -0.420000,  0.420000,  0.140000, 0.000000,  0.000000 
 221064768.000000, 0.811167 , 0.808774, 9.590433, 837106304.000000, -0.210000,  0.280000,  0.070000, 0.000000,  0.000000 
 221082176.000000, 0.780060 , 0.806381, 9.645468, 837128896.000000, -0.210000,  0.280000,  0.070000, 0.000000,  0.000000 
 221102528.000000, 0.808774 , 0.875773, 9.647861, 837146304.000000, 0.070000,  0.280000,  0.070000, 0.000000,  0.000000 
 221122176.000000, 0.777667 , 0.830309, 9.638289, 837166592.000000, 0.070000,  0.420000,  0.070000, 0.000000,  0.000000 
 221142144.000000, 0.825524 , 0.803988, 9.635897, 837186304.000000, -0.210000,  0.350000,  0.070000, 0.000000,  0.000000 
 221162752.000000, 0.820738 , 0.825524, 9.628718, 837206272.000000, -0.210000,  0.350000,  0.070000, 0.000000,  0.000000 
 221182144.000000, 0.796810 , 0.844666, 9.643075, 837226816.000000, -0.280000,  0.420000,  0.070000, 0.000000,  0.000000 
 221202432.000000, 0.801596 , 0.835095, 9.600004, 837246272.000000, -0.210000,  0.350000,  0.070000, 0.000000,  0.000000 
 221222144.000000, 0.813560 , 0.823131, 9.626326, 837266560.000000, -0.140000,  0.280000,  0.070000, 0.000000,  0.000000 
 221242112.000000, 0.844666 , 0.859023, 9.588040, 837286208.000000, -0.280000,  0.280000,  0.140000, 0.000000,  0.000000 
 221262720.000000, 0.796810 , 0.782453, 9.580862, 837306240.000000, -0.350000,  0.420000,  0.070000, 0.000000,  0.000000 
 221282112.000000, 0.772882 , 0.830309, 9.655040, 837326784.000000, -0.490000,  0.560000,  0.070000, 0.000000,  0.000000 
 221302400.000000, 0.799203 , 0.830309, 9.616754, 837346176.000000, -0.490000,  0.280000,  0.070000, 0.000000,  0.000000 
 221322048.000000, 0.803988 , 0.799203, 9.633504, 837366528.000000, -0.280000,  0.070000,  0.070000, 0.000000,  0.000000 
 221342080.000000, 0.818345 , 0.842274, 9.611969, 837386176.000000, -0.070000,  0.280000,  0.070000, 0.000000,  0.000000 
 221362624.000000, 0.815953 , 0.854238, 9.626326, 837406144.000000, 0.070000,  0.350000,  0.070000, 0.000000,  0.000000 
 221382016.000000, 0.827917 , 0.856631, 9.602397, 837426752.000000, -0.350000,  0.210000,  -0.070000, 0.000000,  0.000000 
 221402368.000000, 0.756132 , 0.784846, 9.635897, 837446144.000000, -0.770000,  0.350000,  -0.070000, 0.000000,  0.000000 
 221422016.000000, 0.818345 , 0.787239, 9.571291, 837466432.000000, -0.770000,  0.420000,  0.140000, 0.000000,  0.000000 
 221441984.000000, 0.832702 , 0.813560, 9.614362, 837506112.000000, -0.140000,  0.350000,  0.070000, 838166208.000000,  1010.465759 
 221462592.000000, 0.844666 , 0.820738, 9.635897, 0.000000, 0.000000,  0.000000,  0.000000, 0.000000,  0.000000 
 221481984.000000, 0.799203 , 0.892523, 9.657433, 837526720.000000, -0.140000,  0.420000,  0.070000, 0.000000,  0.000000 
 221502272.000000, 0.818345 , 0.808774, 9.645468, 837546048.000000, -0.350000,  0.420000,  0.070000, 0.000000,  0.000000 
 221521984.000000, 0.789631 , 0.827917, 9.592826, 837566400.000000, -0.560000,  0.280000,  0.070000, 0.000000,  0.000000 
 221541952.000000, 0.772882 , 0.839881, 9.585647, 837586048.000000, -0.700000,  0.210000,  0.070000, 0.000000,  0.000000 
 221562560.000000, 0.844666 , 0.768096, 9.595219, 837606080.000000, -0.630000,  0.420000,  0.140000, 0.000000,  0.000000 
 221581952.000000, 0.854238 , 0.789631, 9.650253, 837626624.000000, -0.420000,  0.490000,  0.070000, 0.000000,  0.000000 
 221602240.000000, 0.837488 , 0.808774, 9.650253, 837646016.000000, -0.280000,  0.560000,  0.070000, 0.000000,  0.000000 
 221621888.000000, 0.775275 , 0.820738, 9.635897, 837666304.000000, -0.070000,  0.350000,  0.070000, 0.000000,  0.000000 
 221641920.000000, 0.837488 , 0.866202, 9.602397, 837686016.000000, 0.140000,  0.210000,  0.070000, 0.000000,  0.000000 
 221662464.000000, 0.806381 , 0.830309, 9.609575, 837705984.000000, 0.140000,  0.210000,  0.070000, 0.000000,  0.000000 
 221681856.000000, 0.794417 , 0.796810, 9.619147, 837726592.000000, -0.350000,  0.280000,  0.140000, 0.000000,  0.000000 
 221702208.000000, 0.825524 , 0.815953, 9.650253, 837766272.000000, -0.560000,  0.420000,  0.070000, 0.000000,  0.000000 
 221721856.000000, 0.818345 , 0.820738, 9.657433, 0.000000, 0.000000,  0.000000,  0.000000, 0.000000,  0.000000 
 221741824.000000, 0.782453 , 0.808774, 9.619147, 837785920.000000, -0.420000,  0.350000,  0.070000, 0.000000,  0.000000 
 221762432.000000, 0.803988 , 0.835095, 9.621540, 837805952.000000, -0.350000,  0.350000,  0.070000, 0.000000,  0.000000 
 221781824.000000, 0.763310 , 0.823131, 9.592826, 837826496.000000, -0.280000,  0.280000,  0.070000, 0.000000,  0.000000 
 221802112.000000, 0.792024 , 0.811167, 9.621540, 837845952.000000, -0.210000,  0.210000,  0.070000, 0.000000,  0.000000 
 221822080.000000, 0.806381 , 0.796810, 9.640682, 837866240.000000, -0.140000,  0.350000,  0.070000, 0.000000,  0.000000 
 221841792.000000, 0.854238 , 0.856631, 9.643075, 837886208.000000, -0.210000,  0.350000,  0.070000, 0.000000,  0.000000 
 221862336.000000, 0.820738 , 0.854238, 9.645468, 837905856.000000, -0.280000,  0.350000,  0.070000, 0.000000,  0.000000 
 221881728.000000, 0.770489 , 0.849452, 9.635897, 837926464.000000, -0.210000,  0.350000,  0.070000, 0.000000,  0.000000 
 221902080.000000, 0.780060 , 0.808774, 9.583255, 837945856.000000, -0.350000,  0.280000,  0.070000, 0.000000,  0.000000 
 221921728.000000, 0.789631 , 0.842274, 9.585647, 837966144.000000, -0.560000,  0.280000,  0.070000, 0.000000,  0.000000 
 221941696.000000, 0.787239 , 0.799203, 9.650253, 837985856.000000, -0.490000,  0.350000,  0.070000, 0.000000,  0.000000 
 221962304.000000, 0.760918 , 0.856631, 9.595219, 838005824.000000, -0.350000,  0.280000,  0.070000, 0.000000,  0.000000 
 221981696.000000, 0.780060 , 0.784846, 9.614362, 838026432.000000, -0.280000,  0.210000,  0.070000, 0.000000,  0.000000 
 222001984.000000, 0.794417 , 0.856631, 9.650253, 838045824.000000, -0.280000,  0.350000,  0.140000, 0.000000,  0.000000 
 222021696.000000, 0.808774 , 0.870987, 9.638289, 838066112.000000, -0.280000,  0.420000,  0.070000, 0.000000,  0.000000 
 222041664.000000, 0.815953 , 0.854238, 9.667004, 838085760.000000, -0.490000,  0.490000,  0.070000, 0.000000,  0.000000 
 222064192.000000, 0.832702 , 0.806381, 9.638289, 838105792.000000, -0.630000,  0.350000,  0.070000, 0.000000,  0.000000 
 222081664.000000, 0.811167 , 0.796810, 9.614362, 838128320.000000, -0.630000,  0.140000,  0.070000, 0.000000,  0.000000 
 222101952.000000, 0.837488 , 0.792024, 9.604790, 838145728.000000, -0.420000,  0.210000,  0.070000, 0.000000,  0.000000 
 222121600.000000, 0.811167 , 0.815953, 9.635897, 838166080.000000, -0.420000,  0.210000,  0.070000, 0.000000,  0.000000 
 222141632.000000, 0.832702 , 0.899701, 9.628718, 838185728.000000, -0.070000,  0.350000,  0.070000, 0.000000,  0.000000 
 222162176.000000, 0.842274 , 0.830309, 9.669396, 838205696.000000, -0.210000,  0.420000,  0.070000, 0.000000,  0.000000 
 222181568.000000, 0.818345 , 0.839881, 9.619147, 838226304.000000, -0.350000,  0.420000,  0.070000, 0.000000,  0.000000 
 222201920.000000, 0.830309 , 0.811167, 9.595219, 838245696.000000, -0.350000,  0.210000,  0.070000, 0.000000,  0.000000 
 222221568.000000, 0.811167 , 0.796810, 9.621540, 838265984.000000, -0.350000,  0.280000,  0.070000, 0.000000,  0.000000 
 222241536.000000, 0.827917 , 0.777667, 9.633504, 838285696.000000, -0.350000,  0.490000,  0.140000, 0.000000,  0.000000 
 222262144.000000, 0.803988 , 0.808774, 9.623933, 838305664.000000, -0.280000,  0.420000,  0.070000, 0.000000,  0.000000 
 222281536.000000, 0.815953 , 0.863809, 9.638289, 838326272.000000, -0.280000,  0.280000,  0.070000, 0.000000,  0.000000 
 222301824.000000, 0.796810 , 0.808774, 9.621540, 838345664.000000, -0.490000,  0.350000,  0.070000, 0.000000,  0.000000 
 222321536.000000, 0.823131 , 0.830309, 9.614362, 838365952.000000, -0.630000,  0.420000,  0.070000, 0.000000,  0.000000 
 222341504.000000, 0.832702 , 0.823131, 9.588040, 838385600.000000, -0.630000,  0.420000,  0.140000, 0.000000,  0.000000 
 222362112.000000, 0.815953 , 0.801596, 9.602397, 838405632.000000, -0.420000,  0.420000,  0.070000, 0.000000,  0.000000 
 222381504.000000, 0.792024 , 0.851845, 9.638289, 838426176.000000, -0.140000,  0.420000,  0.070000, 0.000000,  0.000000 
 222401792.000000, 0.813560 , 0.847059, 9.643075, 838445568.000000, -0.140000,  0.280000,  0.070000, 0.000000,  0.000000 
 222421440.000000, 0.806381 , 0.851845, 9.616754, 838485568.000000, -0.560000,  0.420000,  0.070000, 0.000000,  0.000000 
 222441472.000000, 0.813560 , 0.787239, 9.621540, 838505536.000000, -0.840000,  0.560000,  0.070000, 839165632.000000,  1010.465088 
 222462016.000000, 0.803988 , 0.799203, 9.657433, 0.000000, 0.000000,  0.000000,  0.000000, 0.000000,  0.000000 
 222481408.000000, 0.813560 , 0.851845, 9.623933, 838526144.000000, -0.630000,  0.350000,  0.070000, 0.000000,  0.000000 
 222501696.000000, 0.799203 , 0.873380, 9.600004, 838545536.000000, -0.140000,  0.210000,  0.070000, 0.000000,  0.000000 
 222521408.000000, 0.787239 , 0.868595, 9.611969, 838565824.000000, 0.070000,  0.140000,  0.070000, 0.000000,  0.000000 
 222541376.000000, 0.772882 , 0.844666, 9.559326, 838585536.000000, -0.070000,  0.420000,  0.140000, 0.000000,  0.000000 
 222561984.000000, 0.847059 , 0.808774, 9.645468, 838605504.000000, -0.350000,  0.420000,  0.070000, 0.000000,  0.000000 
 222581376.000000, 0.811167 , 0.861416, 9.652647, 838626112.000000, -0.420000,  0.490000,  0.140000, 0.000000,  0.000000 
 222601792.000000, 0.811167 , 0.844666, 9.635897, 838645504.000000, -0.280000,  0.420000,  0.140000, 0.000000,  0.000000 
 222621376.000000, 0.792024 , 0.878166, 9.623933, 838665856.000000, -0.280000,  0.210000,  0.070000, 0.000000,  0.000000 
 222641344.000000, 0.801596 , 0.830309, 9.633504, 838685440.000000, 0.070000,  0.210000,  0.070000, 0.000000,  0.000000 
 222662080.000000, 0.803988 , 0.770489, 9.626326, 838705472.000000, -0.350000,  0.280000,  0.070000, 0.000000,  0.000000 
 222681344.000000, 0.796810 , 0.803988, 9.635897, 838726208.000000, -0.700000,  0.490000,  0.070000, 0.000000,  0.000000 
 222701632.000000, 0.799203 , 0.803988, 9.640682, 838745408.000000, -0.560000,  0.490000,  0.070000, 0.000000,  0.000000 
 222721280.000000, 0.827917 , 0.823131, 9.628718, 838765696.000000, -0.280000,  0.350000,  0.070000, 0.000000,  0.000000 
 222741312.000000, 0.815953 , 0.842274, 9.616754, 838785408.000000, -0.070000,  0.210000,  0.070000, 0.000000,  0.000000 
 222761856.000000, 0.801596 , 0.866202, 9.638289, 838805376.000000, -0.140000,  0.350000,  0.070000, 0.000000,  0.000000 
 222781312.000000, 0.775275 , 0.837488, 9.580862, 838825984.000000, -0.210000,  0.280000,  0.140000, 0.000000,  0.000000 
 222801536.000000, 0.813560 , 0.796810, 9.652647, 838845440.000000, -0.280000,  0.280000,  0.070000, 0.000000,  0.000000 
 222821248.000000, 0.770489 , 0.815953, 9.588040, 838865664.000000, -0.280000,  0.280000,  0.070000, 0.000000,  0.000000 
 222841216.000000, 0.835095 , 0.868595, 9.621540, 838885376.000000, -0.420000,  0.350000,  0.070000, 0.000000,  0.000000 
 222861824.000000, 0.787239 , 0.801596, 9.647861, 838905344.000000, -0.490000,  0.490000,  0.070000, 0.000000,  0.000000 
 222881216.000000, 0.808774 , 0.830309, 9.616754, 838925952.000000, -0.700000,  0.350000,  -0.070000, 0.000000,  0.000000 
 222901504.000000, 0.818345 , 0.832702, 9.595219, 838945344.000000, -0.560000,  0.140000,  -0.070000, 0.000000,  0.000000 
 222921216.000000, 0.813560 , 0.851845, 9.619147, 838965632.000000, -0.420000,  0.350000,  0.070000, 0.000000,  0.000000 
 222941184.000000, 0.808774 , 0.866202, 9.621540, 838985280.000000, -0.070000,  0.210000,  0.070000, 0.000000,  0.000000 
 222961792.000000, 0.818345 , 0.815953, 9.655040, 839005312.000000, 0.140000,  0.210000,  0.070000, 0.000000,  0.000000 
 222981184.000000, 0.815953 , 0.894916, 9.631111, 839025856.000000, 0.140000,  0.280000,  0.070000, 0.000000,  0.000000 
 223001472.000000, 0.784846 , 0.847059, 9.623933, 839045248.000000, -0.350000,  0.280000,  0.070000, 0.000000,  0.000000 
 223021120.000000, 0.823131 , 0.827917, 9.628718, 839065536.000000, -0.630000,  0.420000,  0.070000, 0.000000,  0.000000 
 223041152.000000, 0.796810 , 0.813560, 9.600004, 839085248.000000, -0.490000,  0.420000,  0.070000, 0.000000,  0.000000 
 223063680.000000, 0.806381 , 0.849452, 9.621540, 839105216.000000, -0.280000,  0.350000,  0.070000, 0.000000,  0.000000 
 223081088.000000, 0.787239 , 0.830309, 9.623933, 839127744.000000, -0.280000,  0.420000,  0.070000, 0.000000,  0.000000 
 223101440.000000, 0.861416 , 0.825524, 9.616754, 839145216.000000, -0.560000,  0.350000,  0.070000, 0.000000,  0.000000 
 223121088.000000, 0.801596 , 0.784846, 9.650253, 839165504.000000, -0.630000,  0.350000,  0.070000, 0.000000,  0.000000 
 223141056.000000, 0.861416 , 0.827917, 9.607183, 839185152.000000, -0.280000,  0.350000,  0.070000, 0.000000,  0.000000 
 223161664.000000, 0.801596 , 0.859023, 9.633504, 839205184.000000, -0.210000,  0.280000,  0.070000, 0.000000,  0.000000 
 223181056.000000, 0.806381 , 0.815953, 9.619147, 839225728.000000, -0.280000,  0.420000,  0.070000, 0.000000,  0.000000 
 223201344.000000, 0.770489 , 0.765703, 9.616754, 839245120.000000, -0.350000,  0.350000,  0.070000, 0.000000,  0.000000 
 223220992.000000, 0.808774 , 0.825524, 9.592826, 839265472.000000, -0.350000,  0.350000,  0.070000, 0.000000,  0.000000 
 223241024.000000, 0.806381 , 0.796810, 9.645468, 839285120.000000, -0.280000,  0.350000,  0.070000, 0.000000,  0.000000 
 223261632.000000, 0.811167 , 0.820738, 9.631111, 839305088.000000, -0.280000,  0.350000,  0.070000, 0.000000,  0.000000 
 223280960.000000, 0.830309 , 0.811167, 9.633504, 839325696.000000, -0.490000,  0.420000,  0.070000, 0.000000,  0.000000 
 223301312.000000, 0.794417 , 0.803988, 9.621540, 839345088.000000, -0.490000,  0.490000,  0.070000, 0.000000,  0.000000 
 223320960.000000, 0.782453 , 0.818345, 9.607183, 839365376.000000, -0.560000,  0.280000,  0.070000, 0.000000,  0.000000 
 223340928.000000, 0.801596 , 0.837488, 9.621540, 839385088.000000, -0.280000,  0.280000,  0.070000, 0.000000,  0.000000 
 223361536.000000, 0.837488 , 0.839881, 9.650253, 839405056.000000, -0.350000,  0.420000,  0.070000, 0.000000,  0.000000 
 223380928.000000, 0.806381 , 0.815953, 9.643075, 839425664.000000, -0.560000,  0.490000,  0.140000, 0.000000,  0.000000 
 223401216.000000, 0.780060 , 0.792024, 9.647861, 839445056.000000, -0.420000,  0.420000,  0.070000, 0.000000,  0.000000 
 223420928.000000, 0.796810 , 0.820738, 9.626326, 839465344.000000, -0.280000,  0.350000,  0.070000, 0.000000,  0.000000 
 223440896.000000, 0.818345 , 0.811167, 9.631111, 839484992.000000, -0.280000,  0.140000,  0.070000, 0.000000,  0.000000 
 223461504.000000, 0.784846 , 0.825524, 9.607183, 839505024.000000, -0.280000,  0.210000,  0.070000, 840165056.000000,  1010.467224 
 223480896.000000, 0.803988 , 0.808774, 9.633504, 839525568.000000, -0.280000,  0.350000,  0.070000, 0.000000,  0.000000 
 223501184.000000, 0.787239 , 0.820738, 9.647861, 839544960.000000, -0.420000,  0.490000,  0.070000, 0.000000,  0.000000 
 223520832.000000, 0.835095 , 0.844666, 9.621540, 839565312.000000, -0.420000,  0.420000,  0.070000, 0.000000,  0.000000 
 223540864.000000, 0.777667 , 0.818345, 9.611969, 839584960.000000, -0.420000,  0.350000,  0.070000, 0.000000,  0.000000 
 223561408.000000, 0.835095 , 0.825524, 9.604790, 839604928.000000, -0.210000,  0.350000,  0.070000, 0.000000,  0.000000 
 223580800.000000, 0.784846 , 0.827917, 9.623933, 839625536.000000, -0.210000,  0.210000,  0.070000, 0.000000,  0.000000 
 223601152.000000, 0.813560 , 0.825524, 9.611969, 839644928.000000, -0.420000,  0.350000,  0.070000, 0.000000,  0.000000 
 223620800.000000, 0.842274 , 0.818345, 9.664611, 839665216.000000, -0.630000,  0.560000,  0.070000, 0.000000,  0.000000 
 223640768.000000, 0.787239 , 0.777667, 9.647861, 839684928.000000, -0.280000,  0.350000,  0.070000, 0.000000,  0.000000 
 223661376.000000, 0.782453 , 0.839881, 9.607183, 839704896.000000, 0.070000,  0.280000,  0.070000, 0.000000,  0.000000 
 223680768.000000, 0.796810 , 0.854238, 9.568897, 839725504.000000, 0.280000,  0.070000,  0.070000, 0.000000,  0.000000 
 223701056.000000, 0.820738 , 0.820738, 9.616754, 839744896.000000, -0.140000,  0.210000,  -0.070000, 0.000000,  0.000000 
 223720768.000000, 0.770489 , 0.803988, 9.631111, 839765184.000000, -0.910000,  0.490000,  -0.070000, 0.000000,  0.000000 
 223740736.000000, 0.823131 , 0.780060, 9.657433, 839784832.000000, -1.050000,  0.490000,  -0.070000, 0.000000,  0.000000 
 223761344.000000, 0.823131 , 0.787239, 9.616754, 839804864.000000, -0.490000,  0.210000,  -0.070000, 0.000000,  0.000000 
 223780736.000000, 0.818345 , 0.868595, 9.664611, 839825408.000000, -0.490000,  0.140000,  -0.070000, 0.000000,  0.000000 
 223801024.000000, 0.823131 , 0.873380, 9.645468, 839844864.000000, 0.350000,  0.280000,  0.070000, 0.000000,  0.000000 
 223820672.000000, 0.861416 , 0.818345, 9.609575, 839865088.000000, -0.070000,  0.280000,  0.070000, 0.000000,  0.000000 
 223840704.000000, 0.777667 , 0.808774, 9.633504, 839884800.000000, -0.420000,  0.280000,  0.070000, 0.000000,  0.000000 
 223861248.000000, 0.808774 , 0.849452, 9.595219, 839904768.000000, -0.630000,  0.350000,  0.070000, 0.000000,  0.000000 
 223880640.000000, 0.803988 , 0.847059, 9.573684, 839925376.000000, -0.280000,  0.280000,  0.070000, 0.000000,  0.000000 
 223900992.000000, 0.851845 , 0.880559, 9.631111, 839944768.000000, -0.070000,  0.350000,  0.070000, 0.000000,  0.000000 
 223920640.000000, 0.849452 , 0.835095, 9.609575, 839965056.000000, -0.280000,  0.420000,  0.070000, 0.000000,  0.000000 
 223940608.000000, 0.844666 , 0.825524, 9.652647, 839984768.000000, -0.700000,  0.560000,  0.070000, 0.000000,  0.000000 
 223961216.000000, 0.789631 , 0.818345, 9.638289, 840004736.000000, -0.910000,  0.420000,  0.070000, 0.000000,  0.000000 
 223980608.000000, 0.789631 , 0.842274, 9.614362, 840025344.000000, -0.560000,  0.280000,  0.070000, 0.000000,  0.000000 
 224000896.000000, 0.796810 , 0.765703, 9.564112, 840044672.000000, -0.070000,  0.210000,  0.070000, 0.000000,  0.000000 
 224020608.000000, 0.799203 , 0.839881, 9.623933, 840065024.000000, -0.070000,  0.210000,  0.070000, 0.000000,  0.000000 
 224040576.000000, 0.789631 , 0.842274, 9.623933, 840084672.000000, -0.280000,  0.490000,  0.070000, 0.000000,  0.000000 
 224063104.000000, 0.811167 , 0.851845, 9.623933, 840104704.000000, -0.630000,  0.490000,  0.140000, 0.000000,  0.000000 
 224080576.000000, 0.839881 , 0.820738, 9.669396, 840127232.000000, -0.490000,  0.420000,  0.070000, 0.000000,  0.000000 
 224100864.000000, 0.820738 , 0.830309, 9.619147, 840144640.000000, -0.420000,  0.280000,  0.070000, 0.000000,  0.000000 
 224120512.000000, 0.820738 , 0.839881, 9.588040, 840164928.000000, -0.210000,  0.280000,  0.070000, 0.000000,  0.000000 
 224140544.000000, 0.765703 , 0.854238, 9.616754, 840184640.000000, -0.420000,  0.350000,  -0.070000, 0.000000,  0.000000 
 224161088.000000, 0.796810 , 0.787239, 9.655040, 840204608.000000, -1.050000,  0.420000,  0.070000, 0.000000,  0.000000 
 224180480.000000, 0.832702 , 0.768096, 9.643075, 840225216.000000, -0.980000,  0.560000,  0.140000, 0.000000,  0.000000 
 224200768.000000, 0.784846 , 0.820738, 9.652647, 840244608.000000, -0.280000,  0.490000,  0.140000, 0.000000,  0.000000 
 224220480.000000, 0.873380 , 0.808774, 9.616754, 840264896.000000, 0.210000,  0.210000,  0.070000, 0.000000,  0.000000 
 224240448.000000, 0.763310 , 0.813560, 9.616754, 840284544.000000, 0.210000,  0.210000,  0.070000, 0.000000,  0.000000 
 224261056.000000, 0.787239 , 0.854238, 9.631111, 840304576.000000, -0.140000,  0.420000,  0.070000, 0.000000,  0.000000 
 224280448.000000, 0.792024 , 0.777667, 9.643075, 840325120.000000, -0.490000,  0.490000,  0.140000, 0.000000,  0.000000 
 224300736.000000, 0.756132 , 0.782453, 9.638289, 840344576.000000, -0.350000,  0.280000,  0.140000, 0.000000,  0.000000 
 224320448.000000, 0.839881 , 0.830309, 9.611969, 840364864.000000, -0.140000,  0.280000,  0.070000, 0.000000,  0.000000 
 224340416.000000, 0.859023 , 0.851845, 9.621540, 840384512.000000, -0.280000,  0.350000,  0.070000, 0.000000,  0.000000 
 224361024.000000, 0.792024 , 0.842274, 9.635897, 840404544.000000, -0.420000,  0.420000,  0.070000, 0.000000,  0.000000 
 224380416.000000, 0.811167 , 0.811167, 9.652647, 840425088.000000, -0.560000,  0.420000,  0.070000, 0.000000,  0.000000 
 224400704.000000, 0.792024 , 0.851845, 9.600004, 840444480.000000, -0.350000,  0.280000,  0.070000, 0.000000,  0.000000 
 224420352.000000, 0.801596 , 0.851845, 9.614362, 840464768.000000, -0.210000,  0.210000,  0.070000, 0.000000,  0.000000 
 224440384.000000, 0.830309 , 0.820738, 9.621540, 840484480.000000, -0.210000,  0.350000,  0.070000, 0.000000,  0.000000 
 224460928.000000, 0.837488 , 0.811167, 9.626326, 840504448.000000, -0.350000,  0.420000,  0.070000, 841164544.000000,  1010.467468 
 224480320.000000, 0.827917 , 0.775275, 9.662218, 840525056.000000, -0.490000,  0.490000,  0.070000, 0.000000,  0.000000 
 224500608.000000, 0.787239 , 0.811167, 9.580862, 840544448.000000, -0.560000,  0.420000,  0.070000, 0.000000,  0.000000 
 224520320.000000, 0.837488 , 0.792024, 9.583255, 840564736.000000, -0.560000,  0.210000,  0.070000, 0.000000,  0.000000 
 224540288.000000, 0.782453 , 0.851845, 9.566505, 840584448.000000, 0.140000,  0.070000,  0.070000, 0.000000,  0.000000 
 224560896.000000, 0.799203 , 0.820738, 9.561719, 840604416.000000, 0.140000,  0.210000,  0.070000, 0.000000,  0.000000 
 224580288.000000, 0.808774 , 0.777667, 9.643075, 840624960.000000, -0.700000,  0.630000,  0.070000, 0.000000,  0.000000 
 224600576.000000, 0.784846 , 0.784846, 9.640682, 840644416.000000, -1.190000,  0.420000,  0.070000, 0.000000,  0.000000 
 224620288.000000, 0.765703 , 0.832702, 9.628718, 840664704.000000, -0.700000,  0.350000,  0.140000, 0.000000,  0.000000 
 224640256.000000, 0.844666 , 0.878166, 9.664611, 840684352.000000, 0.210000,  0.140000,  0.140000, 0.000000,  0.000000 
 224660800.000000, 0.849452 , 0.823131, 9.607183, 840704384.000000, 0.350000,  0.140000,  0.140000, 0.000000,  0.000000 
 224680256.000000, 0.847059 , 0.820738, 9.611969, 840724928.000000, -0.280000,  0.280000,  0.070000, 0.000000,  0.000000 
 224700544.000000, 0.825524 , 0.794417, 9.626326, 840744320.000000, -0.840000,  0.560000,  0.140000, 0.000000,  0.000000 
 224720192.000000, 0.799203 , 0.792024, 9.597611, 840764608.000000, -0.560000,  0.490000,  0.070000, 0.000000,  0.000000 
 224740224.000000, 0.808774 , 0.844666, 9.580862, 840804288.000000, -0.070000,  0.350000,  0.070000, 0.000000,  0.000000 
 224760768.000000, 0.782453 , 0.832702, 9.573684, 0.000000, 0.000000,  0.000000,  0.000000, 0.000000,  0.000000 
 224780224.000000, 0.815953 , 0.808774, 9.640682, 840824896.000000, -0.280000,  0.420000,  0.070000, 0.000000,  0.000000 
 224800448.000000, 0.827917 , 0.803988, 9.633504, 840844288.000000, -0.560000,  0.420000,  0.070000, 0.000000,  0.000000 
 224820160.000000, 0.844666 , 0.837488, 9.633504, 840864576.000000, -0.560000,  0.420000,  0.140000, 0.000000,  0.000000 
 224840128.000000, 0.827917 , 0.851845, 9.616754, 840884224.000000, -0.210000,  0.420000,  0.070000, 0.000000,  0.000000 
 224860736.000000, 0.813560 , 0.839881, 9.628718, 840904256.000000, -0.140000,  0.350000,  0.070000, 0.000000,  0.000000 
 224880128.000000, 0.830309 , 0.832702, 9.650253, 840924800.000000, -0.210000,  0.280000,  0.070000, 0.000000,  0.000000 
 224900416.000000, 0.792024 , 0.825524, 9.619147, 840944192.000000, -0.280000,  0.350000,  0.070000, 0.000000,  0.000000 
 224920064.000000, 0.827917 , 0.784846, 9.631111, 840964544.000000, -0.490000,  0.490000,  0.140000, 0.000000,  0.000000 
 224940096.000000, 0.789631 , 0.878166, 9.655040, 840984192.000000, -0.210000,  0.350000,  0.070000, 0.000000,  0.000000 
 224960640.000000, 0.811167 , 0.835095, 9.633504, 841004160.000000, -0.070000,  0.280000,  0.070000, 0.000000,  0.000000 
 224980032.000000, 0.823131 , 0.854238, 9.621540, 841024768.000000, -0.280000,  0.280000,  0.070000, 0.000000,  0.000000 
 225000384.000000, 0.847059 , 0.815953, 9.595219, 841044160.000000, -0.560000,  0.420000,  0.070000, 0.000000,  0.000000 
 225020032.000000, 0.758525 , 0.813560, 9.611969, 841064448.000000, -0.630000,  0.350000,  0.070000, 0.000000,  0.000000 
 225040000.000000, 0.832702 , 0.849452, 9.604790, 841084160.000000, -0.420000,  0.280000,  0.070000, 0.000000,  0.000000 
 225062592.000000, 0.799203 , 0.808774, 9.633504, 841104128.000000, -0.350000,  0.420000,  0.070000, 0.000000,  0.000000 
 225080000.000000, 0.775275 , 0.808774, 9.631111, 841126656.000000, -0.280000,  0.350000,  0.070000, 0.000000,  0.000000 
 225100288.000000, 0.830309 , 0.801596, 9.645468, 841144128.000000, -0.280000,  0.350000,  0.140000, 0.000000,  0.000000 
 225120000.000000, 0.803988 , 0.832702, 9.611969, 841164416.000000, -0.070000,  0.280000,  -0.070000, 0.000000,  0.000000 
 225139968.000000, 0.787239 , 0.808774, 9.650253, 841184064.000000, -0.210000,  0.280000,  -0.070000, 0.000000,  0.000000 
 225160576.000000, 0.823131 , 0.796810, 9.595219, 841204096.000000, -0.490000,  0.420000,  0.070000, 0.000000,  0.000000 
 225179968.000000, 0.782453 , 0.770489, 9.631111, 841224640.000000, -0.350000,  0.420000,  0.070000, 0.000000,  0.000000 
 225200256.000000, 0.813560 , 0.827917, 9.638289, 841244032.000000, -0.210000,  0.350000,  0.070000, 0.000000,  0.000000 
 225219904.000000, 0.794417 , 0.827917, 9.616754, 841264384.000000, -0.280000,  0.280000,  0.070000, 0.000000,  0.000000 
 225239936.000000, 0.792024 , 0.796810, 9.640682, 841284032.000000, -0.350000,  0.490000,  0.070000, 0.000000,  0.000000 
 225260480.000000, 0.823131 , 0.775275, 9.566505, 841304000.000000, -0.280000,  0.490000,  0.070000, 0.000000,  0.000000 
 225279872.000000, 0.856631 , 0.825524, 9.638289, 841324608.000000, 0.210000,  0.420000,  0.070000, 0.000000,  0.000000 
 225300224.000000, 0.830309 , 0.878166, 9.590433, 841344000.000000, 0.350000,  -0.070000,  -0.140000, 0.000000,  0.000000 
 225319872.000000, 0.856631 , 0.851845, 9.595219, 841364288.000000, 0.210000,  0.280000,  -0.140000, 0.000000,  0.000000 
 225339840.000000, 0.772882 , 0.825524, 9.640682, 841383936.000000, -0.280000,  0.560000,  0.070000, 0.000000,  0.000000 
 225360448.000000, 0.815953 , 0.859023, 9.604790, 841403968.000000, -0.490000,  0.490000,  0.070000, 0.000000,  0.000000 
 225379840.000000, 0.854238 , 0.818345, 9.628718, 841424512.000000, -0.490000,  0.280000,  0.070000, 0.000000,  0.000000 
 225400128.000000, 0.813560 , 0.813560, 9.631111, 841443968.000000, -0.280000,  0.280000,  0.070000, 0.000000,  0.000000 
 225419840.000000, 0.832702 , 0.842274, 9.616754, 841464256.000000, -0.210000,  0.560000,  0.070000, 0.000000,  0.000000 
 225439808.000000, 0.813560 , 0.808774, 9.640682, 841503936.000000, -0.280000,  0.280000,  0.070000, 842163968.000000,  1010.470459 
 225460416.000000, 0.801596 , 0.823131, 9.609575, 0.000000, 0.000000,  0.000000,  0.000000, 0.000000,  0.000000 
 225479808.000000, 0.792024 , 0.808774, 9.628718, 841524480.000000, -0.280000,  0.350000,  0.070000, 0.000000,  0.000000 
 225500096.000000, 0.825524 , 0.832702, 9.621540, 841543872.000000, -0.070000,  0.280000,  0.070000, 0.000000,  0.000000 
 225519744.000000, 0.847059 , 0.906880, 9.600004, 841564160.000000, 0.140000,  0.280000,  0.070000, 0.000000,  0.000000 
 225539776.000000, 0.820738 , 0.827917, 9.588040, 841583872.000000, -0.070000,  0.280000,  0.070000, 0.000000,  0.000000 
 225560320.000000, 0.820738 , 0.775275, 9.631111, 841603840.000000, -0.560000,  0.420000,  0.140000, 0.000000,  0.000000 
 225579712.000000, 0.823131 , 0.775275, 9.631111, 841624448.000000, -0.770000,  0.490000,  0.140000, 0.000000,  0.000000 
 225600000.000000, 0.806381 , 0.856631, 9.578469, 841643840.000000, -0.420000,  0.420000,  0.140000, 0.000000,  0.000000 
 225619712.000000, 0.811167 , 0.830309, 9.645468, 841664128.000000, -0.420000,  0.420000,  0.140000, 0.000000,  0.000000 
 225639680.000000, 0.839881 , 0.861416, 9.631111, 841683776.000000, -0.070000,  0.350000,  0.070000, 0.000000,  0.000000 
 225660288.000000, 0.823131 , 0.806381, 9.609575, 841703808.000000, -0.350000,  0.420000,  0.140000, 0.000000,  0.000000 
 225679680.000000, 0.806381 , 0.875773, 9.616754, 841724416.000000, -0.630000,  0.420000,  0.070000, 0.000000,  0.000000 
 225699968.000000, 0.777667 , 0.847059, 9.633504, 841743744.000000, -0.700000,  0.420000,  0.140000, 0.000000,  0.000000 
 225719616.000000, 0.806381 , 0.815953, 9.631111, 841764096.000000, -0.700000,  0.350000,  0.140000, 0.000000,  0.000000 
 225739648.000000, 0.799203 , 0.768096, 9.607183, 841783744.000000, -0.560000,  0.490000,  0.070000, 0.000000,  0.000000 
 225760256.000000, 0.849452 , 0.775275, 9.600004, 841803712.000000, -0.420000,  0.560000,  0.140000, 0.000000,  0.000000 
 225779648.000000, 0.796810 , 0.870987, 9.580862, 841824320.000000, -0.420000,  0.350000,  0.140000, 0.000000,  0.000000 
 225799936.000000, 0.806381 , 0.859023, 9.650253, 841843776.000000, 0.070000,  0.140000,  0.070000, 0.000000,  0.000000 
 225819584.000000, 0.780060 , 0.849452, 9.616754, 841864000.000000, -0.210000,  0.350000,  0.070000, 0.000000,  0.000000 
 225839616.000000, 0.856631 , 0.772882, 9.576077, 841883712.000000, -0.700000,  0.490000,  0.070000, 0.000000,  0.000000 
 225860160.000000, 0.784846 , 0.772882, 9.635897, 841903680.000000, -0.840000,  0.490000,  0.070000, 0.000000,  0.000000 
 225879552.000000, 0.859023 , 0.803988, 9.621540, 841924288.000000, -0.560000,  0.350000,  0.070000, 0.000000,  0.000000 
 225899840.000000, 0.803988 , 0.868595, 9.602397, 841943680.000000, -0.070000,  0.420000,  0.140000, 0.000000,  0.000000 
 225919552.000000, 0.818345 , 0.870987, 9.607183, 841963968.000000, 0.280000,  0.350000,  0.140000, 0.000000,  0.000000 
 225939520.000000, 0.775275 , 0.796810, 9.576077, 841983616.000000, -0.070000,  0.280000,  -0.070000, 0.000000,  0.000000 
 225960128.000000, 0.775275 , 0.815953, 9.626326, 842003648.000000, -0.770000,  0.420000,  0.140000, 0.000000,  0.000000 
 225979520.000000, 0.808774 , 0.780060, 9.647861, 842024192.000000, -0.770000,  0.420000,  0.140000, 0.000000,  0.000000 
 225999808.000000, 0.827917 , 0.856631, 9.633504, 842043584.000000, -0.210000,  0.350000,  0.070000, 0.000000,  0.000000 
 226019456.000000, 0.803988 , 0.847059, 9.623933, 842063936.000000, 0.210000,  0.210000,  0.070000, 0.000000,  0.000000 
 226039488.000000, 0.823131 , 0.861416, 9.621540, 842083584.000000, 0.280000,  0.350000,  0.070000, 0.000000,  0.000000 
 226062016.000000, 0.823131 , 0.854238, 9.626326, 842103552.000000, -0.070000,  0.420000,  0.070000, 0.000000,  0.000000 
 226079424.000000, 0.808774 , 0.827917, 9.607183, 842126144.000000, -0.490000,  0.280000,  0.070000, 0.000000,  0.000000 
 226099776.000000, 0.777667 , 0.813560, 9.626326, 842143552.000000, -0.490000,  0.350000,  0.140000, 0.000000,  0.000000 
 226119424.000000, 0.796810 , 0.835095, 9.640682, 842163840.000000, -0.350000,  0.420000,  0.140000, 0.000000,  0.000000 
 226139456.000000, 0.815953 , 0.878166, 9.607183, 842183552.000000, -0.070000,  0.350000,  0.140000, 0.000000,  0.000000 
 226160000.000000, 0.803988 , 0.825524, 9.588040, 842203520.000000, -0.070000,  0.140000,  0.070000, 0.000000,  0.000000 
 226179392.000000, 0.815953 , 0.844666, 9.647861, 842224128.000000, -0.350000,  0.280000,  0.070000, 0.000000,  0.000000 
 226199680.000000, 0.765703 , 0.806381, 9.640682, 842243520.000000, -0.420000,  0.560000,  0.070000, 0.000000,  0.000000 
 226219392.000000, 0.849452 , 0.832702, 9.635897, 842263808.000000, -0.630000,  0.420000,  0.070000, 0.000000,  0.000000 
 226239360.000000, 0.782453 , 0.818345, 9.638289, 842283456.000000, -0.490000,  0.140000,  0.070000, 0.000000,  0.000000 
 226259968.000000, 0.768096 , 0.823131, 9.628718, 842303488.000000, -0.350000,  0.210000,  0.070000, 0.000000,  0.000000 
 226279360.000000, 0.825524 , 0.882952, 9.609575, 842324032.000000, -0.350000,  0.280000,  0.070000, 0.000000,  0.000000 
 226299648.000000, 0.830309 , 0.880559, 9.640682, 842343424.000000, -0.070000,  0.280000,  0.070000, 0.000000,  0.000000 
 226319296.000000, 0.799203 , 0.839881, 9.633504, 842363776.000000, -0.420000,  0.280000,  0.070000, 0.000000,  0.000000 
 226339328.000000, 0.806381 , 0.827917, 9.607183, 842383424.000000, -0.630000,  0.420000,  0.070000, 0.000000,  0.000000 
 226359872.000000, 0.780060 , 0.784846, 9.674182, 842403392.000000, -0.700000,  0.350000,  0.070000, 0.000000,  0.000000 
 226379264.000000, 0.832702 , 0.772882, 9.621540, 842424000.000000, -0.630000,  0.280000,  0.070000, 0.000000,  0.000000 
 226399616.000000, 0.820738 , 0.847059, 9.626326, 842443392.000000, -0.350000,  0.420000,  0.070000, 0.000000,  0.000000 
 226419264.000000, 0.784846 , 0.823131, 9.619147, 842463680.000000, -0.140000,  0.420000,  0.070000, 0.000000,  0.000000 
 226439296.000000, 0.837488 , 0.825524, 9.638289, 842503360.000000, -0.140000,  0.280000,  0.070000, 843163456.000000,  1010.467957 
 226459840.000000, 0.825524 , 0.856631, 9.611969, 0.000000, 0.000000,  0.000000,  0.000000, 0.000000,  0.000000 
 226479232.000000, 0.799203 , 0.818345, 9.571291, 842523968.000000, -0.350000,  0.420000,  0.070000, 0.000000,  0.000000 
 226499520.000000, 0.772882 , 0.835095, 9.647861, 842543360.000000, -0.490000,  0.350000,  0.070000, 0.000000,  0.000000 
 226519232.000000, 0.794417 , 0.794417, 9.643075, 842563648.000000, -0.560000,  0.350000,  0.070000, 0.000000,  0.000000 
 226539200.000000, 0.844666 , 0.823131, 9.628718, 842583296.000000, -0.350000,  0.420000,  0.070000, 0.000000,  0.000000 
 226559808.000000, 0.818345 , 0.875773, 9.645468, 842603328.000000, 0.070000,  0.280000,  0.070000, 0.000000,  0.000000 
 226579200.000000, 0.839881 , 0.815953, 9.631111, 842623872.000000, -0.140000,  0.210000,  -0.070000, 0.000000,  0.000000 
 226599488.000000, 0.813560 , 0.806381, 9.623933, 842643264.000000, -0.560000,  0.350000,  0.070000, 0.000000,  0.000000 
 226619136.000000, 0.777667 , 0.799203, 9.566505, 842663552.000000, -0.770000,  0.490000,  0.070000, 0.000000,  0.000000 
 226639168.000000, 0.772882 , 0.835095, 9.623933, 842683264.000000, -0.700000,  0.420000,  0.070000, 0.000000,  0.000000 
 226659904.000000, 0.820738 , 0.825524, 9.604790, 842703232.000000, -0.350000,  0.280000,  0.070000, 0.000000,  0.000000 
 226679104.000000, 0.827917 , 0.885344, 9.623933, 842723968.000000, -0.140000,  0.280000,  0.070000, 0.000000,  0.000000 
 226699456.000000, 0.820738 , 0.839881, 9.614362, 842743232.000000, -0.140000,  0.280000,  0.070000, 0.000000,  0.000000 
 226719104.000000, 0.803988 , 0.820738, 9.655040, 842763520.000000, -0.210000,  0.350000,  0.070000, 0.000000,  0.000000 
 226739072.000000, 0.789631 , 0.837488, 9.609575, 842783232.000000, -0.350000,  0.350000,  0.070000, 0.000000,  0.000000 
 226759680.000000, 0.799203 , 0.801596, 9.614362, 842803200.000000, -0.350000,  0.350000,  0.070000, 0.000000,  0.000000 
 226779072.000000, 0.830309 , 0.847059, 9.652647, 842823744.000000, -0.210000,  0.350000,  0.070000, 0.000000,  0.000000 
 226799360.000000, 0.792024 , 0.811167, 9.621540, 842843200.000000, -0.210000,  0.280000,  0.070000, 0.000000,  0.000000 
 226819072.000000, 0.815953 , 0.780060, 9.643075, 842863488.000000, -0.280000,  0.280000,  0.070000, 0.000000,  0.000000 
 226839040.000000, 0.811167 , 0.830309, 9.633504, 842883136.000000, -0.350000,  0.420000,  0.070000, 0.000000,  0.000000 
 226859648.000000, 0.803988 , 0.863809, 9.667004, 842903168.000000, -0.350000,  0.560000,  0.070000, 0.000000,  0.000000 
 226879040.000000, 0.789631 , 0.842274, 9.554541, 842923712.000000, -0.350000,  0.630000,  0.070000, 0.000000,  0.000000 
 226899328.000000, 0.784846 , 0.823131, 9.590433, 842943104.000000, -0.280000,  0.490000,  0.070000, 0.000000,  0.000000 
 226918976.000000, 0.780060 , 0.813560, 9.635897, 842963456.000000, -0.630000,  0.490000,  0.140000, 0.000000,  0.000000 
 226939008.000000, 0.782453 , 0.830309, 9.621540, 842983104.000000, -0.770000,  0.560000,  0.140000, 0.000000,  0.000000 
 226959552.000000, 0.794417 , 0.732204, 9.544970, 843003072.000000, -0.700000,  0.560000,  0.070000, 0.000000,  0.000000 
 226978944.000000, 0.830309 , 0.823131, 9.635897, 843023680.000000, -0.280000,  0.560000,  0.070000, 0.000000,  0.000000 
 226999296.000000, 0.856631 , 0.926022, 9.619147, 843043072.000000, 0.350000,  -0.210000,  0.070000, 0.000000,  0.000000 
 227018944.000000, 0.760918 , 0.830309, 9.585647, 843063360.000000, -0.070000,  -0.210000,  -0.070000, 0.000000,  0.000000 
 227038912.000000, 0.777667 , 0.842274, 9.623933, 843083008.000000, -0.420000,  0.420000,  -0.070000, 0.000000,  0.000000 
 227061440.000000, 0.808774 , 0.736989, 9.609575, 843103040.000000, -0.840000,  0.280000,  0.140000, 0.000000,  0.000000 
 227078912.000000, 0.815953 , 0.739382, 9.652647, 843125568.000000, -1.190000,  0.070000,  0.140000, 0.000000,  0.000000 
 227099200.000000, 0.770489 , 0.792024, 9.647861, 843142976.000000, -0.700000,  0.420000,  0.140000, 0.000000,  0.000000 
 227118848.000000, 0.849452 , 0.878166, 9.619147, 843163328.000000, -0.140000,  0.280000,  0.140000, 0.000000,  0.000000 
 227138880.000000, 0.803988 , 0.844666, 9.626326, 843182976.000000, -0.140000,  0.140000,  0.070000, 0.000000,  0.000000 
 227159424.000000, 0.801596 , 0.820738, 9.655040, 843202944.000000, -0.210000,  0.350000,  0.070000, 0.000000,  0.000000 
 227178816.000000, 0.796810 , 0.789631, 9.602397, 843223552.000000, -0.420000,  0.420000,  0.070000, 0.000000,  0.000000 
 227199168.000000, 0.847059 , 0.839881, 9.664611, 843242944.000000, -0.210000,  0.280000,  0.070000, 0.000000,  0.000000 
 227218816.000000, 0.839881 , 0.854238, 9.602397, 843263232.000000, -0.210000,  0.140000,  0.070000, 0.000000,  0.000000 
 227238848.000000, 0.806381 , 0.849452, 9.671788, 843282944.000000, -0.070000,  0.280000,  0.070000, 0.000000,  0.000000 
 227259392.000000, 0.806381 , 0.851845, 9.638289, 843302912.000000, -0.350000,  0.350000,  0.070000, 0.000000,  0.000000 
 227278784.000000, 0.815953 , 0.811167, 9.611969, 843323520.000000, -0.630000,  0.350000,  0.070000, 0.000000,  0.000000 
 227299072.000000, 0.784846 , 0.784846, 9.604790, 843342912.000000, -0.560000,  0.490000,  0.070000, 0.000000,  0.000000 
 227318784.000000, 0.780060 , 0.799203, 9.633504, 843363200.000000, -0.070000,  0.280000,  0.070000, 0.000000,  0.000000 
 227338752.000000, 0.849452 , 0.868595, 9.597611, 843382848.000000, 0.140000,  0.210000,  0.070000, 0.000000,  0.000000 
 227359360.000000, 0.808774 , 0.851845, 9.616754, 843402880.000000, -0.070000,  0.210000,  0.070000, 0.000000,  0.000000 
 227378752.000000, 0.825524 , 0.784846, 9.631111, 843423424.000000, -0.490000,  0.420000,  0.070000, 0.000000,  0.000000 
 227399040.000000, 0.799203 , 0.796810, 9.640682, 843442816.000000, -0.840000,  0.420000,  0.070000, 0.000000,  0.000000 
 227418688.000000, 0.789631 , 0.837488, 9.640682, 843463168.000000, -0.630000,  0.350000,  0.070000, 0.000000,  0.000000 
 227438720.000000, 0.813560 , 0.837488, 9.602397, 843502784.000000, -0.070000,  0.280000,  0.070000, 844162880.000000,  1010.469727 
 227459264.000000, 0.777667 , 0.832702, 9.595219, 0.000000, 0.000000,  0.000000,  0.000000, 0.000000,  0.000000 
 227478656.000000, 0.835095 , 0.825524, 9.614362, 843523392.000000, -0.280000,  0.280000,  0.070000, 0.000000,  0.000000 
 227499008.000000, 0.787239 , 0.789631, 9.600004, 843542784.000000, -0.350000,  0.420000,  0.070000, 0.000000,  0.000000 
 227518656.000000, 0.811167 , 0.880559, 9.588040, 843563072.000000, -0.420000,  0.420000,  0.140000, 0.000000,  0.000000 
 227538624.000000, 0.782453 , 0.827917, 9.635897, 843582784.000000, -0.350000,  0.350000,  0.140000, 0.000000,  0.000000 
 227559232.000000, 0.801596 , 0.870987, 9.626326, 843602752.000000, -0.280000,  0.210000,  0.140000, 0.000000,  0.000000 
 227578624.000000, 0.837488 , 0.751346, 9.638289, 843623360.000000, -0.420000,  0.420000,  0.070000, 0.000000,  0.000000 
 227599040.000000, 0.815953 , 0.803988, 9.604790, 843642752.000000, -0.490000,  0.350000,  0.070000, 0.000000,  0.000000 
 227618624.000000, 0.832702 , 0.837488, 9.623933, 843663168.000000, -0.210000,  0.350000,  0.070000, 0.000000,  0.000000 
 227638592.000000, 0.792024 , 0.832702, 9.621540, 843682688.000000, 0.070000,  0.350000,  0.070000, 0.000000,  0.000000 
 227659200.000000, 0.815953 , 0.863809, 9.621540, 843702720.000000, 0.070000,  0.280000,  0.070000, 0.000000,  0.000000 
 227678592.000000, 0.825524 , 0.866202, 9.631111, 843723264.000000, -0.350000,  0.280000,  0.070000, 0.000000,  0.000000 
 227698880.000000, 0.794417 , 0.820738, 9.626326, 843742656.000000, -0.700000,  0.420000,  0.070000, 0.000000,  0.000000 
 227718848.000000, 0.808774 , 0.801596, 9.614362, 843762944.000000, -0.560000,  0.420000,  0.070000, 0.000000,  0.000000 
 227738560.000000, 0.799203 , 0.782453, 9.609575, 843782976.000000, -0.490000,  0.210000,  0.070000, 0.000000,  0.000000 
 227759104.000000, 0.782453 , 0.832702, 9.619147, 843802624.000000, -0.280000,  0.070000,  0.070000, 0.000000,  0.000000 
 227778560.000000, 0.808774 , 0.847059, 9.597611, 843823232.000000, -0.070000,  0.280000,  0.070000, 0.000000,  0.000000 
 227798848.000000, 0.806381 , 0.789631, 9.590433, 843842688.000000, -0.070000,  0.210000,  0.070000, 0.000000,  0.000000 
 227818496.000000, 0.815953 , 0.837488, 9.628718, 843862912.000000, -0.420000,  0.280000,  0.070000, 0.000000,  0.000000 
 227838464.000000, 0.820738 , 0.775275, 9.604790, 843882624.000000, -0.560000,  0.420000,  0.140000, 0.000000,  0.000000 
 227859072.000000, 0.789631 , 0.866202, 9.638289, 843902592.000000, -0.420000,  0.350000,  0.140000, 0.000000,  0.000000 
 227878464.000000, 0.782453 , 0.875773, 9.640682, 843923200.000000, -0.210000,  0.280000,  0.070000, 0.000000,  0.000000 
 227898752.000000, 0.813560 , 0.844666, 9.626326, 843942592.000000, -0.350000,  0.420000,  0.070000, 0.000000,  0.000000 
 227918464.000000, 0.851845 , 0.847059, 9.633504, 843962880.000000, -0.490000,  0.420000,  0.070000, 0.000000,  0.000000 
 227938432.000000, 0.837488 , 0.815953, 9.650253, 843982528.000000, -0.560000,  0.420000,  0.070000, 0.000000,  0.000000 
 227959040.000000, 0.847059 , 0.830309, 9.597611, 844002560.000000, -0.280000,  0.280000,  0.070000, 0.000000,  0.000000 
 227978432.000000, 0.803988 , 0.842274, 9.619147, 844023104.000000, -0.140000,  0.350000,  0.070000, 0.000000,  0.000000 
 227998720.000000, 0.847059 , 0.849452, 9.602397, 844042496.000000, -0.210000,  0.350000,  0.070000, 0.000000,  0.000000 
 228018368.000000, 0.861416 , 0.806381, 9.628718, 844062784.000000, -0.490000,  0.420000,  0.070000, 0.000000,  0.000000 
 228038400.000000, 0.849452 , 0.832702, 9.619147, 844082496.000000, -0.490000,  0.490000,  0.140000, 0.000000,  0.000000 
 228060928.000000, 0.837488 , 0.902094, 9.595219, 844102464.000000, -0.210000,  0.280000,  0.070000, 0.000000,  0.000000 
 228078336.000000, 0.844666 , 0.880559, 9.647861, 844124992.000000, -0.070000,  0.280000,  0.070000, 0.000000,  0.000000 
