 Acc_timestamp,Accx,Accy,Accz,Gyro_timestamp,Gyrox,Gyroy,Gyroz,Baro_timestamp,Pressure_Reading
 250186496.000000, 0.789631 , 0.634098, 9.631111, 866230336.000000, -1.470000,  0.490000,  0.070000, 0.000000,  0.000000 
 250206208.000000, 0.849452 , 0.607777, 9.647861, 866250624.000000, -1.610000,  0.630000,  -0.070000, 0.000000,  0.000000 
 250226176.000000, 0.820738 , 0.591027, 9.652647, 866270272.000000, -1.610000,  0.420000,  -0.070000, 0.000000,  0.000000 
 250246784.000000, 0.794417 , 0.605384, 9.683753, 866290304.000000, -1.190000,  0.280000,  -0.070000, 0.000000,  0.000000 
 250266176.000000, 0.827917 , 0.643669, 9.631111, 866310848.000000, -0.560000,  0.350000,  -0.070000, 0.000000,  0.000000 
 250286464.000000, 0.849452 , 0.669990, 9.640682, 866330240.000000, -0.070000,  0.280000,  -0.070000, 0.000000,  0.000000 
 250306112.000000, 0.878166 , 0.646062, 9.628718, 866350592.000000, -0.140000,  0.280000,  -0.070000, 0.000000,  0.000000 
 250326144.000000, 0.808774 , 0.583849, 9.619147, 866370240.000000, -0.420000,  0.420000,  0.140000, 0.000000,  0.000000 
 250346688.000000, 0.849452 , 0.681954, 9.647861, 866390208.000000, -0.350000,  0.420000,  0.140000, 0.000000,  0.000000 
 250366080.000000, 0.806381 , 0.650848, 9.650253, 866410816.000000, -0.350000,  0.350000,  0.070000, 0.000000,  0.000000 
 250386432.000000, 0.772882 , 0.658026, 9.659825, 866430208.000000, 0.140000,  0.280000,  0.070000, 0.000000,  0.000000 
 250406080.000000, 0.811167 , 0.638884, 9.609575, 866450496.000000, -0.210000,  0.420000,  0.070000, 0.000000,  0.000000 
 250426048.000000, 0.808774 , 0.600598, 9.645468, 866490176.000000, -0.840000,  0.420000,  0.140000, 867150272.000000,  1010.448547 
 250446656.000000, 0.813560 , 0.624527, 9.611969, 0.000000, 0.000000,  0.000000,  0.000000, 0.000000,  0.000000 
 250466048.000000, 0.813560 , 0.660419, 9.631111, 866510784.000000, -0.770000,  0.490000,  0.070000, 0.000000,  0.000000 
 250486336.000000, 0.811167 , 0.610170, 9.638289, 866530176.000000, -0.630000,  0.420000,  0.070000, 0.000000,  0.000000 
 250506048.000000, 0.787239 , 0.593420, 9.635897, 866550464.000000, -0.980000,  0.420000,  -0.070000, 0.000000,  0.000000 
 250526016.000000, 0.818345 , 0.634098, 9.655040, 866570112.000000, -1.120000,  0.420000,  0.070000, 0.000000,  0.000000 
 250546624.000000, 0.801596 , 0.622134, 9.621540, 866590144.000000, -0.980000,  0.490000,  0.070000, 0.000000,  0.000000 
 250566016.000000, 0.815953 , 0.602991, 9.640682, 866610688.000000, -0.980000,  0.350000,  0.070000, 0.000000,  0.000000 
 250586304.000000, 0.803988 , 0.564706, 9.628718, 866630080.000000, -0.630000,  0.280000,  0.070000, 0.000000,  0.000000 
 250605952.000000, 0.835095 , 0.626920, 9.659825, 866650432.000000, -0.280000,  0.280000,  0.070000, 0.000000,  0.000000 
 250625984.000000, 0.842274 , 0.638884, 9.662218, 866670080.000000, -0.280000,  0.280000,  0.070000, 0.000000,  0.000000 
 250646720.000000, 0.849452 , 0.641276, 9.631111, 866690048.000000, 0.070000,  0.420000,  0.140000, 0.000000,  0.000000 
 250665920.000000, 0.818345 , 0.622134, 9.659825, 866710784.000000, -0.280000,  0.490000,  0.140000, 0.000000,  0.000000 
 250686272.000000, 0.782453 , 0.619741, 9.623933, 866730048.000000, -0.420000,  0.490000,  0.210000, 0.000000,  0.000000 
 250705920.000000, 0.796810 , 0.646062, 9.619147, 866750336.000000, -0.140000,  0.280000,  0.070000, 0.000000,  0.000000 
 250725888.000000, 0.866202 , 0.660419, 9.640682, 866770048.000000, -0.140000,  0.210000,  0.070000, 0.000000,  0.000000 
 250746496.000000, 0.861416 , 0.638884, 9.645468, 866790016.000000, 0.070000,  0.280000,  0.070000, 0.000000,  0.000000 
 250765888.000000, 0.842274 , 0.614955, 9.621540, 866810560.000000, -0.350000,  0.350000,  0.070000, 0.000000,  0.000000 
 250786176.000000, 0.815953 , 0.581456, 9.635897, 866830016.000000, -0.490000,  0.280000,  0.070000, 0.000000,  0.000000 
 250805888.000000, 0.842274 , 0.591027, 9.700503, 866850304.000000, -0.560000,  0.350000,  0.070000, 0.000000,  0.000000 
 250825856.000000, 0.851845 , 0.638884, 9.650253, 866869952.000000, -0.630000,  0.280000,  0.070000, 0.000000,  0.000000 
 250846464.000000, 0.823131 , 0.591027, 9.633504, 866889984.000000, -0.770000,  0.350000,  0.070000, 0.000000,  0.000000 
 250865856.000000, 0.796810 , 0.614955, 9.640682, 866910528.000000, -0.980000,  0.490000,  -0.070000, 0.000000,  0.000000 
 250886144.000000, 0.808774 , 0.622134, 9.628718, 866929920.000000, -1.190000,  0.490000,  0.070000, 0.000000,  0.000000 
 250905792.000000, 0.866202 , 0.602991, 9.650253, 866950208.000000, -1.190000,  0.420000,  0.070000, 0.000000,  0.000000 
 250925824.000000, 0.827917 , 0.591027, 9.626326, 866969920.000000, -0.840000,  0.280000,  0.070000, 0.000000,  0.000000 
 250946368.000000, 0.763310 , 0.610170, 9.645468, 866989888.000000, -0.770000,  0.420000,  -0.070000, 0.000000,  0.000000 
 250965760.000000, 0.811167 , 0.579063, 9.655040, 867010496.000000, -0.980000,  0.420000,  -0.070000, 0.000000,  0.000000 
 250986048.000000, 0.801596 , 0.586242, 9.671788, 867029888.000000, -0.840000,  0.210000,  0.070000, 0.000000,  0.000000 
 251005760.000000, 0.882952 , 0.607777, 9.650253, 867050176.000000, -0.490000,  0.280000,  0.070000, 0.000000,  0.000000 
 251025728.000000, 0.854238 , 0.619741, 9.659825, 867069824.000000, -0.490000,  0.140000,  0.070000, 0.000000,  0.000000 
 251048320.000000, 0.794417 , 0.660419, 9.669396, 867089856.000000, -0.490000,  0.140000,  0.070000, 0.000000,  0.000000 
 251065728.000000, 0.847059 , 0.631705, 9.631111, 867112384.000000, -0.420000,  0.350000,  0.070000, 0.000000,  0.000000 
 251086016.000000, 0.787239 , 0.576670, 9.638289, 867129792.000000, -0.770000,  0.420000,  0.070000, 0.000000,  0.000000 
 251105664.000000, 0.832702 , 0.593420, 9.638289, 867150144.000000, -0.700000,  0.420000,  0.070000, 0.000000,  0.000000 
 251125696.000000, 0.839881 , 0.593420, 9.650253, 867169792.000000, -0.420000,  0.420000,  0.070000, 0.000000,  0.000000 
 251146304.000000, 0.801596 , 0.602991, 9.619147, 867189760.000000, -0.490000,  0.350000,  0.070000, 0.000000,  0.000000 
 251165632.000000, 0.784846 , 0.631705, 9.647861, 867210368.000000, -0.560000,  0.350000,  0.070000, 0.000000,  0.000000 
 251185984.000000, 0.782453 , 0.619741, 9.643075, 867229760.000000, -0.630000,  0.420000,  0.070000, 0.000000,  0.000000 
 251205632.000000, 0.808774 , 0.602991, 9.681360, 867250048.000000, -0.700000,  0.490000,  0.070000, 0.000000,  0.000000 
 251225664.000000, 0.835095 , 0.629312, 9.662218, 867269760.000000, -0.770000,  0.420000,  0.070000, 0.000000,  0.000000 
 251246208.000000, 0.868595 , 0.576670, 9.669396, 867289728.000000, -0.700000,  0.490000,  0.070000, 0.000000,  0.000000 
 251265600.000000, 0.837488 , 0.612563, 9.659825, 867310336.000000, -0.700000,  0.490000,  0.140000, 0.000000,  0.000000 
 251285888.000000, 0.823131 , 0.605384, 9.667004, 867329728.000000, -0.350000,  0.350000,  0.070000, 0.000000,  0.000000 
 251305600.000000, 0.818345 , 0.617348, 9.667004, 867350016.000000, -0.140000,  0.280000,  0.070000, 0.000000,  0.000000 
 251325568.000000, 0.806381 , 0.607777, 9.676575, 867369664.000000, -0.280000,  0.350000,  0.070000, 0.000000,  0.000000 
 251346176.000000, 0.839881 , 0.638884, 9.619147, 867389696.000000, -0.280000,  0.350000,  0.070000, 0.000000,  0.000000 
 251365568.000000, 0.859023 , 0.576670, 9.652647, 867410240.000000, -0.490000,  0.350000,  0.070000, 0.000000,  0.000000 
 251385856.000000, 0.894916 , 0.602991, 9.643075, 867429632.000000, -0.490000,  0.280000,  0.070000, 0.000000,  0.000000 
 251405504.000000, 0.777667 , 0.562313, 9.638289, 867449984.000000, -0.420000,  0.420000,  0.070000, 0.000000,  0.000000 
 251425536.000000, 0.815953 , 0.619741, 9.609575, 867489600.000000, -0.280000,  0.280000,  0.070000, 868149696.000000,  1010.446289 
 251446080.000000, 0.873380 , 0.598206, 9.655040, 0.000000, 0.000000,  0.000000,  0.000000, 0.000000,  0.000000 
 251465472.000000, 0.815953 , 0.524028, 9.655040, 867510208.000000, -0.210000,  0.420000,  0.070000, 0.000000,  0.000000 
 251485824.000000, 0.830309 , 0.619741, 9.609575, 867529600.000000, -0.070000,  0.420000,  0.070000, 0.000000,  0.000000 
 251505472.000000, 0.815953 , 0.607777, 9.643075, 867549888.000000, -0.070000,  0.420000,  0.070000, 0.000000,  0.000000 
 251525440.000000, 0.782453 , 0.583849, 9.640682, 867569600.000000, -0.070000,  0.280000,  0.070000, 0.000000,  0.000000 
 251546048.000000, 0.803988 , 0.543171, 9.621540, 867589568.000000, -0.210000,  0.280000,  0.070000, 0.000000,  0.000000 
 251565440.000000, 0.806381 , 0.591027, 9.643075, 867610176.000000, -0.140000,  0.350000,  0.140000, 0.000000,  0.000000 
 251585728.000000, 0.863809 , 0.619741, 9.647861, 867629568.000000, -0.070000,  0.350000,  0.070000, 0.000000,  0.000000 
 251605440.000000, 0.789631 , 0.631705, 9.657433, 867649856.000000, 0.140000,  0.350000,  0.070000, 0.000000,  0.000000 
 251625408.000000, 0.820738 , 0.648455, 9.638289, 867669504.000000, 0.140000,  0.350000,  0.070000, 0.000000,  0.000000 
 251646016.000000, 0.811167 , 0.629312, 9.674182, 867689536.000000, -0.350000,  0.350000,  0.070000, 0.000000,  0.000000 
 251665408.000000, 0.808774 , 0.605384, 9.631111, 867710080.000000, -0.630000,  0.420000,  0.070000, 0.000000,  0.000000 
 251685696.000000, 0.799203 , 0.533599, 9.614362, 867729472.000000, -0.630000,  0.280000,  0.070000, 0.000000,  0.000000 
 251705344.000000, 0.806381 , 0.581456, 9.635897, 867749760.000000, -0.140000,  0.140000,  0.070000, 0.000000,  0.000000 
 251725376.000000, 0.825524 , 0.662812, 9.600004, 867769472.000000, 0.350000,  0.070000,  0.070000, 0.000000,  0.000000 
 251745920.000000, 0.784846 , 0.648455, 9.640682, 867789440.000000, 0.420000,  0.210000,  -0.070000, 0.000000,  0.000000 
 251765376.000000, 0.832702 , 0.612563, 9.626326, 867810048.000000, 0.420000,  0.350000,  0.070000, 0.000000,  0.000000 
 251785664.000000, 0.827917 , 0.569492, 9.623933, 867829504.000000, -0.910000,  0.490000,  0.070000, 0.000000,  0.000000 
 251805312.000000, 0.794417 , 0.552742, 9.626326, 867849728.000000, -1.050000,  0.420000,  0.140000, 0.000000,  0.000000 
 251825280.000000, 0.796810 , 0.598206, 9.616754, 867869440.000000, -0.490000,  0.280000,  0.070000, 0.000000,  0.000000 
 251845888.000000, 0.794417 , 0.622134, 9.643075, 867889408.000000, 0.140000,  0.210000,  0.070000, 0.000000,  0.000000 
 251865280.000000, 0.820738 , 0.607777, 9.640682, 867910016.000000, 0.420000,  0.210000,  0.070000, 0.000000,  0.000000 
 251885568.000000, 0.856631 , 0.626920, 9.640682, 867929408.000000, 0.210000,  0.350000,  0.140000, 0.000000,  0.000000 
 251905280.000000, 0.813560 , 0.607777, 9.628718, 867949696.000000, -0.140000,  0.280000,  0.140000, 0.000000,  0.000000 
 251925248.000000, 0.825524 , 0.612563, 9.650253, 867969344.000000, -0.280000,  0.350000,  0.070000, 0.000000,  0.000000 
 251945856.000000, 0.827917 , 0.583849, 9.614362, 867989376.000000, -0.490000,  0.350000,  0.070000, 0.000000,  0.000000 
 251965248.000000, 0.849452 , 0.567099, 9.657433, 868009920.000000, -0.350000,  0.420000,  0.070000, 0.000000,  0.000000 
 251985536.000000, 0.835095 , 0.588634, 9.619147, 868029312.000000, -0.210000,  0.420000,  0.070000, 0.000000,  0.000000 
 252005184.000000, 0.818345 , 0.614955, 9.616754, 868049600.000000, -0.210000,  0.280000,  0.070000, 0.000000,  0.000000 
 252025216.000000, 0.870987 , 0.631705, 9.607183, 868069312.000000, -0.210000,  0.280000,  0.070000, 0.000000,  0.000000 
 252047744.000000, 0.808774 , 0.557528, 9.635897, 868089280.000000, -0.210000,  0.350000,  0.070000, 0.000000,  0.000000 
 252065152.000000, 0.830309 , 0.598206, 9.657433, 868111872.000000, -0.140000,  0.350000,  0.070000, 0.000000,  0.000000 
 252085440.000000, 0.832702 , 0.624527, 9.659825, 868129280.000000, -0.140000,  0.420000,  0.070000, 0.000000,  0.000000 
 252105152.000000, 0.849452 , 0.643669, 9.592826, 868149568.000000, 0.210000,  0.350000,  0.070000, 0.000000,  0.000000 
 252125120.000000, 0.813560 , 0.677169, 9.616754, 868169280.000000, 0.280000,  0.280000,  0.070000, 0.000000,  0.000000 
 252145728.000000, 0.780060 , 0.634098, 9.657433, 868189248.000000, -0.070000,  0.210000,  0.070000, 0.000000,  0.000000 
 252165120.000000, 0.827917 , 0.602991, 9.647861, 868209792.000000, -0.490000,  0.350000,  0.070000, 0.000000,  0.000000 
 252185408.000000, 0.823131 , 0.550349, 9.674182, 868229248.000000, -0.630000,  0.420000,  0.070000, 0.000000,  0.000000 
 252205120.000000, 0.832702 , 0.636491, 9.635897, 868249536.000000, -0.280000,  0.350000,  0.070000, 0.000000,  0.000000 
 252225088.000000, 0.830309 , 0.641276, 9.652647, 868269184.000000, 0.210000,  0.210000,  0.070000, 0.000000,  0.000000 
 252245696.000000, 0.851845 , 0.660419, 9.647861, 868289152.000000, 0.420000,  0.140000,  0.070000, 0.000000,  0.000000 
 252265088.000000, 0.794417 , 0.634098, 9.638289, 868309760.000000, 0.420000,  0.280000,  0.070000, 0.000000,  0.000000 
 252285376.000000, 0.796810 , 0.559920, 9.657433, 868329152.000000, -0.700000,  0.350000,  0.070000, 0.000000,  0.000000 
 252305024.000000, 0.787239 , 0.543171, 9.616754, 868349440.000000, -0.910000,  0.350000,  0.070000, 0.000000,  0.000000 
 252325056.000000, 0.827917 , 0.586242, 9.604790, 868369152.000000, -0.420000,  0.280000,  0.070000, 0.000000,  0.000000 
 252345600.000000, 0.803988 , 0.641276, 9.647861, 868389120.000000, 0.210000,  0.070000,  0.070000, 0.000000,  0.000000 
 252364992.000000, 0.830309 , 0.646062, 9.650253, 868409728.000000, 0.210000,  0.070000,  -0.070000, 0.000000,  0.000000 
 252385344.000000, 0.844666 , 0.653241, 9.635897, 868429120.000000, -0.350000,  0.280000,  -0.070000, 0.000000,  0.000000 
 252404992.000000, 0.849452 , 0.581456, 9.631111, 868449408.000000, -0.910000,  0.350000,  -0.070000, 0.000000,  0.000000 
 252424960.000000, 0.839881 , 0.629312, 9.635897, 868469056.000000, -0.910000,  0.350000,  -0.070000, 0.000000,  0.000000 
 252445568.000000, 0.866202 , 0.629312, 9.619147, 868489088.000000, -0.840000,  0.210000,  -0.070000, 869149184.000000,  1010.447815 
 252464960.000000, 0.799203 , 0.641276, 9.643075, 868509632.000000, -0.770000,  0.280000,  -0.070000, 0.000000,  0.000000 
 252485248.000000, 0.847059 , 0.634098, 9.640682, 868529024.000000, -0.700000,  0.280000,  -0.070000, 0.000000,  0.000000 
 252504896.000000, 0.823131 , 0.562313, 9.643075, 868549376.000000, -0.910000,  0.490000,  -0.070000, 0.000000,  0.000000 
 252524928.000000, 0.796810 , 0.574277, 9.643075, 868569024.000000, -1.050000,  0.560000,  0.070000, 0.000000,  0.000000 
 252545472.000000, 0.868595 , 0.626920, 9.638289, 868588992.000000, -0.980000,  0.350000,  0.070000, 0.000000,  0.000000 
 252564864.000000, 0.863809 , 0.658026, 9.662218, 868609600.000000, -0.210000,  -0.070000,  0.070000, 0.000000,  0.000000 
 252585344.000000, 0.849452 , 0.612563, 9.638289, 868628992.000000, -0.140000,  0.420000,  -0.140000, 0.000000,  0.000000 
 252604864.000000, 0.813560 , 0.562313, 9.645468, 868649408.000000, -1.050000,  0.910000,  0.210000, 0.000000,  0.000000 
 252624832.000000, 0.765703 , 0.490529, 9.719646, 868668992.000000, -1.330000,  0.840000,  0.210000, 0.000000,  0.000000 
 252645440.000000, 0.753739 , 0.445065, 9.504292, 868688960.000000, -0.280000,  0.560000,  0.140000, 0.000000,  0.000000 
 252664832.000000, 0.935594 , 0.789631, 9.647861, 868709568.000000, 2.310000,  -0.140000,  -0.280000, 0.000000,  0.000000 
 252685120.000000, 0.787239 , 0.732204, 9.595219, 868728960.000000, 3.570000,  -1.820000,  -0.420000, 0.000000,  0.000000 
 252704832.000000, 0.780060 , 0.614955, 9.633504, 868749248.000000, 1.470000,  0.980000,  0.350000, 0.000000,  0.000000 
 252724800.000000, 0.780060 , 0.667598, 9.633504, 868768896.000000, 0.490000,  0.840000,  0.490000, 0.000000,  0.000000 
 252745408.000000, 0.885344 , 0.653241, 9.597611, 868788928.000000, 0.420000,  0.840000,  0.070000, 0.000000,  0.000000 
 252764800.000000, 0.851845 , 0.672383, 9.647861, 868809472.000000, 0.210000,  -0.490000,  -0.070000, 0.000000,  0.000000 
 252785088.000000, 0.799203 , 0.677169, 9.604790, 868828928.000000, 0.140000,  0.280000,  -0.070000, 0.000000,  0.000000 
 252804736.000000, 0.861416 , 0.655633, 9.628718, 868849216.000000, -0.770000,  0.630000,  -0.070000, 0.000000,  0.000000 
 252824768.000000, 0.808774 , 0.595813, 9.650253, 868868864.000000, -1.540000,  0.210000,  -0.070000, 0.000000,  0.000000 
 252845312.000000, 0.784846 , 0.619741, 9.643075, 868888832.000000, -1.750000,  0.490000,  0.070000, 0.000000,  0.000000 
 252864704.000000, 0.784846 , 0.684347, 9.664611, 868909440.000000, -1.120000,  0.420000,  -0.070000, 0.000000,  0.000000 
 252885056.000000, 0.844666 , 0.643669, 9.657433, 868928832.000000, -0.980000,  0.280000,  -0.140000, 0.000000,  0.000000 
 252904704.000000, 0.837488 , 0.619741, 9.645468, 868949120.000000, -1.050000,  0.280000,  -0.070000, 0.000000,  0.000000 
 252924672.000000, 0.801596 , 0.569492, 9.604790, 868968832.000000, -1.120000,  0.140000,  -0.070000, 0.000000,  0.000000 
 252945280.000000, 0.854238 , 0.579063, 9.650253, 868988800.000000, -0.910000,  0.490000,  0.070000, 0.000000,  0.000000 
 252964672.000000, 0.885344 , 0.653241, 9.616754, 869009408.000000, -0.490000,  0.210000,  -0.070000, 0.000000,  0.000000 
 252984960.000000, 0.849452 , 0.631705, 9.640682, 869028800.000000, -0.420000,  0.210000,  -0.210000, 0.000000,  0.000000 
 253004672.000000, 0.818345 , 0.540778, 9.623933, 869049088.000000, -1.190000,  0.630000,  -0.210000, 0.000000,  0.000000 
 253024640.000000, 0.830309 , 0.571885, 9.628718, 869068736.000000, -1.400000,  0.840000,  0.280000, 0.000000,  0.000000 
 253047168.000000, 0.825524 , 0.583849, 9.604790, 869088768.000000, -0.490000,  0.490000,  0.140000, 0.000000,  0.000000 
 253064640.000000, 0.813560 , 0.591027, 9.635897, 869111296.000000, 0.420000,  0.210000,  0.070000, 0.000000,  0.000000 
 253084928.000000, 0.787239 , 0.646062, 9.590433, 869128704.000000, 0.700000,  0.420000,  0.280000, 0.000000,  0.000000 
 253104576.000000, 0.827917 , 0.713061, 9.619147, 869149056.000000, 0.840000,  0.420000,  0.210000, 0.000000,  0.000000 
 253124608.000000, 0.837488 , 0.703490, 9.655040, 869168704.000000, 0.350000,  0.070000,  -0.070000, 0.000000,  0.000000 
 253145152.000000, 0.820738 , 0.567099, 9.671788, 869188672.000000, -0.840000,  0.350000,  -0.070000, 0.000000,  0.000000 
 253164544.000000, 0.818345 , 0.504886, 9.667004, 869209280.000000, -1.960000,  0.770000,  0.210000, 0.000000,  0.000000 
 253184896.000000, 0.859023 , 0.557528, 9.647861, 869248960.000000, -0.350000,  0.210000,  -0.070000, 0.000000,  0.000000 
 253204544.000000, 0.820738 , 0.662812, 9.590433, 0.000000, 0.000000,  0.000000,  0.000000, 0.000000,  0.000000 
 253224512.000000, 0.768096 , 0.646062, 9.607183, 869268672.000000, -0.070000,  0.350000,  -0.070000, 0.000000,  0.000000 
 253245120.000000, 0.854238 , 0.648455, 9.619147, 869288640.000000, -0.840000,  0.280000,  -0.140000, 0.000000,  0.000000 
 253264512.000000, 0.863809 , 0.636491, 9.652647, 869309184.000000, -2.100000,  0.280000,  -0.210000, 0.000000,  0.000000 
 253284800.000000, 0.808774 , 0.440279, 9.662218, 869328640.000000, -3.010000,  0.140000,  -0.280000, 0.000000,  0.000000 
 253304512.000000, 0.803988 , 0.504886, 9.674182, 869348928.000000, -2.730000,  0.840000,  -0.280000, 0.000000,  0.000000 
 253324480.000000, 0.854238 , 0.638884, 9.619147, 869368576.000000, -0.980000,  0.560000,  -0.070000, 0.000000,  0.000000 
 253345088.000000, 0.847059 , 0.610170, 9.662218, 869388608.000000, 0.420000,  0.420000,  -0.140000, 0.000000,  0.000000 
 253364480.000000, 0.820738 , 0.607777, 9.626326, 869409152.000000, 0.280000,  0.350000,  -0.070000, 0.000000,  0.000000 
 253384768.000000, 0.830309 , 0.562313, 9.623933, 869428544.000000, -0.140000,  0.350000,  0.140000, 0.000000,  0.000000 
 253404416.000000, 0.825524 , 0.547956, 9.650253, 869448832.000000, -0.560000,  0.280000,  0.210000, 0.000000,  0.000000 
 253424448.000000, 0.861416 , 0.543171, 9.635897, 869468544.000000, -0.350000,  0.630000,  0.070000, 0.000000,  0.000000 
 253444992.000000, 0.890130 , 0.507278, 9.640682, 869488512.000000, -0.350000,  0.630000,  0.280000, 870148608.000000,  1010.447205 
 253464384.000000, 0.866202 , 0.612563, 9.676575, 869509120.000000, 0.560000,  -0.140000,  0.280000, 0.000000,  0.000000 
 253484672.000000, 0.808774 , 0.722632, 9.638289, 869528512.000000, 1.470000,  0.210000,  0.350000, 0.000000,  0.000000 
 253504384.000000, 0.780060 , 0.679562, 9.583255, 869548800.000000, 1.400000,  0.630000,  0.350000, 0.000000,  0.000000 
 253524352.000000, 0.873380 , 0.648455, 9.623933, 869568512.000000, 0.210000,  0.420000,  0.420000, 0.000000,  0.000000 
 253544960.000000, 0.808774 , 0.605384, 9.643075, 869588480.000000, -0.980000,  0.630000,  0.280000, 0.000000,  0.000000 
 253564352.000000, 0.789631 , 0.583849, 9.676575, 869609088.000000, -1.750000,  0.700000,  0.210000, 0.000000,  0.000000 
 253584640.000000, 0.784846 , 0.569492, 9.674182, 869628480.000000, -1.890000,  0.770000,  0.140000, 0.000000,  0.000000 
 253604352.000000, 0.789631 , 0.514457, 9.779467, 869648768.000000, -1.540000,  0.630000,  -0.070000, 0.000000,  0.000000 
 253624320.000000, 0.727418 , 0.540778, 9.542577, 869668416.000000, -0.840000,  0.420000,  -0.070000, 0.000000,  0.000000 
 253644928.000000, 0.921237 , 0.830309, 9.669396, 869688448.000000, -0.280000,  0.490000,  -0.560000, 0.000000,  0.000000 
 253664320.000000, 0.861416 , 0.770489, 9.573684, 869708992.000000, 0.280000,  -1.260000,  -0.770000, 0.000000,  0.000000 
 253684608.000000, 0.815953 , 0.507278, 9.643075, 869728384.000000, -2.940000,  0.700000,  -0.630000, 0.000000,  0.000000 
 253704256.000000, 0.832702 , 0.332602, 9.714860, 869748672.000000, -5.320000,  0.840000,  -0.210000, 0.000000,  0.000000 
 253724288.000000, 0.842274 , 0.236889, 9.729217, 869768384.000000, -4.760000,  0.350000,  -0.070000, 0.000000,  0.000000 
 253744832.000000, 0.803988 , 0.428315, 9.669396, 869788352.000000, -1.540000,  0.350000,  0.070000, 0.000000,  0.000000 
 253764288.000000, 0.830309 , 0.655633, 9.614362, 869808960.000000, 2.590000,  0.210000,  0.210000, 0.000000,  0.000000 
 253784512.000000, 0.887737 , 0.796810, 9.611969, 869828416.000000, 4.480000,  -0.140000,  0.210000, 0.000000,  0.000000 
 253804224.000000, 0.873380 , 0.787239, 9.571291, 869848640.000000, 3.220000,  -0.140000,  0.280000, 0.000000,  0.000000 
 253824192.000000, 0.815953 , 0.696311, 9.638289, 869868352.000000, 0.280000,  0.770000,  0.280000, 0.000000,  0.000000 
 253844800.000000, 0.830309 , 0.478565, 9.655040, 869888320.000000, -2.520000,  0.980000,  0.140000, 0.000000,  0.000000 
 253864192.000000, 0.820738 , 0.332602, 9.628718, 869908864.000000, -3.710000,  0.560000,  0.070000, 0.000000,  0.000000 
 253884480.000000, 0.847059 , 0.425922, 9.635897, 869928320.000000, -2.590000,  0.350000,  0.070000, 0.000000,  0.000000 
 253904192.000000, 0.880559 , 0.557528, 9.671788, 869948608.000000, 0.280000,  -0.210000,  -0.070000, 0.000000,  0.000000 
 253924160.000000, 0.870987 , 0.662812, 9.657433, 869968256.000000, 2.310000,  -0.140000,  -0.070000, 0.000000,  0.000000 
 253944704.000000, 0.775275 , 0.605384, 9.597611, 869988224.000000, 2.450000,  0.910000,  0.420000, 0.000000,  0.000000 
 253964096.000000, 0.830309 , 0.665205, 9.614362, 870008832.000000, 1.680000,  1.120000,  0.490000, 0.000000,  0.000000 
 253984448.000000, 0.803988 , 0.583849, 9.652647, 870028224.000000, 0.980000,  0.350000,  0.140000, 0.000000,  0.000000 
 254004096.000000, 0.854238 , 0.464208, 9.626326, 870048512.000000, 0.280000,  0.210000,  0.210000, 0.000000,  0.000000 
 254024064.000000, 0.823131 , 0.579063, 9.626326, 870068224.000000, 0.630000,  0.560000,  0.420000, 0.000000,  0.000000 
 254046656.000000, 0.820738 , 0.643669, 9.635897, 870088192.000000, 2.030000,  0.280000,  0.280000, 0.000000,  0.000000 
 254064064.000000, 0.851845 , 0.667598, 9.626326, 870110720.000000, 2.940000,  -0.350000,  0.140000, 0.000000,  0.000000 
 254084352.000000, 0.842274 , 0.693919, 9.643075, 870128192.000000, 2.660000,  -0.070000,  0.280000, 0.000000,  0.000000 
 254104064.000000, 0.782453 , 0.784846, 9.662218, 870148480.000000, 2.170000,  0.770000,  0.420000, 0.000000,  0.000000 
 254124032.000000, 0.792024 , 0.775275, 9.600004, 870168128.000000, 1.400000,  0.770000,  0.140000, 0.000000,  0.000000 
 254144640.000000, 0.835095 , 0.748954, 9.619147, 870188160.000000, -0.210000,  0.210000,  -0.140000, 0.000000,  0.000000 
 254164032.000000, 0.835095 , 0.567099, 9.633504, 870208704.000000, -2.100000,  -0.140000,  -0.210000, 0.000000,  0.000000 
 254184320.000000, 0.808774 , 0.524028, 9.635897, 870228096.000000, -3.220000,  0.280000,  -0.140000, 0.000000,  0.000000 
 254203968.000000, 0.794417 , 0.552742, 9.647861, 870248448.000000, -2.870000,  0.490000,  -0.210000, 0.000000,  0.000000 
 254224000.000000, 0.815953 , 0.588634, 9.655040, 870268096.000000, -1.680000,  0.490000,  -0.280000, 0.000000,  0.000000 
 254244544.000000, 0.844666 , 0.732204, 9.611969, 870288064.000000, -0.560000,  -0.070000,  -0.210000, 0.000000,  0.000000 
 254263936.000000, 0.799203 , 0.667598, 9.583255, 870308672.000000, -0.070000,  0.140000,  -0.140000, 0.000000,  0.000000 
 254284288.000000, 0.830309 , 0.538385, 9.652647, 870328064.000000, -0.910000,  0.560000,  -0.140000, 0.000000,  0.000000 
 254303936.000000, 0.839881 , 0.497707, 9.638289, 870348352.000000, -1.890000,  0.420000,  -0.140000, 0.000000,  0.000000 
 254323904.000000, 0.847059 , 0.538385, 9.633504, 870368064.000000, -1.890000,  0.280000,  0.070000, 0.000000,  0.000000 
 254344512.000000, 0.787239 , 0.631705, 9.595219, 870388032.000000, -0.700000,  0.490000,  0.070000, 0.000000,  0.000000 
 254363904.000000, 0.799203 , 0.634098, 9.664611, 870408640.000000, 0.140000,  0.700000,  -0.070000, 0.000000,  0.000000 
 254384192.000000, 0.856631 , 0.643669, 9.640682, 870428032.000000, -0.350000,  0.140000,  -0.070000, 0.000000,  0.000000 
 254403904.000000, 0.787239 , 0.576670, 9.688539, 870448320.000000, -1.260000,  0.210000,  -0.140000, 0.000000,  0.000000 
 254423872.000000, 0.770489 , 0.500100, 9.623933, 870467968.000000, -1.750000,  0.210000,  0.070000, 0.000000,  0.000000 
 254444480.000000, 0.825524 , 0.545564, 9.662218, 870488000.000000, -1.330000,  0.350000,  0.070000, 871148032.000000,  1010.448914 
 254463872.000000, 0.825524 , 0.564706, 9.657433, 870508544.000000, -0.560000,  0.350000,  0.070000, 0.000000,  0.000000 
 254484160.000000, 0.780060 , 0.617348, 9.619147, 870527936.000000, -0.070000,  0.210000,  0.070000, 0.000000,  0.000000 
 254503808.000000, 0.830309 , 0.638884, 9.611969, 870548288.000000, -0.070000,  0.560000,  0.140000, 0.000000,  0.000000 
 254523840.000000, 0.842274 , 0.605384, 9.657433, 870567936.000000, -0.350000,  0.490000,  0.140000, 0.000000,  0.000000 
 254544384.000000, 0.813560 , 0.593420, 9.652647, 870587904.000000, -0.770000,  0.210000,  -0.070000, 0.000000,  0.000000 
 254563776.000000, 0.837488 , 0.540778, 9.643075, 870608512.000000, -1.260000,  0.140000,  -0.070000, 0.000000,  0.000000 
 254584128.000000, 0.789631 , 0.504886, 9.643075, 870627904.000000, -1.330000,  0.350000,  -0.070000, 0.000000,  0.000000 
 254603776.000000, 0.835095 , 0.586242, 9.635897, 870648192.000000, -0.560000,  0.210000,  -0.070000, 0.000000,  0.000000 
 254623744.000000, 0.878166 , 0.658026, 9.628718, 870667904.000000, 0.420000,  -0.350000,  -0.210000, 0.000000,  0.000000 
 254644480.000000, 0.837488 , 0.598206, 9.640682, 870687872.000000, 0.490000,  -0.420000,  -0.210000, 0.000000,  0.000000 
 254663744.000000, 0.830309 , 0.564706, 9.635897, 870708608.000000, 0.140000,  -0.420000,  -0.210000, 0.000000,  0.000000 
 254684032.000000, 0.868595 , 0.543171, 9.645468, 870727808.000000, -0.070000,  0.280000,  0.140000, 0.000000,  0.000000 
 254703744.000000, 0.825524 , 0.600598, 9.609575, 870748160.000000, 0.420000,  0.490000,  0.210000, 0.000000,  0.000000 
 254723712.000000, 0.818345 , 0.636491, 9.628718, 870767808.000000, 0.980000,  0.700000,  0.210000, 0.000000,  0.000000 
 254744320.000000, 0.832702 , 0.588634, 9.671788, 870787840.000000, 1.190000,  0.420000,  0.280000, 0.000000,  0.000000 
 254763712.000000, 0.863809 , 0.574277, 9.647861, 870808384.000000, 0.980000,  0.350000,  0.350000, 0.000000,  0.000000 
 254784000.000000, 0.832702 , 0.614955, 9.643075, 870827840.000000, 1.120000,  0.420000,  0.280000, 0.000000,  0.000000 
 254803648.000000, 0.847059 , 0.710668, 9.633504, 870848064.000000, 1.540000,  0.350000,  0.280000, 0.000000,  0.000000 
 254823680.000000, 0.815953 , 0.811167, 9.619147, 870867776.000000, 1.330000,  -0.070000,  0.280000, 0.000000,  0.000000 
 254844224.000000, 0.863809 , 0.765703, 9.619147, 870887744.000000, 0.070000,  -0.070000,  -0.070000, 0.000000,  0.000000 
 254863616.000000, 0.847059 , 0.619741, 9.652647, 870908352.000000, -1.890000,  0.630000,  -0.070000, 0.000000,  0.000000 
 254883904.000000, 0.820738 , 0.416351, 9.676575, 870927744.000000, -3.290000,  0.770000,  0.070000, 0.000000,  0.000000 
 254903616.000000, 0.839881 , 0.442672, 9.657433, 870948032.000000, -3.150000,  0.420000,  0.070000, 0.000000,  0.000000 
 254923584.000000, 0.854238 , 0.516850, 9.626326, 870967680.000000, -1.050000,  0.070000,  0.070000, 0.000000,  0.000000 
 254944192.000000, 0.801596 , 0.722632, 9.640682, 870987712.000000, 1.260000,  0.070000,  -0.070000, 0.000000,  0.000000 
 254963584.000000, 0.808774 , 0.722632, 9.588040, 871008320.000000, 1.960000,  -0.210000,  -0.140000, 0.000000,  0.000000 
 254983872.000000, 0.839881 , 0.626920, 9.623933, 871027712.000000, 0.770000,  0.210000,  -0.070000, 0.000000,  0.000000 
 255003584.000000, 0.851845 , 0.545564, 9.659825, 871048000.000000, -0.910000,  0.490000,  0.140000, 0.000000,  0.000000 
 255023552.000000, 0.880559 , 0.531207, 9.657433, 871067648.000000, -1.400000,  0.420000,  0.140000, 0.000000,  0.000000 
 255046080.000000, 0.839881 , 0.619741, 9.652647, 871087616.000000, -0.350000,  0.210000,  0.070000, 0.000000,  0.000000 
 255063552.000000, 0.842274 , 0.648455, 9.621540, 871110208.000000, 0.770000,  0.070000,  0.070000, 0.000000,  0.000000 
 255083840.000000, 0.918844 , 0.677169, 9.631111, 871127616.000000, 1.400000,  -0.070000,  0.070000, 0.000000,  0.000000 
 255103488.000000, 0.820738 , 0.753739, 9.626326, 871147904.000000, 1.260000,  -0.070000,  0.140000, 0.000000,  0.000000 
 255123520.000000, 0.854238 , 0.701097, 9.616754, 871167616.000000, 0.490000,  0.560000,  0.210000, 0.000000,  0.000000 
 255144064.000000, 0.799203 , 0.622134, 9.614362, 871187584.000000, -0.560000,  0.630000,  0.140000, 0.000000,  0.000000 
 255163456.000000, 0.844666 , 0.610170, 9.640682, 871208192.000000, -1.260000,  0.560000,  0.140000, 0.000000,  0.000000 
 255183744.000000, 0.808774 , 0.612563, 9.626326, 871227584.000000, -1.330000,  0.490000,  0.070000, 0.000000,  0.000000 
 255203456.000000, 0.839881 , 0.672383, 9.643075, 871247872.000000, -0.910000,  0.280000,  -0.070000, 0.000000,  0.000000 
 255223424.000000, 0.851845 , 0.607777, 9.657433, 871267520.000000, -0.840000,  0.210000,  -0.210000, 0.000000,  0.000000 
 255244032.000000, 0.825524 , 0.562313, 9.647861, 871287552.000000, -1.260000,  0.280000,  -0.210000, 0.000000,  0.000000 
 255263424.000000, 0.823131 , 0.509671, 9.643075, 871308096.000000, -0.910000,  0.630000,  0.140000, 0.000000,  0.000000 
 255283712.000000, 0.866202 , 0.588634, 9.628718, 871327488.000000, 0.350000,  0.420000,  0.140000, 0.000000,  0.000000 
 255303424.000000, 0.875773 , 0.693919, 9.609575, 871347840.000000, 1.120000,  0.140000,  0.070000, 0.000000,  0.000000 
 255323392.000000, 0.808774 , 0.691526, 9.616754, 871367488.000000, 1.890000,  0.140000,  0.140000, 0.000000,  0.000000 
 255343936.000000, 0.839881 , 0.655633, 9.616754, 871387520.000000, 1.400000,  0.770000,  0.350000, 0.000000,  0.000000 
 255363392.000000, 0.844666 , 0.614955, 9.645468, 871408064.000000, 0.420000,  0.910000,  0.420000, 0.000000,  0.000000 
 255383680.000000, 0.837488 , 0.610170, 9.635897, 871427456.000000, -0.070000,  0.560000,  0.350000, 0.000000,  0.000000 
 255403328.000000, 0.837488 , 0.543171, 9.674182, 871447744.000000, -0.070000,  0.770000,  0.280000, 0.000000,  0.000000 
 255423360.000000, 0.861416 , 0.662812, 9.614362, 871487424.000000, 1.050000,  0.630000,  0.350000, 872147520.000000,  1010.449280 
 255443904.000000, 0.835095 , 0.626920, 9.621540, 0.000000, 0.000000,  0.000000,  0.000000, 0.000000,  0.000000 
 255463296.000000, 0.868595 , 0.579063, 9.640682, 871508032.000000, 2.030000,  0.280000,  0.420000, 0.000000,  0.000000 
 255483584.000000, 0.830309 , 0.674776, 9.611969, 871527424.000000, 2.030000,  0.210000,  0.420000, 0.000000,  0.000000 
 255503296.000000, 0.808774 , 0.734596, 9.626326, 871547712.000000, 2.660000,  0.350000,  0.280000, 0.000000,  0.000000 
 255523264.000000, 0.844666 , 0.775275, 9.611969, 871567360.000000, 2.730000,  0.350000,  0.280000, 0.000000,  0.000000 
 255543872.000000, 0.861416 , 0.792024, 9.650253, 871587392.000000, 1.680000,  0.070000,  0.070000, 0.000000,  0.000000 
 255563264.000000, 0.868595 , 0.777667, 9.611969, 871607936.000000, 1.680000,  0.490000,  0.210000, 0.000000,  0.000000 
 255583552.000000, 0.808774 , 0.660419, 9.659825, 871627328.000000, -1.470000,  0.840000,  0.210000, 0.000000,  0.000000 
 255603264.000000, 0.813560 , 0.672383, 9.638289, 871647680.000000, -2.450000,  0.770000,  0.070000, 0.000000,  0.000000 
 255623232.000000, 0.875773 , 0.622134, 9.626326, 871667328.000000, -2.870000,  0.630000,  -0.070000, 0.000000,  0.000000 
 255643776.000000, 0.825524 , 0.619741, 9.686146, 871687296.000000, -2.730000,  0.490000,  -0.070000, 0.000000,  0.000000 
 255663168.000000, 0.806381 , 0.614955, 9.655040, 871707904.000000, -2.170000,  0.490000,  -0.070000, 0.000000,  0.000000 
 255683520.000000, 0.835095 , 0.655633, 9.628718, 871727296.000000, -1.540000,  0.420000,  -0.070000, 0.000000,  0.000000 
 255703168.000000, 0.806381 , 0.658026, 9.628718, 871747584.000000, -0.770000,  0.280000,  -0.070000, 0.000000,  0.000000 
 255723200.000000, 0.827917 , 0.660419, 9.619147, 871767296.000000, -0.350000,  0.350000,  -0.070000, 0.000000,  0.000000 
 255743744.000000, 0.803988 , 0.638884, 9.678967, 871787264.000000, -0.350000,  0.420000,  0.140000, 0.000000,  0.000000 
 255763200.000000, 0.837488 , 0.598206, 9.626326, 871807808.000000, -0.350000,  0.560000,  0.210000, 0.000000,  0.000000 
 255783424.000000, 0.813560 , 0.598206, 9.652647, 871827264.000000, -0.070000,  0.490000,  0.280000, 0.000000,  0.000000 
 255803136.000000, 0.813560 , 0.636491, 9.635897, 871847552.000000, 0.630000,  0.210000,  0.140000, 0.000000,  0.000000 
 255823104.000000, 0.842274 , 0.701097, 9.614362, 871867200.000000, 0.910000,  0.210000,  0.140000, 0.000000,  0.000000 
 255843712.000000, 0.854238 , 0.693919, 9.607183, 871887232.000000, 0.630000,  0.210000,  0.140000, 0.000000,  0.000000 
 255863104.000000, 0.803988 , 0.667598, 9.614362, 871907776.000000, 0.070000,  0.280000,  0.140000, 0.000000,  0.000000 
 255883392.000000, 0.823131 , 0.612563, 9.650253, 871927168.000000, -0.560000,  0.700000,  0.210000, 0.000000,  0.000000 
 255903040.000000, 0.808774 , 0.602991, 9.647861, 871947520.000000, -0.560000,  0.630000,  0.140000, 0.000000,  0.000000 
 255923072.000000, 0.842274 , 0.665205, 9.633504, 871967168.000000, 0.140000,  0.140000,  0.070000, 0.000000,  0.000000 
 255943616.000000, 0.818345 , 0.715454, 9.631111, 871987136.000000, 0.560000,  0.140000,  0.070000, 0.000000,  0.000000 
 255963008.000000, 0.839881 , 0.701097, 9.621540, 872007744.000000, 0.420000,  0.280000,  0.070000, 0.000000,  0.000000 
 255983360.000000, 0.839881 , 0.686740, 9.628718, 872027136.000000, -0.210000,  0.420000,  0.070000, 0.000000,  0.000000 
 256003008.000000, 0.847059 , 0.641276, 9.645468, 872047424.000000, -0.840000,  0.350000,  0.070000, 0.000000,  0.000000 
 256022976.000000, 0.799203 , 0.672383, 9.655040, 872067072.000000, -1.190000,  0.350000,  0.070000, 0.000000,  0.000000 
 256045568.000000, 0.787239 , 0.646062, 9.638289, 872087104.000000, -1.190000,  0.420000,  0.070000, 0.000000,  0.000000 
 256062976.000000, 0.808774 , 0.667598, 9.655040, 872109632.000000, -1.050000,  0.420000,  -0.070000, 0.000000,  0.000000 
 256083264.000000, 0.832702 , 0.638884, 9.621540, 872127104.000000, -0.910000,  0.490000,  -0.070000, 0.000000,  0.000000 
 256102976.000000, 0.815953 , 0.612563, 9.626326, 872147392.000000, -0.980000,  0.420000,  -0.070000, 0.000000,  0.000000 
 256122944.000000, 0.839881 , 0.650848, 9.647861, 872167040.000000, -0.980000,  0.490000,  -0.070000, 0.000000,  0.000000 
 256143552.000000, 0.835095 , 0.641276, 9.621540, 872187008.000000, -0.770000,  0.280000,  -0.070000, 0.000000,  0.000000 
 256162944.000000, 0.811167 , 0.643669, 9.640682, 872207616.000000, -0.630000,  0.280000,  -0.070000, 0.000000,  0.000000 
 256183232.000000, 0.818345 , 0.617348, 9.633504, 872227008.000000, -0.560000,  0.350000,  0.070000, 0.000000,  0.000000 
 256202880.000000, 0.780060 , 0.658026, 9.614362, 872247360.000000, -0.490000,  0.420000,  0.140000, 0.000000,  0.000000 
 256222912.000000, 0.847059 , 0.662812, 9.662218, 872267008.000000, -0.210000,  0.420000,  0.070000, 0.000000,  0.000000 
 256243456.000000, 0.803988 , 0.679562, 9.638289, 872286976.000000, -0.210000,  0.210000,  0.070000, 0.000000,  0.000000 
 256262848.000000, 0.799203 , 0.605384, 9.655040, 872307584.000000, -0.280000,  0.280000,  0.070000, 0.000000,  0.000000 
 256283200.000000, 0.842274 , 0.626920, 9.623933, 872326976.000000, -0.630000,  0.420000,  0.070000, 0.000000,  0.000000 
 256302848.000000, 0.863809 , 0.624527, 9.652647, 872347264.000000, -0.560000,  0.420000,  0.070000, 0.000000,  0.000000 
 256322816.000000, 0.825524 , 0.629312, 9.585647, 872366912.000000, -0.490000,  0.420000,  0.070000, 0.000000,  0.000000 
 256343424.000000, 0.815953 , 0.667598, 9.655040, 872386944.000000, -0.420000,  0.350000,  0.070000, 0.000000,  0.000000 
 256362816.000000, 0.854238 , 0.636491, 9.643075, 872407488.000000, -0.350000,  0.420000,  0.140000, 0.000000,  0.000000 
 256383104.000000, 0.768096 , 0.655633, 9.643075, 872426880.000000, -0.210000,  0.350000,  0.140000, 0.000000,  0.000000 
 256402752.000000, 0.825524 , 0.655633, 9.657433, 872447232.000000, -0.070000,  0.280000,  0.070000, 0.000000,  0.000000 
 256422784.000000, 0.849452 , 0.672383, 9.621540, 872466880.000000, -0.070000,  0.140000,  0.070000, 0.000000,  0.000000 
 256443328.000000, 0.813560 , 0.653241, 9.643075, 872486912.000000, -0.350000,  0.350000,  0.070000, 873146944.000000,  1010.450378 
 256462720.000000, 0.794417 , 0.658026, 9.645468, 872507456.000000, -0.560000,  0.490000,  0.140000, 0.000000,  0.000000 
 256483072.000000, 0.856631 , 0.638884, 9.647861, 872526848.000000, -0.490000,  0.420000,  0.070000, 0.000000,  0.000000 
 256502720.000000, 0.808774 , 0.617348, 9.619147, 872547136.000000, -0.210000,  0.210000,  0.070000, 0.000000,  0.000000 
 256522688.000000, 0.849452 , 0.701097, 9.585647, 872566848.000000, -0.070000,  0.210000,  0.070000, 0.000000,  0.000000 
 256543296.000000, 0.839881 , 0.653241, 9.652647, 872586816.000000, -0.210000,  0.350000,  0.070000, 0.000000,  0.000000 
 256562688.000000, 0.780060 , 0.643669, 9.638289, 872607424.000000, -0.630000,  0.420000,  0.140000, 0.000000,  0.000000 
 256582976.000000, 0.801596 , 0.602991, 9.643075, 872626816.000000, -0.770000,  0.700000,  0.140000, 0.000000,  0.000000 
 256602688.000000, 0.887737 , 0.653241, 9.635897, 872647104.000000, -0.630000,  0.420000,  0.140000, 0.000000,  0.000000 
 256622656.000000, 0.837488 , 0.674776, 9.645468, 872666752.000000, -0.630000,  0.070000,  0.140000, 0.000000,  0.000000 
 256643264.000000, 0.835095 , 0.646062, 9.645468, 872686784.000000, 0.280000,  0.350000,  0.140000, 0.000000,  0.000000 
 256662656.000000, 0.753739 , 0.617348, 9.588040, 872707328.000000, -0.070000,  0.560000,  0.140000, 0.000000,  0.000000 
 256682944.000000, 0.849452 , 0.660419, 9.619147, 872726720.000000, -0.280000,  0.350000,  0.140000, 0.000000,  0.000000 
 256702592.000000, 0.820738 , 0.667598, 9.643075, 872747072.000000, -0.070000,  -0.070000,  0.140000, 0.000000,  0.000000 
 256722624.000000, 0.863809 , 0.658026, 9.628718, 872766720.000000, -0.070000,  -0.070000,  -0.070000, 0.000000,  0.000000 
 256743232.000000, 0.839881 , 0.669990, 9.623933, 872786688.000000, -0.210000,  0.140000,  -0.070000, 0.000000,  0.000000 
 256762624.000000, 0.813560 , 0.667598, 9.638289, 872807296.000000, -0.770000,  0.280000,  -0.070000, 0.000000,  0.000000 
 256782912.000000, 0.847059 , 0.643669, 9.623933, 872826752.000000, -1.190000,  0.280000,  -0.070000, 0.000000,  0.000000 
 256802560.000000, 0.851845 , 0.669990, 9.614362, 872846976.000000, -1.330000,  0.350000,  -0.070000, 0.000000,  0.000000 
 256822528.000000, 0.799203 , 0.734596, 9.614362, 872866688.000000, -1.540000,  0.280000,  -0.140000, 0.000000,  0.000000 
 256843136.000000, 0.768096 , 0.674776, 9.616754, 872886656.000000, -2.450000,  0.280000,  -0.210000, 0.000000,  0.000000 
 256862528.000000, 0.820738 , 0.555135, 9.628718, 872907264.000000, -3.640000,  0.700000,  -0.210000, 0.000000,  0.000000 
 256882816.000000, 0.832702 , 0.521635, 9.640682, 872926656.000000, -4.340000,  0.770000,  -0.140000, 0.000000,  0.000000 
 256902528.000000, 0.849452 , 0.497707, 9.686146, 872946944.000000, -3.920000,  0.560000,  -0.210000, 0.000000,  0.000000 
 256922496.000000, 0.820738 , 0.516850, 9.669396, 872966592.000000, -2.870000,  0.280000,  -0.280000, 0.000000,  0.000000 
 256943104.000000, 0.851845 , 0.492921, 9.611969, 872986624.000000, -1.610000,  0.210000,  -0.140000, 0.000000,  0.000000 
 256962496.000000, 0.794417 , 0.543171, 9.650253, 873007168.000000, -0.700000,  0.280000,  -0.140000, 0.000000,  0.000000 
 256982784.000000, 0.859023 , 0.576670, 9.647861, 873026560.000000, 0.070000,  0.350000,  0.140000, 0.000000,  0.000000 
 257002432.000000, 0.827917 , 0.574277, 9.645468, 873046912.000000, 0.840000,  0.280000,  0.210000, 0.000000,  0.000000 
 257022464.000000, 0.873380 , 0.638884, 9.659825, 873066560.000000, 1.470000,  0.140000,  0.280000, 0.000000,  0.000000 
 257044992.000000, 0.808774 , 0.631705, 9.650253, 873086528.000000, 1.680000,  0.280000,  0.280000, 0.000000,  0.000000 
 257062400.000000, 0.851845 , 0.638884, 9.626326, 873109120.000000, 1.540000,  0.350000,  0.280000, 0.000000,  0.000000 
 257082752.000000, 0.837488 , 0.629312, 9.650253, 873126528.000000, 1.330000,  0.210000,  0.210000, 0.000000,  0.000000 
 257102400.000000, 0.801596 , 0.622134, 9.626326, 873146816.000000, 1.050000,  0.280000,  0.210000, 0.000000,  0.000000 
 257122368.000000, 0.806381 , 0.669990, 9.635897, 873166528.000000, 0.840000,  0.280000,  0.140000, 0.000000,  0.000000 
 257142976.000000, 0.859023 , 0.650848, 9.628718, 873186496.000000, 0.700000,  0.350000,  0.210000, 0.000000,  0.000000 
 257162368.000000, 0.815953 , 0.686740, 9.647861, 873207104.000000, 0.420000,  0.350000,  0.210000, 0.000000,  0.000000 
 257182656.000000, 0.823131 , 0.634098, 9.638289, 873226496.000000, 0.070000,  0.350000,  0.070000, 0.000000,  0.000000 
 257202368.000000, 0.780060 , 0.631705, 9.671788, 873246784.000000, -0.140000,  0.350000,  0.070000, 0.000000,  0.000000 
 257222336.000000, 0.796810 , 0.641276, 9.623933, 873266432.000000, -0.350000,  0.350000,  0.070000, 0.000000,  0.000000 
 257242944.000000, 0.787239 , 0.631705, 9.645468, 873286464.000000, -0.490000,  0.280000,  0.070000, 0.000000,  0.000000 
 257262336.000000, 0.854238 , 0.629312, 9.664611, 873307008.000000, -0.700000,  0.280000,  0.070000, 0.000000,  0.000000 
 257282624.000000, 0.811167 , 0.595813, 9.633504, 873326400.000000, -0.910000,  0.280000,  0.070000, 0.000000,  0.000000 
 257302272.000000, 0.870987 , 0.624527, 9.619147, 873346688.000000, -1.120000,  0.420000,  0.070000, 0.000000,  0.000000 
 257322304.000000, 0.856631 , 0.567099, 9.659825, 873366400.000000, -0.980000,  0.280000,  -0.070000, 0.000000,  0.000000 
 257342848.000000, 0.813560 , 0.555135, 9.611969, 873386368.000000, -0.770000,  0.280000,  -0.140000, 0.000000,  0.000000 
 257362240.000000, 0.835095 , 0.605384, 9.681360, 873406976.000000, -0.630000,  0.210000,  0.070000, 0.000000,  0.000000 
 257382592.000000, 0.811167 , 0.619741, 9.657433, 873426368.000000, -0.210000,  0.350000,  0.070000, 0.000000,  0.000000 
 257402240.000000, 0.811167 , 0.629312, 9.602397, 873446656.000000, 0.210000,  0.350000,  0.140000, 0.000000,  0.000000 
 257422208.000000, 0.825524 , 0.646062, 9.628718, 873486336.000000, 0.420000,  0.140000,  0.070000, 874146432.000000,  1010.447510 
 257442816.000000, 0.825524 , 0.622134, 9.659825, 0.000000, 0.000000,  0.000000,  0.000000, 0.000000,  0.000000 
 257462208.000000, 0.839881 , 0.658026, 9.619147, 873506944.000000, 0.140000,  0.280000,  0.070000, 0.000000,  0.000000 
 257482496.000000, 0.799203 , 0.624527, 9.690931, 873526336.000000, -0.070000,  0.420000,  0.140000, 0.000000,  0.000000 
 257502208.000000, 0.839881 , 0.643669, 9.631111, 873546624.000000, -0.140000,  0.490000,  0.070000, 0.000000,  0.000000 
 257522176.000000, 0.849452 , 0.619741, 9.633504, 873566272.000000, -0.140000,  0.420000,  0.140000, 0.000000,  0.000000 
 257542720.000000, 0.818345 , 0.669990, 9.633504, 873586304.000000, -0.140000,  0.420000,  0.140000, 0.000000,  0.000000 
 257562176.000000, 0.842274 , 0.626920, 9.638289, 873606848.000000, -0.070000,  0.350000,  0.070000, 0.000000,  0.000000 
 257582592.000000, 0.796810 , 0.636491, 9.657433, 873626240.000000, -0.280000,  0.350000,  0.070000, 0.000000,  0.000000 
 257602112.000000, 0.859023 , 0.586242, 9.655040, 873646656.000000, -0.420000,  0.420000,  0.140000, 0.000000,  0.000000 
 257622144.000000, 0.830309 , 0.638884, 9.645468, 873666240.000000, -0.280000,  0.350000,  0.140000, 0.000000,  0.000000 
 257642688.000000, 0.813560 , 0.619741, 9.638289, 873686208.000000, -0.070000,  0.350000,  0.070000, 0.000000,  0.000000 
 257662080.000000, 0.842274 , 0.648455, 9.659825, 873706816.000000, 0.070000,  0.280000,  0.070000, 0.000000,  0.000000 
 257682432.000000, 0.835095 , 0.660419, 9.640682, 873726208.000000, 0.070000,  0.210000,  0.070000, 0.000000,  0.000000 
 257702080.000000, 0.863809 , 0.643669, 9.652647, 873746496.000000, -0.490000,  0.280000,  0.070000, 0.000000,  0.000000 
 257722048.000000, 0.803988 , 0.555135, 9.674182, 873766144.000000, -0.910000,  0.490000,  0.070000, 0.000000,  0.000000 
 257742656.000000, 0.825524 , 0.605384, 9.664611, 873786176.000000, -0.840000,  0.490000,  0.140000, 0.000000,  0.000000 
 257762048.000000, 0.813560 , 0.679562, 9.647861, 873806720.000000, -0.560000,  0.420000,  0.070000, 0.000000,  0.000000 
 257782336.000000, 0.792024 , 0.624527, 9.638289, 873826176.000000, -0.210000,  0.280000,  0.070000, 0.000000,  0.000000 
 257801984.000000, 0.844666 , 0.612563, 9.655040, 873846464.000000, -0.140000,  0.350000,  0.070000, 0.000000,  0.000000 
 257822016.000000, 0.854238 , 0.636491, 9.616754, 873866112.000000, -0.070000,  0.350000,  0.140000, 0.000000,  0.000000 
 257842624.000000, 0.820738 , 0.665205, 9.643075, 873886080.000000, -0.070000,  0.280000,  0.070000, 0.000000,  0.000000 
 257861952.000000, 0.830309 , 0.617348, 9.621540, 873906688.000000, 0.070000,  0.140000,  0.070000, 0.000000,  0.000000 
 257882304.000000, 0.847059 , 0.605384, 9.628718, 873926080.000000, -0.070000,  0.350000,  0.070000, 0.000000,  0.000000 
 257901952.000000, 0.803988 , 0.660419, 9.635897, 873946368.000000, -0.210000,  0.420000,  0.140000, 0.000000,  0.000000 
 257921920.000000, 0.870987 , 0.655633, 9.621540, 873966080.000000, -0.070000,  0.350000,  0.140000, 0.000000,  0.000000 
 257942528.000000, 0.801596 , 0.638884, 9.621540, 873986048.000000, -0.070000,  0.210000,  0.070000, 0.000000,  0.000000 
 257961920.000000, 0.811167 , 0.626920, 9.635897, 874006656.000000, -0.210000,  0.350000,  0.070000, 0.000000,  0.000000 
 257982208.000000, 0.818345 , 0.591027, 9.623933, 874026048.000000, -0.280000,  0.420000,  0.140000, 0.000000,  0.000000 
 258001920.000000, 0.830309 , 0.634098, 9.633504, 874065984.000000, -0.280000,  0.210000,  0.070000, 0.000000,  0.000000 
 258021888.000000, 0.813560 , 0.665205, 9.631111, 0.000000, 0.000000,  0.000000,  0.000000, 0.000000,  0.000000 
 258044416.000000, 0.832702 , 0.679562, 9.628718, 874086016.000000, 0.070000,  0.350000,  0.070000, 0.000000,  0.000000 
 258061888.000000, 0.842274 , 0.622134, 9.631111, 874108544.000000, -0.280000,  0.420000,  0.070000, 0.000000,  0.000000 
 258082176.000000, 0.861416 , 0.665205, 9.607183, 874125952.000000, -0.770000,  0.630000,  0.140000, 0.000000,  0.000000 
 258101824.000000, 0.830309 , 0.562313, 9.643075, 874146304.000000, -0.980000,  0.560000,  0.070000, 0.000000,  0.000000 
 258121856.000000, 0.823131 , 0.540778, 9.688539, 874165952.000000, -0.980000,  0.210000,  0.070000, 0.000000,  0.000000 
 258142400.000000, 0.823131 , 0.636491, 9.650253, 874185920.000000, -0.210000,  0.560000,  0.140000, 0.000000,  0.000000 
 258161792.000000, 0.851845 , 0.720240, 9.607183, 874206528.000000, 0.840000,  0.140000,  0.140000, 0.000000,  0.000000 
 258182144.000000, 0.839881 , 0.698704, 9.626326, 874225920.000000, 0.700000,  -0.140000,  -0.070000, 0.000000,  0.000000 
 258201792.000000, 0.806381 , 0.655633, 9.652647, 874246208.000000, -0.210000,  0.280000,  -0.070000, 0.000000,  0.000000 
 258221760.000000, 0.758525 , 0.629312, 9.667004, 874265920.000000, -0.910000,  0.560000,  0.210000, 0.000000,  0.000000 
 258242368.000000, 0.839881 , 0.655633, 9.635897, 874285888.000000, -0.840000,  0.350000,  0.210000, 0.000000,  0.000000 
 258261760.000000, 0.813560 , 0.634098, 9.650253, 874306496.000000, -0.490000,  0.350000,  0.210000, 0.000000,  0.000000 
 258282048.000000, 0.794417 , 0.689133, 9.628718, 874325888.000000, -0.280000,  0.420000,  0.070000, 0.000000,  0.000000 
 258301760.000000, 0.863809 , 0.641276, 9.623933, 874346176.000000, -0.210000,  0.210000,  0.070000, 0.000000,  0.000000 
 258321728.000000, 0.825524 , 0.626920, 9.626326, 874365824.000000, -0.350000,  0.210000,  0.070000, 0.000000,  0.000000 
 258342336.000000, 0.801596 , 0.648455, 9.652647, 874385856.000000, -0.490000,  0.420000,  0.070000, 0.000000,  0.000000 
 258361728.000000, 0.825524 , 0.617348, 9.631111, 874406400.000000, -0.490000,  0.350000,  0.070000, 0.000000,  0.000000 
 258382016.000000, 0.859023 , 0.669990, 9.623933, 874425792.000000, -0.490000,  0.280000,  0.070000, 0.000000,  0.000000 
 258401664.000000, 0.811167 , 0.646062, 9.655040, 874446144.000000, -0.280000,  0.350000,  0.070000, 0.000000,  0.000000 
 258421696.000000, 0.787239 , 0.631705, 9.638289, 874485760.000000, -0.140000,  0.350000,  0.070000, 875145856.000000,  1010.447449 
 258442240.000000, 0.808774 , 0.643669, 9.633504, 0.000000, 0.000000,  0.000000,  0.000000, 0.000000,  0.000000 
 258461632.000000, 0.811167 , 0.622134, 9.633504, 874506368.000000, -0.350000,  0.350000,  0.070000, 0.000000,  0.000000 
 258481984.000000, 0.842274 , 0.626920, 9.619147, 874525760.000000, -0.630000,  0.490000,  0.140000, 0.000000,  0.000000 
 258501632.000000, 0.820738 , 0.624527, 9.652647, 874546048.000000, -0.770000,  0.490000,  0.140000, 0.000000,  0.000000 
 258521600.000000, 0.820738 , 0.626920, 9.640682, 874565760.000000, -0.560000,  0.350000,  0.070000, 0.000000,  0.000000 
 258542208.000000, 0.854238 , 0.598206, 9.640682, 874585728.000000, -0.210000,  0.210000,  0.070000, 0.000000,  0.000000 
 258561600.000000, 0.847059 , 0.631705, 9.655040, 874606336.000000, -0.140000,  0.420000,  0.070000, 0.000000,  0.000000 
 258581888.000000, 0.820738 , 0.662812, 9.659825, 874625728.000000, -0.420000,  0.350000,  0.070000, 0.000000,  0.000000 
 258601600.000000, 0.796810 , 0.624527, 9.631111, 874646016.000000, -0.700000,  0.420000,  0.070000, 0.000000,  0.000000 
 258621568.000000, 0.818345 , 0.595813, 9.652647, 874665664.000000, -0.840000,  0.490000,  0.140000, 0.000000,  0.000000 
 258642304.000000, 0.837488 , 0.617348, 9.631111, 874685696.000000, -0.560000,  0.420000,  0.070000, 0.000000,  0.000000 
 258661568.000000, 0.815953 , 0.646062, 9.619147, 874706432.000000, -0.210000,  0.210000,  0.070000, 0.000000,  0.000000 
 258681856.000000, 0.842274 , 0.631705, 9.655040, 874725632.000000, -0.140000,  0.210000,  0.070000, 0.000000,  0.000000 
 258701504.000000, 0.844666 , 0.631705, 9.674182, 874745920.000000, -0.280000,  0.420000,  0.070000, 0.000000,  0.000000 
 258721536.000000, 0.823131 , 0.631705, 9.655040, 874765632.000000, -0.560000,  0.420000,  0.070000, 0.000000,  0.000000 
 258742080.000000, 0.820738 , 0.593420, 9.621540, 874785600.000000, -0.700000,  0.350000,  0.070000, 0.000000,  0.000000 
 258761536.000000, 0.801596 , 0.612563, 9.616754, 874806208.000000, -0.420000,  0.350000,  0.070000, 0.000000,  0.000000 
 258781760.000000, 0.844666 , 0.567099, 9.631111, 874825600.000000, -0.140000,  0.280000,  0.070000, 0.000000,  0.000000 
 258801472.000000, 0.820738 , 0.648455, 9.619147, 874845888.000000, -0.210000,  0.280000,  0.070000, 0.000000,  0.000000 
 258821440.000000, 0.856631 , 0.607777, 9.650253, 874865600.000000, -0.350000,  0.350000,  0.070000, 0.000000,  0.000000 
 258842048.000000, 0.837488 , 0.595813, 9.631111, 874885568.000000, -0.210000,  0.210000,  0.140000, 0.000000,  0.000000 
 258861440.000000, 0.849452 , 0.679562, 9.628718, 874906112.000000, 0.070000,  0.280000,  0.140000, 0.000000,  0.000000 
 258881728.000000, 0.825524 , 0.672383, 9.643075, 874925504.000000, 0.070000,  0.280000,  0.140000, 0.000000,  0.000000 
 258901440.000000, 0.839881 , 0.629312, 9.652647, 874945856.000000, -0.630000,  0.280000,  0.070000, 0.000000,  0.000000 
 258921408.000000, 0.772882 , 0.579063, 9.626326, 874965504.000000, -1.050000,  0.560000,  0.140000, 0.000000,  0.000000 
 258942016.000000, 0.799203 , 0.595813, 9.638289, 874985536.000000, -0.700000,  0.630000,  0.140000, 0.000000,  0.000000 
 258961408.000000, 0.847059 , 0.650848, 9.626326, 875006080.000000, -0.700000,  0.280000,  0.070000, 0.000000,  0.000000 
 258981696.000000, 0.839881 , 0.665205, 9.645468, 875025472.000000, 0.490000,  0.210000,  0.070000, 0.000000,  0.000000 
 259001344.000000, 0.823131 , 0.658026, 9.623933, 875065472.000000, 0.280000,  0.280000,  0.070000, 0.000000,  0.000000 
 259021376.000000, 0.851845 , 0.634098, 9.602397, 0.000000, 0.000000,  0.000000,  0.000000, 0.000000,  0.000000 
 259043904.000000, 0.818345 , 0.646062, 9.626326, 875085440.000000, 0.070000,  0.280000,  0.070000, 0.000000,  0.000000 
 259061312.000000, 0.801596 , 0.638884, 9.640682, 875107968.000000, 0.070000,  0.490000,  0.140000, 0.000000,  0.000000 
 259081600.000000, 0.789631 , 0.660419, 9.604790, 875125440.000000, 0.070000,  0.490000,  0.140000, 0.000000,  0.000000 
 259101312.000000, 0.851845 , 0.693919, 9.609575, 875145728.000000, -0.070000,  0.420000,  0.140000, 0.000000,  0.000000 
 259121280.000000, 0.825524 , 0.660419, 9.640682, 875165440.000000, -0.070000,  0.210000,  0.070000, 0.000000,  0.000000 
 259141888.000000, 0.794417 , 0.650848, 9.633504, 875185408.000000, -0.280000,  0.210000,  0.070000, 0.000000,  0.000000 
 259161280.000000, 0.782453 , 0.667598, 9.647861, 875205952.000000, -0.560000,  0.490000,  0.070000, 0.000000,  0.000000 
 259181568.000000, 0.811167 , 0.586242, 9.645468, 875225408.000000, -0.980000,  0.490000,  0.070000, 0.000000,  0.000000 
 259201280.000000, 0.844666 , 0.581456, 9.643075, 875245696.000000, -0.980000,  0.490000,  0.140000, 0.000000,  0.000000 
 259221248.000000, 0.842274 , 0.636491, 9.631111, 875265344.000000, -0.420000,  0.420000,  0.070000, 0.000000,  0.000000 
 259241856.000000, 0.851845 , 0.720240, 9.635897, 875285376.000000, -0.420000,  0.280000,  0.070000, 0.000000,  0.000000 
 259261248.000000, 0.842274 , 0.648455, 9.643075, 875305920.000000, -0.210000,  0.350000,  0.070000, 0.000000,  0.000000 
 259281536.000000, 0.823131 , 0.602991, 9.652647, 875325312.000000, -0.910000,  0.490000,  0.140000, 0.000000,  0.000000 
 259301184.000000, 0.811167 , 0.593420, 9.664611, 875345600.000000, -0.980000,  0.630000,  0.140000, 0.000000,  0.000000 
 259321216.000000, 0.844666 , 0.619741, 9.626326, 875365312.000000, -0.280000,  0.350000,  0.140000, 0.000000,  0.000000 
 259341760.000000, 0.827917 , 0.681954, 9.631111, 875385280.000000, 0.210000,  0.210000,  0.070000, 0.000000,  0.000000 
 259361152.000000, 0.830309 , 0.679562, 9.640682, 875405888.000000, 0.210000,  0.280000,  0.070000, 0.000000,  0.000000 
 259381440.000000, 0.832702 , 0.643669, 9.643075, 875425280.000000, -0.140000,  0.350000,  0.070000, 0.000000,  0.000000 
 259401152.000000, 0.801596 , 0.641276, 9.640682, 875445568.000000, -0.420000,  0.420000,  0.070000, 0.000000,  0.000000 
 259421120.000000, 0.818345 , 0.648455, 9.645468, 875465216.000000, -0.350000,  0.560000,  0.140000, 0.000000,  0.000000 
 259441728.000000, 0.868595 , 0.614955, 9.643075, 875485248.000000, -0.280000,  0.490000,  0.140000, 876145280.000000,  1010.449768 
 259461120.000000, 0.856631 , 0.650848, 9.655040, 875505792.000000, -0.280000,  0.350000,  0.140000, 0.000000,  0.000000 
 259481408.000000, 0.806381 , 0.641276, 9.621540, 875525184.000000, -0.560000,  0.350000,  0.070000, 0.000000,  0.000000 
 259501056.000000, 0.803988 , 0.624527, 9.619147, 875545536.000000, -0.700000,  0.350000,  0.070000, 0.000000,  0.000000 
 259521088.000000, 0.825524 , 0.648455, 9.631111, 875565184.000000, -0.560000,  0.280000,  0.070000, 0.000000,  0.000000 
 259541632.000000, 0.801596 , 0.665205, 9.652647, 875585152.000000, -0.280000,  0.350000,  0.070000, 0.000000,  0.000000 
 259561024.000000, 0.837488 , 0.686740, 9.609575, 875605760.000000, -0.210000,  0.350000,  0.070000, 0.000000,  0.000000 
 259581376.000000, 0.818345 , 0.614955, 9.633504, 875625152.000000, -0.630000,  0.420000,  0.070000, 0.000000,  0.000000 
 259601024.000000, 0.832702 , 0.619741, 9.623933, 875645440.000000, -1.190000,  0.490000,  0.070000, 0.000000,  0.000000 
 259620992.000000, 0.837488 , 0.591027, 9.650253, 875665152.000000, -1.400000,  0.490000,  0.070000, 0.000000,  0.000000 
 259641600.000000, 0.851845 , 0.583849, 9.623933, 875685120.000000, -1.330000,  0.420000,  -0.070000, 0.000000,  0.000000 
 259660992.000000, 0.835095 , 0.626920, 9.619147, 875705728.000000, -1.190000,  0.350000,  -0.070000, 0.000000,  0.000000 
 259681280.000000, 0.789631 , 0.607777, 9.635897, 875725120.000000, -1.120000,  0.420000,  -0.070000, 0.000000,  0.000000 
 259700992.000000, 0.777667 , 0.605384, 9.616754, 875745408.000000, -1.050000,  0.420000,  -0.070000, 0.000000,  0.000000 
 259720960.000000, 0.856631 , 0.591027, 9.619147, 875765056.000000, -1.050000,  0.350000,  -0.070000, 0.000000,  0.000000 
 259741568.000000, 0.827917 , 0.555135, 9.652647, 875785088.000000, -0.770000,  0.280000,  0.070000, 0.000000,  0.000000 
 259760960.000000, 0.801596 , 0.571885, 9.611969, 875805632.000000, -0.210000,  0.350000,  0.070000, 0.000000,  0.000000 
 259781248.000000, 0.842274 , 0.612563, 9.638289, 875825088.000000, 0.490000,  0.350000,  0.140000, 0.000000,  0.000000 
 259800896.000000, 0.825524 , 0.689133, 9.638289, 875845376.000000, 0.910000,  0.070000,  0.070000, 0.000000,  0.000000 
 259820928.000000, 0.832702 , 0.691526, 9.626326, 875865024.000000, 0.700000,  0.210000,  0.070000, 0.000000,  0.000000 
 259841472.000000, 0.832702 , 0.614955, 9.655040, 875884992.000000, 0.070000,  0.280000,  0.070000, 0.000000,  0.000000 
 259860864.000000, 0.820738 , 0.605384, 9.645468, 875905600.000000, -0.490000,  0.420000,  0.140000, 0.000000,  0.000000 
 259881216.000000, 0.830309 , 0.619741, 9.662218, 875924992.000000, -0.560000,  0.420000,  0.140000, 0.000000,  0.000000 
 259900864.000000, 0.818345 , 0.622134, 9.655040, 875945280.000000, -0.210000,  0.280000,  0.070000, 0.000000,  0.000000 
 259920832.000000, 0.847059 , 0.672383, 9.631111, 875964992.000000, 0.280000,  0.140000,  0.070000, 0.000000,  0.000000 
 259941440.000000, 0.849452 , 0.708275, 9.669396, 875984960.000000, 0.350000,  0.280000,  0.070000, 0.000000,  0.000000 
 259960832.000000, 0.837488 , 0.626920, 9.657433, 876005568.000000, -0.140000,  0.420000,  0.070000, 0.000000,  0.000000 
 259981120.000000, 0.820738 , 0.583849, 9.631111, 876024960.000000, -0.700000,  0.490000,  0.140000, 0.000000,  0.000000 
 260000832.000000, 0.825524 , 0.614955, 9.628718, 876045248.000000, -0.840000,  0.350000,  0.070000, 0.000000,  0.000000 
 260020800.000000, 0.787239 , 0.581456, 9.650253, 876064896.000000, -0.560000,  0.350000,  0.070000, 0.000000,  0.000000 
 260043328.000000, 0.813560 , 0.638884, 9.650253, 876084928.000000, -0.140000,  0.350000,  0.070000, 0.000000,  0.000000 
 260060800.000000, 0.799203 , 0.646062, 9.643075, 876107456.000000, 0.350000,  0.210000,  0.070000, 0.000000,  0.000000 
 260081088.000000, 0.799203 , 0.650848, 9.631111, 876124864.000000, 0.280000,  0.210000,  0.070000, 0.000000,  0.000000 
 260100736.000000, 0.796810 , 0.641276, 9.623933, 876145152.000000, -0.070000,  0.350000,  0.070000, 0.000000,  0.000000 
 260120768.000000, 0.825524 , 0.617348, 9.607183, 876164864.000000, -0.420000,  0.420000,  0.140000, 0.000000,  0.000000 
 260141312.000000, 0.806381 , 0.591027, 9.662218, 876184832.000000, -0.560000,  0.280000,  0.140000, 0.000000,  0.000000 
 260160704.000000, 0.830309 , 0.629312, 9.621540, 876205440.000000, -0.350000,  0.350000,  0.140000, 0.000000,  0.000000 
 260180992.000000, 0.878166 , 0.677169, 9.671788, 876224832.000000, 0.140000,  0.210000,  0.070000, 0.000000,  0.000000 
 260200704.000000, 0.839881 , 0.677169, 9.635897, 876245120.000000, 0.140000,  0.140000,  0.070000, 0.000000,  0.000000 
 260220672.000000, 0.827917 , 0.638884, 9.626326, 876264768.000000, -0.280000,  0.280000,  0.070000, 0.000000,  0.000000 
 260241280.000000, 0.849452 , 0.600598, 9.631111, 876284800.000000, -1.050000,  0.420000,  0.070000, 0.000000,  0.000000 
 260260672.000000, 0.832702 , 0.638884, 9.643075, 876305408.000000, -1.260000,  0.490000,  0.070000, 0.000000,  0.000000 
 260280960.000000, 0.813560 , 0.629312, 9.659825, 876324736.000000, -1.050000,  0.350000,  0.070000, 0.000000,  0.000000 
 260300672.000000, 0.815953 , 0.665205, 9.659825, 876345088.000000, -0.770000,  0.280000,  -0.070000, 0.000000,  0.000000 
 260320640.000000, 0.832702 , 0.662812, 9.600004, 876364736.000000, -0.560000,  0.350000,  -0.070000, 0.000000,  0.000000 
 260341248.000000, 0.820738 , 0.667598, 9.635897, 876384704.000000, -0.630000,  0.420000,  -0.070000, 0.000000,  0.000000 
 260360576.000000, 0.801596 , 0.588634, 9.635897, 876405312.000000, -0.770000,  0.420000,  -0.070000, 0.000000,  0.000000 
 260380928.000000, 0.806381 , 0.581456, 9.650253, 876424704.000000, -0.770000,  0.350000,  0.070000, 0.000000,  0.000000 
 260400576.000000, 0.863809 , 0.593420, 9.633504, 876444992.000000, -0.560000,  0.420000,  0.140000, 0.000000,  0.000000 
 260420608.000000, 0.835095 , 0.619741, 9.619147, 876464704.000000, -0.070000,  0.420000,  0.070000, 0.000000,  0.000000 
 260441152.000000, 0.868595 , 0.710668, 9.614362, 876484672.000000, 0.420000,  0.210000,  0.070000, 877144768.000000,  1010.449036 
 260460544.000000, 0.818345 , 0.669990, 9.640682, 876505280.000000, 0.350000,  0.210000,  0.140000, 0.000000,  0.000000 
 260480832.000000, 0.806381 , 0.634098, 9.580862, 876524672.000000, 0.070000,  0.350000,  0.140000, 0.000000,  0.000000 
 260500544.000000, 0.813560 , 0.626920, 9.655040, 876544960.000000, -0.210000,  0.490000,  0.140000, 0.000000,  0.000000 
 260520512.000000, 0.847059 , 0.576670, 9.602397, 876564608.000000, -0.350000,  0.350000,  0.140000, 0.000000,  0.000000 
 260541120.000000, 0.859023 , 0.605384, 9.607183, 876584640.000000, -0.280000,  0.140000,  0.140000, 0.000000,  0.000000 
 260560512.000000, 0.854238 , 0.588634, 9.602397, 876605184.000000, -0.280000,  0.210000,  0.070000, 0.000000,  0.000000 
 260580800.000000, 0.818345 , 0.660419, 9.623933, 876624576.000000, 0.210000,  0.350000,  0.070000, 0.000000,  0.000000 
 260600448.000000, 0.815953 , 0.672383, 9.590433, 876644928.000000, 0.140000,  0.210000,  0.070000, 0.000000,  0.000000 
 260620480.000000, 0.830309 , 0.626920, 9.650253, 876664576.000000, -0.280000,  0.280000,  0.070000, 0.000000,  0.000000 
 260641024.000000, 0.815953 , 0.622134, 9.619147, 876684544.000000, -0.770000,  0.420000,  0.070000, 0.000000,  0.000000 
 260660416.000000, 0.870987 , 0.610170, 9.645468, 876705152.000000, -0.980000,  0.490000,  0.070000, 0.000000,  0.000000 
 260680768.000000, 0.820738 , 0.591027, 9.638289, 876724544.000000, -0.770000,  0.490000,  0.140000, 0.000000,  0.000000 
 260700416.000000, 0.870987 , 0.636491, 9.657433, 876744832.000000, -0.840000,  0.560000,  0.140000, 0.000000,  0.000000 
 260720448.000000, 0.799203 , 0.646062, 9.633504, 876764544.000000, -0.770000,  0.420000,  0.210000, 0.000000,  0.000000 
 260740992.000000, 0.823131 , 0.607777, 9.662218, 876784512.000000, -0.980000,  0.630000,  0.140000, 0.000000,  0.000000 
 260760448.000000, 0.801596 , 0.583849, 9.643075, 876805120.000000, -0.840000,  0.560000,  0.210000, 0.000000,  0.000000 
 260780672.000000, 0.842274 , 0.646062, 9.650253, 876824512.000000, -0.560000,  0.420000,  0.070000, 0.000000,  0.000000 
 260800384.000000, 0.792024 , 0.624527, 9.626326, 876844800.000000, -0.140000,  0.210000,  0.070000, 0.000000,  0.000000 
 260820352.000000, 0.796810 , 0.600598, 9.664611, 876864448.000000, -0.210000,  0.420000,  0.070000, 0.000000,  0.000000 
 260840960.000000, 0.780060 , 0.593420, 9.631111, 876884480.000000, -0.490000,  0.420000,  0.070000, 0.000000,  0.000000 
 260860352.000000, 0.854238 , 0.614955, 9.635897, 876905024.000000, -0.560000,  0.420000,  0.070000, 0.000000,  0.000000 
 260880640.000000, 0.825524 , 0.636491, 9.655040, 876924416.000000, -0.280000,  0.350000,  0.070000, 0.000000,  0.000000 
 260900352.000000, 0.808774 , 0.612563, 9.664611, 876944768.000000, -0.280000,  0.280000,  -0.070000, 0.000000,  0.000000 
 260920320.000000, 0.835095 , 0.631705, 9.657433, 876964416.000000, -0.280000,  0.420000,  0.070000, 0.000000,  0.000000 
 260940864.000000, 0.830309 , 0.631705, 9.662218, 876984384.000000, -0.350000,  0.280000,  0.070000, 0.000000,  0.000000 
 260960320.000000, 0.787239 , 0.600598, 9.657433, 877004992.000000, -0.210000,  0.350000,  0.070000, 0.000000,  0.000000 
 260980608.000000, 0.832702 , 0.610170, 9.640682, 877024384.000000, -0.140000,  0.350000,  0.070000, 0.000000,  0.000000 
 261000256.000000, 0.815953 , 0.598206, 9.640682, 877044672.000000, -0.280000,  0.350000,  0.070000, 0.000000,  0.000000 
 261020288.000000, 0.878166 , 0.595813, 9.669396, 877064384.000000, -0.280000,  0.350000,  0.070000, 0.000000,  0.000000 
 261042816.000000, 0.837488 , 0.629312, 9.628718, 877084352.000000, -0.210000,  0.350000,  0.070000, 0.000000,  0.000000 
 261060224.000000, 0.825524 , 0.614955, 9.623933, 877106880.000000, -0.210000,  0.280000,  0.070000, 0.000000,  0.000000 
 261080512.000000, 0.839881 , 0.634098, 9.626326, 877124352.000000, -0.210000,  0.280000,  0.070000, 0.000000,  0.000000 
 261100224.000000, 0.823131 , 0.593420, 9.633504, 877144640.000000, -0.140000,  0.350000,  0.070000, 0.000000,  0.000000 
 261120192.000000, 0.827917 , 0.634098, 9.633504, 877164288.000000, -0.350000,  0.420000,  0.070000, 0.000000,  0.000000 
 261140800.000000, 0.835095 , 0.595813, 9.650253, 877184320.000000, -0.490000,  0.350000,  0.070000, 0.000000,  0.000000 
 261160192.000000, 0.866202 , 0.641276, 9.640682, 877204864.000000, -0.350000,  0.350000,  0.070000, 0.000000,  0.000000 
 261180480.000000, 0.844666 , 0.653241, 9.638289, 877224256.000000, -0.210000,  0.350000,  0.070000, 0.000000,  0.000000 
 261200128.000000, 0.844666 , 0.641276, 9.633504, 877244544.000000, -0.140000,  0.350000,  0.070000, 0.000000,  0.000000 
 261220160.000000, 0.806381 , 0.619741, 9.640682, 877264256.000000, -0.350000,  0.280000,  0.070000, 0.000000,  0.000000 
 261240704.000000, 0.847059 , 0.571885, 9.619147, 877284224.000000, -0.490000,  0.350000,  0.140000, 0.000000,  0.000000 
 261260096.000000, 0.823131 , 0.650848, 9.640682, 877304832.000000, -0.280000,  0.350000,  0.140000, 0.000000,  0.000000 
 261280448.000000, 0.811167 , 0.705883, 9.621540, 877324224.000000, 0.140000,  0.280000,  0.140000, 0.000000,  0.000000 
 261300096.000000, 0.835095 , 0.650848, 9.640682, 877364224.000000, -0.350000,  0.350000,  0.070000, 0.000000,  0.000000 
 261320064.000000, 0.830309 , 0.581456, 9.640682, 0.000000, 0.000000,  0.000000,  0.000000, 0.000000,  0.000000 
 261340672.000000, 0.811167 , 0.614955, 9.650253, 877384192.000000, -0.630000,  0.490000,  0.070000, 0.000000,  0.000000 
 261360064.000000, 0.839881 , 0.602991, 9.635897, 877404800.000000, -0.840000,  0.350000,  0.070000, 0.000000,  0.000000 
 261380352.000000, 0.811167 , 0.586242, 9.650253, 877424192.000000, -0.700000,  0.280000,  0.070000, 0.000000,  0.000000 
 261400064.000000, 0.784846 , 0.648455, 9.628718, 877444480.000000, -0.560000,  0.280000,  0.070000, 0.000000,  0.000000 
 261420032.000000, 0.789631 , 0.622134, 9.659825, 877464128.000000, -0.280000,  0.350000,  0.070000, 0.000000,  0.000000 
 261440640.000000, 0.842274 , 0.648455, 9.635897, 877484160.000000, -0.070000,  0.280000,  0.070000, 878144192.000000,  1010.450623 
 261460032.000000, 0.837488 , 0.660419, 9.662218, 877504704.000000, -0.070000,  0.280000,  0.070000, 0.000000,  0.000000 
 261480320.000000, 0.801596 , 0.643669, 9.690931, 877524096.000000, -0.210000,  0.210000,  0.070000, 0.000000,  0.000000 
 261499968.000000, 0.801596 , 0.631705, 9.678967, 877544448.000000, -0.420000,  0.280000,  0.070000, 0.000000,  0.000000 
 261520000.000000, 0.844666 , 0.576670, 9.633504, 877564096.000000, -0.490000,  0.420000,  0.070000, 0.000000,  0.000000 
 261540544.000000, 0.861416 , 0.569492, 9.590433, 877584064.000000, -0.420000,  0.490000,  0.140000, 0.000000,  0.000000 
 261559936.000000, 0.820738 , 0.634098, 9.609575, 877604672.000000, -0.140000,  0.350000,  0.070000, 0.000000,  0.000000 
 261580288.000000, 0.827917 , 0.622134, 9.643075, 877624064.000000, -0.140000,  0.210000,  0.070000, 0.000000,  0.000000 
 261599936.000000, 0.770489 , 0.634098, 9.659825, 877644352.000000, 0.210000,  0.210000,  0.070000, 0.000000,  0.000000 
 261619904.000000, 0.880559 , 0.686740, 9.657433, 877664000.000000, 0.210000,  0.350000,  0.070000, 0.000000,  0.000000 
 261640512.000000, 0.806381 , 0.638884, 9.659825, 877684032.000000, -0.490000,  0.350000,  0.070000, 0.000000,  0.000000 
 261659904.000000, 0.796810 , 0.600598, 9.671788, 877704576.000000, -0.910000,  0.420000,  0.070000, 0.000000,  0.000000 
 261680192.000000, 0.847059 , 0.607777, 9.657433, 877723968.000000, -0.980000,  0.490000,  0.070000, 0.000000,  0.000000 
 261699840.000000, 0.844666 , 0.617348, 9.640682, 877744320.000000, -0.560000,  0.280000,  0.070000, 0.000000,  0.000000 
 261719872.000000, 0.909273 , 0.631705, 9.611969, 877763968.000000, 0.070000,  0.140000,  0.070000, 0.000000,  0.000000 
 261740416.000000, 0.837488 , 0.681954, 9.604790, 877783936.000000, 0.350000,  0.140000,  0.070000, 0.000000,  0.000000 
 261759872.000000, 0.825524 , 0.691526, 9.580862, 877804544.000000, 0.350000,  0.350000,  0.070000, 0.000000,  0.000000 
 261780160.000000, 0.870987 , 0.598206, 9.628718, 877824000.000000, -0.700000,  0.490000,  0.070000, 0.000000,  0.000000 
 261799808.000000, 0.811167 , 0.576670, 9.640682, 877844224.000000, -1.050000,  0.560000,  0.140000, 0.000000,  0.000000 
 261819840.000000, 0.823131 , 0.564706, 9.633504, 877863936.000000, -0.910000,  0.420000,  0.070000, 0.000000,  0.000000 
 261840384.000000, 0.882952 , 0.605384, 9.655040, 877883904.000000, -0.350000,  0.280000,  0.070000, 0.000000,  0.000000 
 261859776.000000, 0.827917 , 0.662812, 9.628718, 877904512.000000, 0.280000,  0.210000,  0.070000, 0.000000,  0.000000 
 261880064.000000, 0.792024 , 0.681954, 9.669396, 877923904.000000, 0.420000,  0.350000,  0.070000, 0.000000,  0.000000 
 261899776.000000, 0.827917 , 0.684347, 9.640682, 877944192.000000, 0.140000,  0.420000,  0.140000, 0.000000,  0.000000 
 261919744.000000, 0.851845 , 0.607777, 9.638289, 877963840.000000, -0.280000,  0.350000,  0.070000, 0.000000,  0.000000 
 261940352.000000, 0.820738 , 0.588634, 9.626326, 877983872.000000, -0.560000,  0.350000,  0.070000, 0.000000,  0.000000 
 261959744.000000, 0.839881 , 0.598206, 9.607183, 878004416.000000, -0.700000,  0.350000,  0.070000, 0.000000,  0.000000 
 261980032.000000, 0.830309 , 0.586242, 9.638289, 878023808.000000, -0.560000,  0.280000,  0.070000, 0.000000,  0.000000 
 262000000.000000, 0.842274 , 0.591027, 9.664611, 878044160.000000, -0.560000,  0.350000,  0.070000, 0.000000,  0.000000 
 262019712.000000, 0.835095 , 0.619741, 9.623933, 878064128.000000, -0.420000,  0.420000,  0.140000, 0.000000,  0.000000 
 262042240.000000, 0.820738 , 0.631705, 9.657433, 878083776.000000, -0.210000,  0.420000,  0.070000, 0.000000,  0.000000 
 262059648.000000, 0.808774 , 0.614955, 9.628718, 878106368.000000, -0.210000,  0.280000,  0.070000, 0.000000,  0.000000 
 262080000.000000, 0.842274 , 0.701097, 9.631111, 878123776.000000, -0.070000,  0.280000,  0.070000, 0.000000,  0.000000 
 262099648.000000, 0.827917 , 0.626920, 9.655040, 878144064.000000, -0.140000,  0.210000,  0.070000, 0.000000,  0.000000 
 262119616.000000, 0.839881 , 0.614955, 9.647861, 878163776.000000, -0.490000,  0.420000,  0.070000, 0.000000,  0.000000 
 262140224.000000, 0.832702 , 0.617348, 9.652647, 878183744.000000, -0.630000,  0.420000,  0.070000, 0.000000,  0.000000 
 262159616.000000, 0.851845 , 0.605384, 9.585647, 878204352.000000, -0.560000,  0.350000,  0.070000, 0.000000,  0.000000 
 262179904.000000, 0.832702 , 0.634098, 9.619147, 878223744.000000, -0.420000,  0.280000,  0.140000, 0.000000,  0.000000 
 262199616.000000, 0.818345 , 0.622134, 9.647861, 878244032.000000, -0.140000,  0.140000,  0.070000, 0.000000,  0.000000 
 262219584.000000, 0.803988 , 0.710668, 9.655040, 878263680.000000, -0.140000,  0.350000,  -0.070000, 0.000000,  0.000000 
 262240192.000000, 0.808774 , 0.626920, 9.628718, 878283712.000000, -0.420000,  0.280000,  -0.070000, 0.000000,  0.000000 
 262259584.000000, 0.794417 , 0.564706, 9.626326, 878304256.000000, -0.840000,  0.350000,  -0.070000, 0.000000,  0.000000 
 262279872.000000, 0.827917 , 0.550349, 9.640682, 878323648.000000, -0.840000,  0.420000,  0.140000, 0.000000,  0.000000 
 262299520.000000, 0.868595 , 0.610170, 9.638289, 878344000.000000, -0.350000,  0.420000,  0.070000, 0.000000,  0.000000 
 262319552.000000, 0.842274 , 0.693919, 9.633504, 878363648.000000, 0.210000,  0.140000,  0.070000, 0.000000,  0.000000 
 262340096.000000, 0.839881 , 0.672383, 9.635897, 878383616.000000, 0.350000,  0.210000,  0.070000, 0.000000,  0.000000 
 262359488.000000, 0.847059 , 0.684347, 9.650253, 878404224.000000, 0.140000,  0.280000,  0.070000, 0.000000,  0.000000 
 262379840.000000, 0.844666 , 0.614955, 9.602397, 878423616.000000, -0.140000,  0.350000,  0.070000, 0.000000,  0.000000 
 262399488.000000, 0.830309 , 0.619741, 9.640682, 878443904.000000, -0.280000,  0.420000,  0.140000, 0.000000,  0.000000 
 262419456.000000, 0.815953 , 0.665205, 9.662218, 878463616.000000, -0.350000,  0.420000,  0.140000, 0.000000,  0.000000 
 262440064.000000, 0.820738 , 0.622134, 9.635897, 878483584.000000, -0.280000,  0.420000,  0.070000, 879143680.000000,  1010.451782 
 262459456.000000, 0.772882 , 0.646062, 9.628718, 878504192.000000, -0.210000,  0.280000,  0.070000, 0.000000,  0.000000 
 262479744.000000, 0.839881 , 0.612563, 9.619147, 878523584.000000, -0.140000,  0.280000,  0.070000, 0.000000,  0.000000 
 262499456.000000, 0.851845 , 0.619741, 9.667004, 878543872.000000, -0.210000,  0.420000,  0.070000, 0.000000,  0.000000 
 262519424.000000, 0.851845 , 0.614955, 9.643075, 878563520.000000, -0.420000,  0.350000,  0.140000, 0.000000,  0.000000 
 262540032.000000, 0.782453 , 0.653241, 9.664611, 878583552.000000, -0.490000,  0.420000,  0.070000, 0.000000,  0.000000 
 262559424.000000, 0.830309 , 0.610170, 9.619147, 878604096.000000, -0.420000,  0.350000,  0.070000, 0.000000,  0.000000 
 262579840.000000, 0.837488 , 0.696311, 9.650253, 878623488.000000, -0.140000,  0.280000,  0.070000, 0.000000,  0.000000 
 262599360.000000, 0.815953 , 0.638884, 9.619147, 878643904.000000, -0.210000,  0.350000,  0.070000, 0.000000,  0.000000 
 262619392.000000, 0.842274 , 0.674776, 9.667004, 878663488.000000, -0.420000,  0.420000,  0.070000, 0.000000,  0.000000 
 262640128.000000, 0.803988 , 0.660419, 9.638289, 878683456.000000, -0.700000,  0.350000,  0.070000, 0.000000,  0.000000 
 262659328.000000, 0.827917 , 0.598206, 9.645468, 878704192.000000, -0.910000,  0.490000,  0.070000, 0.000000,  0.000000 
 262679616.000000, 0.801596 , 0.638884, 9.643075, 878723456.000000, -0.840000,  0.420000,  0.070000, 0.000000,  0.000000 
 262699328.000000, 0.832702 , 0.655633, 9.662218, 878743744.000000, -0.490000,  0.280000,  -0.070000, 0.000000,  0.000000 
 262719296.000000, 0.806381 , 0.600598, 9.609575, 878763456.000000, -0.350000,  0.280000,  -0.070000, 0.000000,  0.000000 
 262739904.000000, 0.820738 , 0.648455, 9.585647, 878783424.000000, -0.420000,  0.490000,  0.070000, 0.000000,  0.000000 
 262759360.000000, 0.830309 , 0.612563, 9.643075, 878804032.000000, -0.420000,  0.490000,  0.070000, 0.000000,  0.000000 
 262779584.000000, 0.787239 , 0.605384, 9.633504, 878823424.000000, -0.420000,  0.350000,  0.070000, 0.000000,  0.000000 
 262799296.000000, 0.849452 , 0.600598, 9.664611, 878843712.000000, -0.420000,  0.350000,  0.070000, 0.000000,  0.000000 
 262819264.000000, 0.818345 , 0.619741, 9.631111, 878863360.000000, -0.350000,  0.350000,  0.070000, 0.000000,  0.000000 
 262839872.000000, 0.854238 , 0.629312, 9.664611, 878883392.000000, -0.280000,  0.350000,  0.070000, 0.000000,  0.000000 
 262859264.000000, 0.849452 , 0.617348, 9.645468, 878903936.000000, -0.280000,  0.280000,  0.070000, 0.000000,  0.000000 
 262879552.000000, 0.789631 , 0.631705, 9.647861, 878923328.000000, -0.280000,  0.280000,  0.140000, 0.000000,  0.000000 
 262899200.000000, 0.777667 , 0.691526, 9.633504, 878943616.000000, -0.140000,  0.350000,  0.070000, 0.000000,  0.000000 
 262919232.000000, 0.815953 , 0.674776, 9.633504, 878963328.000000, -0.280000,  0.420000,  0.070000, 0.000000,  0.000000 
 262939776.000000, 0.825524 , 0.581456, 9.628718, 878983296.000000, -0.700000,  0.350000,  0.070000, 0.000000,  0.000000 
 262959168.000000, 0.820738 , 0.528814, 9.638289, 879003904.000000, -1.190000,  0.490000,  0.070000, 0.000000,  0.000000 
 262979456.000000, 0.799203 , 0.624527, 9.667004, 879023296.000000, -0.910000,  0.490000,  0.140000, 0.000000,  0.000000 
 262999168.000000, 0.868595 , 0.614955, 9.635897, 879043584.000000, -0.070000,  0.210000,  0.070000, 0.000000,  0.000000 
 263019136.000000, 0.866202 , 0.720240, 9.573684, 879063296.000000, 0.700000,  -0.070000,  -0.070000, 0.000000,  0.000000 
 263041664.000000, 0.839881 , 0.660419, 9.638289, 879083264.000000, 0.350000,  0.070000,  -0.070000, 0.000000,  0.000000 
 263059136.000000, 0.835095 , 0.634098, 9.676575, 879105792.000000, -0.490000,  0.420000,  0.140000, 0.000000,  0.000000 
 263079424.000000, 0.823131 , 0.634098, 9.628718, 879123200.000000, -1.190000,  0.560000,  0.070000, 0.000000,  0.000000 
 263099072.000000, 0.861416 , 0.564706, 9.643075, 879143552.000000, -1.190000,  0.490000,  0.070000, 0.000000,  0.000000 
 263119104.000000, 0.796810 , 0.571885, 9.633504, 879183168.000000, -0.280000,  0.070000,  0.070000, 0.000000,  0.000000 
 263139648.000000, 0.811167 , 0.595813, 9.635897, 0.000000, 0.000000,  0.000000,  0.000000, 0.000000,  0.000000 
 263159040.000000, 0.823131 , 0.677169, 9.678967, 879203776.000000, -0.280000,  0.210000,  0.070000, 0.000000,  0.000000 
 263179392.000000, 0.837488 , 0.650848, 9.647861, 879223168.000000, -0.280000,  0.140000,  0.070000, 0.000000,  0.000000 
 263199040.000000, 0.832702 , 0.619741, 9.655040, 879243456.000000, -0.350000,  0.210000,  0.070000, 0.000000,  0.000000 
 263219008.000000, 0.801596 , 0.665205, 9.643075, 879263168.000000, -0.490000,  0.350000,  0.070000, 0.000000,  0.000000 
 263239616.000000, 0.803988 , 0.626920, 9.614362, 879283136.000000, -0.560000,  0.350000,  0.070000, 0.000000,  0.000000 
 263259008.000000, 0.803988 , 0.638884, 9.592826, 879303744.000000, -0.560000,  0.420000,  0.070000, 0.000000,  0.000000 
 263279296.000000, 0.842274 , 0.626920, 9.635897, 879323136.000000, -0.700000,  0.420000,  0.070000, 0.000000,  0.000000 
 263299008.000000, 0.782453 , 0.600598, 9.631111, 879343424.000000, -0.770000,  0.420000,  0.070000, 0.000000,  0.000000 
 263318976.000000, 0.811167 , 0.605384, 9.647861, 879363072.000000, -0.630000,  0.420000,  0.070000, 0.000000,  0.000000 
 263339584.000000, 0.799203 , 0.648455, 9.657433, 879383104.000000, -0.490000,  0.560000,  0.070000, 0.000000,  0.000000 
 263358976.000000, 0.825524 , 0.631705, 9.611969, 879403648.000000, -0.420000,  0.700000,  0.140000, 0.000000,  0.000000 
 263379264.000000, 0.863809 , 0.602991, 9.640682, 879423040.000000, -0.770000,  0.490000,  0.140000, 0.000000,  0.000000 
 263398912.000000, 0.830309 , 0.569492, 9.611969, 879443392.000000, -0.910000,  0.490000,  0.210000, 0.000000,  0.000000 
 263418944.000000, 0.837488 , 0.610170, 9.643075, 879483008.000000, -0.070000,  0.490000,  0.140000, 880143104.000000,  1010.452698 
 263439488.000000, 0.835095 , 0.653241, 9.678967, 0.000000, 0.000000,  0.000000,  0.000000, 0.000000,  0.000000 
 263458880.000000, 0.772882 , 0.646062, 9.640682, 879503616.000000, -0.350000,  0.350000,  0.140000, 0.000000,  0.000000 
 263479232.000000, 0.815953 , 0.559920, 9.602397, 879523008.000000, -0.560000,  0.560000,  0.140000, 0.000000,  0.000000 
 263498880.000000, 0.818345 , 0.622134, 9.597611, 879543296.000000, -0.420000,  0.140000,  0.140000, 0.000000,  0.000000 
 263518848.000000, 0.899701 , 0.619741, 9.647861, 879563008.000000, -0.420000,  0.070000,  -0.070000, 0.000000,  0.000000 
 263539456.000000, 0.808774 , 0.612563, 9.607183, 879582976.000000, -0.420000,  0.210000,  0.070000, 0.000000,  0.000000 
 263558848.000000, 0.818345 , 0.643669, 9.640682, 879603584.000000, -0.490000,  0.490000,  -0.070000, 0.000000,  0.000000 
 263579136.000000, 0.861416 , 0.591027, 9.623933, 879622976.000000, -0.490000,  0.350000,  0.140000, 0.000000,  0.000000 
 263598848.000000, 0.835095 , 0.598206, 9.659825, 879643264.000000, -0.560000,  0.280000,  0.140000, 0.000000,  0.000000 
 263618816.000000, 0.818345 , 0.643669, 9.678967, 879662912.000000, -0.630000,  0.420000,  0.140000, 0.000000,  0.000000 
 263639424.000000, 0.784846 , 0.593420, 9.633504, 879682944.000000, -0.490000,  0.350000,  0.070000, 0.000000,  0.000000 
 263658816.000000, 0.827917 , 0.617348, 9.688539, 879703488.000000, -0.350000,  0.210000,  0.070000, 0.000000,  0.000000 
 263679104.000000, 0.787239 , 0.612563, 9.655040, 879722880.000000, -0.210000,  0.280000,  0.070000, 0.000000,  0.000000 
 263698752.000000, 0.815953 , 0.574277, 9.676575, 879743232.000000, -0.350000,  0.420000,  0.070000, 0.000000,  0.000000 
 263718784.000000, 0.806381 , 0.619741, 9.650253, 879762880.000000, -0.350000,  0.490000,  0.140000, 0.000000,  0.000000 
 263739328.000000, 0.847059 , 0.638884, 9.623933, 879782848.000000, -0.140000,  0.350000,  0.070000, 0.000000,  0.000000 
 263758784.000000, 0.861416 , 0.636491, 9.650253, 879803456.000000, -0.210000,  0.210000,  0.070000, 0.000000,  0.000000 
 263779072.000000, 0.806381 , 0.605384, 9.647861, 879822912.000000, -0.350000,  0.280000,  0.070000, 0.000000,  0.000000 
 263798720.000000, 0.803988 , 0.598206, 9.633504, 879843136.000000, -0.420000,  0.490000,  0.070000, 0.000000,  0.000000 
 263818688.000000, 0.801596 , 0.624527, 9.657433, 879862848.000000, -0.350000,  0.350000,  0.140000, 0.000000,  0.000000 
 263839296.000000, 0.868595 , 0.646062, 9.611969, 879882816.000000, -0.210000,  0.210000,  -0.070000, 0.000000,  0.000000 
 263858688.000000, 0.914058 , 0.617348, 9.631111, 879903424.000000, -0.280000,  0.140000,  -0.070000, 0.000000,  0.000000 
 263878976.000000, 0.808774 , 0.619741, 9.652647, 879922816.000000, -0.350000,  0.280000,  -0.070000, 0.000000,  0.000000 
 263898688.000000, 0.799203 , 0.595813, 9.638289, 879943104.000000, -0.490000,  0.350000,  -0.070000, 0.000000,  0.000000 
 263918656.000000, 0.799203 , 0.552742, 9.664611, 879962752.000000, -0.420000,  0.350000,  -0.070000, 0.000000,  0.000000 
 263939264.000000, 0.818345 , 0.583849, 9.611969, 879982784.000000, -0.350000,  0.210000,  -0.070000, 0.000000,  0.000000 
 263958656.000000, 0.837488 , 0.660419, 9.611969, 880003328.000000, -0.350000,  0.140000,  -0.070000, 0.000000,  0.000000 
 263978944.000000, 0.837488 , 0.605384, 9.638289, 880022720.000000, 0.140000,  0.140000,  -0.070000, 0.000000,  0.000000 
 263998592.000000, 0.801596 , 0.610170, 9.659825, 880043008.000000, 0.070000,  0.280000,  -0.070000, 0.000000,  0.000000 
 264018624.000000, 0.832702 , 0.619741, 9.645468, 880062720.000000, -0.350000,  0.350000,  0.070000, 0.000000,  0.000000 
 264041152.000000, 0.847059 , 0.576670, 9.674182, 880082688.000000, -0.490000,  0.350000,  0.070000, 0.000000,  0.000000 
 264058560.000000, 0.823131 , 0.581456, 9.633504, 880105216.000000, -0.420000,  0.210000,  0.070000, 0.000000,  0.000000 
 264078848.000000, 0.847059 , 0.629312, 9.635897, 880122688.000000, -0.070000,  0.350000,  0.070000, 0.000000,  0.000000 
 264098560.000000, 0.825524 , 0.634098, 9.616754, 880142976.000000, 0.070000,  0.420000,  0.070000, 0.000000,  0.000000 
 264118528.000000, 0.827917 , 0.622134, 9.626326, 880162688.000000, -0.070000,  0.350000,  0.070000, 0.000000,  0.000000 
 264139136.000000, 0.775275 , 0.571885, 9.655040, 880182656.000000, -0.210000,  0.420000,  0.070000, 0.000000,  0.000000 
 264158528.000000, 0.849452 , 0.605384, 9.659825, 880203200.000000, -0.210000,  0.420000,  0.140000, 0.000000,  0.000000 
 264178816.000000, 0.832702 , 0.617348, 9.640682, 880222592.000000, -0.280000,  0.420000,  0.070000, 0.000000,  0.000000 
 264198528.000000, 0.830309 , 0.595813, 9.611969, 880242944.000000, -0.420000,  0.350000,  0.070000, 0.000000,  0.000000 
 264218496.000000, 0.847059 , 0.629312, 9.650253, 880262592.000000, -0.560000,  0.280000,  0.070000, 0.000000,  0.000000 
 264239040.000000, 0.863809 , 0.634098, 9.643075, 880282624.000000, -0.490000,  0.420000,  0.070000, 0.000000,  0.000000 
 264258496.000000, 0.873380 , 0.579063, 9.623933, 880303168.000000, -0.280000,  0.350000,  0.070000, 0.000000,  0.000000 
 264278784.000000, 0.842274 , 0.581456, 9.643075, 880322560.000000, -0.420000,  0.350000,  0.070000, 0.000000,  0.000000 
 264298432.000000, 0.818345 , 0.591027, 9.650253, 880342848.000000, -0.420000,  0.420000,  0.140000, 0.000000,  0.000000 
 264318464.000000, 0.801596 , 0.626920, 9.645468, 880362560.000000, -0.140000,  0.560000,  0.070000, 0.000000,  0.000000 
 264339008.000000, 0.861416 , 0.638884, 9.609575, 880382528.000000, 0.140000,  0.280000,  0.070000, 0.000000,  0.000000 
 264358400.000000, 0.820738 , 0.660419, 9.652647, 880403136.000000, -0.070000,  0.210000,  -0.070000, 0.000000,  0.000000 
 264378688.000000, 0.863809 , 0.593420, 9.592826, 880422528.000000, -0.490000,  0.420000,  -0.070000, 0.000000,  0.000000 
 264398400.000000, 0.851845 , 0.555135, 9.645468, 880442816.000000, -0.770000,  0.420000,  0.070000, 0.000000,  0.000000 
 264418368.000000, 0.811167 , 0.600598, 9.674182, 880482496.000000, -0.490000,  0.350000,  0.070000, 881142592.000000,  1010.454224 
 264438976.000000, 0.830309 , 0.614955, 9.652647, 0.000000, 0.000000,  0.000000,  0.000000, 0.000000,  0.000000 
 264458368.000000, 0.832702 , 0.629312, 9.633504, 880503040.000000, -0.420000,  0.350000,  0.070000, 0.000000,  0.000000 
 264478656.000000, 0.813560 , 0.634098, 9.652647, 880522496.000000, -0.560000,  0.280000,  0.070000, 0.000000,  0.000000 
 264498368.000000, 0.808774 , 0.583849, 9.645468, 880542784.000000, -0.910000,  0.350000,  0.070000, 0.000000,  0.000000 
 264518336.000000, 0.796810 , 0.674776, 9.650253, 880582464.000000, -1.050000,  0.420000,  0.070000, 0.000000,  0.000000 
 264538944.000000, 0.837488 , 0.586242, 9.635897, 0.000000, 0.000000,  0.000000,  0.000000, 0.000000,  0.000000 
 264558336.000000, 0.842274 , 0.624527, 9.695717, 880603008.000000, -1.260000,  0.280000,  0.070000, 0.000000,  0.000000 
 264578624.000000, 0.823131 , 0.583849, 9.640682, 880622400.000000, -1.190000,  0.350000,  -0.070000, 0.000000,  0.000000 
 264598272.000000, 0.875773 , 0.583849, 9.659825, 880642688.000000, -1.120000,  0.350000,  -0.070000, 0.000000,  0.000000 
 264618304.000000, 0.820738 , 0.562313, 9.683753, 880662400.000000, -0.630000,  0.350000,  0.070000, 0.000000,  0.000000 
 264638848.000000, 0.830309 , 0.653241, 9.638289, 880682368.000000, -0.630000,  0.350000,  0.140000, 0.000000,  0.000000 
 264658240.000000, 0.825524 , 0.653241, 9.623933, 880702976.000000, 0.350000,  0.350000,  0.070000, 0.000000,  0.000000 
 264678528.000000, 0.799203 , 0.600598, 9.638289, 880722368.000000, 0.350000,  0.420000,  0.070000, 0.000000,  0.000000 
 264698240.000000, 0.837488 , 0.612563, 9.659825, 880742656.000000, -0.700000,  0.490000,  0.070000, 0.000000,  0.000000 
 264718208.000000, 0.808774 , 0.519243, 9.659825, 880762368.000000, -0.980000,  0.350000,  0.070000, 0.000000,  0.000000 
 264738816.000000, 0.825524 , 0.540778, 9.652647, 880782336.000000, -0.210000,  0.140000,  0.140000, 0.000000,  0.000000 
 264758208.000000, 0.863809 , 0.619741, 9.647861, 880802880.000000, 0.630000,  0.140000,  0.140000, 0.000000,  0.000000 
 264778496.000000, 0.789631 , 0.679562, 9.645468, 880822336.000000, 1.470000,  0.210000,  0.140000, 0.000000,  0.000000 
 264798208.000000, 0.842274 , 0.626920, 9.631111, 880842624.000000, 1.400000,  0.280000,  0.070000, 0.000000,  0.000000 
 264818176.000000, 0.837488 , 0.581456, 9.655040, 880862272.000000, 0.630000,  0.280000,  0.140000, 0.000000,  0.000000 
 264838720.000000, 0.803988 , 0.557528, 9.635897, 880882240.000000, -0.210000,  0.490000,  0.140000, 0.000000,  0.000000 
 264858112.000000, 0.808774 , 0.521635, 9.643075, 880902848.000000, -0.490000,  0.630000,  0.210000, 0.000000,  0.000000 
 264878464.000000, 0.844666 , 0.655633, 9.623933, 880922240.000000, -0.070000,  0.350000,  0.140000, 0.000000,  0.000000 
 264898112.000000, 0.861416 , 0.679562, 9.674182, 880942528.000000, 0.770000,  0.280000,  0.140000, 0.000000,  0.000000 
 264918080.000000, 0.820738 , 0.698704, 9.645468, 880962240.000000, 0.980000,  0.140000,  0.070000, 0.000000,  0.000000 
 264938688.000000, 0.827917 , 0.646062, 9.643075, 880982208.000000, 0.490000,  0.210000,  0.140000, 0.000000,  0.000000 
 264958080.000000, 0.839881 , 0.600598, 9.676575, 881002816.000000, -0.350000,  0.490000,  0.070000, 0.000000,  0.000000 
 264978368.000000, 0.847059 , 0.626920, 9.621540, 881022208.000000, -0.910000,  0.490000,  0.070000, 0.000000,  0.000000 
 264998080.000000, 0.835095 , 0.591027, 9.640682, 881042496.000000, -1.190000,  0.490000,  0.070000, 0.000000,  0.000000 
 265018048.000000, 0.801596 , 0.631705, 9.645468, 881062144.000000, -1.120000,  0.490000,  0.070000, 0.000000,  0.000000 
 265040576.000000, 0.820738 , 0.610170, 9.611969, 881082176.000000, -0.980000,  0.420000,  0.070000, 0.000000,  0.000000 
 265058048.000000, 0.751346 , 0.624527, 9.633504, 881104704.000000, -0.770000,  0.420000,  -0.070000, 0.000000,  0.000000 
 265078336.000000, 0.813560 , 0.607777, 9.645468, 881122112.000000, -0.840000,  0.420000,  -0.070000, 0.000000,  0.000000 
 265097984.000000, 0.844666 , 0.638884, 9.611969, 881142464.000000, -0.840000,  0.350000,  -0.070000, 0.000000,  0.000000 
 265118016.000000, 0.820738 , 0.605384, 9.635897, 881162112.000000, -0.910000,  0.490000,  -0.070000, 0.000000,  0.000000 
 265138560.000000, 0.818345 , 0.593420, 9.657433, 881182080.000000, -0.840000,  0.350000,  0.070000, 0.000000,  0.000000 
 265157952.000000, 0.839881 , 0.634098, 9.659825, 881202688.000000, -0.560000,  0.350000,  0.140000, 0.000000,  0.000000 
 265178304.000000, 0.837488 , 0.624527, 9.638289, 881222080.000000, -0.350000,  0.280000,  0.140000, 0.000000,  0.000000 
 265197952.000000, 0.827917 , 0.610170, 9.635897, 881242368.000000, -0.350000,  0.280000,  0.140000, 0.000000,  0.000000 
 265217920.000000, 0.847059 , 0.617348, 9.645468, 881262080.000000, -0.280000,  0.140000,  0.070000, 0.000000,  0.000000 
 265238528.000000, 0.870987 , 0.607777, 9.631111, 881282048.000000, -0.140000,  0.280000,  0.070000, 0.000000,  0.000000 
 265257920.000000, 0.830309 , 0.564706, 9.621540, 881302656.000000, -0.350000,  0.210000,  0.070000, 0.000000,  0.000000 
 265278208.000000, 0.839881 , 0.602991, 9.667004, 881322048.000000, -0.280000,  0.350000,  0.070000, 0.000000,  0.000000 
 265297920.000000, 0.811167 , 0.588634, 9.655040, 881342336.000000, -0.280000,  0.420000,  0.140000, 0.000000,  0.000000 
 265317888.000000, 0.823131 , 0.576670, 9.631111, 881361984.000000, 0.070000,  0.350000,  0.140000, 0.000000,  0.000000 
 265338496.000000, 0.861416 , 0.665205, 9.626326, 881382016.000000, 0.280000,  0.280000,  0.140000, 0.000000,  0.000000 
 265357888.000000, 0.789631 , 0.667598, 9.626326, 881402560.000000, 0.280000,  0.280000,  0.140000, 0.000000,  0.000000 
 265378176.000000, 0.866202 , 0.567099, 9.662218, 881421952.000000, 0.280000,  0.280000,  0.070000, 0.000000,  0.000000 
 265397824.000000, 0.811167 , 0.583849, 9.640682, 881442304.000000, -0.350000,  0.420000,  0.070000, 0.000000,  0.000000 
 265417856.000000, 0.808774 , 0.593420, 9.619147, 881481920.000000, 0.350000,  0.210000,  0.070000, 882142016.000000,  1010.451538 
 265438400.000000, 0.837488 , 0.619741, 9.626326, 0.000000, 0.000000,  0.000000,  0.000000, 0.000000,  0.000000 
 265457792.000000, 0.861416 , 0.701097, 9.635897, 881502528.000000, 0.630000,  0.070000,  0.070000, 0.000000,  0.000000 
 265478080.000000, 0.806381 , 0.660419, 9.604790, 881521920.000000, 0.350000,  0.140000,  0.070000, 0.000000,  0.000000 
 265497792.000000, 0.825524 , 0.638884, 9.607183, 881542208.000000, -0.490000,  0.560000,  0.070000, 0.000000,  0.000000 
 265517760.000000, 0.825524 , 0.600598, 9.638289, 881561856.000000, -0.980000,  0.420000,  0.070000, 0.000000,  0.000000 
 265538368.000000, 0.837488 , 0.581456, 9.640682, 881581888.000000, -1.050000,  0.210000,  -0.070000, 0.000000,  0.000000 
 265557760.000000, 0.825524 , 0.600598, 9.647861, 881602432.000000, -0.630000,  0.210000,  -0.070000, 0.000000,  0.000000 
 265578048.000000, 0.837488 , 0.602991, 9.631111, 881621824.000000, -0.210000,  0.280000,  -0.070000, 0.000000,  0.000000 
 265597760.000000, 0.832702 , 0.619741, 9.638289, 881642176.000000, -0.140000,  0.350000,  -0.070000, 0.000000,  0.000000 
 265617728.000000, 0.866202 , 0.612563, 9.640682, 881661824.000000, -0.210000,  0.210000,  -0.070000, 0.000000,  0.000000 
 265638336.000000, 0.863809 , 0.607777, 9.640682, 881681792.000000, -0.140000,  0.210000,  0.070000, 0.000000,  0.000000 
 265657728.000000, 0.818345 , 0.686740, 9.614362, 881702400.000000, -0.070000,  0.210000,  -0.070000, 0.000000,  0.000000 
 265678016.000000, 0.801596 , 0.619741, 9.616754, 881721792.000000, -0.350000,  0.350000,  -0.070000, 0.000000,  0.000000 
 265697664.000000, 0.861416 , 0.576670, 9.662218, 881742080.000000, -0.910000,  0.560000,  -0.070000, 0.000000,  0.000000 
 265717696.000000, 0.818345 , 0.583849, 9.638289, 881761792.000000, -0.980000,  0.560000,  0.140000, 0.000000,  0.000000 
 265738240.000000, 0.789631 , 0.648455, 9.647861, 881781760.000000, -0.560000,  0.350000,  0.140000, 0.000000,  0.000000 
 265757696.000000, 0.866202 , 0.600598, 9.647861, 881802368.000000, -0.070000,  0.210000,  0.140000, 0.000000,  0.000000 
 265777920.000000, 0.820738 , 0.605384, 9.635897, 881821760.000000, -0.210000,  0.420000,  0.140000, 0.000000,  0.000000 
 265797632.000000, 0.813560 , 0.598206, 9.633504, 881842048.000000, -0.560000,  0.490000,  0.140000, 0.000000,  0.000000 
 265817600.000000, 0.851845 , 0.564706, 9.643075, 881861696.000000, -0.560000,  0.420000,  0.070000, 0.000000,  0.000000 
 265838208.000000, 0.870987 , 0.612563, 9.671788, 881881728.000000, -0.350000,  0.420000,  0.070000, 0.000000,  0.000000 
 265857600.000000, 0.861416 , 0.600598, 9.652647, 881902272.000000, -0.140000,  0.280000,  0.140000, 0.000000,  0.000000 
 265877888.000000, 0.806381 , 0.653241, 9.607183, 881921664.000000, 0.070000,  0.140000,  0.070000, 0.000000,  0.000000 
 265897536.000000, 0.818345 , 0.622134, 9.647861, 881942016.000000, -0.140000,  0.210000,  0.070000, 0.000000,  0.000000 
 265917568.000000, 0.835095 , 0.574277, 9.631111, 881961664.000000, -0.840000,  0.420000,  0.070000, 0.000000,  0.000000 
 265938112.000000, 0.859023 , 0.591027, 9.640682, 881981632.000000, -1.260000,  0.560000,  0.070000, 0.000000,  0.000000 
 265957504.000000, 0.811167 , 0.562313, 9.631111, 882002240.000000, -1.190000,  0.350000,  0.070000, 0.000000,  0.000000 
 265977856.000000, 0.792024 , 0.571885, 9.657433, 882021632.000000, -0.700000,  0.350000,  0.070000, 0.000000,  0.000000 
 265997504.000000, 0.854238 , 0.634098, 9.655040, 882041920.000000, -0.070000,  0.350000,  0.070000, 0.000000,  0.000000 
 266017472.000000, 0.839881 , 0.569492, 9.693325, 882061632.000000, 0.070000,  0.210000,  0.070000, 0.000000,  0.000000 
 266040064.000000, 0.835095 , 0.602991, 9.690931, 882081600.000000, -0.070000,  0.280000,  0.070000, 0.000000,  0.000000 
 266057472.000000, 0.799203 , 0.624527, 9.643075, 882104128.000000, -0.140000,  0.420000,  0.140000, 0.000000,  0.000000 
 266077760.000000, 0.835095 , 0.619741, 9.614362, 882121600.000000, 0.210000,  0.420000,  0.140000, 0.000000,  0.000000 
 266097472.000000, 0.847059 , 0.646062, 9.611969, 882141888.000000, 0.490000,  0.280000,  0.070000, 0.000000,  0.000000 
 266117440.000000, 0.825524 , 0.667598, 9.626326, 882161536.000000, 0.490000,  0.280000,  0.070000, 0.000000,  0.000000 
 266138048.000000, 0.844666 , 0.605384, 9.659825, 882181568.000000, 0.210000,  0.350000,  0.140000, 0.000000,  0.000000 
 266157440.000000, 0.823131 , 0.665205, 9.650253, 882202112.000000, -0.140000,  0.350000,  0.070000, 0.000000,  0.000000 
 266177728.000000, 0.856631 , 0.612563, 9.650253, 882221504.000000, -0.490000,  0.420000,  0.140000, 0.000000,  0.000000 
 266197440.000000, 0.825524 , 0.602991, 9.635897, 882241856.000000, -0.770000,  0.490000,  0.140000, 0.000000,  0.000000 
 266217408.000000, 0.868595 , 0.591027, 9.664611, 882261504.000000, -1.190000,  0.420000,  0.070000, 0.000000,  0.000000 
 266237952.000000, 0.842274 , 0.607777, 9.602397, 882281472.000000, -0.910000,  0.350000,  0.070000, 0.000000,  0.000000 
 266257344.000000, 0.811167 , 0.622134, 9.635897, 882302080.000000, -0.840000,  0.350000,  0.070000, 0.000000,  0.000000 
 266277696.000000, 0.827917 , 0.643669, 9.621540, 882321472.000000, -0.770000,  0.280000,  0.070000, 0.000000,  0.000000 
 266297344.000000, 0.789631 , 0.602991, 9.645468, 882341760.000000, -1.050000,  0.630000,  0.070000, 0.000000,  0.000000 
 266317376.000000, 0.835095 , 0.569492, 9.640682, 882361472.000000, -1.400000,  0.630000,  0.070000, 0.000000,  0.000000 
 266337920.000000, 0.830309 , 0.547956, 9.640682, 882381440.000000, -1.190000,  0.420000,  -0.070000, 0.000000,  0.000000 
 266357312.000000, 0.825524 , 0.598206, 9.640682, 882402048.000000, -0.630000,  0.350000,  -0.070000, 0.000000,  0.000000 
 266377600.000000, 0.792024 , 0.631705, 9.619147, 882421440.000000, -0.280000,  0.350000,  -0.070000, 0.000000,  0.000000 
 266397312.000000, 0.827917 , 0.591027, 9.616754, 882441728.000000, -0.140000,  0.350000,  -0.070000, 0.000000,  0.000000 
 266417280.000000, 0.870987 , 0.571885, 9.645468, 882461376.000000, -0.210000,  0.420000,  0.070000, 0.000000,  0.000000 
 266437888.000000, 0.832702 , 0.571885, 9.638289, 882481408.000000, -0.210000,  0.280000,  0.070000, 883141504.000000,  1010.453247 
 266457280.000000, 0.806381 , 0.617348, 9.657433, 882501952.000000, -0.070000,  0.210000,  0.070000, 0.000000,  0.000000 
 266477568.000000, 0.832702 , 0.619741, 9.616754, 882521344.000000, -0.070000,  0.350000,  0.070000, 0.000000,  0.000000 
 266497216.000000, 0.770489 , 0.631705, 9.611969, 882541632.000000, -0.140000,  0.420000,  0.070000, 0.000000,  0.000000 
 266517248.000000, 0.827917 , 0.610170, 9.667004, 882561344.000000, -0.350000,  0.420000,  0.070000, 0.000000,  0.000000 
 266537792.000000, 0.839881 , 0.605384, 9.633504, 882581312.000000, -0.560000,  0.280000,  0.070000, 0.000000,  0.000000 
 266557184.000000, 0.796810 , 0.598206, 9.640682, 882601920.000000, -0.630000,  0.350000,  0.070000, 0.000000,  0.000000 
 266577536.000000, 0.832702 , 0.650848, 9.585647, 882621312.000000, -0.700000,  0.420000,  0.070000, 0.000000,  0.000000 
 266597184.000000, 0.825524 , 0.598206, 9.657433, 882641600.000000, -0.770000,  0.280000,  0.070000, 0.000000,  0.000000 
 266617152.000000, 0.815953 , 0.658026, 9.657433, 882661312.000000, -1.190000,  0.420000,  -0.070000, 0.000000,  0.000000 
 266637888.000000, 0.820738 , 0.519243, 9.645468, 882681280.000000, -1.610000,  0.560000,  -0.070000, 0.000000,  0.000000 
 266657152.000000, 0.818345 , 0.571885, 9.662218, 882702016.000000, -1.680000,  0.560000,  0.070000, 0.000000,  0.000000 
 266677440.000000, 0.823131 , 0.562313, 9.626326, 882721280.000000, -1.120000,  0.350000,  0.070000, 0.000000,  0.000000 
 266697152.000000, 0.818345 , 0.614955, 9.662218, 882741568.000000, -0.630000,  0.210000,  0.070000, 0.000000,  0.000000 
 266717120.000000, 0.844666 , 0.600598, 9.633504, 882761216.000000, -0.630000,  0.140000,  -0.070000, 0.000000,  0.000000 
 266737728.000000, 0.815953 , 0.605384, 9.652647, 882781248.000000, -0.630000,  0.280000,  0.070000, 0.000000,  0.000000 
 266757120.000000, 0.842274 , 0.540778, 9.655040, 882801792.000000, -0.560000,  0.420000,  0.140000, 0.000000,  0.000000 
 266777408.000000, 0.842274 , 0.557528, 9.604790, 882821248.000000, -0.840000,  0.420000,  0.140000, 0.000000,  0.000000 
 266797056.000000, 0.823131 , 0.612563, 9.678967, 882841536.000000, -0.560000,  0.350000,  0.140000, 0.000000,  0.000000 
 266817088.000000, 0.844666 , 0.631705, 9.635897, 882861184.000000, 0.210000,  0.210000,  0.140000, 0.000000,  0.000000 
 266837632.000000, 0.847059 , 0.650848, 9.626326, 882881152.000000, 0.490000,  0.070000,  0.140000, 0.000000,  0.000000 
 266857024.000000, 0.835095 , 0.562313, 9.655040, 882901760.000000, 0.070000,  0.280000,  0.070000, 0.000000,  0.000000 
 266877376.000000, 0.835095 , 0.528814, 9.635897, 882921152.000000, -0.490000,  0.490000,  0.070000, 0.000000,  0.000000 
 266897024.000000, 0.823131 , 0.547956, 9.633504, 882941440.000000, -0.420000,  0.420000,  0.140000, 0.000000,  0.000000 
 266916992.000000, 0.854238 , 0.638884, 9.655040, 882961088.000000, -0.350000,  0.420000,  0.070000, 0.000000,  0.000000 
 266937600.000000, 0.799203 , 0.559920, 9.614362, 882981120.000000, -0.350000,  0.350000,  0.070000, 0.000000,  0.000000 
 266956992.000000, 0.849452 , 0.547956, 9.645468, 883001728.000000, -0.560000,  0.420000,  0.070000, 0.000000,  0.000000 
 266977280.000000, 0.837488 , 0.535992, 9.643075, 883021056.000000, -0.490000,  0.280000,  0.140000, 0.000000,  0.000000 
 266996992.000000, 0.835095 , 0.619741, 9.628718, 883041408.000000, -0.140000,  0.210000,  0.140000, 0.000000,  0.000000 
 267016960.000000, 0.825524 , 0.653241, 9.616754, 883061056.000000, 0.140000,  0.280000,  0.140000, 0.000000,  0.000000 
 267039488.000000, 0.808774 , 0.602991, 9.674182, 883081024.000000, -0.280000,  0.420000,  0.140000, 0.000000,  0.000000 
 267056960.000000, 0.772882 , 0.514457, 9.643075, 883103616.000000, -0.980000,  0.560000,  0.070000, 0.000000,  0.000000 
 267077248.000000, 0.772882 , 0.545564, 9.640682, 883121024.000000, -1.190000,  0.560000,  0.070000, 0.000000,  0.000000 
 267096896.000000, 0.839881 , 0.567099, 9.631111, 883141312.000000, -0.910000,  0.490000,  0.070000, 0.000000,  0.000000 
 267116928.000000, 0.859023 , 0.576670, 9.647861, 883161024.000000, -0.420000,  0.210000,  0.070000, 0.000000,  0.000000 
 267137472.000000, 0.839881 , 0.605384, 9.659825, 883180992.000000, -0.140000,  0.210000,  0.070000, 0.000000,  0.000000 
 267156864.000000, 0.823131 , 0.571885, 9.607183, 883201600.000000, 0.210000,  0.280000,  0.140000, 0.000000,  0.000000 
 267177152.000000, 0.801596 , 0.576670, 9.628718, 883220992.000000, 0.350000,  0.350000,  0.070000, 0.000000,  0.000000 
 267196864.000000, 0.847059 , 0.595813, 9.631111, 883260928.000000, -0.070000,  0.280000,  0.070000, 0.000000,  0.000000 
 267216832.000000, 0.861416 , 0.619741, 9.645468, 0.000000, 0.000000,  0.000000,  0.000000, 0.000000,  0.000000 
 267237440.000000, 0.825524 , 0.622134, 9.621540, 883280960.000000, -0.490000,  0.350000,  0.070000, 0.000000,  0.000000 
 267256832.000000, 0.808774 , 0.567099, 9.650253, 883301504.000000, -0.840000,  0.490000,  0.070000, 0.000000,  0.000000 
 267277120.000000, 0.839881 , 0.543171, 9.676575, 883320896.000000, -0.910000,  0.560000,  0.070000, 0.000000,  0.000000 
 267296768.000000, 0.827917 , 0.564706, 9.667004, 883341248.000000, -0.630000,  0.490000,  0.070000, 0.000000,  0.000000 
 267316800.000000, 0.825524 , 0.610170, 9.635897, 883360896.000000, -0.070000,  0.280000,  0.140000, 0.000000,  0.000000 
 267337344.000000, 0.854238 , 0.614955, 9.638289, 883380864.000000, 0.280000,  0.140000,  0.070000, 0.000000,  0.000000 
 267356736.000000, 0.818345 , 0.648455, 9.619147, 883401472.000000, 0.140000,  0.350000,  0.070000, 0.000000,  0.000000 
 267377088.000000, 0.820738 , 0.583849, 9.626326, 883420864.000000, -0.350000,  0.490000,  0.140000, 0.000000,  0.000000 
 267396736.000000, 0.765703 , 0.591027, 9.631111, 883460864.000000, -0.560000,  0.490000,  0.140000, 0.000000,  0.000000 
 267416704.000000, 0.835095 , 0.583849, 9.616754, 0.000000, 0.000000,  0.000000,  0.000000, 0.000000,  0.000000 
 267437312.000000, 0.861416 , 0.610170, 9.631111, 883480832.000000, -0.280000,  0.350000,  0.070000, 884140928.000000,  1010.454224 
 267456704.000000, 0.823131 , 0.622134, 9.664611, 883501440.000000, 0.140000,  0.210000,  0.070000, 0.000000,  0.000000 
 267476992.000000, 0.835095 , 0.626920, 9.640682, 883520832.000000, 0.140000,  0.350000,  0.070000, 0.000000,  0.000000 
 267496704.000000, 0.815953 , 0.547956, 9.635897, 883541120.000000, -0.350000,  0.490000,  0.070000, 0.000000,  0.000000 
 267516672.000000, 0.832702 , 0.564706, 9.640682, 883560768.000000, -0.630000,  0.490000,  0.140000, 0.000000,  0.000000 
 267537280.000000, 0.820738 , 0.593420, 9.614362, 883580800.000000, -0.350000,  0.280000,  0.140000, 0.000000,  0.000000 
 267556672.000000, 0.854238 , 0.612563, 9.671788, 883601344.000000, -0.350000,  0.280000,  -0.070000, 0.000000,  0.000000 
 267577088.000000, 0.837488 , 0.593420, 9.647861, 883620736.000000, -0.840000,  0.210000,  -0.070000, 0.000000,  0.000000 
 267596608.000000, 0.873380 , 0.591027, 9.640682, 883641152.000000, -1.260000,  0.490000,  -0.070000, 0.000000,  0.000000 
 267616640.000000, 0.847059 , 0.543171, 9.652647, 883660736.000000, -1.330000,  0.490000,  0.070000, 0.000000,  0.000000 
 267637184.000000, 0.844666 , 0.588634, 9.659825, 883680704.000000, -0.910000,  0.420000,  0.070000, 0.000000,  0.000000 
 267656576.000000, 0.851845 , 0.576670, 9.621540, 883701312.000000, -0.560000,  0.420000,  -0.070000, 0.000000,  0.000000 
 267676928.000000, 0.801596 , 0.543171, 9.657433, 883720704.000000, -0.490000,  0.350000,  -0.070000, 0.000000,  0.000000 
 267696576.000000, 0.820738 , 0.564706, 9.631111, 883740992.000000, -0.420000,  0.280000,  0.140000, 0.000000,  0.000000 
 267716544.000000, 0.811167 , 0.559920, 9.662218, 883760704.000000, -0.210000,  0.490000,  0.070000, 0.000000,  0.000000 
 267737152.000000, 0.878166 , 0.557528, 9.631111, 883780672.000000, -0.210000,  0.420000,  0.070000, 0.000000,  0.000000 
 267756608.000000, 0.839881 , 0.593420, 9.647861, 883801280.000000, 0.280000,  0.210000,  0.140000, 0.000000,  0.000000 
 267776832.000000, 0.815953 , 0.576670, 9.611969, 883820672.000000, 0.280000,  0.140000,  0.140000, 0.000000,  0.000000 
 267796544.000000, 0.866202 , 0.624527, 9.616754, 883840960.000000, -0.210000,  0.210000,  0.070000, 0.000000,  0.000000 
 267816512.000000, 0.835095 , 0.547956, 9.623933, 883860608.000000, -0.560000,  0.420000,  0.070000, 0.000000,  0.000000 
 267837120.000000, 0.772882 , 0.586242, 9.674182, 883880640.000000, -0.840000,  0.560000,  0.070000, 0.000000,  0.000000 
 267856512.000000, 0.835095 , 0.562313, 9.652647, 883901184.000000, -0.770000,  0.420000,  0.070000, 0.000000,  0.000000 
 267876800.000000, 0.825524 , 0.593420, 9.611969, 883920576.000000, -0.560000,  0.210000,  0.070000, 0.000000,  0.000000 
 267896448.000000, 0.813560 , 0.643669, 9.635897, 883940864.000000, -0.280000,  0.210000,  -0.070000, 0.000000,  0.000000 
 267916480.000000, 0.796810 , 0.600598, 9.619147, 883960576.000000, -0.560000,  0.350000,  -0.070000, 0.000000,  0.000000 
 267937024.000000, 0.825524 , 0.531207, 9.643075, 883980544.000000, -1.190000,  0.490000,  -0.070000, 0.000000,  0.000000 
 267956416.000000, 0.842274 , 0.514457, 9.700503, 884001152.000000, -1.610000,  0.420000,  -0.070000, 0.000000,  0.000000 
 267976704.000000, 0.832702 , 0.552742, 9.657433, 884020544.000000, -1.260000,  0.420000,  -0.070000, 0.000000,  0.000000 
 267996416.000000, 0.818345 , 0.598206, 9.635897, 884040832.000000, -0.560000,  0.350000,  -0.070000, 0.000000,  0.000000 
 268016384.000000, 0.873380 , 0.576670, 9.640682, 884060544.000000, -0.140000,  0.420000,  -0.070000, 0.000000,  0.000000 
 268038976.000000, 0.823131 , 0.550349, 9.664611, 884080512.000000, -0.350000,  0.490000,  0.070000, 0.000000,  0.000000 
 268056384.000000, 0.835095 , 0.497707, 9.662218, 884103040.000000, -0.420000,  0.490000,  0.140000, 0.000000,  0.000000 
 268076672.000000, 0.820738 , 0.567099, 9.623933, 884120512.000000, -0.420000,  0.420000,  0.140000, 0.000000,  0.000000 
 268096384.000000, 0.820738 , 0.586242, 9.657433, 884140800.000000, 0.560000,  0.280000,  0.140000, 0.000000,  0.000000 
 268116352.000000, 0.794417 , 0.622134, 9.657433, 884160448.000000, 0.490000,  0.280000,  0.140000, 0.000000,  0.000000 
 268136960.000000, 0.808774 , 0.571885, 9.657433, 884180480.000000, 0.350000,  0.280000,  0.070000, 0.000000,  0.000000 
 268156352.000000, 0.861416 , 0.579063, 9.614362, 884201024.000000, 0.350000,  0.350000,  0.140000, 0.000000,  0.000000 
 268176640.000000, 0.839881 , 0.559920, 9.664611, 884220416.000000, -0.140000,  0.420000,  0.140000, 0.000000,  0.000000 
 268196288.000000, 0.825524 , 0.622134, 9.628718, 884240704.000000, -0.140000,  0.420000,  0.140000, 0.000000,  0.000000 
 268216320.000000, 0.803988 , 0.583849, 9.676575, 884260416.000000, -0.280000,  0.350000,  0.140000, 0.000000,  0.000000 
 268236864.000000, 0.803988 , 0.512064, 9.664611, 884280384.000000, -0.490000,  0.420000,  0.140000, 0.000000,  0.000000 
 268256256.000000, 0.801596 , 0.531207, 9.662218, 884300992.000000, -0.700000,  0.420000,  0.070000, 0.000000,  0.000000 
 268276544.000000, 0.830309 , 0.559920, 9.659825, 884320384.000000, -0.910000,  0.420000,  0.070000, 0.000000,  0.000000 
 268296256.000000, 0.859023 , 0.502493, 9.667004, 884340672.000000, -0.840000,  0.420000,  0.070000, 0.000000,  0.000000 
 268316224.000000, 0.815953 , 0.533599, 9.626326, 884360384.000000, -0.700000,  0.420000,  0.070000, 0.000000,  0.000000 
 268336832.000000, 0.801596 , 0.617348, 9.616754, 884380352.000000, -0.420000,  0.280000,  0.070000, 0.000000,  0.000000 
 268356224.000000, 0.806381 , 0.576670, 9.631111, 884400960.000000, -0.280000,  0.280000,  0.070000, 0.000000,  0.000000 
 268376512.000000, 0.830309 , 0.531207, 9.659825, 884420352.000000, -0.630000,  0.420000,  0.070000, 0.000000,  0.000000 
 268396224.000000, 0.832702 , 0.535992, 9.619147, 884440640.000000, -0.770000,  0.490000,  0.070000, 0.000000,  0.000000 
 268416192.000000, 0.792024 , 0.557528, 9.631111, 884460288.000000, -0.560000,  0.350000,  0.070000, 0.000000,  0.000000 
 268436800.000000, 0.789631 , 0.595813, 9.650253, 884480320.000000, -0.070000,  0.350000,  0.070000, 885140352.000000,  1010.451111 
 268456192.000000, 0.811167 , 0.571885, 9.683753, 884500864.000000, 0.070000,  0.420000,  0.070000, 0.000000,  0.000000 
 268476480.000000, 0.847059 , 0.564706, 9.640682, 884520256.000000, 0.210000,  0.420000,  0.140000, 0.000000,  0.000000 
 268496128.000000, 0.832702 , 0.598206, 9.643075, 884540544.000000, 0.210000,  0.280000,  0.140000, 0.000000,  0.000000 
 268516096.000000, 0.789631 , 0.598206, 9.643075, 884560256.000000, 0.350000,  0.210000,  0.070000, 0.000000,  0.000000 
 268536704.000000, 0.799203 , 0.610170, 9.640682, 884580224.000000, 0.210000,  0.210000,  0.070000, 0.000000,  0.000000 
 268556096.000000, 0.825524 , 0.605384, 9.600004, 884600832.000000, 0.140000,  0.070000,  0.070000, 0.000000,  0.000000 
 268576448.000000, 0.830309 , 0.600598, 9.616754, 884620224.000000, -0.280000,  0.280000,  0.070000, 0.000000,  0.000000 
 268596096.000000, 0.770489 , 0.614955, 9.647861, 884640512.000000, -0.420000,  0.350000,  0.070000, 0.000000,  0.000000 
 268616064.000000, 0.818345 , 0.588634, 9.621540, 884660160.000000, -0.770000,  0.490000,  0.070000, 0.000000,  0.000000 
 268636672.000000, 0.823131 , 0.567099, 9.643075, 884680192.000000, -1.050000,  0.210000,  0.070000, 0.000000,  0.000000 
 268656064.000000, 0.801596 , 0.564706, 9.647861, 884700736.000000, -1.190000,  0.140000,  -0.070000, 0.000000,  0.000000 
 268676352.000000, 0.825524 , 0.555135, 9.647861, 884720128.000000, -1.120000,  0.280000,  -0.070000, 0.000000,  0.000000 
 268696000.000000, 0.839881 , 0.543171, 9.614362, 884740480.000000, -0.910000,  0.280000,  -0.070000, 0.000000,  0.000000 
 268716032.000000, 0.830309 , 0.588634, 9.647861, 884760128.000000, -0.840000,  0.210000,  -0.070000, 0.000000,  0.000000 
 268736576.000000, 0.830309 , 0.562313, 9.635897, 884780096.000000, -0.770000,  0.280000,  -0.070000, 0.000000,  0.000000 
 268756032.000000, 0.825524 , 0.552742, 9.674182, 884800704.000000, -0.560000,  0.350000,  -0.070000, 0.000000,  0.000000 
 268776320.000000, 0.842274 , 0.545564, 9.633504, 884820160.000000, -0.420000,  0.420000,  0.070000, 0.000000,  0.000000 
 268795968.000000, 0.827917 , 0.555135, 9.650253, 884840384.000000, -0.280000,  0.420000,  0.140000, 0.000000,  0.000000 
 268815936.000000, 0.830309 , 0.524028, 9.647861, 884860096.000000, 0.070000,  0.490000,  0.140000, 0.000000,  0.000000 
 268836544.000000, 0.825524 , 0.567099, 9.643075, 884880064.000000, 0.350000,  0.280000,  0.140000, 0.000000,  0.000000 
 268855936.000000, 0.825524 , 0.552742, 9.638289, 884900672.000000, 0.630000,  0.210000,  0.070000, 0.000000,  0.000000 
 268876224.000000, 0.825524 , 0.586242, 9.631111, 884920064.000000, 0.840000,  0.140000,  0.140000, 0.000000,  0.000000 
 268895936.000000, 0.873380 , 0.591027, 9.626326, 884940352.000000, 0.910000,  0.210000,  0.140000, 0.000000,  0.000000 
 268915904.000000, 0.818345 , 0.636491, 9.669396, 884960000.000000, 0.910000,  0.350000,  0.210000, 0.000000,  0.000000 
 268936512.000000, 0.847059 , 0.634098, 9.643075, 885000576.000000, 0.490000,  0.280000,  0.070000, 0.000000,  0.000000 
 268955904.000000, 0.849452 , 0.646062, 9.623933, 0.000000, 0.000000,  0.000000,  0.000000, 0.000000,  0.000000 
 268976192.000000, 0.835095 , 0.602991, 9.667004, 885019968.000000, 0.070000,  0.280000,  0.070000, 0.000000,  0.000000 
 268995840.000000, 0.835095 , 0.602991, 9.638289, 885040320.000000, -0.490000,  0.350000,  0.070000, 0.000000,  0.000000 
 269015872.000000, 0.847059 , 0.610170, 9.647861, 885059968.000000, -0.980000,  0.420000,  0.070000, 0.000000,  0.000000 
 269038400.000000, 0.839881 , 0.588634, 9.645468, 885079936.000000, -1.400000,  0.490000,  0.070000, 0.000000,  0.000000 
 269055808.000000, 0.842274 , 0.547956, 9.588040, 885102464.000000, -1.470000,  0.420000,  0.070000, 0.000000,  0.000000 
 269076160.000000, 0.830309 , 0.531207, 9.655040, 885119936.000000, -1.190000,  0.420000,  -0.070000, 0.000000,  0.000000 
 269095808.000000, 0.818345 , 0.559920, 9.659825, 885140224.000000, -0.770000,  0.280000,  -0.070000, 0.000000,  0.000000 
 269115776.000000, 0.868595 , 0.545564, 9.635897, 885159936.000000, -0.560000,  0.280000,  -0.070000, 0.000000,  0.000000 
 269136384.000000, 0.832702 , 0.583849, 9.652647, 885179904.000000, -0.560000,  0.350000,  0.070000, 0.000000,  0.000000 
 269155776.000000, 0.870987 , 0.545564, 9.690931, 885200512.000000, -0.490000,  0.490000,  0.070000, 0.000000,  0.000000 
 269176064.000000, 0.832702 , 0.569492, 9.645468, 885219904.000000, -0.280000,  0.350000,  0.070000, 0.000000,  0.000000 
 269195776.000000, 0.837488 , 0.595813, 9.657433, 885240192.000000, -0.210000,  0.280000,  0.070000, 0.000000,  0.000000 
 269215744.000000, 0.868595 , 0.540778, 9.623933, 885259840.000000, -0.210000,  0.350000,  0.070000, 0.000000,  0.000000 
 269236352.000000, 0.808774 , 0.552742, 9.638289, 885279872.000000, -0.210000,  0.280000,  0.070000, 0.000000,  0.000000 
 269255744.000000, 0.823131 , 0.552742, 9.621540, 885300416.000000, -0.070000,  0.350000,  0.140000, 0.000000,  0.000000 
 269276032.000000, 0.780060 , 0.612563, 9.635897, 885319808.000000, 0.070000,  0.350000,  0.140000, 0.000000,  0.000000 
 269295680.000000, 0.825524 , 0.586242, 9.628718, 885340096.000000, 0.070000,  0.280000,  0.140000, 0.000000,  0.000000 
 269315712.000000, 0.787239 , 0.593420, 9.667004, 885359808.000000, 0.070000,  0.280000,  0.070000, 0.000000,  0.000000 
 269336256.000000, 0.813560 , 0.557528, 9.616754, 885379776.000000, -0.350000,  0.420000,  0.070000, 0.000000,  0.000000 
 269355648.000000, 0.806381 , 0.576670, 9.659825, 885400384.000000, -0.700000,  0.420000,  0.070000, 0.000000,  0.000000 
 269375936.000000, 0.811167 , 0.531207, 9.647861, 885419776.000000, -0.770000,  0.350000,  0.070000, 0.000000,  0.000000 
 269395648.000000, 0.837488 , 0.595813, 9.631111, 885440064.000000, -0.630000,  0.210000,  0.070000, 0.000000,  0.000000 
 269415616.000000, 0.794417 , 0.562313, 9.640682, 885479744.000000, -0.280000,  0.420000,  0.070000, 886139840.000000,  1010.451355 
 269436224.000000, 0.801596 , 0.612563, 9.645468, 0.000000, 0.000000,  0.000000,  0.000000, 0.000000,  0.000000 
 269455616.000000, 0.823131 , 0.586242, 9.635897, 885500352.000000, -0.350000,  0.280000,  0.070000, 0.000000,  0.000000 
 269475904.000000, 0.849452 , 0.586242, 9.616754, 885519680.000000, -0.420000,  0.280000,  0.070000, 0.000000,  0.000000 
 269495616.000000, 0.808774 , 0.617348, 9.667004, 885540032.000000, -0.560000,  0.210000,  0.070000, 0.000000,  0.000000 
 269515584.000000, 0.825524 , 0.579063, 9.667004, 885559680.000000, -0.560000,  0.350000,  0.070000, 0.000000,  0.000000 
 269536192.000000, 0.827917 , 0.543171, 9.659825, 885579712.000000, -0.490000,  0.420000,  0.070000, 0.000000,  0.000000 
 269555584.000000, 0.813560 , 0.583849, 9.616754, 885600256.000000, -0.420000,  0.350000,  0.070000, 0.000000,  0.000000 
 269575872.000000, 0.842274 , 0.567099, 9.652647, 885619648.000000, -0.350000,  0.420000,  0.070000, 0.000000,  0.000000 
 269595520.000000, 0.856631 , 0.531207, 9.623933, 885639936.000000, -0.350000,  0.350000,  0.070000, 0.000000,  0.000000 
 269615552.000000, 0.823131 , 0.562313, 9.628718, 885659648.000000, -0.210000,  0.350000,  0.070000, 0.000000,  0.000000 
 269636096.000000, 0.818345 , 0.610170, 9.621540, 885679616.000000, -0.210000,  0.350000,  0.070000, 0.000000,  0.000000 
 269655488.000000, 0.851845 , 0.583849, 9.631111, 885700224.000000, -0.140000,  0.210000,  0.070000, 0.000000,  0.000000 
 269675776.000000, 0.847059 , 0.569492, 9.645468, 885719616.000000, -0.280000,  0.490000,  0.070000, 0.000000,  0.000000 
 269695488.000000, 0.837488 , 0.576670, 9.671788, 885739904.000000, -0.490000,  0.490000,  0.070000, 0.000000,  0.000000 
 269715456.000000, 0.811167 , 0.579063, 9.609575, 885759552.000000, -0.560000,  0.280000,  0.070000, 0.000000,  0.000000 
 269736064.000000, 0.796810 , 0.567099, 9.638289, 885779584.000000, -0.630000,  0.280000,  0.070000, 0.000000,  0.000000 
 269755456.000000, 0.811167 , 0.569492, 9.667004, 885800128.000000, -0.490000,  0.280000,  0.070000, 0.000000,  0.000000 
 269775744.000000, 0.818345 , 0.567099, 9.604790, 885819584.000000, -0.280000,  0.280000,  0.070000, 0.000000,  0.000000 
 269795456.000000, 0.799203 , 0.595813, 9.621540, 885839872.000000, -0.280000,  0.350000,  0.070000, 0.000000,  0.000000 
