time,seconds_elapsed,z,y,x
1633781385911168000,0.02916796875,-4.94357108567059,-8.427703240996598,-0.8398322832733393
1633781385931047000,0.049046875,-4.941579619592428,-8.429426996049285,-0.8342197771538048
1633781385950926000,0.068926025390625,-4.935331665113568,-8.433773500820994,-0.8272612632527947
1633781385970804000,0.088803955078125,-4.934273680493235,-8.435575581806898,-0.8151097838185727
1633781385990683100,0.10868310546875,-4.943092362242937,-8.43137345394194,-0.8050904941074549
1633781386010562000,0.12856201171875,-4.956842070654035,-8.42438140309751,-0.7936619221203028
1633781386030441000,0.14844091796875,-4.970189628005027,-8.418083764258027,-0.7768330254595727
1633781386050320000,0.16831982421875,-4.978941089737415,-8.414863633167743,-0.7553749346282332
1633781386070198000,0.188197998046875,-4.982145438736677,-8.414252807793021,-0.7409205850791186
1633781386090077000,0.208076904296875,-4.984440856197476,-8.413570086225867,-0.7331853146519511
1633781386109956000,0.2279560546875,-4.983540692487359,-8.414341070598363,-0.7304582277756184
1633781386129835000,0.2478349609375,-4.978218620681762,-8.417319794148206,-0.7324211984116583
1633781386149713200,0.267713134765625,-4.977808870837092,-8.417447219920158,-0.7337531776677817
1633781386169592000,0.287592041015625,-4.983021637049317,-8.414777708449959,-0.7289706926316022
1633781386189471000,0.307470947265625,-4.993803727826476,-8.409090894985198,-0.7207621786694973
1633781386209350100,0.32735009765625,-5.000917359223962,-8.405616496872902,-0.7119185086090117
1633781386229229000,0.34722900390625,-4.997476863381267,-8.408238662070035,-0.7050619937777519
1633781386249107200,0.367107177734375,-4.99717232747674,-8.409213060060143,-0.6955530647415668
1633781386268986000,0.386986083984375,-5.008512052136659,-8.40324976774156,-0.6859866333644836
1633781386288865000,0.406864990234375,-5.018187058454751,-8.397500410434603,-0.68569495694153
1633781386308744000,0.426743896484375,-5.01585890776813,-8.398169687998294,-0.6944796633563936
1633781386328623000,0.446623046875,-5.0087265716701745,-8.40164817776382,-0.7038144779346883
1633781386348501000,0.4665009765625,-5.007593768247962,-8.401895430523156,-0.7088936078298836
1633781386368380200,0.486380126953125,-5.012530055606365,-8.398824352514744,-0.7104034278709441
1633781386388258800,0.5062587890625,-5.016541629335284,-8.396478666171431,-0.7098177369374782
1633781386408138000,0.526137939453125,-5.0137388468742365,-8.398447920417786,-0.7063143319264054
1633781386428015900,0.546015869140625,-5.010172094303369,-8.401098142665624,-0.7000750722106546
1633781386447895000,0.56589501953125,-5.014502232462167,-8.39905173152983,-0.6936009808257222
1633781386467774000,0.58577392578125,-5.013963303279876,-8.39979933502674,-0.6884109379019587
1633781386487653000,0.605653076171875,-4.996777775201201,-8.410079906022549,-0.6878598798904567
1633781386507532000,0.625531982421875,-4.967802440607548,-8.42753256060481,-0.6841193051226436
1633781386527410000,0.645409912109375,-4.930094348981976,-8.450702423790096,-0.6709567489497363
1633781386547289000,0.6652890625,-4.886248485253751,-8.47800018056035,-0.6468974626440555
1633781386567168000,0.68516796875,-4.845999476973712,-8.504099667456746,-0.6057682374633848
1633781386587047200,0.705047119140625,-4.813071020840108,-8.526442432168126,-0.5518216528182849
1633781386606925000,0.724925048828125,-4.785191080267727,-8.544816293248534,-0.5083628887115046
1633781386626804200,0.74480419921875,-4.76471732429862,-8.557696817609667,-0.48339558418281375
1633781386646683000,0.764682861328125,-4.750906825610995,-8.565867264583707,-0.4745381778579205
1633781386666562000,0.78456201171875,-4.721885898309946,-8.581735280323029,-0.4774972833918407
1633781386686441000,0.80444091796875,-4.651364501363039,-8.619345756793022,-0.4920130442719906
1633781386706319000,0.824319091796875,-4.54362191952467,-8.675777838110923,-0.5067182998422533
1633781386726198000,0.844197998046875,-4.444815800596773,-8.72805981401205,-0.4847267231887206
1633781386746077200,0.8640771484375,-4.390052237012982,-8.758004285898805,-0.4418131353419274
1633781386765955800,0.883955810546875,-4.383302470491826,-8.762968630307912,-0.40915567816942927
1633781386785835000,0.9038349609375,-4.401663764351606,-8.754733301404118,-0.3877857040129602
1633781386805713000,0.923712890625,-4.4270165245339275,-8.74273482057452,-0.369435735264793
1633781386825592000,0.943592041015625,-4.464708541807532,-8.724222427806257,-0.3531112079296261
1633781386845471200,0.96347119140625,-4.521334392131865,-8.695357567849754,-0.34449495341684666
1633781386865350000,0.983349853515625,-4.596867479760944,-8.655738089644908,-0.34260997992046177
1633781386885228000,1.00322802734375,-4.6719598378852005,-8.615501940846443,-0.34104119623377915
1633781386905107000,1.02310693359375,-4.726669333194196,-8.585476220417021,-0.3443566043920815
1633781386924986000,1.042986083984375,-4.760239302101731,-8.566478674480319,-0.3549001371730119
1633781386944865000,1.062864990234375,-4.780980184574425,-8.554308928737044,-0.3693512353191152
1633781386964744200,1.082744140625,-4.7950478728935115,-8.545853819602728,-0.38246582416445013
1633781386984622000,1.1026220703125,-4.811028993618488,-8.536418467259406,-0.39235871101692316
1633781387004501000,1.1225009765625,-4.83060696979165,-8.524902216988801,-0.4020670350827276
1633781387024380000,1.1423798828125,-4.851022565832734,-8.512917180162667,-0.4101232445599511
1633781387044259000,1.162259033203125,-4.866259297931194,-8.50379337798655,-0.4188163271686062
1633781387064137000,1.182136962890625,-4.8734895414456725,-8.499348673537373,-0.42493692894075064
1633781387084016000,1.20201611328125,-4.873664898012578,-8.499155781313776,-0.42675833568163213
1633781387103895000,1.22189501953125,-4.870993340715765,-8.500813485392928,-0.4242394481958821
1633781387123774000,1.24177392578125,-4.876304306605458,-8.498065647989511,-0.41821894579734653
1633781387143652900,1.26165283203125,-4.890348029527068,-8.490311380600929,-0.4116874616693705
1633781387163531000,1.281531005859375,-4.903777419942617,-8.482808457624913,-0.40658524315953254
1633781387183409400,1.301409423828125,-4.912548170897364,-8.478022976914048,-0.4004620475715026
1633781387203288300,1.321288330078125,-4.912805360528826,-8.478249771407246,-0.3924179669234901
1633781387223167500,1.34116748046875,-4.9066310558080675,-8.482422088655829,-0.37930586229618635
1633781387243045400,1.36104541015625,-4.90153402493,-8.486078273075819,-0.36307650243118406
1633781387262924500,1.380924560546875,-4.905173842737079,-8.484587742257117,-0.34846162855811413
1633781387282803200,1.40080322265625,-4.920002578556537,-8.476609602984785,-0.33324542779102917
1633781387302682400,1.420682373046875,-4.938207512810826,-8.466497374293208,-0.32078506507072596
1633781387322561500,1.4405615234375,-4.949891520863771,-8.460172262924909,-0.3073050769791007
1633781387342439400,1.460439453125,-4.954810857087374,-8.457848788413404,-0.29159364004097876
1633781387362318600,1.480318603515625,-4.961268070402741,-8.454473174500466,-0.27942804074985905
1633781387382197500,1.500197509765625,-4.971168117648363,-8.448912617763876,-0.2715766148634255
1633781387402076400,1.520076416015625,-4.980492995354533,-8.443750120434164,-0.2610840998836793
1633781387421954300,1.539954345703125,-4.980431620556116,-8.444139996534586,-0.2493606366031803
1633781387441833500,1.55983349609375,-4.968809571823478,-8.451399173882603,-0.23488089688448233
1633781387461712400,1.57971240234375,-4.957972535988688,-8.458183134934306,-0.21917793551376089
1633781387481591600,1.599591552734375,-4.955130006039142,-8.460161741530895,-0.2067506530791521
1633781387501470200,1.61947021484375,-4.957609547895193,-8.458990359663963,-0.19482784956796093
1633781387521348400,1.639348388671875,-4.958820092728733,-8.45860165260732,-0.18035797365615144
1633781387541227300,1.659227294921875,-4.958691497913002,-8.458962302613259,-0.16649391815038397
1633781387561106400,1.6791064453125,-4.957772044980525,-8.459607030257581,-0.16100827154722064
1633781387580985300,1.6989853515625,-4.959978030592203,-8.45830705357492,-0.16140925356354563
1633781387600863500,1.718863525390625,-4.965128837484121,-8.455213763734697,-0.16502954468624664
1633781387620742400,1.738742431640625,-4.97117396286726,-8.451641750466823,-0.16601028108559548
1633781387640621300,1.758621337890625,-4.972858554953336,-8.450685472655296,-0.1642274527894333
1633781387660500200,1.778500244140625,-4.9699330228954555,-8.452473525115847,-0.1607610187878832
1633781387680379400,1.79837939453125,-4.970944830286503,-8.451988371947408,-0.15490328746931625
1633781387700257300,1.81825732421875,-4.990338097542524,-8.440653323462605,-0.14923019200265406
1633781387720136400,1.838136474609375,-5.029012988373637,-8.417735973733663,-0.1453971623115707
1633781387740015600,1.858015625,-5.07606232431829,-8.38950590454936,-0.142019055047445
1633781387759894300,1.877894287109375,-5.125331089878082,-8.359581306406856,-0.1369457429716829
1633781387779772400,1.8977724609375,-5.168490432646871,-8.332955165287851,-0.13766343538751824
1633781387799651300,1.9176513671875,-5.198179468467831,-8.314314762225747,-0.14652515256134793
1633781387819530500,1.937530517578125,-5.209693965172767,-8.306797810724378,-0.16300185651723295
1633781387839409400,1.957409423828125,-5.212601377052068,-8.304657876086235,-0.1784243752450682
1633781387859288600,1.97728857421875,-5.214882765987515,-8.302914831811188,-0.19233100951723753
1633781387879166500,1.99716650390625,-5.220634461382031,-8.299068093255162,-0.20209780403831973
1633781387899045400,2.01704541015625,-5.235514635127783,-8.289646769437194,-0.2037755097258836
1633781387918924300,2.03692431640625,-5.257485643917322,-8.275748592466115,-0.2030223715373315
1633781387938803500,2.056803466796875,-5.27401300034821,-8.265235381758213,-0.20261358980704097
1633781387958681300,2.076681396484375,-5.2762809452801935,-8.263793366256357,-0.20240202941559254
1633781387978560500,2.096560546875,-5.266920411738753,-8.269843167814612,-0.19907314072120932
1633781387998439400,2.116439453125,-5.245640892344713,-8.283385370954871,-0.19789839785341173
1633781388018318300,2.136318359375,-5.21201919324994,-8.304469660037755,-0.20254872614359481
1633781388038197500,2.156197509765625,-5.166155267697572,-8.332966855725646,-0.20711473715119064
1633781388058075400,2.176075439453125,-5.117267610409855,-8.363154488718509,-0.20395864774044603
1633781388077954300,2.195954345703125,-5.08889199527502,-8.380831015184521,-0.18772126896576954
1633781388097833500,2.21583349609375,-5.0938995943039656,-8.378191314330696,-0.1687310843516141
1633781388117712400,2.23571240234375,-5.113956293904781,-8.366102817130088,-0.1617136068049818
1633781388137590500,2.255590576171875,-5.127503173220157,-8.357791500380635,-0.1625603780937381
1633781388157469400,2.275469482421875,-5.127746334326267,-8.357572304672003,-0.16608077077222988
1633781388177349000,2.29534912109375,-5.1236926750212906,-8.36000040860176,-0.1689613129109144
1633781388197228300,2.315228271484375,-5.120214769777656,-8.36208890531361,-0.17106210284875706
1633781388217106200,2.335106201171875,-5.117653394857049,-8.363648409715294,-0.17148065705439075
1633781388236985000,2.354985107421875,-5.1152907573789355,-8.365067628863454,-0.17275308814300222
1633781388256864000,2.374864013671875,-5.113123934733867,-8.366260638040304,-0.17897435554433613
1633781388276743200,2.3947431640625,-5.110579510948062,-8.367643032309413,-0.1868815119396895
1633781388296622000,2.4146220703125,-5.109894451293349,-8.367968026480078,-0.19099055469371376
1633781388316500200,2.434500244140625,-5.111111425867676,-8.367221592026949,-0.19111180645320563
1633781388336379100,2.454379150390625,-5.114910818150639,-8.364866553333401,-0.1925283404539339
1633781388356258000,2.474258056640625,-5.119046895042062,-8.362177168118953,-0.19933767340891062
1633781388376137200,2.49413720703125,-5.122821152883768,-8.35960819441378,-0.2098931888885796
1633781388396015000,2.51401513671875,-5.124388840591907,-8.358373684182762,-0.22050916585121302
1633781388415894300,2.533894287109375,-5.125193142712116,-8.35768979357183,-0.22760171792805192
1633781388435773200,2.553773193359375,-5.1277778985083105,-8.356032674014568,-0.23023325374172998
1633781388455652400,2.57365234375,-5.133232656782865,-8.352630172094702,-0.23211179749732835
1633781388475531000,2.593531005859375,-5.141422392979264,-8.347638939678669,-0.23040621742215006
1633781388495409200,2.6134091796875,-5.153404507195949,-8.340451074001193,-0.22291270159529522
1633781388515288000,2.6332880859375,-5.169000720256567,-8.33103559540212,-0.213694864460174
1633781388535167200,2.653167236328125,-5.182680286040902,-8.322674009770154,-0.2081241516557522
1633781388555046100,2.673046142578125,-5.191420057335495,-8.317202884882688,-0.20900223139822482
1633781388574924300,2.69292431640625,-5.19549709751606,-8.31451291514635,-0.21462054620403795
1633781388594803200,2.71280322265625,-5.197805958980322,-8.312886190727353,-0.22162478067660704
1633781388614682000,2.73268212890625,-5.197409068617224,-8.313027645024658,-0.2256234401250258
1633781388634561000,2.75256103515625,-5.192916433373093,-8.315966621086002,-0.22071091723470015
1633781388654440200,2.772440185546875,-5.177679701274633,-8.325664423757791,-0.2128774836626835
1633781388674318000,2.792318115234375,-5.149610960131883,-8.343188974532485,-0.20755457160687074
1633781388694197200,2.812197265625,-5.111684841841459,-8.366673310494422,-0.19960111011806875
1633781388714076200,2.832076171875,-5.078053790396452,-8.387431436362862,-0.18642268052259459
1633781388733955000,2.851955078125,-5.065726808264851,-8.395265198728442,-0.1683103747215122
1633781388753833000,2.8718330078125,-5.073854000619053,-8.390800036013125,-0.1444298425162211
1633781388773712100,2.891712158203125,-5.0823471036762,-8.386078268188237,-0.11753655662732199
1633781388793591300,2.91159130859375,-5.073658185786009,-8.391635902315377,-0.09391490368708036
1633781388813470200,2.93147021484375,-5.0443952664226295,-8.409426995071769,-0.07746986437793821
1633781388833349000,2.95134912109375,-5.009978617557883,-8.430054188036918,-0.06852501723160967
1633781388853227300,2.971227294921875,-4.98840566817522,-8.442818977063894,-0.07069980855400208
1633781388873106200,2.991106201171875,-4.981308987912535,-8.446926412382721,-0.0798650889514014
1633781388892985000,3.010985107421875,-4.984055656272172,-8.445276891610026,-0.08281798394024371
1633781388912864300,3.0308642578125,-4.991971836224198,-8.440677288860082,-0.0746400386463385
1633781388932742100,3.0507421875,-4.998270059585571,-8.437115796986221,-0.052576072610029945
1633781388952621300,3.070621337890625,-4.9983062999427315,-8.437247314411401,-0.01299603136642836
1633781388972500000,3.0905,-4.990447987657785,-8.441852762380242,0.030706062809820286
1633781388992379100,3.110379150390625,-4.977614809569716,-8.449313015258312,0.05324113065632991
1633781389012258000,3.130258056640625,-4.968538353666663,-8.45472451891303,0.0405297888496425
1633781389032136200,3.15013623046875,-4.972061851617694,-8.452750003969669,-0.0006258034627346206
1633781389052015000,3.17001513671875,-4.9856788735598325,-8.44457955699563,-0.049853844571905205
1633781389071894300,3.189894287109375,-4.99711445980966,-8.437481707689166,-0.09019079599687829
1633781389091773200,3.209773193359375,-4.999434427189827,-8.435877195101975,-0.1096071153349243
1633781389111651000,3.229651123046875,-4.991144153228402,-8.440873688215017,-0.10253433653763495
1633781389131530000,3.249530029296875,-4.975125330841541,-8.450615914550424,-0.07483664349725004
1633781389151409200,3.2694091796875,-4.9620454845160245,-8.458544953984022,-0.03896279982782434
1633781389171287800,3.289287841796875,-4.9619244884848595,-8.458702774894236,-0.006530092463555047
1633781389191167000,3.3091669921875,-4.972418994492292,-8.452522040432692,0.01745373686107341
1633781389211044900,3.329044921875,-4.982243638414144,-8.446693188148737,0.03165497701551066
1633781389230923800,3.348923828125,-4.979615043476223,-8.448227558109163,0.0357473997115856
1633781389250802700,3.368802734375,-4.967197460451722,-8.455552201908827,0.031319319886935405
1633781389270681900,3.388681884765625,-4.9587090335696935,-8.460557462850213,0.023560878646734635
1633781389290559700,3.408559814453125,-4.963541276031732,-8.457744158995151,0.014612712740380084
1633781389310439000,3.42843896484375,-4.976449857443571,-8.450167001739144,-0.0010042649751696444
1633781389330317800,3.44831787109375,-4.98670880112946,-8.444078037214279,-0.02570448024641955
1633781389350196700,3.46819677734375,-4.9868976016998285,-8.443852996286749,-0.05091314893306698
1633781389370075600,3.48807568359375,-4.975908590173721,-8.450202657574415,-0.06932529163067229
1633781389389953800,3.507953857421875,-4.956843239697814,-8.46126824146807,-0.08382453976743855
1633781389409832700,3.527832763671875,-4.937766198784113,-8.472272450563311,-0.09726295373965986
1633781389429712000,3.5477119140625,-4.92704782089293,-8.478419867277145,-0.10473073233705944
1633781389449590800,3.5675908203125,-4.923686235505342,-8.480340021684766,-0.10740043560350312
1633781389469469000,3.587468994140625,-4.9200300510853525,-8.482469434928893,-0.10682588711855932
1633781389489347600,3.60734765625,-4.910686468678713,-8.487927700334787,-0.1030210423423443
1633781389509226800,3.627226806640625,-4.895739951698482,-8.496624217009543,-0.09739635259467176
1633781389529105700,3.647105712890625,-4.882053663912415,-8.504542150527238,-0.09333977068024688
1633781389548984800,3.66698486328125,-4.874767014035582,-8.508758891439438,-0.08974170052250846
1633781389568862700,3.68686279296875,-4.876604750856757,-8.507706167516112,-0.08971044686771928
1633781389588742000,3.706741943359375,-4.882590839529037,-8.504212480181454,-0.09516749756406061
1633781389608620800,3.726620849609375,-4.884684889198839,-8.502906658279896,-0.10398637111000716
1633781389628499700,3.746499755859375,-4.8850312184184785,-8.502608552116156,-0.11178345472700893
1633781389648377900,3.7663779296875,-4.887751291032135,-8.500930974292755,-0.12017247635517268
1633781389668256800,3.7862568359375,-4.8927869471117855,-8.497881523594259,-0.13052280638525263
1633781389688136000,3.806135986328125,-4.898020171590149,-8.494740887480974,-0.1383845984020736
1633781389708014800,3.826014892578125,-4.905065706187487,-8.490622346246242,-0.1415756221288815
1633781389727893800,3.845893798828125,-4.914491706180573,-8.485147129705547,-0.14297051968653685
1633781389747771600,3.865771728515625,-4.923879127728939,-8.4796578846395,-0.1455667375916615
1633781389767650800,3.88565087890625,-4.930631524598598,-8.475616500294208,-0.15227216264759189
1633781389787529700,3.90552978515625,-4.932885441005229,-8.474068101808427,-0.16491731648342683
1633781389807409000,3.925408935546875,-4.933171272209286,-8.473630294913052,-0.17830573556777088
1633781389827286800,3.945286865234375,-4.932582074144483,-8.473755382597446,-0.18840148804858325
1633781389847165700,3.965165771484375,-4.9280806710720055,-8.476263566026091,-0.19331028461186214
1633781389867044600,3.985044677734375,-4.915475456520915,-8.483623281139135,-0.19133403436914084
1633781389886923800,4.004923828125,-4.892042266224324,-8.49735603841543,-0.18233382204007356
1633781389906803000,4.024802978515625,-4.856824530109763,-8.51787392578721,-0.16572545452853663
1633781389926680800,4.044680908203125,-4.816766075965762,-8.540973061823845,-0.14469654889469966
1633781389946559700,4.064559814453125,-4.7863057635113595,-8.558331023859978,-0.12898219848028383
1633781389966438700,4.084438720703125,-4.769366319148242,-8.567841195005178,-0.12505394652010873
1633781389986317800,4.10431787109375,-4.754899694639444,-8.575853236547111,-0.12668298162720165
1633781390006195700,4.12419580078125,-4.7339361093267796,-8.587436706835032,-0.12705935892523265
1633781390026075000,4.144074951171875,-4.70717202104181,-8.602164320367574,-0.12526341541917063
1633781390045953800,4.163953857421875,-4.681988479946553,-8.61595669887662,-0.12101671776012517
1633781390065833000,4.1838330078125,-4.671382037997246,-8.621806593948602,-0.11409616124932653
1633781390085711600,4.203711669921875,-4.676982342222333,-8.61886235719025,-0.10684656458040699
1633781390105589800,4.22358984375,-4.689971003133058,-8.611847509992122,-0.1031804980872199
1633781390125468700,4.24346875,-4.699562130559981,-8.606594996291399,-0.10502848230777308
1633781390145347800,4.263347900390625,-4.7027156261548395,-8.60478356295526,-0.1120137746178545
1633781390165226800,4.283226806640625,-4.702150685748458,-8.604954827868937,-0.1221213180011604
1633781390185105200,4.303105224609375,-4.70305961728692,-8.604309515702724,-0.1321964934848249
1633781390204984000,4.322984130859375,-4.703147880092263,-8.60414760313928,-0.1394539446666371
1633781390224863000,4.342863037109375,-4.7000025678038595,-8.605784848952293,-0.14430068144490943
1633781390244742100,4.3627421875,-4.695661031468212,-8.608146901908516,-0.14473213166473434
1633781390264621300,4.382621337890625,-4.692173773874342,-8.610085761016606,-0.1425123001907952
1633781390284499200,4.402499267578125,-4.688730647683143,-8.611934019231796,-0.1441513726347126
1633781390304378400,4.42237841796875,-4.682279571847618,-8.615310802188516,-0.15182546005970798
1633781390324257000,4.442257080078125,-4.672663602240383,-8.62039497358501,-0.15932380732530727
1633781390344136200,4.46213623046875,-4.663283194954693,-8.625507786554097,-0.15746818778757005
1633781390364014000,4.48201416015625,-4.659254670090973,-8.627851134809852,-0.1480292004487477
1633781390383893200,4.501893310546875,-4.66118125423938,-8.626982535281776,-0.1376706962453667
1633781390403772200,4.521772216796875,-4.661643611054123,-8.626813608455658,-0.13247501816526056
1633781390423651300,4.5416513671875,-4.653990465952456,-8.630881880807877,-0.1365066665678285
1633781390443529200,4.561529296875,-4.639722286625206,-8.638364345517754,-0.14842663880111648
1633781390463408000,4.581408203125,-4.629125489287078,-8.643850667974352,-0.15943813615366817
1633781390483287000,4.601287109375,-4.623969129437208,-8.646506735441088,-0.16492317996863276
1633781390503166200,4.621166259765625,-4.622209134027361,-8.64734260174334,-0.17039810424838214
1633781390523045000,4.641045166015625,-4.619633146059513,-8.648514568132162,-0.18046395478127522
1633781390542923300,4.66092333984375,-4.61235672531575,-8.652094764706492,-0.1943992306260392
1633781390562802200,4.68080224609375,-4.597781379735469,-8.659542158102989,-0.20766630661934612
1633781390582681000,4.70068115234375,-4.57378880199045,-8.671974354174733,-0.21838552476074546
1633781390602560000,4.72056005859375,-4.546064928762615,-8.686315598738194,-0.22713764408025888
1633781390622438100,4.740438232421875,-4.52530709515512,-8.697020532625913,-0.23194098924137652
1633781390642317000,4.760317138671875,-4.516352804327011,-8.701683263739943,-0.23162006845762953
1633781390662196200,4.7801962890625,-4.516743264949321,-8.70144828594029,-0.23285030437232926
1633781390682075100,4.8000751953125,-4.520469591996074,-8.699465003168582,-0.2346480562429875
1633781390701953300,4.819953369140625,-4.518854850275814,-8.70036575140059,-0.2322910265217535
1633781390721832000,4.83983203125,-4.513515535074472,-8.703207112306355,-0.22967686196798456
1633781390741711000,4.859711181640625,-4.509652722166479,-8.70514012619555,-0.23229942902391776
1633781390761590300,4.87959033203125,-4.512528569863736,-8.70363089067638,-0.23299957664990797
1633781390781469200,4.89946923828125,-4.523093218497932,-8.698290698692203,-0.2274855442024767
1633781390801347300,4.919347412109375,-4.5354435815051195,-8.691969094455242,-0.2232055835946463
1633781390821226200,4.939226318359375,-4.5402106497764585,-8.689330562645196,-0.2289195407946594
1633781390841105200,4.959105224609375,-4.537629985633492,-8.690309052288532,-0.24254251755354925
1633781390860984000,4.978984130859375,-4.534438496115803,-8.691615458711981,-0.2551061579852365
1633781390880862200,4.9988623046875,-4.535016296003759,-8.691146087634563,-0.2607788150604814
1633781390900741000,5.0187412109375,-4.539003612074255,-8.68908330988586,-0.26012990443138406
1633781390920620300,5.038620361328125,-4.5393236378088595,-8.688879896268247,-0.26130828229468317
1633781390940499000,5.0584990234375,-4.531832989792526,-8.692592194789647,-0.26780995580628514
1633781390960377300,5.07837744140625,-4.516599472564459,-8.700255861285328,-0.2761515032972209
1633781390980256000,5.098256103515625,-4.500783771534264,-8.708366687026619,-0.2787033066718839
1633781391000135200,5.11813525390625,-4.493306567521393,-8.712279476556182,-0.2770430635757744
1633781391020014000,5.13801416015625,-4.497919906535745,-8.709790582349896,-0.2804468806698918
1633781391039893200,5.157893310546875,-4.500959712623059,-8.707993762061,-0.2873640579135157
1633781391059771100,5.177771240234375,-4.494874255229533,-8.710710035282373,-0.300029259023536
1633781391079650000,5.197650146484375,-4.483015182870626,-8.716626565849781,-0.3055695949560031
1633781391099529200,5.217529296875,-4.47114529685676,-8.722883288156986,-0.3008993746552616
1633781391119408000,5.237408203125,-4.461890269516408,-8.727901408579944,-0.29269783842321484
1633781391139286000,5.2572861328125,-4.456768688718975,-8.730508960729837,-0.29290627527581525
1633781391159165200,5.277165283203125,-4.4537940568223595,-8.731618967798351,-0.3048400933713652
1633781391179043000,5.29704296875,-4.454306974780559,-8.730626449629664,-0.3251308757226914
1633781391198922200,5.316922119140625,-4.461128345233202,-8.726357101747393,-0.3455505268843844
1633781391218801200,5.33680126953125,-4.477832811796665,-8.717402226397395,-0.3553863863199949
1633781391238679300,5.35667919921875,-4.513051424694061,-8.69942934733331,-0.3502654996423051
1633781391258558000,5.376557861328125,-4.560487714129686,-8.675142462816835,-0.3379764749009162
1633781391278437000,5.39643701171875,-4.607241281998157,-8.650510125863551,-0.33523462884686883
1633781391298316300,5.41631640625,-4.65072854154706,-8.626583891353011,-0.3509126749720424
1633781391318194200,5.436194091796875,-4.695301842767,-8.601308580321072,-0.3768466325758025
1633781391338073300,5.4560732421875,-4.7470606715768575,-8.571617206412553,-0.40397436654139307
1633781391357952000,5.475951904296875,-4.806113164526224,-8.537240889558195,-0.4326525082867592
1633781391377831200,5.4958310546875,-4.870740242737531,-8.499049982851743,-0.46088612113501876
1633781391397709000,5.515708984375,-4.934440853753686,-8.460582597291468,-0.4901209834476933
1633781391417588200,5.535588134765625,-4.994992645350099,-8.423010699266195,-0.522791153971292
1633781391437467100,5.555467041015625,-5.042966110402346,-8.392326222667098,-0.5547388189066201
1633781391457346300,5.57534619140625,-5.071444601389765,-8.373303542289138,-0.5819218632560224
1633781391477225000,5.595224853515625,-5.083994870883226,-8.364490121236443,-0.5989056947501376
1633781391497103000,5.61510302734375,-5.092618906843662,-8.358307633209227,-0.6118041200941429
1633781391516982000,5.63498193359375,-5.110477804139256,-8.34580587903261,-0.6331769803274423
1633781391536861200,5.654861083984375,-5.138716056630015,-8.326016890457272,-0.6643990709345787
1633781391556740000,5.674739990234375,-5.1803907137989995,-8.296418455529212,-0.7094785681109875
1633781391576618200,5.6946181640625,-5.214507502934336,-8.270252917659283,-0.7630224537067115
1633781391596497200,5.7144970703125,-5.214972782358527,-8.265623504292964,-0.8086374459993094
1633781391616376000,5.7343759765625,-5.181202030181884,-8.283458436191081,-0.842525760141015
1633781391636255200,5.754255126953125,-5.145206587693095,-8.304600008419156,-0.8549023535680025
1633781391656133000,5.774133056640625,-5.125214185500145,-8.316729422152042,-0.8570726102791726
1633781391676012000,5.794011962890625,-5.125437472862005,-8.314863628280163,-0.8736814344484358
1633781391695891200,5.81389111328125,-5.142722954183816,-8.301994794356823,-0.8942346853945404
1633781391715770400,5.833770263671875,-5.167293916338682,-8.285491987845301,-0.9055865388836711
1633781391735649000,5.85364892578125,-5.190302451482415,-8.270516537031531,-0.9108728087235242
1633781391755527200,5.873527099609375,-5.195996863731741,-8.266572767841815,-0.9142115246921777
1633781391775406000,5.893406005859375,-5.172801281583308,-8.280523551782965,-0.9194783591791987
1633781391795285200,5.91328515625,-5.130311216378212,-8.30613847003281,-0.9264778626777231
1633781391815164200,5.9331640625,-5.092117971584201,-8.3282030023247,-0.9390194374080747
1633781391835042300,5.953042236328125,-5.071944952127337,-8.338416353303193,-0.957374666853249
1633781391854921200,5.972921142578125,-5.058202257978916,-8.344546234360337,-0.976480787730962
1633781391874800000,5.992800048828125,-5.038865104824304,-8.354269755995274,-0.993179628271237
1633781391894679000,6.012678955078125,-5.01460978448987,-8.367361292758584,-1.0056514257010072
1633781391914557200,6.03255712890625,-4.98456360579431,-8.384275018158554,-1.0141150104027241
1633781391934436000,6.05243603515625,-4.959118198892474,-8.399099077802896,-1.016203360984102
1633781391954315300,6.072315185546875,-4.950848967719078,-8.404941374090313,-1.0081812364395708
1633781391974194200,6.092194091796875,-4.945910342273116,-8.409451544991136,-0.9947257617346942
1633781391994073000,6.112072998046875,-4.938316233882308,-8.4154499086231,-0.9816402893859892
1633781392013951000,6.131950927734375,-4.929938866159319,-8.421745209375024,-0.9696860860895364
1633781392033830100,6.151830078125,-4.908813076022267,-8.435204994928837,-0.9598156302645802
1633781392053709300,6.171709228515625,-4.876107614989579,-8.454755498573183,-0.9545048835705965
1633781392073588200,6.191588134765625,-4.8472035920664664,-8.47221867454946,-0.9468521768603473
1633781392093466000,6.211466064453125,-4.837001054742932,-8.479905721920728,-0.9300522870983928
1633781392113345000,6.231344970703125,-4.8326864064142105,-8.48449071162343,-0.9104681734453887
1633781392133224200,6.25122412109375,-4.8216319284364575,-8.49215262455344,-0.8975416179854422
1633781392153103000,6.27110302734375,-4.807710078328848,-8.500800625911355,-0.8903358513250946
1633781392172985900,6.29098583984375,-4.804797698013484,-8.503293027248978,-0.8822199110172688
1633781392192864800,6.31086474609375,-4.808836744271218,-8.501669809961319,-0.8758248031526803
1633781392212743700,6.33074365234375,-4.808353636929392,-8.502812550255655,-0.8673502586655318
1633781392232622800,6.350622802734375,-4.793450374568999,-8.512962188348174,-0.8501102239206433
1633781392252501800,6.370501708984375,-4.770669510701299,-8.52856015497446,-0.8214286846417933
1633781392272380000,6.3903798828125,-4.753170094367862,-8.541245449024439,-0.7904941788043827
1633781392292258800,6.4102587890625,-4.744536998318136,-8.547904322391748,-0.7701243216011673
1633781392312137700,6.4301376953125,-4.744300851474702,-8.54873843512833,-0.7622750694055109
1633781392332016600,6.4500166015625,-4.747524197435379,-8.547043321648239,-0.7612178885027766
1633781392351894800,6.469894775390625,-4.748540973262489,-8.546103410449623,-0.7654218429986387
1633781392371773700,6.489773681640625,-4.743419684726,-8.548502288284897,-0.7703541848342865
1633781392391652900,6.50965283203125,-4.7355827074900265,-8.553164434877038,-0.7668176082059741
1633781392411531800,6.52953173828125,-4.7273429946720595,-8.55864198950529,-0.7564803385868668
1633781392431410000,6.549409912109375,-4.717233396328985,-8.564974699658155,-0.7478658741723746
1633781392451288600,6.56928857421875,-4.704087206768989,-8.572399296700954,-0.745597052457556
1633781392471167700,6.589167724609375,-4.690816806307435,-8.579651459786295,-0.7457785465043038
1633781392491046700,6.609046630859375,-4.683125082761049,-8.583966400375962,-0.7444684137538075
1633781392510924800,6.6289248046875,-4.680274369505048,-8.585953190279007,-0.7394730166193098
1633781392530803700,6.6488037109375,-4.6818970022708175,-8.585544024956226,-0.7339291187565773
1633781392550683000,6.668682861328125,-4.685758938395977,-8.583787536677718,-0.7298310357879847
1633781392570561800,6.688561767578125,-4.687575340168178,-8.583146316164731,-0.7256955434184521
1633781392590440700,6.708440673828125,-4.683232050266862,-8.585717043435572,-0.723311790087074
1633781392610318600,6.728318603515625,-4.676295236741006,-8.589924431997536,-0.7182243307549506
1633781392630197800,6.74819775390625,-4.672217612038552,-8.59264187426269,-0.7122269169710577
1633781392650077000,6.768076904296875,-4.674834808799624,-8.591760415253043,-0.705666097150743
1633781392669955800,6.787955810546875,-4.683714573086798,-8.587191792163253,-0.7023765540860593
1633781392689834000,6.807833984375,-4.690240759985149,-8.583770585542917,-0.7006492188367992
1633781392709712600,6.827712646484375,-4.687936282435059,-8.585228383135796,-0.6982043099027126
1633781392729591800,6.847591796875,-4.681934703932702,-8.588888659209012,-0.6934514162871986
1633781392749470700,6.867470703125,-4.682309090203047,-8.589287887659669,-0.6859351223729551
1633781392769348900,6.887348876953125,-4.692266128332912,-8.584500653383135,-0.6777685478564351
1633781392789227800,6.907227783203125,-4.710356496296823,-8.575563898211717,-0.6653133362352848
1633781392809107000,6.92710693359375,-4.717962879647314,-8.572536074823141,-0.6502498418118804
1633781392828985600,6.946985595703125,-4.713426113000512,-8.576047297814489,-0.6367257588502019
1633781392848864800,6.96686474609375,-4.702699844063818,-8.582643627339602,-0.6270837049536406
1633781392868742700,6.98674267578125,-4.695620699457824,-8.586568691828846,-0.6263873201873154
1633781392888621800,7.006621826171875,-4.696188854734599,-8.586052559000253,-0.6291998933900147
1633781392908500700,7.026500732421875,-4.700753093910217,-8.583152745905519,-0.6346710913427174
1633781392928379600,7.046379638671875,-4.7044735757380725,-8.580712367016076,-0.6400797454532235
1633781392948257800,7.0662578125,-4.705527468705177,-8.58001620144546,-0.6416505019012838
1633781392968136700,7.08613671875,-4.702271974040568,-8.581997730651498,-0.6390051019590348
1633781392988015900,7.106015869140625,-4.702900042811036,-8.581893101233243,-0.6357781027365476
1633781393007894800,7.125894775390625,-4.706276825767755,-8.579938460034132,-0.6371815397936851
1633781393027772700,7.145772705078125,-4.710222056262195,-8.577579914209245,-0.6397787897452711
1633781393047651800,7.16565185546875,-4.716917754508555,-8.573902102479337,-0.6397521209340542
1633781393067530800,7.18553076171875,-4.727362576155365,-8.568504627349972,-0.6349385831724852
1633781393087409700,7.20540966796875,-4.737456976929307,-8.563407596471905,-0.6284258402775973
1633781393107287800,7.225287841796875,-4.739770514568686,-8.562563546863197,-0.6224697814173996
1633781393127166700,7.245166748046875,-4.738147297281026,-8.563960554179548,-0.6155818485345691
1633781393147046000,7.2650458984375,-4.739769637785852,-8.563682906281947,-0.6068822265872732
1633781393166924800,7.2849248046875,-4.745329025478661,-8.561292211753129,-0.5970979512084276
1633781393186799900,7.3047998046875,-4.7540869169518345,-8.556654615080356,-0.5938902777409181
1633781393206677800,7.324677734375,-4.761892914527654,-8.552069625377655,-0.597389591098763
1633781393226556700,7.344556640625,-4.763322070547938,-8.550563896989821,-0.6074487013636156
1633781393246435600,7.364435546875,-4.759639290381967,-8.552309863874315,-0.6117227619536221
1633781393266314800,7.384314697265625,-4.752764436176419,-8.556555830880999,-0.605780402825214
1633781393286192600,7.404192626953125,-4.7436429720878595,-8.562658239409327,-0.5908566821986809
1633781393306071800,7.42407177734375,-4.741745614033937,-8.56485253458321,-0.5740478054126724
1633781393325950700,7.44395068359375,-4.74974976453036,-8.560538763037323,-0.5722259237477556
1633781393345829600,7.46382958984375,-4.761610005933046,-8.553118842169642,-0.5844765527075156
1633781393365707500,7.48370751953125,-4.7664174062147735,-8.54939485321045,-0.5995804522065445
1633781393385586700,7.503586669921875,-4.765119183097779,-8.549488376712798,-0.6084941918285564
1633781393405465600,7.523465576171875,-4.76655476885885,-8.548336868590116,-0.6134142952371389
1633781393425344800,7.5433447265625,-4.7708355149179695,-8.545185126560925,-0.623962577258423
1633781393445222700,7.56322265625,-4.773542435789108,-8.542778649941086,-0.6360844652719795
1633781393465101800,7.583101806640625,-4.771588379111885,-8.542860483005642,-0.6495104946866631
1633781393484980500,7.60298046875,-4.770711888538301,-8.542742409583926,-0.6574642301701009
1633781393504859600,7.622859619140625,-4.772390050883591,-8.541371121230721,-0.6630612464595586
1633781393524738800,7.64273876953125,-4.773529576307535,-8.54049550743997,-0.6661334935117512
1633781393544616700,7.66261669921875,-4.771997544434666,-8.541326697567104,-0.6664576839648186
1633781393564496000,7.682495849609375,-4.768872398151457,-8.543369601571559,-0.6626144525401294
1633781393584374800,7.702374755859375,-4.767511046670377,-8.544699388870596,-0.655228507007286
1633781393604253700,7.722253662109375,-4.76786000623852,-8.545309629723429,-0.6446465419121086
1633781393624131600,7.742131591796875,-4.767518937715888,-8.546555830392242,-0.6305027196168899
1633781393644010800,7.7620107421875,-4.769523847797513,-8.546553492304682,-0.615182912344858
1633781393663889700,7.7818896484375,-4.772491173170507,-8.545722302177548,-0.6036243938351049
1633781393683768800,7.801768798828125,-4.77143231176734,-8.546597915968299,-0.5995691270949318
1633781393703646700,7.821646728515625,-4.76374877152741,-8.55060189091265,-0.6035648456675932
1633781393723526000,7.84152587890625,-4.757235151849687,-8.553935419249534,-0.6076939813615754
1633781393743404500,7.861404541015625,-4.756434941382706,-8.554051154583693,-0.6123124714750796
1633781393763283700,7.88128369140625,-4.763015781077742,-8.550206169593334,-0.614842574474588
1633781393783161600,7.90116162109375,-4.766545416508615,-8.548076171827315,-0.6171169491473585
1633781393803040800,7.921040771484375,-4.761195579913259,-8.550953188568354,-0.6185548729959875
1633781393822919700,7.940919677734375,-4.7497871739313,-8.557237383404374,-0.6193551565282046
1633781393842798600,7.960798583984375,-4.744393498194217,-8.560220198607444,-0.619479002103582
1633781393862677800,7.980677734375,-4.746588085629046,-8.558845403122902,-0.621655104033649
1633781393882555600,8.0005556640625,-4.75163367858082,-8.556067755103111,-0.621351883303374
1633781393902434600,8.0204345703125,-4.752126430533826,-8.556041451618075,-0.6179269503559917
1633781393922313700,8.040313720703125,-4.746990528950095,-8.5593895930022,-0.6110065034430474
1633781393942193000,8.06019287109375,-4.739692188635468,-8.564093240648507,-0.6016674876136705
1633781393962070800,8.08007080078125,-4.736728078132868,-8.566430159163474,-0.5916688022991642
1633781393981949700,8.09994970703125,-4.7392973440989845,-8.565472712308168,-0.584899856153503
1633781394001828600,8.11982861328125,-4.741988482879102,-8.564306006616354,-0.58017991495952
1633781394021707800,8.139707763671876,-4.7420633016809814,-8.56431243635714,-0.5794528793266043
1633781394041585700,8.159585693359375,-4.742721765589714,-8.563922560256719,-0.579834718251042
1633781394061464800,8.17946484375,-4.7406706782788035,-8.565088096904754,-0.57939318502862
1633781394081343700,8.19934375,-4.741023437239229,-8.565199156063795,-0.5748507558260113
1633781394101222700,8.21922265625,-4.741167521885037,-8.565024968540667,-0.576239725966379
1633781394121100500,8.2391005859375,-4.740001400715112,-8.566008134359121,-0.5712172946944832
1633781394140979700,8.258979736328126,-4.737649576891958,-8.5681913236171,-0.5578142077639698
1633781394160858600,8.278858642578125,-4.741346970105171,-8.56655115519464,-0.5515762632224709
1633781394180737300,8.2987373046875,-4.7515921775266525,-8.56065683645904,-0.5549042751340195
1633781394200616400,8.318616455078125,-4.756944059948623,-8.55722510844469,-0.5619253328772261
1633781394220494300,8.338494384765625,-4.750531270296872,-8.560660928112268,-0.5638442086432128
1633781394240373200,8.358373291015624,-4.741267767389118,-8.566302148869633,-0.5560891375370324
1633781394260252200,8.378252197265626,-4.739672899413109,-8.568295953035355,-0.5386922317299991
1633781394280131300,8.39813134765625,-4.7470779149726035,-8.565082251685856,-0.5243961780151352
1633781394300009200,8.41800927734375,-4.755051670330762,-8.560940329575539,-0.5197638785719871
1633781394319888400,8.437888427734375,-4.758227085496485,-8.558689920300244,-0.5277142895871773
1633781394339767300,8.457767333984375,-4.753717206856608,-8.560513628596066,-0.538676230443269
1633781394359646200,8.477646240234375,-4.743825050656497,-8.565605983299017,-0.5448907575765625
1633781394379524400,8.4975244140625,-4.734563301314413,-8.570767896106839,-0.5442646250348537
1633781394399403300,8.5174033203125,-4.729491697138547,-8.573699273383617,-0.5421836540423334
1633781394419282200,8.5372822265625,-4.7273152298823,-8.575047765383124,-0.5398438494505361
1633781394439161300,8.557161376953125,-4.724009466335177,-8.576972595965861,-0.5382076265508309
1633781394459039200,8.577039306640625,-4.720240761451423,-8.579124805563687,-0.5369785962125286
1633781394478918400,8.59691845703125,-4.71720709284395,-8.580960204297304,-0.5342874574324116
1633781394498797000,8.616797119140625,-4.712904427213966,-8.58328134072125,-0.534978325773403
1633781394518676200,8.63667626953125,-4.708953059239685,-8.585376267173885,-0.5361522283909842
1633781394538554000,8.65655419921875,-4.705782612510025,-8.587110543620586,-0.5362099864602089
1633781394558433300,8.676433349609376,-4.704721413019299,-8.587916599306464,-0.5326091124240309
1633781394578312200,8.696312255859375,-4.705503795568645,-8.587647719237207,-0.5300147850818931
1633781394598191400,8.71619140625,-4.703054648850858,-8.588843651023506,-0.5323768745707348
1633781394618070300,8.7360703125,-4.699268408310413,-8.590648654618859,-0.5366758138736709
1633781394637948200,8.7559482421875,-4.697526533079147,-8.591433082994818,-0.5393619476851076
1633781394657827300,8.775827392578124,-4.698611113445461,-8.59088772407174,-0.5386080240452662
1633781394677706200,8.795706298828126,-4.697229303698242,-8.591534205281734,-0.5403357246207073
1633781394697585400,8.81558544921875,-4.692627655121684,-8.59374428254664,-0.5451491893170402
1633781394717463300,8.83546337890625,-4.688770395171642,-8.595448163855075,-0.5514284522496163
1633781394737342500,8.855342529296875,-4.6862534439146515,-8.596609024327993,-0.5547419607117772
1633781394757221000,8.87522119140625,-4.683456214411557,-8.59812644315362,-0.5548439597815275
1633781394777100300,8.895100341796875,-4.682779630324244,-8.598677062773705,-0.5520151295637712
1633781394796978200,8.914978271484374,-4.685796932318806,-8.597209912830591,-0.5492412444036454
1633781394816857300,8.934857421875,-4.689529689106345,-8.595190974223613,-0.5489999829936772
1633781394836736300,8.954736328125,-4.689895307548344,-8.594863057443499,-0.5509799412971362
1633781394856615400,8.974615478515625,-4.683285241758823,-8.598245685619116,-0.5544266111522913
1633781394876493300,8.994493408203125,-4.676077210076153,-8.601939863961935,-0.5579536527672783
1633781394896372200,9.014372314453125,-4.673123620967567,-8.603504044538736,-0.5585868726368993
1633781394916251100,9.034251220703124,-4.673964747966826,-8.603225227597356,-0.5558499219536781
1633781394936130300,9.05413037109375,-4.676486375398934,-8.602297006836533,-0.5489376218145713
1633781394956008200,9.07400830078125,-4.680531851397454,-8.600557469692825,-0.5416890389258041
1633781394975887400,9.093887451171875,-4.686313649669289,-8.59758459136188,-0.5388631313174963
1633781394995766300,9.113766357421875,-4.691678391572832,-8.594222421452402,-0.5457762351742014
1633781395015645200,9.133645263671875,-4.69180552508384,-8.593414027678966,-0.5572962117718533
1633781395035524400,9.1535244140625,-4.687946219307184,-8.595015617656708,-0.5650186957826837
1633781395055402200,9.17340234375,-4.687723516467213,-8.595126092293858,-0.5651998245032503
1633781395075281400,9.193281494140624,-4.693659628517925,-8.592301682522892,-0.558848774976097
1633781395095160300,9.213160400390626,-4.700706624419987,-8.588701027682424,-0.5549315284671261
1633781395115039200,9.233039306640626,-4.7043590094476935,-8.586627728539705,-0.5560649894764647
1633781395134917400,9.25291748046875,-4.704894139237702,-8.58644944936335,-0.5542929383026436
1633781395154796300,9.27279638671875,-4.7026183032602065,-8.587981481236218,-0.5498600704217329
1633781395174675200,9.29267529296875,-4.70221059924215,-8.5884075976938,-0.5466727090898901
1633781395194554600,9.3125546875,-4.702447915129364,-8.587967452710867,-0.5515186512837186
1633781395214432800,9.332432861328124,-4.700712761899829,-8.588495860499144,-0.5580508295314386
1633781395234311700,9.352311767578126,-4.697168513421714,-8.590331259232759,-0.559636893146485
1633781395254190600,9.372190673828126,-4.692912317281961,-8.592920691204071,-0.555573333502002
1633781395274069500,9.392069580078125,-4.689582003815472,-8.59499282130301,-0.5516334002371878
1633781395293947600,9.41194775390625,-4.689888293285668,-8.594927939373255,-0.5500397743701935
1633781395313826600,9.43182666015625,-4.6932992707729335,-8.592749426290393,-0.554952644320391
1633781395333705700,9.451705810546875,-4.698517589943111,-8.589538647550343,-0.5604903316380456
1633781395353584600,9.471584716796874,-4.700089369304478,-8.588200676944851,-0.5677693096650764
1633781395373462800,9.491462890625,-4.6963300167709585,-8.589874163115024,-0.5735374447377398
1633781395393341400,9.511341552734375,-4.691774253162741,-8.592223941111564,-0.5756004051495343
1633781395413220600,9.531220703125,-4.689807337003946,-8.5933497302711,-0.5748334758976474
1633781395433099800,9.551099853515625,-4.69381920299381,-8.591319101226329,-0.5724454847825691
1633781395452977700,9.570977783203125,-4.700258003869653,-8.587899648171662,-0.5709024200590327
1633781395472856800,9.59085693359375,-4.702924592730403,-8.586350080642104,-0.5722632600834593
1633781395492735700,9.61073583984375,-4.703087089815735,-8.586046129259467,-0.5754815280102193
1633781395512614700,9.63061474609375,-4.704602755075693,-8.585006849339603,-0.5785885906474665
1633781395532493600,9.65049365234375,-4.710686166642606,-8.581611946204305,-0.5794415907476097
1633781395552371700,9.670371826171875,-4.719755900543928,-8.576674489802121,-0.5787521471787244
1633781395572250600,9.690250732421875,-4.728456801132857,-8.571932263711094,-0.577982989437133
1633781395592129800,9.7101298828125,-4.734882158005237,-8.568297706601022,-0.579256954895705
1633781395612008400,9.730008544921875,-4.739705632638931,-8.565703598454594,-0.5781887046096846
1633781395631886800,9.749886962890624,-4.745529224225878,-8.562861653026937,-0.5724836613684893
1633781395651765500,9.769765625,-4.752413138520717,-8.55937088830173,-0.5675591375131159
1633781395671644700,9.789644775390625,-4.7603342869088054,-8.555105632072687,-0.5654905145455151
1633781395691523600,9.809523681640625,-4.76814905231297,-8.550686062064766,-0.5664833615077659
1633781395711401700,9.829401611328125,-4.776900514045358,-8.545684892776608,-0.5682146057471633
1633781395731280600,9.84928076171875,-4.78110965617299,-8.54331114938259,-0.5685193243147805
1633781395751159600,9.86915966796875,-4.7789703060567374,-8.54469471269548,-0.5657037189047783
1633781395771038700,9.889038818359374,-4.771284135468304,-8.54916688967347,-0.56300797701478
1633781395790916600,9.90891650390625,-4.7632332232207055,-8.553599319162965,-0.5638599907342344
1633781395810795500,9.92879541015625,-4.758400980758667,-8.55644360267818,-0.5614831786002964
1633781395830674700,9.9486748046875,-4.7552799261286856,-8.558504626861215,-0.5564998737623915
1633781395850553900,9.968553955078125,-4.754829552012682,-8.558816761550307,-0.5555536424208433
1633781395870431700,9.988431640625,-4.75956885549426,-8.555842129653692,-0.560771559732221
1633781395890310700,10.008310546875,-4.764788635969162,-8.552342597100138,-0.569747404805012
1633781395910189600,10.028189453125,-4.768165126664936,-8.550209092202783,-0.5735108124591409
1633781395930068700,10.04806884765625,-4.7677582994297145,-8.550563896989821,-0.5716070611970498
1633781395949947600,10.06794775390625,-4.76885690832138,-8.550236564731597,-0.5673249634310603
1633781395969825800,10.08782568359375,-4.7733021972924465,-8.547767544269561,-0.567137039643526
1633781395989704700,10.10770458984375,-4.77600999494642,-8.545851481515168,-0.5731900560721754
1633781396009583600,10.12758349609375,-4.774259351886808,-8.5463880726099,-0.5797411216834559
1633781396029462500,10.147462646484374,-4.771082767677306,-8.548025902944802,-0.581738104186952
1633781396049340700,10.167340576171876,-4.773161327517032,-8.547106450012325,-0.5781723014641553
1633781396069219600,10.187219482421876,-4.777396188607812,-8.544882344222069,-0.5760672920089215
1633781396089098800,10.2070986328125,-4.779821954450011,-8.543435068023204,-0.5774060663320124
1633781396108977700,10.226977783203125,-4.777186052988469,-8.544585407102108,-0.5821878207158296
1633781396128855800,10.246855712890625,-4.775066284355521,-8.545386786612868,-0.5877896593108773
1633781396148734500,10.266734375,-4.775799274805188,-8.544666071122885,-0.5922913911769166
1633781396168613600,10.286613525390624,-4.777018295206129,-8.543745449146629,-0.595726041800715
1633781396188492800,10.306492919921874,-4.773362403047084,-8.545589031186699,-0.5985798968618735
1633781396208370700,10.32637060546875,-4.768445989432931,-8.548137546625734,-0.6013691622542217
1633781396228249900,10.346249755859375,-4.767376898896694,-8.548471893146633,-0.6051002020087093
1633781396248128800,10.366128662109375,-4.76547164979726,-8.54941238886714,-0.606804192915
1633781396268007700,10.386007568359375,-4.7628971231341355,-8.551056064420939,-0.6038633902227506
1633781396287885600,10.405885498046874,-4.762302664372324,-8.55153771045804,-0.6017264877919107
1633781396307764700,10.4257646484375,-4.767939501215517,-8.548768830266594,-0.5964020048335195
1633781396327643600,10.4456435546875,-4.772266716764867,-8.546806005761027,-0.5898739547716453
1633781396347522800,10.465522705078126,-4.77144020281285,-8.547402218088507,-0.5879217977905645
1633781396367400700,10.485400634765625,-4.767814121270179,-8.549278533354402,-0.5900662259407341
1633781396387280000,10.50527978515625,-4.767847439017892,-8.549050569817423,-0.593094889579527
1633781396407158500,10.525158447265625,-4.770749297939241,-8.547517953422664,-0.5918326876239851
1633781396427037700,10.54503759765625,-4.772239828757941,-8.54689426856637,-0.5888184543693438
1633781396446916600,10.56491650390625,-4.7706528518274425,-8.547973295974732,-0.586023782149516
1633781396466794800,10.584794677734376,-4.769359889407456,-8.548679982939362,-0.5862236155705526
1633781396486673700,10.604673583984376,-4.77230851007998,-8.54685510559976,-0.588831021589972
1633781396506552600,10.624552490234375,-4.777772912965714,-8.543464294117689,-0.5937096604770049
1633781396526431700,10.644431640625,-4.782179623492062,-8.540473295608162,-0.6012165655083954
1633781396546309600,10.6643095703125,-4.781981470571458,-8.539927352163195,-0.6104704603375867
1633781396566188800,10.684188720703125,-4.77762298310101,-8.542057934451103,-0.6147667327594012
1633781396586067700,10.704067626953124,-4.773699672177433,-8.544053492182492,-0.6175161775980145
1633781396605947000,10.72394677734375,-4.770540623624623,-8.545590784752369,-0.6206605400383473
1633781396625824800,10.74382470703125,-4.765588846436143,-8.548407595738768,-0.6199065798658877
1633781396645703700,10.76370361328125,-4.758222117060423,-8.552854638275504,-0.6151316936142742
1633781396665582600,10.78358251953125,-4.7533717544198035,-8.556029761180282,-0.6084385526511817
1633781396685461800,10.803461669921875,-4.752126722794771,-8.556765674239397,-0.6078191055785864
1633781396705339600,10.823339599609374,-4.750892212563753,-8.556980193772912,-0.6144071056667715
1633781396725218800,10.84321875,-4.7466781020000575,-8.558743111792205,-0.6223844412215054
1633781396745097700,10.86309765625,-4.740312950882315,-8.562115218573808,-0.62450640181154
1633781396764976600,10.8829765625,-4.735918515315651,-8.564711080285907,-0.6222452519465238
1633781396784854500,10.9028544921875,-4.7352153354823585,-8.565155901443958,-0.6214664495937526
1633781396804733700,10.922733642578125,-4.73462409159094,-8.565195648932457,-0.6254094150658697
1633781396824612600,10.942612548828125,-4.735308858984708,-8.56392022216916,-0.6375765304606408
1633781396844491800,10.96249169921875,-4.741521449889242,-8.559262751752138,-0.6537472554735839
1633781396864370700,10.98237060546875,-4.747039044266939,-8.554975868213177,-0.6696238929107785
1633781396884248800,11.002248779296876,-4.744663839568197,-8.555281573161482,-0.6824365396674722
1633781396904127500,11.02212744140625,-4.7362741968855255,-8.559325880116225,-0.6899443580143153
1633781396924006700,11.042006591796875,-4.728170093145966,-8.563973413661122,-0.6878691591754555
1633781396943885800,11.0618857421875,-4.723174769076705,-8.567275377815962,-0.6810230196077376
1633781396963763700,11.081763671875,-4.719642795558274,-8.569522864481806,-0.6772334180664271
1633781396983642600,11.101642578125,-4.714236260339617,-8.57253549030125,-0.6767590785529464
1633781397003521800,11.121521728515624,-4.704634319257736,-8.577695649543404,-0.6781850197028368
1633781397023400700,11.141400634765626,-4.697415473920107,-8.581456463381647,-0.680646076054126
1633781397043278600,11.161278564453125,-4.696698265561461,-8.581828803825378,-0.6808889448992907
1633781397063157800,11.18115771484375,-4.6978383755072946,-8.58120921062231,-0.6808508779112249
1633781397083036700,11.20103662109375,-4.697799797062576,-8.58109522885382,-0.6825448223475367
1633781397102915800,11.220915771484375,-4.696975621198117,-8.581285198467969,-0.6858271319538355
1633781397122793700,11.240793701171874,-4.698809850887954,-8.579949565950036,-0.6899611630186439
1633781397142673000,11.2606728515625,-4.70573701980263,-8.575660928845405,-0.6960443553898483
1633781397162551600,11.280551513671876,-4.712025598552823,-8.571931094667315,-0.6994300523053855
1633781397182431000,11.300430908203126,-4.718729187844693,-8.568221718755364,-0.6996799354132265
1633781397202309000,11.32030908203125,-4.7216240325033665,-8.566038529497385,-0.7068576450228691
1633781397222188000,11.34018798828125,-4.718611114422977,-8.566899530240892,-0.7164766103047877
1633781397242067200,11.360067138671875,-4.708252509754896,-8.571823542639613,-0.7256669749110937
1633781397261945900,11.37994580078125,-4.704335628572106,-8.573706287646294,-0.728805272936821
1633781397281825000,11.399824951171874,-4.711942596444487,-8.569671917563676,-0.7271308369185775
1633781397301703000,11.419702880859376,-4.722007771123946,-8.56416396779716,-0.7267265669666231
1633781397321582000,11.43958203125,-4.725094631223381,-8.562235630083084,-0.7293767161492258
1633781397341461000,11.4594609375,-4.72047836959958,-8.564683607757091,-0.7305312930118292
1633781397361340200,11.479340087890625,-4.71588198172003,-8.567363640621304,-0.7287881756715476
1633781397381218000,11.499218017578125,-4.717563066674769,-8.566805422216653,-0.7244583297736943
1633781397401097000,11.519096923828124,-4.726436985743046,-8.562253165739774,-0.7204073008172214
1633781397420975900,11.538975830078124,-4.736271858797967,-8.55675865997672,-0.7211122342161834
1633781397440855000,11.55885498046875,-4.742843346142768,-8.552834180009365,-0.7244742579951882
1633781397460733000,11.57873291015625,-4.745328148695826,-8.551323775446415,-0.7260196608062833
1633781397480612000,11.598612060546875,-4.749081071488559,-8.549204299074411,-0.7264505995694548
1633781397500491300,11.6184912109375,-4.756225098024308,-8.545275727453827,-0.7259182462584227
1633781397520370000,11.638369873046875,-4.760448268677294,-8.542738317930699,-0.7281056002348661
1633781397540247800,11.658247802734374,-4.758327038739622,-8.543136961859464,-0.7372383163698017
1633781397560127000,11.678126953125,-4.755813010092079,-8.54376123123765,-0.7461621389944106
1633781397580006100,11.698006103515626,-4.755386893634498,-8.543607501980661,-0.7506353388857095
1633781397599885000,11.717885009765626,-4.752630872924626,-8.545150639769435,-0.7505306364022195
1633781397619763200,11.73776318359375,-4.749199729432165,-8.547164317679405,-0.7493176073506475
1633781397639642000,11.75764208984375,-4.7480514361798765,-8.547679281464218,-0.7507233824953436
1633781397659521000,11.77752099609375,-4.747322245122492,-8.547706169471144,-0.7549967489656061
1633781397679400000,11.79739990234375,-4.743816867350041,-8.549445122092962,-0.7573513492677361
1633781397699278000,11.817278076171876,-4.740222057728469,-8.551362938413023,-0.7582040936395525
1633781397719157000,11.837156982421876,-4.737260285313427,-8.552810214611888,-0.7603904977679252
1633781397739036200,11.8570361328125,-4.733735910579562,-8.55418442557454,-0.7668497569099069
1633781397758915000,11.8769150390625,-4.728956275087595,-8.556246618801355,-0.7733035361591726
1633781397778793200,11.896793212890625,-4.727388587379456,-8.556979609251021,-0.7747796731263399
1633781397798672000,11.916671875,-4.726574056126177,-8.557531397914886,-0.7736573910981416
1633781397818551000,11.936551025390624,-4.724233630479872,-8.558833712685107,-0.7735441399820149
1633781397838430000,11.956429931640624,-4.723281152060627,-8.558813254418968,-0.7795562398783862
1633781397858308000,11.97630810546875,-4.726287055878341,-8.55608645980358,-0.7911862527217716
1633781397878187000,11.99618701171875,-4.727573880818486,-8.554798173558712,-0.7974074653241783
1633781397898066000,12.01606591796875,-4.723948383797705,-8.556940446284413,-0.795904659545794
1633781397917945000,12.035945068359375,-4.718895776583254,-8.560240656873583,-0.7903770552307366
1633781397937824000,12.055823974609375,-4.719685757917166,-8.560272221055627,-0.7852947835303843
1633781397957702000,12.075701904296874,-4.726769870959222,-8.556673904302716,-0.7818892128705978
1633781397977581000,12.0955810546875,-4.738026301249861,-8.550888306638598,-0.7770454261012375
1633781397997460200,12.115460205078126,-4.74786701952368,-8.546481596112251,-0.7653671171367168
1633781398017339000,12.1353388671875,-4.7523970641687505,-8.544932613104582,-0.7544836848769336
1633781398037217000,12.155217041015625,-4.75219365055114,-8.545155315944552,-0.7532331733591854
1633781398057096000,12.175095947265625,-4.752430089655518,-8.544388423225284,-0.7604021151404827
1633781398076975000,12.19497509765625,-4.7545375833287835,-8.542526721006631,-0.7681140046920627
1633781398096854000,12.21485400390625,-4.759686344394088,-8.539427001425624,-0.7706939381826668
1633781398116732200,12.234732177734376,-4.7667651967391365,-8.535861417898536,-0.7664123884059488
1633781398136611000,12.254611083984376,-4.7714545235991475,-8.5334093485713,-0.7645528050791471
1633781398156490000,12.274489990234375,-4.775346562601626,-8.530955525678396,-0.7676298013716936
1633781398176369000,12.294368896484375,-4.780700198589265,-8.52773890171945,-0.7700425616018474
1633781398196246500,12.31424658203125,-4.785842237652838,-8.525030227282643,-0.7680915005993098
1633781398216125400,12.33412548828125,-4.788485445638001,-8.523773505219816,-0.765562639708817
1633781398236004600,12.354004638671874,-4.789031681343912,-8.523421623042225,-0.7660617483373731
1633781398255883500,12.373883544921876,-4.7901381812810895,-8.522727795559167,-0.7668641507614403
1633781398275761700,12.39376171875,-4.793256021040678,-8.521223236215114,-0.7640846030455082
1633781398295640600,12.413640625,-4.797826105435193,-8.519219495177268,-0.757716602383554
1633781398315519500,12.43351953125,-4.803054945999383,-8.517160224559902,-0.7476863528870046
1633781398335398700,12.453398681640625,-4.808978783090413,-8.514504157093167,-0.7398185421213507
1633781398355277600,12.473277587890625,-4.815176760947704,-8.51108236595094,-0.7388806767493485
1633781398375155700,12.49315576171875,-4.820843700668216,-8.50720581677854,-0.7465345525033772
1633781398395034600,12.51303466796875,-4.823542730493843,-8.504732120141387,-0.7572028807077557
1633781398414913500,12.53291357421875,-4.823610535033047,-8.504193775480985,-0.7627989471491425
1633781398434792400,12.55279248046875,-4.822906770677864,-8.504889941051601,-0.7594770361848175
1633781398454670600,12.572670654296875,-4.826057343663275,-8.50377525780797,-0.7519084275614469
1633781398474549500,12.592549560546875,-4.831401919561625,-8.50107067502439,-0.7481566007472574
1633781398494428700,12.6124287109375,-4.83429033447951,-8.49914759800732,-0.7513446561988443
1633781398514307600,12.6323076171875,-4.834236558465659,-8.499016080582141,-0.753173771322146
1633781398534185700,12.652185791015626,-4.831977089101076,-8.500555126717686,-0.7503014307562261
1633781398554064600,12.672064697265625,-4.83162549918443,-8.501057815542817,-0.746849171410501
1633781398573943600,12.691943603515625,-4.831197336900234,-8.501214467409252,-0.7478351867731661
1633781398593822500,12.711822509765625,-4.829159401331841,-8.502121060860157,-0.7506929142918437
1633781398613700600,12.73170068359375,-4.826508302301169,-8.503966980987787,-0.7468272518396377
1633781398633579500,12.75157958984375,-4.8272623355388635,-8.504593588453531,-0.7347245069179683
1633781398653458700,12.771458740234374,-4.830195174120366,-8.503912620452047,-0.7232435471564531
1633781398673337300,12.79133740234375,-4.833240240904688,-8.502602122375368,-0.7182732113979756
1633781398693215500,12.811215576171875,-4.835891339935362,-8.501024497795104,-0.71911134272255
1633781398713094400,12.831094482421875,-4.837584992110729,-8.499776543560623,-0.7224650370646267
1633781398732973600,12.8509736328125,-4.838359775875508,-8.499327046227455,-0.7225552726313471
1633781398752852700,12.870852783203125,-4.836676645094156,-8.500431792598961,-0.720832759687677
1633781398772730600,12.890730712890624,-4.8318414800226686,-8.503300041511654,-0.7194239158030599
1633781398792609500,12.910609619140626,-4.8249210331097245,-8.507145026502013,-0.7204257132567465
1633781398812488400,12.930488525390626,-4.817872868163883,-8.510892396336793,-0.7233293257437646
1633781398832367600,12.95036767578125,-4.81499848177135,-8.512363053411244,-0.7251601944327354
1633781398852246500,12.97024658203125,-4.815545301999151,-8.512011755755543,-0.7256479048844426
1633781398872124700,12.990124755859375,-4.816246143744886,-8.51183347657919,-0.7230759355045855
1633781398892003600,13.010003662109375,-4.812649288296699,-8.514283792340755,-0.7181669014792889
1633781398911882800,13.0298828125,-4.805434242351353,-8.518554893788695,-0.7158336362261325
1633781398931761400,13.049761474609374,-4.798826806910336,-8.522206986555457,-0.7166702331807464
1633781398951639600,13.0696396484375,-4.793295184007286,-8.525160575664042,-0.7185643763642757
1633781398971518500,13.0895185546875,-4.790865618772805,-8.526683255186677,-0.7166958060134202
1633781398991397600,13.109397705078125,-4.790222060172259,-8.527676942399143,-0.7091459020905196
1633781399011276500,13.129276611328125,-4.789562427219749,-8.528825527912378,-0.6997268432948738
1633781399031154700,13.14915478515625,-4.79016653059274,-8.529225925406813,-0.6906424963463097
1633781399051033600,13.16903369140625,-4.793044424116611,-8.528263802376388,-0.6825146464049816
1633781399070912500,13.18891259765625,-4.794522679975628,-8.52796335812509,-0.6758427674256264
1633781399090791400,13.20879150390625,-4.794056231507659,-8.52861568455398,-0.6709059686105698
1633781399110669600,13.228669677734375,-4.793510580323637,-8.529248721760512,-0.6667559362590313
1633781399130548500,13.248548583984375,-4.798459434902668,-8.52693869125247,-0.6606815847814083
1633781399150427600,13.268427734375,-4.804559505343437,-8.523791625398397,-0.6569407908178866
1633781399170306600,13.288306640625,-4.810618659251928,-8.520701842689514,-0.6526548571269959
1633781399190186500,13.3081865234375,-4.810692309010029,-8.52111977584064,-0.6466334048803896
1633781399210064400,13.328064453125,-4.803894319432974,-8.525507781666517,-0.6392833343785256
1633781399229943600,13.347943603515626,-4.797283961382508,-8.530054777446388,-0.6281915931303054
1633781399249822500,13.367822509765626,-4.795122107173502,-8.531863872694968,-0.6200684193640947
1633781399269701400,13.387701416015625,-4.795379296804964,-8.531907127314806,-0.6174815446760505
1633781399289579300,13.407579345703125,-4.7963358668774365,-8.531353585085272,-0.6177032246027141
1633781399309458400,13.42745849609375,-4.797539981970191,-8.530642221945524,-0.6181714997015894
1633781399329337300,13.44733740234375,-4.801078969751298,-8.52902777248621,-0.6129503309872001
1633781399349216500,13.467216552734374,-4.8053535783305765,-8.526894267588853,-0.6091243429582566
1633781399369094400,13.487094482421876,-4.8098105577394366,-8.524416479298472,-0.6086414913447573
1633781399388973600,13.5069736328125,-4.8147158654376865,-8.521528941163421,-0.6102766913311556
1633781399408852200,13.526852294921875,-4.820828210838139,-8.518052204963565,-0.6105597460562363
1633781399428731400,13.5467314453125,-4.827905017356574,-8.51446148699522,-0.6046943246215581
1633781399448609300,13.566609375,-4.829378304779529,-8.513921973291039,-0.6005141163274645
1633781399468488400,13.586488525390624,-4.826428515063226,-8.515528823965788,-0.6014446021106093
1633781399488367600,13.60636767578125,-4.8229587931260465,-8.517173668563366,-0.60596617118828
1633781399508246500,13.62624658203125,-4.819085751084983,-8.518913205707072,-0.6122915382849052
1633781399528125400,13.64612548828125,-4.815757483445108,-8.520605396577716,-0.6149294490404427
1633781399548003300,13.66600341796875,-4.8112344530627125,-8.523341543543339,-0.6124217405358329
1633781399567882500,13.685882568359375,-4.80561690544188,-8.526635324391723,-0.6106716454654931
1633781399587761400,13.705761474609375,-4.799934183630347,-8.529562610015272,-0.6144608816806226
1633781399607640600,13.725640625,-4.7932542674750085,-8.532637195155024,-0.6238590438187122
1633781399627518500,13.7455185546875,-4.785514028611779,-8.536432495784759,-0.6313065102804452
1633781399647397600,13.765397705078126,-4.779765255826711,-8.539744981333612,-0.6300676161352544
1633781399667276300,13.7852763671875,-4.7760617251336575,-8.542199973270296,-0.6248410405933856
1633781399687155500,13.805155517578125,-4.775392739830911,-8.542596863633394,-0.6245417653858661
1633781399707033300,13.825033447265625,-4.776534895603358,-8.541563428932427,-0.6299130100954323
1633781399726912500,13.84491259765625,-4.773620177200437,-8.54254601022899,-0.6386348073419184
1633781399746791400,13.86479150390625,-4.765617195747793,-8.54651783646941,-0.6452199578858911
1633781399766670600,13.884670654296874,-4.759901156188548,-8.54948428505957,-0.6481120991308241
1633781399786548500,13.904548583984376,-4.759008299002051,-8.549704065290094,-0.651753816634044
1633781399806427400,13.924427490234375,-4.759565932884812,-8.54900205450058,-0.6568667026683688
1633781399826306300,13.944306396484375,-4.757249472635984,-8.549705234333873,-0.6644638797990977
1633781399846185500,13.964185546875,-4.752442364615201,-8.55172475746274,-0.6728074913829565
1633781399866064600,13.984064697265625,-4.7460406808793545,-8.55463158482015,-0.6810017576240003
1633781399885942500,14.003942626953124,-4.743714868280291,-8.555223120972514,-0.6897247969795018
1633781399905821400,14.023821533203124,-4.7446986186206335,-8.554023682054877,-0.6977796547498554
1633781399925700400,14.043700439453126,-4.7483831523522735,-8.551898944985867,-0.6987544911313801
1633781399945579500,14.06357958984375,-4.750210660040378,-8.551095227387547,-0.6961778455764055
1633781399965457400,14.08345751953125,-4.749627599455416,-8.551305655267834,-0.6975671810429542
1633781399985336600,14.103336669921875,-4.749205866912007,-8.551137897485495,-0.7024836677223444
1633781400005215500,14.123215576171875,-4.751426173309982,-8.549513511154055,-0.7072183680940419
1633781400025094400,14.143094482421875,-4.75376981382668,-8.548326347196102,-0.7058210685167461
1633781400044972500,14.16297265625,-4.753464401139318,-8.548931327351927,-0.7005218661300837
1633781400064851500,14.1828515625,-4.7536654766693704,-8.54929665353298,-0.6946778893422335
1633781400084730400,14.20273046875,-4.7566304639548065,-8.547697986164689,-0.6940594651829451
1633781400104609500,14.222609619140625,-4.7575455329731104,-8.546715989390016,-0.6998379755191505
1633781400124488400,14.242488525390625,-4.757439149989187,-8.546141404372452,-0.7075482576355338
1633781400144366600,14.26236669921875,-4.757478020694852,-8.545634623894095,-0.7133801055941731
1633781400164245200,14.282245361328124,-4.758951600378752,-8.544456227764487,-0.7176576367828995
1633781400184124000,14.3021240234375,-4.758737957628071,-8.54435744356513,-0.7202537907559424
1633781400204003000,14.322003173828126,-4.757576220372319,-8.544946641629934,-0.7209402386501431
1633781400223881000,14.341880859375,-4.758405072411895,-8.54443343141079,-0.7215350627381354
1633781400243760000,14.361760009765625,-4.760572187317908,-8.542989077821373,-0.7243463938318192
1633781400263639000,14.38163916015625,-4.760272035327554,-8.542945238679646,-0.7268264471445233
1633781400283518000,14.40151806640625,-4.757992107696831,-8.544187347695232,-0.7271596976868808
1633781400303396000,14.42139599609375,-4.753386951988936,-8.546622465887665,-0.7286696638584137
1633781400323275000,14.44127490234375,-4.751566750824451,-8.54741624661386,-0.7312086077515035
1633781400343154000,14.46115380859375,-4.7513741508618,-8.547142105847596,-0.735652143156901
1633781400363033000,14.481033203125,-4.7522933115333315,-8.546168876901268,-0.741015716016665
1633781400382912300,14.500912353515625,-4.7521410435810685,-8.546214469608664,-0.7414638981755822
1633781400402790100,14.5207900390625,-4.749370994345844,-8.548021226769686,-0.7383724349662661
1633781400422669000,14.5406689453125,-4.748944585627317,-8.54853502151072,-0.7351588797472417
1633781400442548000,14.5605478515625,-4.752943007613718,-8.546307408589124,-0.7352181356538087
1633781400462427100,14.58042724609375,-4.758410040847957,-8.543411102625727,-0.7335115509316325
1633781400482305000,14.600304931640625,-4.760796351462602,-8.542892047187685,-0.7240165042903274
1633781400502184200,14.62018408203125,-4.760091710324585,-8.544560857182741,-0.7087882477592676
1633781400522063000,14.64006298828125,-4.7605762789711354,-8.545619426324963,-0.6925945071969181
1633781400541942000,14.65994189453125,-4.760481878685951,-8.546589148139953,-0.6811815711703151
1633781400561820000,14.67981982421875,-4.758661969782412,-8.548276078313588,-0.6726689596951008
1633781400581699000,14.699698974609374,-4.759223403057455,-8.548544958382845,-0.6652487465664744
1633781400601578000,14.719577880859376,-4.765207738164067,-8.545597214493155,-0.6602624095212668
1633781400621457200,14.73945703125,-4.7711131628155705,-8.542385266709328,-0.6591819938734174
1633781400641336000,14.759336181640625,-4.772511046914756,-8.541706636795402,-0.6578498684868216
1633781400661214200,14.779214111328125,-4.767656300359964,-8.544715755483507,-0.6539630171161145
1633781400681092900,14.7990927734375,-4.761499531295895,-8.548437990877032,-0.6501532495696097
1633781400700972000,14.818971923828125,-4.75984942600131,-8.54952169446051,-0.6480020628850907
1633781400720851200,14.838851318359374,-4.765583585739136,-8.546376966693996,-0.6473236521668732
1633781400740729000,14.85872900390625,-4.774017067563533,-8.541918233719468,-0.6440316248841583
1633781400760608000,14.87860791015625,-4.776769873403013,-8.540688399663567,-0.6399218514777719
1633781400780487200,14.898487060546875,-4.771755844633281,-8.54372323731482,-0.6368178210478276
1633781400800366000,14.918365966796875,-4.765558451297879,-8.547316877892612,-0.6350022229932248
1633781400820244000,14.938243896484375,-4.764073181176185,-8.548214118993283,-0.6340635539036243
1633781400840123100,14.958123046875,-4.765587092870474,-8.547281222057341,-0.6352426806855946
1633781400860002000,14.978001953125,-4.768390167592465,-8.545688984429836,-0.6356303648289293
1633781400879881200,14.997881103515626,-4.771397240453958,-8.543938925892114,-0.6366095120593905
1633781400899760000,15.017760009765626,-4.774795942981541,-8.54195272051096,-0.6377695688147097
1633781400919638300,15.03763818359375,-4.777452010448276,-8.540500183615087,-0.6373228479605167
1633781400939517000,15.057516845703125,-4.777442073576152,-8.540948511904478,-0.6313702962316572
1633781400959396000,15.07739599609375,-4.778576046042144,-8.540959033298492,-0.6225969149284064
1633781400979275000,15.09727490234375,-4.785356207701564,-8.537752346211672,-0.6144493373733013
1633781400999153200,15.117153076171874,-4.791222761647403,-8.534564363825321,-0.6130068834800273
1633781401019032000,15.137031982421876,-4.792302665838599,-8.533859430426359,-0.6143892046838998
1633781401038911200,15.1569111328125,-4.7889691375017165,-8.535488492932915,-0.617746844548732
1633781401058790000,15.176789794921875,-4.787843056081235,-8.536295133140683,-0.6153091690730303
1633781401078668000,15.19666796875,-4.789871054777502,-8.535378018295765,-0.6122420365873724
1633781401098547000,15.216546875,-4.7926557170599695,-8.53385826138258,-0.6116329282457008
1633781401118426000,15.236426025390625,-4.796074877853691,-8.531701960131526,-0.6149130824275314
1633781401138305300,15.25630517578125,-4.800419044537842,-8.528947692987323,-0.6192155288618058
1633781401158184000,15.276183837890626,-4.806179800021648,-8.525676708492636,-0.6195579856239258
1633781401178062000,15.29606201171875,-4.808811317569017,-8.524314187967777,-0.6178914406511933
1633781401197940200,15.315940185546875,-4.806102935393154,-8.525647482398153,-0.6205626326218247
1633781401217819100,15.335819091796875,-4.799570903275907,-8.528892747929692,-0.6265016672819852
1633781401237698300,15.3556982421875,-4.796981471304595,-8.530103292763233,-0.6298267200514673
1633781401257576200,15.375576171875,-4.8035868609189984,-8.526384564501047,-0.6298408216420561
1633781401277455400,15.395455322265626,-4.812618016375601,-8.52111743775308,-0.6321874578334391
1633781401297334300,15.415334228515626,-4.815063655962049,-8.519360949474573,-0.6372123002581298
1633781401317213200,15.435213134765625,-4.813870354524255,-8.519882343000173,-0.6392553503930568
1633781401337092000,15.455092041015625,-4.81660971636027,-8.518418700188398,-0.6381264924935997
1633781401356970200,15.47497021484375,-4.822450843603908,-8.51494605564177,-0.6403480410005897
1633781401376849200,15.49484912109375,-4.826293782767653,-8.512220430070162,-0.6476002771511673
1633781401396728300,15.514728271484374,-4.82562742781341,-8.511964994004368,-0.6558692160636186
1633781401416607500,15.534607421875,-4.825929917891323,-8.511410282731056,-0.6608261078186333
1633781401436485400,15.5544853515625,-4.830284898230433,-8.509187345984577,-0.6576247544940561
1633781401456364300,15.5743642578125,-4.834110593998432,-8.507384680476784,-0.6528098284929991
1633781401476243200,15.5942431640625,-4.837260874722897,-8.50558376853466,-0.6529494561593979
1633781401496122400,15.614122314453125,-4.840944239410757,-8.502744161194562,-0.6625695174198597
1633781401516000300,15.634000244140625,-4.844087505872547,-8.50000626066327,-0.6746103760864586
1633781401535879400,15.65387939453125,-4.84324287174195,-8.500094523468613,-0.6795508281633258
1633781401555758300,15.67375830078125,-4.841059097962082,-8.501316758739948,-0.6798043645329773
1633781401575637200,15.69363720703125,-4.8451183102250095,-8.499003221100569,-0.6798222655158489
1633781401595515100,15.71351513671875,-4.850986325475573,-8.495190384814142,-0.6856085207670927
1633781401615394300,15.733394287109375,-4.854536711433529,-8.492856973430515,-0.689372403345257
1633781401635273200,15.753273193359375,-4.85590653848201,-8.49232447398901,-0.6862801364183425
1633781401655152400,15.77315234375,-4.861306936220824,-8.489856622570752,-0.6785501266881823
1633781401675031300,15.79303125,-4.868909812439978,-8.485731651595234,-0.6756069859083742
1633781401694909400,15.812909423828126,-4.874284198954701,-8.482593938091396,-0.676268883883208
1633781401714788000,15.8327880859375,-4.875571023894846,-8.481726507607101,-0.6778750769708305
1633781401734667300,15.852667236328125,-4.877228143452108,-8.480980657675861,-0.6752718356698751
1633781401754546200,15.872546142578125,-4.880661040510237,-8.479371468913556,-0.6706696025714278
1633781401774424300,15.89242431640625,-4.885020989285409,-8.477074882408976,-0.6679509912624955
1633781401794303200,15.91230322265625,-4.886478786878287,-8.475983580040932,-0.6711229723621159
1633781401814182400,15.932182373046874,-4.88471206946671,-8.476640582644938,-0.6756704065334052
1633781401834061300,15.952061279296874,-4.882227559174597,-8.477936467674374,-0.6773772835165262
1633781401853939200,15.971939208984375,-4.884500180281698,-8.47693518167734,-0.6735029993664473
1633781401873818000,15.991818115234375,-4.888695586144924,-8.474609369078278,-0.672339800805971
1633781401893697300,16.011697265625,-4.888992815525829,-8.473838969227671,-0.6798469615656882
1633781401913576400,16.031576416015625,-4.884793902531266,-8.475190383836626,-0.6930534299455583
1633781401933455000,16.051455078125,-4.877750121499598,-8.47837485909164,-0.7036353219754994
1633781401953333500,16.07133349609375,-4.87198322853595,-8.481607849663495,-0.7046237484909593
1633781401973212200,16.091212158203124,-4.868964757497609,-8.484088560563325,-0.6955585446342826
1633781401993091300,16.11109130859375,-4.871102061787248,-8.483796884140371,-0.6840607068032026
1633781402012970200,16.13097021484375,-4.877611297550797,-8.48059078157544,-0.6774036600667983
1633781402032848400,16.150848388671875,-4.881502167509496,-8.478340372300147,-0.6775446759726852
1633781402052727300,16.170727294921875,-4.879250881451368,-8.47969646308422,-0.6767953919753432
1633781402072606200,16.190606201171875,-4.873950144694745,-8.482892628777027,-0.6749168116871267
1633781402092485000,16.210485107421874,-4.87008119430691,-8.485506610667706,-0.6699788438282906
1633781402112363300,16.23036328125,-4.868994275853037,-8.486613110604882,-0.6638286506354808
1633781402132242200,16.2502421875,-4.872279873394966,-8.48502964080572,-0.6599525398544966
1633781402152121300,16.270121337890625,-4.876181557008624,-8.482910164433717,-0.6583953004751354
1633781402172000300,16.290000244140625,-4.8768239465653895,-8.4826447914958,-0.6570535304773598
1633781402191879200,16.309879150390625,-4.876168697527051,-8.483131698229908,-0.6556148029111325
1633781402211757300,16.32975732421875,-4.879696579392254,-8.481032095602155,-0.6565419276934117
1633781402231636200,16.34963623046875,-4.885371410158276,-8.47747644894719,-0.6602471388868987
1633781402251515400,16.369515380859376,-4.891835053214431,-8.473335695880651,-0.66551338885203
1633781402271394300,16.389394287109376,-4.894729313351213,-8.471215634986757,-0.6712012982953339
1633781402291272400,16.4092724609375,-4.890620124466717,-8.473509883403777,-0.6721925012897699
1633781402311151400,16.4291513671875,-4.883604108224809,-8.477671679258346,-0.670736895653978
1633781402331030300,16.4490302734375,-4.881531685864925,-8.479126554241775,-0.6674192955385894
1633781402350909200,16.4689091796875,-4.884855569590628,-8.477519119045137,-0.6635114744450896
1633781402370787300,16.488787353515626,-4.88680115070045,-8.47691706149876,-0.656830389245972
1633781402390666200,16.508666259765626,-4.885245737951994,-8.478349140128493,-0.649886488392204
1633781402410545400,16.52854541015625,-4.881060268960893,-8.481089963269234,-0.645555035059154
1633781402430424300,16.54842431640625,-4.875717738889158,-8.484227092251182,-0.6447056516882032
1633781402450302500,16.568302490234377,-4.870479545974731,-8.487314536872505,-0.6436699519649147
1633781402470181000,16.58818115234375,-4.8687300719588995,-8.488719142973423,-0.6383591322056948
1633781402490060300,16.608060302734376,-4.873608199389278,-8.486535953715443,-0.6301099209070206
1633781402509939500,16.627939453125,-4.88120552265048,-8.482819563540815,-0.6212731920439749
1633781402529818400,16.647818359375,-4.884868429072201,-8.481156598764658,-0.6151535401199013
1633781402549696300,16.6676962890625,-4.885591190388799,-8.480974227935075,-0.6119295731047169
1633781402569575400,16.687575439453123,-4.886143855835497,-8.480700671690702,-0.6113135235656052
1633781402589454300,16.707454345703123,-4.886190033064782,-8.480577337571978,-0.6126528093453496
1633781402609333200,16.727333251953127,-4.883187051856518,-8.482319212803244,-0.6124746762994676
1633781402629211400,16.74721142578125,-4.8824002853929995,-8.482769294658302,-0.6125228262901306
1633781402649090300,16.76709033203125,-4.887004856579005,-8.479834994772077,-0.6164213680986315
1633781402668969500,16.786969482421874,-4.892168230691552,-8.476269995766877,-0.6244312176834792
1633781402688848400,16.806848388671874,-4.895699619688093,-8.473783439648152,-0.6304719591524451
1633781402708726500,16.8267265625,-4.89889461633712,-8.471929920735954,-0.6305722046565264
1633781402728605200,16.846605224609377,-4.901416828291118,-8.470848555240035,-0.6254767081484198
1633781402748484400,16.866484375,-4.901759942640364,-8.47083686480224,-0.6229466782141476
1633781402768363300,16.88636328125,-4.901038350367545,-8.471280516916513,-0.6225930424708873
1633781402788241400,16.906241455078124,-4.899870475631952,-8.471813600879907,-0.6245158272270113
1633781402808120300,16.926120361328124,-4.90074112098664,-8.471423724779486,-0.6229733470253646
1633781402827999200,16.945999267578124,-4.903234983628988,-8.470360479462146,-0.6177968211703002
1633781402847878100,16.965878173828123,-4.905598205628991,-8.469251056915521,-0.6142215930320322
1633781402867757300,16.98575732421875,-4.904297644424438,-8.470095691046119,-0.6129691818181425
1633781402887635200,17.00563525390625,-4.89986550719589,-8.472777477476,-0.6113361007235943
1633781402907514400,17.025514404296874,-4.894518300949037,-8.476090547546743,-0.6082385000344366
1633781402927393500,17.0453935546875,-4.892027945438027,-8.477709673181176,-0.6057064242735505
1633781402947272200,17.065272216796874,-4.890152214694023,-8.478702775871753,-0.606965374826081
1633781402967150300,17.085150390625,-4.8871910268008705,-8.480193306690454,-0.6099785851674154
1633781402987029200,17.105029296875,-4.883029230946302,-8.48271902577579,-0.6081841394986957
1633781403006908400,17.124908447265625,-4.877670042000711,-8.486490945529937,-0.5984995251020416
1633781403026787300,17.144787353515625,-4.87207616751641,-8.49049550499618,-0.5871605676271021
1633781403046665500,17.16466552734375,-4.8702632728755475,-8.491980190595983,-0.5807017103439197
1633781403066544400,17.18454443359375,-4.871159929454326,-8.49146464228928,-0.5807097840525209
1633781403086423300,17.20442333984375,-4.86933534437567,-8.492270697975158,-0.5842041289743035
1633781403106302200,17.22430224609375,-4.863823302955925,-8.495314887976646,-0.5858648287281394
1633781403126181400,17.244181396484375,-4.858172145326435,-8.498696347108483,-0.5836946085495874
1633781403146059300,17.264059326171875,-4.855820906025171,-8.500465694868565,-0.5774645550535992
1633781403165938400,17.2839384765625,-4.855894555783271,-8.500791858083009,-0.572027843892388
1633781403185817300,17.3038173828125,-4.853749360448122,-8.50220757009983,-0.5691884922806173
1633781403205696300,17.3236962890625,-4.852679685389996,-8.502875678619741,-0.5683280760589987
1633781403225574100,17.34357421875,-4.854825465247035,-8.501570441240071,-0.5695190028766169
1633781403245453300,17.363453369140625,-4.855595865097642,-8.50112445103824,-0.569616727630049
1633781403265332200,17.383332275390625,-4.851598904415964,-8.503542033573984,-0.5675669554933905
1633781403285211400,17.40321142578125,-4.846472647443414,-8.506656366202234,-0.5647117852579802
1633781403305089300,17.42308935546875,-4.844208209642767,-8.50810305787921,-0.5623372016137466
1633781403324968400,17.442968505859376,-4.843763096223771,-8.508537942165136,-0.5595732533257455
1633781403344847000,17.46284716796875,-4.8425879149645565,-8.509488959279656,-0.5552705511631444
1633781403364726300,17.482726318359376,-4.841367140997946,-8.51061884009242,-0.5485655005665495
1633781403384604200,17.502604248046875,-4.841461833544075,-8.511145494315027,-0.5394586495252326
1633781403404483300,17.5224833984375,-4.841104982930421,-8.511995389142632,-0.5291654747761786
1633781403424362200,17.5423623046875,-4.838494508171081,-8.513891578152775,-0.5224931939380243
1633781403444241400,17.562241455078127,-4.835520460796356,-8.51570885670781,-0.5204222694154829
1633781403464119300,17.582119384765626,-4.834920449076592,-8.515939742854236,-0.5222038190700113
1633781403483998200,17.601998291015626,-4.836534898535907,-8.515041332709789,-0.5219181339964271
1633781403503877000,17.621877197265626,-4.840467561809718,-8.513204180410504,-0.5153687488855794
1633781403523756300,17.64175634765625,-4.844059741082787,-8.511854519367217,-0.5037792141830548
1633781403543635500,17.661635498046873,-4.846996671317518,-8.510720546901226,-0.49461646823603655
1633781403563513300,17.681513427734377,-4.8494867345675825,-8.50968535863459,-0.48796073667388407
1633781403583392300,17.701392333984376,-4.848434887427091,-8.510430039522051,-0.4854269073473289
1633781403603271200,17.721271240234376,-4.843505029809474,-8.51345435577929,-0.4816000425355509
1633781403623150300,17.741150390625,-4.83776853198409,-8.516878485009073,-0.4786988412013277
1633781403643028200,17.7610283203125,-4.836924190114439,-8.517358962002396,-0.4787056362682953
1633781403662907400,17.780907470703124,-4.838324412301183,-8.51645587568283,-0.48059349584151057
1633781403682786300,17.800786376953123,-4.836299920736253,-8.517516782912612,-0.48218091116342693
1633781403702665200,17.820665283203127,-4.830596448397636,-8.52078367575407,-0.4816383652519434
1633781403722543400,17.84054345703125,-4.826551556921005,-8.523087276521325,-0.48143933554850515
1633781403742422300,17.86042236328125,-4.82538543575108,-8.52367179841101,-0.48275155065823344
1633781403762301200,17.88030126953125,-4.8229587931260465,-8.524934950214623,-0.48470392683502284
1633781403782180400,17.900180419921874,-4.819317806275189,-8.52704916588962,-0.4837118470577523
1633781403802059300,17.920059326171874,-4.817637890364229,-8.528238083413243,-0.47948896866571156
1633781403821937400,17.9399375,-4.818751989085972,-8.527783325383067,-0.47637343046106395
1633781403841816000,17.959816162109377,-4.824019992616773,-8.524851363584398,-0.4755154619248584
1633781403861695200,17.9796953125,-4.831446635486185,-8.520673201116919,-0.4750063433589414
1633781403881574400,17.999574462890624,-4.836955462035537,-8.51785522108674,-0.46946460092067716
1633781403901452300,18.019452392578124,-4.839918403494358,-8.516695529657602,-0.4598573626091704
1633781403921331200,18.039331298828124,-4.840235798880458,-8.516967916858196,-0.45140250920318065
1633781403941210400,18.05921044921875,-4.845247781823575,-8.514395436021685,-0.44612011182084677
1633781403961089300,18.07908935546875,-4.850985156431794,-8.511128543180227,-0.44611945423372085
1633781403980967200,18.09896728515625,-4.856289984841644,-8.507879770517349,-0.45035384040046483
1633781404000846300,18.118846435546875,-4.860349489365518,-8.505297352808713,-0.4553035352297127
1633781404020725200,18.138725341796874,-4.863123922514915,-8.503409347105025,-0.4609102326629683
1633781404040604400,18.1586044921875,-4.8662385474041105,-8.501428986942768,-0.46457365054134275
1633781404060483300,18.1784833984375,-4.866651512119174,-8.501173550876974,-0.46490547631159423
1633781404080361500,18.198361572265625,-4.864571198713779,-8.502427934852243,-0.46371549934204664
1633781404100240100,18.218240234375,-4.8654593797251575,-8.502040981361269,-0.4615033762505278
1633781404120119300,18.238119384765625,-4.86982049754411,-8.499521692016721,-0.46189898797199125
1633781404139998200,18.257998291015625,-4.871112290920317,-8.498726157724857,-0.46293446849957104
1633781404159876400,18.27787646484375,-4.866791505111753,-8.501174135398864,-0.46343204275816674
1633781404179755300,18.29775537109375,-4.86172603841573,-8.504196113568543,-0.4611416667986661
1633781404199634700,18.317634765625,-4.8626361389979715,-8.503795716074109,-0.45892592697795476
1633781404219513900,18.337513916015624,-4.8688791250407695,-8.500284493082761,-0.45778497678190466
1633781404239391700,18.357391845703123,-4.874321900616586,-8.497259592303633,-0.4560178575115278
1633781404259270700,18.377270751953127,-4.8735512085050345,-8.497842945149541,-0.4533806774083525
1633781404279149800,18.39714990234375,-4.871285893921554,-8.4992791154325,-0.4507985884932801
1633781404299029000,18.417029052734375,-4.872479195359349,-8.49873901720643,-0.4480658755937591
1633781404318907600,18.43690771484375,-4.872466335877776,-8.498744862425326,-0.44811442744322116
1633781404338785800,18.456785888671874,-4.870717154122889,-8.499748486509919,-0.44806960192080586
1633781404358664700,18.476664794921874,-4.870687343506515,-8.499824474355577,-0.44694914652351286
1633781404378543900,18.4965439453125,-4.872574764688313,-8.49873843268454,-0.44705487192030996
1633781404398422800,18.5164228515625,-4.872520696413517,-8.49857184394598,-0.45077677852027115
1633781404418301000,18.536301025390625,-4.869010057944059,-8.500314888221025,-0.45580794108789413
1633781404438179800,18.556179931640624,-4.86594161028415,-8.5020561789304,-0.45611982004866003
1633781404458058800,18.576058837890624,-4.863932608549296,-8.503428051805496,-0.4519373467322439
1633781404477937700,18.595937744140624,-4.861806410175562,-8.504731535619497,-0.45028314978443085
1633781404497815800,18.61581591796875,-4.859670274929702,-8.505811732071638,-0.45294871573187406
1633781404517694700,18.63569482421875,-4.859036653201282,-8.505902917486429,-0.45800892173089086
1633781404537574000,18.655573974609375,-4.858679802587628,-8.505988257682324,-0.46020420328546313
1633781404557452800,18.675452880859375,-4.856354574510455,-8.507340256813167,-0.4597624143347144
1633781404577331700,18.695331787109374,-4.851844695870578,-8.510195646244288,-0.4544811129309237
1633781404597209600,18.715209716796874,-4.846056467857957,-8.513760645249485,-0.4494532748315483
1633781404617088800,18.7350888671875,-4.84208785648793,-8.516243109714985,-0.44517252877242863
1633781404636967700,18.7549677734375,-4.840635904113948,-8.51701701669693,-0.4461391087822616
1633781404656846800,18.774846923828125,-4.839084290757775,-8.517658237209915,-0.4507110198076814
1633781404676724700,18.794724853515625,-4.836847033224999,-8.518697517129779,-0.45507904229145496
1633781404696603600,18.814603759765625,-4.833004678583145,-8.5206176715374,-0.45993101236727085
1633781404716482800,18.83448291015625,-4.831368017292022,-8.521544723254442,-0.45995340686216946
1633781404736361700,18.85436181640625,-4.8287490669652815,-8.523267309263348,-0.4554950392138213
1633781404756240000,18.874239990234376,-4.826871290394664,-8.524615801262856,-0.4501290917338803
1633781404776118800,18.894118896484375,-4.825063071928918,-8.525551620808244,-0.45179618469588456
1633781404795998000,18.913998046875,-4.819883038942516,-8.527924195158482,-0.462188618568331
1633781404815876600,18.933876708984375,-4.8123269244745375,-8.531488609641789,-0.4749687512949109
1633781404835755800,18.953755859375,-4.80582207262516,-8.534933781659603,-0.478926987401396
1633781404855633700,18.973633544921874,-4.8018148828104135,-8.537408647340536,-0.4749927532250061
1633781404875512800,18.993512939453126,-4.799340309390425,-8.539111944127082,-0.46933235284313557
1633781404895391700,19.013391845703126,-4.798699381138384,-8.539538060584665,-0.4681286761417985
1633781404915271000,19.03327099609375,-4.798311843125522,-8.539795250216127,-0.4674386845836416
1633781404935148800,19.053148681640625,-4.797342998093367,-8.540614165383577,-0.46237676155157387
1633781404955027700,19.07302783203125,-4.7974151865467425,-8.540809395694732,-0.45800910439398135
1633781404974906600,19.09290673828125,-4.796862228839099,-8.54092279294133,-0.4616777464367449
1633781404994785800,19.112785888671876,-4.795775894907116,-8.540931560769677,-0.4726606570156291
1633781405014663700,19.13266357421875,-4.799531155787408,-8.538208273285626,-0.48361090743392704
1633781405034542800,19.15254296875,-4.804972762319445,-8.534892280605435,-0.488111141462624
1633781405054421800,19.172421875,-4.805155425409972,-8.534930274528264,-0.4856096069704741
1633781405074300700,19.19230078125,-4.801148235595226,-8.537391111683846,-0.48199148953855037
1633781405094179800,19.212179931640627,-4.801327976076305,-8.537259594258666,-0.48253034565560515
1633781405114057700,19.2320576171875,-4.805857143938541,-8.534418817874789,-0.4876690602509305
1633781405133937000,19.25193701171875,-4.809852058793604,-8.531900697574018,-0.49232777277696876
1633781405153815800,19.27181591796875,-4.808171558360756,-8.532729549613595,-0.494380613653548
1633781405173695000,19.291695068359374,-4.803096739314496,-8.53562819366455,-0.49365606223866343
1633781405193573400,19.311573486328125,-4.803141455239057,-8.535749774217605,-0.49111404960565264
1633781405213452500,19.33145263671875,-4.807071488164365,-8.533748371267318,-0.4874275431126356
1633781405233331700,19.351331787109373,-4.810105156771838,-8.53223562861681,-0.4839651276990771
1633781405253210600,19.371210693359377,-4.80993506090194,-8.532468852850794,-0.4815298268435523
1633781405273088500,19.391088623046876,-4.8108746798396105,-8.532022278127073,-0.48007487879488614
1633781405292967700,19.4109677734375,-4.812024142135679,-8.531247786623238,-0.4823172508941963
1633781405312846600,19.4308466796875,-4.814977438983321,-8.52938023918569,-0.48585919781737025
1633781405332725500,19.4507255859375,-4.815707214562595,-8.528820267215371,-0.4884222167057916
1633781405352604700,19.470604736328124,-4.813383155529201,-8.530380940660834,-0.4840548152765259
1633781405372482600,19.490482666015627,-4.812279578201473,-8.531384564745427,-0.47732148843351746
1633781405392361700,19.51036181640625,-4.816430268140137,-8.529179748177528,-0.47483843944612886
1633781405412240400,19.530240478515626,-4.823454175427556,-8.525077573555707,-0.4772137537427246
1633781405432119600,19.55011962890625,-4.827591421362757,-8.522682787373661,-0.47815571076795454
1633781405451997400,19.56999755859375,-4.8275800231859085,-8.522883862903713,-0.47466344820540396
1633781405471876600,19.589876708984374,-4.826166356995701,-8.523930157086253,-0.4702195109412074
1633781405491755500,19.609755615234373,-4.828681554687023,-8.522617905443907,-0.46819322927799073
1633781405511634700,19.629634765625,-4.832178164631128,-8.520441730448603,-0.47171939411014313
1633781405531512600,19.6495126953125,-4.832681730239093,-8.519900463178754,-0.4763084389334544
1633781405551391500,19.6693916015625,-4.832304129098356,-8.520154730200767,-0.47557552154902366
1633781405571270400,19.6892705078125,-4.832800095921755,-8.520257021531462,-0.4686621619639918
1633781405591149600,19.709149658203124,-4.833568157684803,-8.520156483766437,-0.46252026167549193
1633781405611028700,19.72902880859375,-4.835268239600956,-8.519251643881201,-0.461438311657682
1633781405630906600,19.74890673828125,-4.835764206424355,-8.51878928706646,-0.46476007649153467
1633781405650785800,19.768785888671875,-4.833729193465412,-8.519732120874524,-0.4686278578355908
1633781405670664400,19.78866455078125,-4.829453708103299,-8.522104695224762,-0.46956254486981774
1633781405690543600,19.808543701171875,-4.827112990196049,-8.523613930743933,-0.466230331707187
1633781405710421500,19.82842138671875,-4.826856385086477,-8.523976334315538,-0.4622542676830664
1633781405730300700,19.84830078125,-4.82962029684186,-8.522541333076358,-0.459819112958014
1633781405750179600,19.8681796875,-4.832241585256159,-8.521105747315287,-0.45889355907831336
1633781405770058800,19.888058837890625,-4.833121875222027,-8.520571494308113,-0.4595375560702756
1633781405789937400,19.9079375,-4.8306604535445565,-8.522010587200523,-0.45875024161748584
1633781405809815600,19.927815673828125,-4.823987551651895,-8.52576497129798,-0.4592107718013227
1633781405829694500,19.947694580078124,-4.817117665882408,-8.529837335303425,-0.4556927172103896
1633781405849573600,19.96757373046875,-4.814207623654604,-8.531831139469146,-0.44905477703325447
1633781405869452500,19.98745263671875,-4.811042437621951,-8.533844817379116,-0.444697860465385
1633781405889330700,20.00733056640625,-4.8053372117176645,-8.5372350443393,-0.4412773479647934
1633781405909209600,20.027209716796875,-4.7994952076911925,-8.54071762575805,-0.4374564745023846
1633781405929088500,20.047088623046875,-4.7983185651272535,-8.541700791576504,-0.4311056441709399
1633781405948967400,20.066967529296875,-4.8011105339333415,-8.540417181506752,-0.42544465926717967
1633781405968845600,20.086845458984374,-4.802776129058003,-8.539700557669997,-0.4210157734416425
1633781405988724500,20.106724365234374,-4.800870003175735,-8.540780754122137,-0.42081341926995663
1633781406008603600,20.126603759765626,-4.79930436129421,-8.54159850024581,-0.4221075142011046
1633781406028482600,20.146482666015626,-4.8005496851801865,-8.54079536716938,-0.42418760841079056
1633781406048361500,20.166361572265625,-4.799995266167819,-8.5410209926188,-0.4259023033741861
1633781406068239400,20.1862392578125,-4.7950025724470615,-8.54385300117433,-0.4253292161939665
1633781406088118500,20.206118408203125,-4.790739069783688,-8.546407946354151,-0.4220339740408584
1633781406107997700,20.225997802734376,-4.790707505601644,-8.54657395057082,-0.4190209098299965
1633781406127876600,20.245876708984376,-4.795426935338973,-8.543943602067232,-0.4186806450249627
1633781406147754800,20.265754638671876,-4.796844985443354,-8.542746501237154,-0.4267931512666866
1633781406167633400,20.28563330078125,-4.794169921015203,-8.543769999065995,-0.43624227640703317
1633781406187512000,20.305511962890623,-4.789221650958061,-8.546313253808021,-0.44077056748643517
1633781406207391200,20.32539111328125,-4.785798690772056,-8.548338622155786,-0.43864597654789683
1633781406227270100,20.345270263671875,-4.788539513912797,-8.547128077322244,-0.43227381116747854
1633781406247148000,20.36514794921875,-4.796232698763907,-8.543062143057584,-0.42737164527438576
1633781406267027200,20.385027099609374,-4.803081541745365,-8.539166889184713,-0.4282663656244054
1633781406286906400,20.40490625,-4.808302491264045,-8.536061908906698,-0.431573188617453
1633781406306785000,20.424784912109374,-4.812679098913073,-8.533318747678399,-0.4370027759181335
1633781406326663200,20.4446630859375,-4.813163667559623,-8.532615567845106,-0.4453093799598515
1633781406346542000,20.4645419921875,-4.814642800201475,-8.531201609393953,-0.4562946286262944
1633781406366421200,20.484421142578125,-4.810068916414678,-8.532631349936127,-0.47731589894294735
1633781406386300200,20.504300048828124,-4.786255202367902,-8.54487942161262,-0.49718211747296154
1633781406406179000,20.524178955078124,-4.756047987891733,-8.562120479270815,-0.49038818301651627
1633781406426057200,20.54405712890625,-4.7398397804126144,-8.572039815738796,-0.47373709060810504
1633781406445936000,20.56393603515625,-4.7447959415152665,-8.57020383248329,-0.45705826994255183
1633781406465815000,20.58381494140625,-4.752784309920668,-8.566093474555014,-0.45107305805310605
1633781406485694200,20.603694091796875,-4.770764203247428,-8.556167708346248,-0.44963433048687873
