 Acc_timestamp,Accx,Accy,Accz,Gyro_timestamp,Gyrox,Gyroy,Gyroz,Baro_timestamp,Pressure_Reading
 41709312.000000, 7.941778 , -10.169496, 10.729417, 1780696064.000000, -66.709999,  -105.419998,  -196.979996, 0.000000,  0.000000 
 41729280.000000, 7.334002 , -19.848463, 22.250856, 1780716032.000000, -60.689999,  -116.410004,  -264.670013, 0.000000,  0.000000 
 41749760.000000, 0.277567 , -27.103502, 26.835505, 1780756480.000000, -4.550000,  -140.839996,  -329.980011, 4042341120.000000,  1005.738098 
 41769984.000000, -1.603191 , -26.402405, 25.622343, 0.000000, 0.000000,  0.000000,  0.000000, 0.000000,  0.000000 
 41789184.000000, -3.859623 , -18.867407, 21.286551, 1780776704.000000, 95.269997,  -180.880005,  -313.250000, 0.000000,  0.000000 
 41809408.000000, -5.362316 , -13.875979, 19.202400, 1780795904.000000, 110.879997,  -214.130005,  -297.220001, 0.000000,  0.000000 
 41829376.000000, -7.216753 , -10.262815, 16.615761, 1780815872.000000, 54.250000,  -223.509995,  -291.899994, 0.000000,  0.000000 
 41851136.000000, -8.195417 , -6.979864, 12.885350, 1780836096.000000, -6.090000,  -199.289993,  -282.799988, 0.000000,  0.000000 
 41872128.000000, -8.578269 , -3.323631, 7.477571, 1780857600.000000, 16.940001,  -157.850006,  -252.699997, 0.000000,  0.000000 
 41889792.000000, -8.752945 , 1.067199, 4.481757, 1780878848.000000, 49.560001,  -125.580002,  -209.160004, 0.000000,  0.000000 
 41909760.000000, -9.178867 , 3.483950, 2.900101, 1780896256.000000, 22.190001,  -88.970001,  -190.119995, 0.000000,  0.000000 
 41929728.000000, -10.973484 , 2.806781, 0.830309, 1780916480.000000, -25.410000,  -42.700001,  -175.419998, 0.000000,  0.000000 
 41950464.000000, -10.872985 , 2.696711, -0.844666, 1780936448.000000, -20.790001,  -2.520000,  -166.669998, 0.000000,  0.000000 
 41970688.000000, -10.437491 , 4.110869, -2.160719, 1780957184.000000, 15.680000,  11.340000,  -106.680000, 0.000000,  0.000000 
 41990144.000000, -10.222138 , 4.168297, -3.127419, 1780977408.000000, 28.210001,  11.060000,  -38.220001, 0.000000,  0.000000 
 42010112.000000, -8.051848 , 2.919244, -2.742175, 1780996608.000000, 9.870000,  22.610001,  16.450001, 0.000000,  0.000000 
 42030080.000000, -6.132804 , 1.811367, -1.387837, 1781016832.000000, -14.420000,  33.670002,  78.750000, 0.000000,  0.000000 
 42050560.000000, -6.151947 , 1.194018, 1.567299, 1781036800.000000, -16.940001,  57.400002,  148.539993, 0.000000,  0.000000 
 42070784.000000, -7.697710 , -4.412365, 4.965107, 1781057280.000000, -9.590000,  102.620003,  214.479996, 0.000000,  0.000000 
 42090240.000000, -9.990034 , -13.782660, 14.534004, 1781077504.000000, -14.770000,  148.680008,  289.519989, 0.000000,  0.000000 
 42110208.000000, -9.635897 , -26.141586, 24.354149, 1781096960.000000, -128.520004,  186.619995,  343.630005, 0.000000,  0.000000 
 42130176.000000, -8.583055 , -29.245077, 26.952753, 1781116928.000000, -224.770004,  222.600006,  387.730011, 0.000000,  0.000000 
 42150400.000000, -3.608376 , -23.684158, 26.199015, 1781136896.000000, -200.899994,  228.059998,  340.690002, 0.000000,  0.000000 
 42171904.000000, 1.605584 , -15.905092, 22.772491, 1781156864.000000, -77.000000,  222.320007,  286.860016, 0.000000,  0.000000 
 42191360.000000, 3.933800 , -11.217552, 17.824135, 1781178624.000000, 27.860001,  219.729996,  231.910004, 0.000000,  0.000000 
 42211328.000000, 4.290331 , -7.542177, 14.421541, 1781197824.000000, 69.510002,  190.680008,  180.250000, 0.000000,  0.000000 
 42231296.000000, 4.881358 , -6.297909, 11.720046, 1781218048.000000, 19.740000,  147.979996,  148.610001, 0.000000,  0.000000 
 42251520.000000, 7.161718 , -5.867201, 9.743573, 1781238016.000000, -60.970001,  104.860001,  126.559998, 0.000000,  0.000000 
 42271744.000000, 9.212367 , -4.235296, 8.202596, 1781258240.000000, -89.040001,  68.599998,  127.330002, 0.000000,  0.000000 
 42291200.000000, 12.028719 , -2.120041, 8.166703, 1781278464.000000, -52.290001,  38.009998,  127.889999, 0.000000,  0.000000 
 42311168.000000, 14.555541 , -0.150748, 8.135597, 1781297920.000000, 3.570000,  1.960000,  122.150002, 0.000000,  0.000000 
 42331136.000000, 15.120246 , 1.105484, 6.838687, 1781317888.000000, 58.799999,  -47.110001,  99.610001, 0.000000,  0.000000 
 42351616.000000, 15.572490 , 1.646262, 4.721039, 1781337856.000000, 104.930000,  -97.230003,  43.820000, 0.000000,  0.000000 
 42371840.000000, 13.519447 , 0.267996, 6.733403, 1781358336.000000, 85.330002,  -135.520004,  -13.720000, 0.000000,  0.000000 
 42391296.000000, 10.482956 , -6.245267, 9.635897, 1781378304.000000, -15.960000,  -155.399994,  -84.419998, 0.000000,  0.000000 
 42411264.000000, 9.628718 , -18.740587, 16.139589, 1781397760.000000, -82.389999,  -170.309998,  -165.970001, 0.000000,  0.000000 
 42431232.000000, 5.252246 , -29.783464, 28.003202, 1781417984.000000, -91.419998,  -177.309998,  -231.419998, 0.000000,  0.000000 
 42451456.000000, -3.876373 , -32.353355, 27.773493, 1781437696.000000, -45.779999,  -169.190002,  -263.410004, 0.000000,  0.000000 
 42471680.000000, -2.203789 , -25.349564, 24.969107, 1781458176.000000, 112.910004,  -209.020004,  -348.320007, 0.000000,  0.000000 
 42491136.000000, -4.039084 , -18.221344, 19.295721, 1781478400.000000, 148.539993,  -252.559998,  -294.980011, 0.000000,  0.000000 
 42511104.000000, -7.027720 , -12.825529, 16.197016, 1781497856.000000, 96.739998,  -272.790009,  -318.709991, 0.000000,  0.000000 
 42531072.000000, -9.166903 , -8.465806, 12.971491, 1781517824.000000, 23.590000,  -261.100006,  -332.850006, 0.000000,  0.000000 
 42551552.000000, -10.571491 , -4.393222, 7.302894, 1781537792.000000, -11.340000,  -206.220001,  -307.929993, 0.000000,  0.000000 
 42571776.000000, -8.238488 , -0.021535, 3.517449, 1781558016.000000, 11.760000,  -144.690002,  -254.940002, 0.000000,  0.000000 
 42590976.000000, -6.599405 , 3.096312, 2.072184, 1781578240.000000, 6.790000,  -100.449997,  -210.419998, 0.000000,  0.000000 
 42611200.000000, -11.112268 , 2.584249, -0.519243, 1781597696.000000, -31.010000,  -53.760002,  -205.169998, 0.000000,  0.000000 
 42630912.000000, -14.165509 , 2.545963, -1.483550, 1781617664.000000, -38.570000,  7.420000,  -204.610001, 0.000000,  0.000000 
 42651392.000000, -10.415956 , 3.699304, -1.110270, 1781637632.000000, -33.670002,  51.869999,  -144.690002, 0.000000,  0.000000 
 42671616.000000, -8.609376 , 4.398008, -1.282553, 1781658112.000000, -16.520000,  57.119999,  -49.630001, 0.000000,  0.000000 
 42691072.000000, -8.941978 , 3.046063, -0.535992, 1781678336.000000, -9.660000,  71.959999,  7.910000, 0.000000,  0.000000 
 42711040.000000, -8.049455 , 1.890330, -0.323031, 1781697536.000000, -4.970000,  87.290001,  48.860001, 0.000000,  0.000000 
 42731008.000000, -5.852845 , 1.220340, 0.698704, 1781717760.000000, 11.480000,  95.059998,  112.770004, 0.000000,  0.000000 
 42751488.000000, -4.874180 , -1.371087, 5.221139, 1781737728.000000, 3.360000,  107.379997,  175.979996, 0.000000,  0.000000 
 42771456.000000, -6.015556 , -7.508677, 10.454242, 1781757952.000000, -16.170000,  129.919998,  207.759995, 4043342848.000000,  1005.737488 
 42790912.000000, -5.072784 , -14.782858, 17.283358, 1781778176.000000, -16.309999,  168.000000,  246.820007, 0.000000,  0.000000 
 42811136.000000, -5.649454 , -19.130617, 23.674585, 1781797632.000000, -42.420002,  203.279999,  318.570007, 0.000000,  0.000000 
 42830848.000000, -9.123833 , -22.303499, 24.067011, 1781817600.000000, -126.279999,  236.460007,  332.779999, 0.000000,  0.000000 
 42851072.000000, -2.091327 , -18.790836, 23.193630, 1781837568.000000, -187.669998,  225.259995,  268.519989, 0.000000,  0.000000 
 42873344.000000, 4.278367 , -11.794223, 21.906290, 1781857792.000000, -183.119995,  193.130005,  251.649994, 0.000000,  0.000000 
 42890752.000000, 2.766103 , -12.306287, 19.606789, 1781880064.000000, -139.930008,  197.889999,  226.589996, 0.000000,  0.000000 
 42910720.000000, 0.064606 , -11.387443, 16.742580, 1781897472.000000, -82.110001,  187.949997,  155.190002, 0.000000,  0.000000 
 42930688.000000, 4.228118 , -8.066205, 13.557733, 1781917440.000000, 23.450001,  145.460007,  120.330002, 0.000000,  0.000000 
 42951168.000000, 7.769495 , -5.199604, 9.784252, 1781937408.000000, 124.389999,  99.680000,  150.570007, 0.000000,  0.000000 
 42971392.000000, 7.695317 , -2.266003, 7.676175, 1781957888.000000, 159.389999,  75.669998,  146.509995, 0.000000,  0.000000 
 42990848.000000, 8.855836 , 0.181855, 3.902694, 1781978112.000000, 105.279999,  64.610001,  95.900002, 0.000000,  0.000000 
 43010816.000000, 10.856236 , 0.734596, 5.828916, 1781997568.000000, 28.980000,  41.160000,  71.330002, 0.000000,  0.000000 
 43030784.000000, 10.777272 , 3.974478, 8.403593, 1782017536.000000, -13.160000,  0.280000,  62.160000, 0.000000,  0.000000 
 43051008.000000, 12.241680 , 6.082555, 9.066404, 1782037504.000000, -69.650002,  -44.099998,  10.570000, 0.000000,  0.000000 
 43071232.000000, 10.674382 , 6.384050, 9.030513, 1782057728.000000, -69.930000,  -96.739998,  -33.529999, 0.000000,  0.000000 
 43090688.000000, 7.066005 , 3.627519, 8.621340, 1782077952.000000, -40.670002,  -136.919998,  -84.910004, 0.000000,  0.000000 
 43110656.000000, 7.262216 , -0.258425, 9.480364, 1782097408.000000, -8.750000,  -174.930008,  -135.940002, 0.000000,  0.000000 
 43130624.000000, 10.794022 , -7.594819, 16.441084, 1782117376.000000, -13.160000,  -216.440002,  -155.330002, 0.000000,  0.000000 
 43151104.000000, 10.573883 , -26.036304, 27.641886, 1782137344.000000, -49.000000,  -223.229996,  -153.860001, 0.000000,  0.000000 
 43171328.000000, 0.562313 , -34.133617, 28.522444, 1782157568.000000, -67.620003,  -200.830002,  -136.149994, 0.000000,  0.000000 
 43190784.000000, -3.256632 , -26.897718, 25.107887, 1782178048.000000, 49.700001,  -201.250000,  -245.139999, 0.000000,  0.000000 
 43210752.000000, -1.804188 , -19.812572, 18.388842, 1782197248.000000, 150.149994,  -257.040009,  -227.220001, 0.000000,  0.000000 
 43230720.000000, -1.942972 , -14.411970, 13.457234, 1782217216.000000, 81.970001,  -285.529999,  -214.899994, 0.000000,  0.000000 
 43250944.000000, -3.074777 , -10.083356, 10.061819, 1782237440.000000, 11.340000,  -276.290009,  -257.110016, 0.000000,  0.000000 
 43271168.000000, -4.094120 , -6.814759, 7.331609, 1782257664.000000, -40.389999,  -217.910004,  -274.119995, 0.000000,  0.000000 
 43290624.000000, -5.142176 , -4.010371, 4.156333, 1782277888.000000, -37.099998,  -137.970001,  -264.390015, 0.000000,  0.000000 
 43310592.000000, -6.996613 , -0.179462, 3.701697, 1782317312.000000, -24.150000,  -22.120001,  -240.100006, 0.000000,  0.000000 
 43330560.000000, -8.934800 , 1.945365, 3.814159, 0.000000, 0.000000,  0.000000,  0.000000, 0.000000,  0.000000 
 43350784.000000, -10.602598 , 2.187040, 2.208575, 1782337280.000000, -18.620001,  19.950001,  -219.449997, 0.000000,  0.000000 
 43371264.000000, -10.293922 , 3.292524, 0.997807, 1782357504.000000, 26.809999,  55.160000,  -185.430008, 0.000000,  0.000000 
 43390464.000000, -9.329616 , 5.261817, -0.564706, 1782377728.000000, 85.190002,  58.450001,  -108.010002, 0.000000,  0.000000 
 43410432.000000, -8.819944 , 5.668597, -2.254039, 1782397184.000000, 100.309998,  50.750000,  -15.330000, 0.000000,  0.000000 
 43430656.000000, -7.436893 , 4.321437, -1.840081, 1782417152.000000, 44.170002,  55.299999,  28.000000, 0.000000,  0.000000 
 43450880.000000, -5.673382 , 2.208575, -0.308674, 1782437120.000000, -70.559998,  70.980003,  63.420002, 0.000000,  0.000000 
 43471104.000000, -5.680561 , 0.370888, 3.306881, 1782457600.000000, -152.320007,  88.760002,  114.379997, 0.000000,  0.000000 
 43490560.000000, -6.345766 , -3.026921, 7.133004, 1782477824.000000, -170.240005,  108.290001,  156.940002, 0.000000,  0.000000 
 43510528.000000, -7.733603 , -11.152946, 9.564112, 1782497280.000000, -136.360001,  123.550003,  203.839996, 0.000000,  0.000000 
 43530496.000000, -4.969893 , -20.295921, 19.439291, 1782517248.000000, -110.879997,  147.770004,  266.489990, 0.000000,  0.000000 
 43550720.000000, -6.295516 , -25.481169, 24.701107, 1782537216.000000, -210.559998,  175.279999,  354.690002, 0.000000,  0.000000 
 43570944.000000, -6.795617 , -26.617760, 22.399214, 1782557440.000000, -260.540009,  202.720001,  359.519989, 0.000000,  0.000000 
 43590400.000000, 2.734996 , -20.566309, 22.743780, 1782577664.000000, -266.000000,  168.490005,  258.510010, 0.000000,  0.000000 
 43610368.000000, 8.910872 , -16.158731, 21.097519, 1782597120.000000, -269.989990,  140.490005,  246.960007, 0.000000,  0.000000 
 43630336.000000, 7.532606 , -14.912071, 17.099110, 1782617088.000000, -222.529999,  118.790001,  239.470001, 0.000000,  0.000000 
 43650816.000000, 4.831109 , -10.925629, 11.794223, 1782637056.000000, -98.349998,  97.300003,  200.899994, 0.000000,  0.000000 
 43671040.000000, 5.737988 , -8.542377, 9.420543, 1782657280.000000, 28.070000,  57.540001,  136.360001, 0.000000,  0.000000 
 43690496.000000, 9.308081 , -4.254438, 5.536992, 1782677760.000000, 78.750000,  -2.450000,  119.279999, 0.000000,  0.000000 
 43710464.000000, 10.291530 , -2.012364, 3.924229, 1782696960.000000, 40.389999,  -49.910000,  129.500000, 0.000000,  0.000000 
 43730432.000000, 8.618947 , -2.103291, 4.488935, 1782716928.000000, -29.680000,  -65.099998,  116.480003, 0.000000,  0.000000 
 43750656.000000, 9.372685 , -1.359123, 4.563113, 1782737152.000000, -61.180000,  -76.650002,  91.070000, 0.000000,  0.000000 
 43770880.000000, 11.377872 , 0.545564, 3.670590, 1782757376.000000, -61.180000,  -103.809998,  77.349998, 4044342272.000000,  1005.736755 
 43790336.000000, 11.662617 , 2.239682, 3.589234, 1782777600.000000, 94.080002,  -127.120003,  49.560001, 0.000000,  0.000000 
 43810304.000000, 9.815358 , 1.785046, 3.388237, 1782797056.000000, 128.729996,  -128.240005,  -11.690000, 0.000000,  0.000000 
 43830272.000000, 10.013963 , -1.421337, 3.558127, 1782817024.000000, 96.250000,  -115.290001,  -82.739998, 0.000000,  0.000000 
 43850496.000000, 9.954143 , -6.841080, 2.584249, 1782836992.000000, 27.160000,  -117.669998,  -140.279999, 0.000000,  0.000000 
 43872768.000000, 11.466407 , -17.139788, 8.879765, 1782857216.000000, -63.070000,  -114.800003,  -208.529999, 0.000000,  0.000000 
 43890176.000000, 13.521841 , -31.721649, 18.218950, 1782879488.000000, -132.300003,  -99.050003,  -255.570007, 0.000000,  0.000000 
 43910144.000000, 4.328616 , -33.485161, 17.936600, 1782896896.000000, -143.220001,  -84.070000,  -240.800003, 0.000000,  0.000000 
 43930368.000000, 1.909473 , -26.041090, 16.149158, 1782916864.000000, 22.680000,  -74.340004,  -346.500000, 0.000000,  0.000000 
 43950592.000000, 1.928615 , -19.281364, 12.320643, 1782936832.000000, 50.189999,  -128.240005,  -335.860016, 0.000000,  0.000000 
 43970816.000000, 0.669990 , -14.428720, 12.004791, 1782957312.000000, -6.860000,  -158.270004,  -342.510010, 0.000000,  0.000000 
 43990272.000000, -1.536192 , -10.693524, 11.602797, 1782977536.000000, -53.619999,  -142.309998,  -353.360016, 0.000000,  0.000000 
 44010240.000000, -3.565305 , -7.472785, 10.126426, 1782996992.000000, -59.920002,  -98.279999,  -329.489990, 0.000000,  0.000000 
 44030208.000000, -5.044070 , -3.282953, 7.439285, 1783016960.000000, -11.340000,  -46.970001,  -278.040009, 0.000000,  0.000000 
 44050432.000000, -5.831308 , 0.827917, 5.666204, 1783036928.000000, 47.180000,  -12.600000,  -217.910004, 0.000000,  0.000000 
 44070656.000000, -5.321638 , 3.158526, 4.249653, 1783057152.000000, 84.910004,  15.120000,  -173.250000, 0.000000,  0.000000 
 44090112.000000, -5.091926 , 3.754339, 2.794817, 1783077376.000000, 78.750000,  39.480000,  -146.300003, 0.000000,  0.000000 
 44110080.000000, -4.551149 , 3.536592, 1.155733, 1783096832.000000, 71.750000,  69.790001,  -128.380005, 0.000000,  0.000000 
 44130048.000000, -4.261617 , 3.795017, 0.311067, 1783116800.000000, 72.239998,  86.239998,  -87.779999, 0.000000,  0.000000 
 44150528.000000, -5.197211 , 3.471986, 0.033500, 1783136768.000000, 46.689999,  94.989998,  -50.400002, 0.000000,  0.000000 
 44170752.000000, -6.302694 , 2.696711, 0.870987, 1783157248.000000, 5.110000,  103.809998,  -32.060001, 0.000000,  0.000000 
 44190208.000000, -6.166305 , 1.792224, 0.602991, 1783177472.000000, -14.700000,  107.029999,  -9.940000, 0.000000,  0.000000 
 44210176.000000, -6.372087 , 2.170290, 0.954736, 1783196672.000000, 13.160000,  96.529999,  29.540001, 0.000000,  0.000000 
 44230144.000000, -5.891129 , 1.995614, 3.010171, 1783216896.000000, 41.090000,  94.989998,  78.470001, 0.000000,  0.000000 
 44250368.000000, -6.204589 , -0.114855, 4.285545, 1783236864.000000, 60.830002,  98.840004,  160.580002, 0.000000,  0.000000 
 44270592.000000, -7.286145 , -6.104091, 7.058826, 1783257088.000000, 39.830002,  125.230003,  240.100006, 0.000000,  0.000000 
 44290048.000000, -10.547562 , -17.412571, 17.501104, 1783277312.000000, -104.510002,  154.279999,  316.679993, 0.000000,  0.000000 
 44310016.000000, -15.945770 , -28.864618, 23.935404, 1783296768.000000, -283.010010,  182.559998,  356.369995, 0.000000,  0.000000 
 44329984.000000, -7.164111 , -27.957739, 22.896919, 1783316736.000000, -328.649994,  189.279999,  374.360016, 0.000000,  0.000000 
 44350464.000000, 3.060420 , -21.267408, 23.801409, 1783336704.000000, -186.970001,  117.180000,  388.500000, 0.000000,  0.000000 
 44370688.000000, 4.943572 , -17.170895, 22.155146, 1783356928.000000, -148.680008,  115.919998,  365.820007, 0.000000,  0.000000 
 44389888.000000, -0.162712 , -17.496319, 19.602003, 1783377408.000000, -156.800003,  139.020004,  261.519989, 0.000000,  0.000000 
 44410112.000000, 0.691526 , -16.161125, 16.912472, 1783396608.000000, -136.500000,  129.850006,  182.279999, 0.000000,  0.000000 
 44430080.000000, 5.465207 , -12.129218, 12.653246, 1783416576.000000, -41.160000,  68.879997,  211.190002, 0.000000,  0.000000 
 44450304.000000, 9.437292 , -9.942179, 8.843873, 1783436544.000000, 17.780001,  0.700000,  237.020004, 0.000000,  0.000000 
 44470528.000000, 12.435498 , -9.272188, 7.525427, 1783457024.000000, -30.520000,  -37.939999,  216.160004, 0.000000,  0.000000 
 44489984.000000, 14.139190 , -7.073184, 6.738188, 1783477248.000000, -78.610001,  -62.790001,  197.960007, 0.000000,  0.000000 
 44509952.000000, 16.084553 , -3.010171, 4.474578, 1783496704.000000, -23.730000,  -85.190002,  158.479996, 0.000000,  0.000000 
 44529920.000000, 15.897913 , 1.442872, 1.866402, 1783516672.000000, 99.190002,  -113.400002,  93.940002, 0.000000,  0.000000 
 44550144.000000, 11.437693 , 4.352544, 1.866402, 1783536640.000000, 174.580002,  -135.520004,  -15.750000, 0.000000,  0.000000 
 44570624.000000, 7.183254 , 4.240082, -0.399601, 1783556864.000000, 166.039993,  -148.960007,  -155.960007, 0.000000,  0.000000 
 44589824.000000, 5.970093 , 2.660819, -0.129212, 1783577088.000000, 106.889999,  -176.190002,  -241.500000, 0.000000,  0.000000 
 44609792.000000, 8.671589 , -0.677169, 1.811367, 1783596544.000000, 23.379999,  -202.860001,  -281.399994, 0.000000,  0.000000 
 44629760.000000, 17.802599 , -7.664211, 8.094919, 1783616512.000000, -57.750000,  -213.289993,  -301.070007, 0.000000,  0.000000 
 44650240.000000, 19.800606 , -22.983061, 13.974084, 1783636480.000000, -134.190002,  -208.389999,  -265.579987, 0.000000,  0.000000 
 44670464.000000, 13.536198 , -28.627731, 17.144573, 1783656960.000000, -229.880005,  -151.199997,  -237.440002, 0.000000,  0.000000 
 44689920.000000, 8.006385 , -25.411776, 17.280964, 1783677184.000000, -197.190002,  -114.309998,  -300.649994, 0.000000,  0.000000 
 44709888.000000, 3.273381 , -19.202400, 15.347565, 1783696640.000000, -76.580002,  -117.459999,  -271.809998, 0.000000,  0.000000 
 44729856.000000, 3.184847 , -13.978869, 12.679568, 1783716608.000000, -28.070000,  -128.869995,  -276.920013, 0.000000,  0.000000 
 44750080.000000, 2.873780 , -10.368099, 10.449455, 1783756800.000000, -2.870000,  -91.699997,  -222.740005, 4045341696.000000,  1005.739624 
 44770304.000000, 0.251246 , -6.259624, 8.685946, 0.000000, 0.000000,  0.000000,  0.000000, 0.000000,  0.000000 
 44789760.000000, -2.916851 , -2.062613, 7.810174, 1783777024.000000, 28.280001,  -31.570000,  -201.180008, 0.000000,  0.000000 
 44809728.000000, -5.568098 , 0.567099, 6.216553, 1783796480.000000, 55.160000,  13.440001,  -180.949997, 0.000000,  0.000000 
 44829696.000000, -8.501699 , 1.208375, 4.737789, 1783816448.000000, 59.150002,  39.480000,  -160.860001, 0.000000,  0.000000 
 44850176.000000, -10.423136 , 0.815953, 3.347559, 1783836416.000000, 43.610001,  63.279999,  -161.559998, 0.000000,  0.000000 
 44872192.000000, -9.604790 , 2.163112, 1.368695, 1783856640.000000, 67.480003,  79.590004,  -130.479996, 0.000000,  0.000000 
 44889856.000000, -9.856036 , 3.024528, -0.081356, 1783878912.000000, 129.710007,  65.870003,  -54.880001, 0.000000,  0.000000 
 44909824.000000, -10.425529 , 2.249253, -0.693919, 1783896320.000000, 124.250000,  56.279999,  -8.120000, 0.000000,  0.000000 
 44929792.000000, -8.070991 , 0.016750, 1.368695, 1783916288.000000, 15.050000,  69.090004,  17.290001, 0.000000,  0.000000 
 44950016.000000, -6.580262 , -2.244468, 4.764110, 1783936512.000000, -84.769997,  74.480003,  69.160004, 0.000000,  0.000000 
 44970240.000000, -6.448657 , -5.419744, 5.922236, 1783956736.000000, -82.739998,  87.360001,  144.339996, 0.000000,  0.000000 
 44989696.000000, -3.366701 , -6.352944, 9.927821, 1783976960.000000, -30.730000,  107.309998,  231.139999, 0.000000,  0.000000 
 45009664.000000, -1.459622 , -11.035697, 15.404992, 1783996416.000000, -36.259998,  128.660004,  316.610016, 0.000000,  0.000000 
 45029632.000000, -6.144768 , -14.945570, 15.967306, 1784016384.000000, -136.990005,  183.330002,  376.459991, 0.000000,  0.000000 
 45050112.000000, -5.757132 , -18.556339, 20.054247, 1784036352.000000, -224.770004,  218.259995,  377.019989, 0.000000,  0.000000 
 45070336.000000, -1.375873 , -21.243477, 23.904299, 1784056832.000000, -230.860001,  224.979996,  377.579987, 0.000000,  0.000000 
 45089536.000000, 1.069592 , -19.850857, 23.607588, 1784076800.000000, -160.930008,  230.930008,  367.850006, 0.000000,  0.000000 
 45109504.000000, 2.081756 , -15.885949, 19.630716, 1784096256.000000, -43.820000,  216.160004,  304.079987, 0.000000,  0.000000 
 45129728.000000, 3.486342 , -10.872985, 14.983855, 1784116224.000000, 106.959999,  181.020004,  249.619995, 0.000000,  0.000000 
 45149952.000000, 5.623133 , -5.580062, 11.464014, 1784136192.000000, 201.320007,  140.770004,  211.610001, 0.000000,  0.000000 
 45170176.000000, 7.523034 , -2.737389, 9.791430, 1784156672.000000, 188.089996,  105.349998,  188.229996, 0.000000,  0.000000 
 45189632.000000, 8.492127 , -2.529213, 8.891729, 1784176896.000000, 111.860001,  72.379997,  172.199997, 0.000000,  0.000000 
 45209600.000000, 10.126426 , -1.270589, 8.104490, 1784196352.000000, 47.110001,  40.320000,  151.339996, 0.000000,  0.000000 
 45229568.000000, 13.232309 , -1.344766, 7.310073, 1784236288.000000, -12.390000,  -69.019997,  110.250000, 0.000000,  0.000000 
 45249792.000000, 14.804394 , -4.163511, 7.570890, 0.000000, 0.000000,  0.000000,  0.000000, 0.000000,  0.000000 
 45270016.000000, 13.143774 , -5.443672, 8.714661, 1784256512.000000, -31.360001,  -127.120003,  42.630001, 0.000000,  0.000000 
 45289472.000000, 10.341780 , -7.360322, 10.243673, 1784276736.000000, -68.879997,  -171.570007,  -44.869999, 0.000000,  0.000000 
 45309440.000000, 7.479963 , -12.859028, 13.105491, 1784296192.000000, -59.639999,  -209.789993,  -135.520004, 0.000000,  0.000000 
 45329408.000000, 5.194818 , -19.219151, 19.994425, 1784316160.000000, -28.210001,  -233.449997,  -213.850006, 0.000000,  0.000000 
 45349888.000000, 0.775275 , -23.418556, 24.547968, 1784336128.000000, -7.770000,  -249.410004,  -251.790009, 0.000000,  0.000000 
 45370112.000000, -0.303888 , -20.894125, 26.751755, 1784356352.000000, 33.529999,  -269.220001,  -275.239990, 0.000000,  0.000000 
 45389568.000000, -2.991028 , -16.321442, 22.100109, 1784376832.000000, 63.139999,  -282.170013,  -252.210007, 0.000000,  0.000000 
 45409536.000000, -5.709275 , -12.926028, 17.833706, 1784396032.000000, 79.519997,  -295.399994,  -268.100006, 0.000000,  0.000000 
 45429504.000000, -8.748159 , -5.613562, 15.354744, 1784416000.000000, 128.660004,  -289.450012,  -265.299988, 0.000000,  0.000000 
 45449728.000000, -8.941978 , 2.277967, 10.449455, 1784436224.000000, 211.330002,  -263.899994,  -234.570007, 0.000000,  0.000000 
 45469952.000000, -4.089334 , 7.642675, 5.249853, 1784456448.000000, 253.050003,  -224.210007,  -178.990005, 0.000000,  0.000000 
 45489408.000000, -3.364309 , 9.284152, 1.000200, 1784476672.000000, 234.500000,  -178.360001,  -140.839996, 0.000000,  0.000000 
 45509376.000000, -6.685547 , 7.341179, -0.684347, 1784496128.000000, 203.699997,  -160.649994,  -152.949997, 0.000000,  0.000000 
 45529344.000000, -10.614561 , 6.108876, -1.825724, 1784516096.000000, 109.690002,  -118.300003,  -187.880005, 0.000000,  0.000000 
 45549568.000000, -8.482556 , 5.950950, -2.687140, 1784536064.000000, 26.670000,  -54.180000,  -173.949997, 0.000000,  0.000000 
 45570048.000000, -7.649854 , 5.991628, -2.880959, 1784556288.000000, 6.300000,  1.400000,  -106.959999, 0.000000,  0.000000 
 45589248.000000, -8.319844 , 4.503292, -3.220739, 1784576512.000000, -43.259998,  46.200001,  -40.110001, 0.000000,  0.000000 
 45609216.000000, -9.190832 , 1.964507, -2.773281, 1784595968.000000, -138.389999,  91.840004,  4.060000, 0.000000,  0.000000 
 45629440.000000, -8.463413 , -0.351745, -1.792224, 1784615936.000000, -206.710007,  134.190002,  42.700001, 0.000000,  0.000000 
 45649664.000000, -6.742974 , -1.454836, 1.060020, 1784635904.000000, -184.309998,  163.449997,  98.489998, 0.000000,  0.000000 
 45669888.000000, -5.644669 , -2.158326, 5.936593, 1784656384.000000, -111.650002,  179.619995,  161.000000, 0.000000,  0.000000 
 45689344.000000, -6.671190 , -6.757331, 9.822537, 1784676608.000000, -64.190002,  201.809998,  211.680008, 0.000000,  0.000000 
 45709312.000000, -6.187840 , -13.098311, 16.826328, 1784696064.000000, -53.619999,  223.720001,  239.889999, 0.000000,  0.000000 
 45729280.000000, -5.194818 , -14.100904, 23.892334, 1784716032.000000, -51.450001,  242.970001,  280.279999, 0.000000,  0.000000 
 45749504.000000, -7.879565 , -15.062819, 26.194231, 1784756224.000000, -44.730000,  293.860016,  274.470001, 4046341120.000000,  1005.741943 
 45769728.000000, -3.687340 , -16.120445, 25.840092, 0.000000, 0.000000,  0.000000,  0.000000, 0.000000,  0.000000 
 45789184.000000, 0.926022 , -10.293922, 25.476381, 1784776448.000000, -88.199997,  296.309998,  231.419998, 0.000000,  0.000000 
 45809152.000000, 1.079163 , -8.870193, 22.478174, 1784795904.000000, -69.440002,  293.299988,  184.380005, 0.000000,  0.000000 
 45829120.000000, 1.653440 , -6.439085, 20.257637, 1784815872.000000, -24.219999,  266.769989,  106.889999, 0.000000,  0.000000 
 45849600.000000, 3.223132 , -3.687340, 16.910078, 1784835840.000000, 54.599998,  226.660004,  78.330002, 0.000000,  0.000000 
 45871616.000000, 5.857630 , -2.447858, 13.165311, 1784856320.000000, 112.139999,  178.639999,  78.540001, 0.000000,  0.000000 
 45889280.000000, 6.250053 , 1.397408, 10.901700, 1784878336.000000, 117.669998,  136.710007,  100.309998, 0.000000,  0.000000 
 45909248.000000, 6.920043 , 3.440879, 9.683753, 1784895744.000000, 51.520000,  98.910004,  107.239998, 0.000000,  0.000000 
 45929216.000000, 9.131011 , 2.806781, 9.482756, 1784915968.000000, -64.050003,  63.630001,  107.660004, 0.000000,  0.000000 
 45949696.000000, 10.683953 , 3.263810, 8.700303, 1784935936.000000, -131.880005,  15.190001,  118.230003, 0.000000,  0.000000 
 45969664.000000, 12.193825 , 5.235496, 6.943972, 1784956160.000000, -103.110001,  -43.470001,  105.769997, 0.000000,  0.000000 
 45989120.000000, 12.059827 , 6.288338, 5.474778, 1784976384.000000, -40.950001,  -103.320000,  77.419998, 0.000000,  0.000000 
 46009088.000000, 9.635897 , 5.089533, 5.570491, 1784995840.000000, -8.960000,  -158.830002,  30.660000, 0.000000,  0.000000 
 46029056.000000, 9.157332 , 1.406980, 5.558527, 1785015808.000000, -24.990000,  -205.029999,  -28.490000, 0.000000,  0.000000 
 46049280.000000, 9.214760 , -5.603990, 7.613962, 1785035776.000000, -76.580002,  -238.139999,  -75.739998, 0.000000,  0.000000 
 46069760.000000, 10.904092 , -21.609581, 24.684357, 1785056000.000000, -165.970001,  -243.809998,  -126.980003, 0.000000,  0.000000 
 46088960.000000, 2.244468 , -32.324642, 34.112080, 1785076224.000000, -201.039993,  -218.190002,  -127.680000, 0.000000,  0.000000 
 46109184.000000, -2.718246 , -27.912277, 33.286556, 1785095680.000000, -90.580002,  -208.110001,  -226.240005, 0.000000,  0.000000 
 46129152.000000, -4.704289 , -20.367704, 24.619753, 1785115648.000000, 99.190002,  -249.199997,  -264.600006, 0.000000,  0.000000 
 46149376.000000, -4.433900 , -14.179866, 19.630716, 1785135616.000000, 75.040001,  -295.890015,  -263.410004, 0.000000,  0.000000 
 46169600.000000, -5.599205 , -9.372685, 17.395821, 1785156096.000000, -3.010000,  -307.440002,  -307.860016, 0.000000,  0.000000 
 46189056.000000, -9.265009 , -6.642475, 12.866207, 1785176320.000000, -49.000000,  -254.240005,  -330.540009, 0.000000,  0.000000 
 46209024.000000, -9.777073 , -2.194218, 6.821937, 1785195776.000000, 5.250000,  -168.419998,  -337.820007, 0.000000,  0.000000 
 46228992.000000, -9.064013 , 2.761317, 3.680161, 1785215744.000000, 72.940002,  -131.740005,  -282.100006, 0.000000,  0.000000 
 46249216.000000, -8.324631 , 5.280960, 2.321038, 1785235712.000000, 70.139999,  -108.849998,  -252.699997, 0.000000,  0.000000 
 46269696.000000, -7.616355 , 4.859823, 0.890130, 1785255936.000000, 32.900002,  -73.779999,  -228.479996, 0.000000,  0.000000 
 46288896.000000, -6.496514 , 5.101498, -0.602991, 1785276160.000000, 19.110001,  -35.840000,  -198.729996, 0.000000,  0.000000 
 46308864.000000, -7.664211 , 5.924629, -2.103291, 1785295616.000000, 14.980000,  -6.860000,  -135.869995, 0.000000,  0.000000 
 46328832.000000, -9.066404 , 4.744967, -2.608176, 1785315584.000000, -29.120001,  19.600000,  -79.730003, 0.000000,  0.000000 
 46349312.000000, -7.860423 , 3.857230, -1.701297, 1785335552.000000, -103.529999,  50.889999,  -39.689999, 0.000000,  0.000000 
 46369536.000000, -6.295516 , 2.452643, -2.100898, 1785356032.000000, -158.339996,  76.230003,  14.070000, 0.000000,  0.000000 
 46388992.000000, -8.042276 , 1.529014, -0.581456, 1785376256.000000, -175.630005,  94.570000,  78.050003, 0.000000,  0.000000 
 46408960.000000, -9.659825 , -0.078963, 3.089134, 1785395456.000000, -195.020004,  122.779999,  132.720001, 0.000000,  0.000000 
 46428928.000000, -9.975677 , -4.656433, 6.608976, 1785415680.000000, -169.190002,  142.449997,  221.899994, 0.000000,  0.000000 
 46449152.000000, -10.762917 , -11.830115, 13.055241, 1785435648.000000, -109.059998,  156.869995,  305.339996, 0.000000,  0.000000 
 46469376.000000, -8.532805 , -22.069006, 24.756144, 1785455872.000000, -84.840004,  188.930008,  375.760010, 0.000000,  0.000000 
 46488832.000000, -7.310073 , -25.698915, 31.054054, 1785476096.000000, -99.540001,  237.160004,  406.559998, 0.000000,  0.000000 
 46508800.000000, -4.271189 , -21.190838, 29.422148, 1785495552.000000, -58.590000,  276.149994,  376.459991, 0.000000,  0.000000 
 46528768.000000, 1.158126 , -14.182260, 28.362127, 1785515520.000000, 1.960000,  277.829987,  258.790009, 0.000000,  0.000000 
 46549248.000000, 4.453043 , -9.420543, 22.454247, 1785535488.000000, 4.970000,  266.700012,  170.869995, 0.000000,  0.000000 
 46569472.000000, 4.527221 , -4.587041, 17.209181, 1785555712.000000, 82.040001,  220.710007,  118.300003, 0.000000,  0.000000 
 46588672.000000, 3.895515 , -0.894916, 13.552947, 1785576192.000000, 119.419998,  159.460007,  96.180000, 0.000000,  0.000000 
 46608896.000000, 4.302295 , -1.478764, 11.129018, 1785595392.000000, 36.540001,  103.529999,  87.779999, 0.000000,  0.000000 
 46628864.000000, 3.548556 , -2.651247, 9.805787, 1785615360.000000, -97.580002,  50.750000,  93.660004, 0.000000,  0.000000 
 46649088.000000, 3.503092 , -1.493121, 8.547162, 1785635328.000000, -165.479996,  2.380000,  97.860001, 0.000000,  0.000000 
 46669312.000000, 4.756931 , 0.480957, 8.056634, 1785655808.000000, -135.940002,  -48.090000,  119.419998, 0.000000,  0.000000 
 46688768.000000, 6.195018 , 3.443272, 9.987641, 1785676032.000000, -64.540001,  -93.940002,  144.899994, 0.000000,  0.000000 
 46708736.000000, 6.393622 , 5.472386, 11.148161, 1785695488.000000, 33.180000,  -139.300003,  164.710007, 0.000000,  0.000000 
 46728704.000000, 6.230910 , 1.038485, 6.692725, 1785715456.000000, 184.240005,  -200.619995,  176.330002, 0.000000,  0.000000 
 46749184.000000, 7.920243 , 1.746760, 2.215754, 1785755648.000000, 387.730011,  -300.299988,  196.419998, 4047340544.000000,  1005.742126 
 46769408.000000, 9.200402 , 5.790630, -0.806381, 0.000000, 0.000000,  0.000000,  0.000000, 0.000000,  0.000000 
 46788608.000000, 7.592427 , -1.361516, -2.067399, 1785775872.000000, 215.740005,  -338.450012,  185.570007, 0.000000,  0.000000 
 46808576.000000, 11.408978 , -16.407585, 10.930414, 1785795328.000000, -186.130005,  -371.700012,  89.389999, 0.000000,  0.000000 
 46828544.000000, 15.747166 , -32.171501, 26.622545, 1785815296.000000, -518.280029,  -395.429993,  -61.180000, 0.000000,  0.000000 
 46849024.000000, 3.519842 , -22.480570, 17.350357, 1785835264.000000, -349.160004,  -383.320007,  -41.720001, 0.000000,  0.000000 
 46871296.000000, 7.752745 , -13.995619, 15.093925, 1785855744.000000, 100.870003,  -304.709991,  -237.229996, 0.000000,  0.000000 
 46888704.000000, 7.850852 , -9.812965, 13.115060, 1785877760.000000, 109.410004,  -301.279999,  -105.910004, 0.000000,  0.000000 
 46908672.000000, 4.529613 , -8.573483, 12.507284, 1785915392.000000, -178.919998,  -184.240005,  -238.559998, 0.000000,  0.000000 
 46928640.000000, 2.505285 , -9.040084, 12.425928, 0.000000, 0.000000,  0.000000,  0.000000, 0.000000,  0.000000 
 46948864.000000, 0.172283 , -6.809973, 10.616954, 1785935360.000000, -264.529999,  -93.029999,  -295.260010, 0.000000,  0.000000 
 46969088.000000, -4.809574 , -2.237289, 8.953942, 1785955584.000000, -231.630005,  -11.270000,  -334.040009, 0.000000,  0.000000 
 46988544.000000, -11.641083 , 2.943172, 7.860423, 1785975808.000000, -175.279999,  63.209999,  -358.260010, 0.000000,  0.000000 
 47008512.000000, -14.359328 , 5.704489, 5.702096, 1785995264.000000, -111.160004,  105.980003,  -351.190002, 0.000000,  0.000000 
 47028480.000000, -12.069397 , 10.911271, 5.692525, 1786015232.000000, -52.920002,  93.519997,  -280.420013, 0.000000,  0.000000 
 47048960.000000, -7.822137 , 10.298709, 2.773281, 1786035200.000000, -50.820000,  82.879997,  -183.820007, 0.000000,  0.000000 
 47069184.000000, -8.822337 , 7.252645, 0.275175, 1786055424.000000, -35.840000,  67.199997,  -88.690002, 0.000000,  0.000000 
 47088640.000000, -8.324631 , 6.345766, -0.227318, 1786075904.000000, -83.090004,  79.870003,  -43.330002, 0.000000,  0.000000 
 47108608.000000, -6.530013 , 4.883751, 0.404387, 1786095104.000000, -153.089996,  88.410004,  51.170002, 0.000000,  0.000000 
 47128576.000000, -6.460621 , 1.557728, 1.890330, 1786115072.000000, -218.050003,  95.480003,  106.120003, 0.000000,  0.000000 
 47148800.000000, -7.128219 , -1.954936, 6.218946, 1786135296.000000, -253.540009,  112.349998,  145.809998, 0.000000,  0.000000 
 47169024.000000, -7.601997 , -7.987241, 11.531013, 1786155520.000000, -231.770004,  124.809998,  203.279999, 0.000000,  0.000000 
 47188480.000000, -5.307281 , -15.462420, 17.592033, 1786175744.000000, -166.389999,  140.699997,  266.910004, 0.000000,  0.000000 
 47208448.000000, -4.661219 , -20.884556, 24.638895, 1786195200.000000, -120.610001,  168.699997,  351.610016, 0.000000,  0.000000 
 47228416.000000, -7.683353 , -21.805792, 24.988247, 1786215168.000000, -107.309998,  210.839996,  355.739990, 0.000000,  0.000000 
 47248640.000000, -3.567699 , -19.109081, 25.514668, 1786235136.000000, -93.169998,  233.869995,  256.970001, 0.000000,  0.000000 
 47269120.000000, 2.005185 , -14.055440, 23.382662, 1786275584.000000, 38.500000,  188.580002,  192.919998, 0.000000,  0.000000 
 47288320.000000, 4.536791 , -10.346564, 17.510677, 1786295040.000000, 115.849998,  142.520004,  156.520004, 0.000000,  0.000000 
 47308288.000000, 3.881158 , -5.936593, 13.294522, 0.000000, 0.000000,  0.000000,  0.000000, 0.000000,  0.000000 
 47328512.000000, 3.400201 , -3.680161, 10.573883, 1786315008.000000, 92.260002,  107.239998,  126.000000, 0.000000,  0.000000 
 47348736.000000, 4.802395 , -4.718646, 8.420342, 1786334976.000000, -3.010000,  75.110001,  123.620003, 0.000000,  0.000000 
 47368960.000000, 6.077770 , -5.362316, 6.472585, 1786355456.000000, -85.750000,  39.200001,  132.860001, 0.000000,  0.000000 
 47388416.000000, 7.439285 , -4.347759, 5.814559, 1786375680.000000, -107.660004,  13.230000,  129.639999, 0.000000,  0.000000 
 47408384.000000, 9.382257 , -2.467000, 6.029913, 1786395136.000000, -96.529999,  2.730000,  128.800003, 0.000000,  0.000000 
 47428352.000000, 12.844672 , -1.361516, 4.366901, 1786415104.000000, -53.130001,  -17.920000,  128.380005, 0.000000,  0.000000 
 47448576.000000, 15.347565 , 1.028914, 3.232704, 1786435072.000000, 6.230000,  -48.020000,  110.110001, 0.000000,  0.000000 
 47468800.000000, 14.414362 , 1.947758, 4.074977, 1786455296.000000, 40.110001,  -82.389999,  61.740002, 0.000000,  0.000000 
 47488256.000000, 11.241481 , 1.067199, 6.807580, 1786475520.000000, 3.080000,  -93.029999,  -28.630001, 0.000000,  0.000000 
 47508224.000000, 10.246067 , -2.589034, 7.592427, 1786494976.000000, -31.010000,  -99.820000,  -129.570007, 0.000000,  0.000000 
 47528192.000000, 10.277173 , -7.779066, 8.106883, 1786514944.000000, -28.559999,  -123.970001,  -191.869995, 0.000000,  0.000000 
 47548672.000000, 11.789437 , -19.133011, 19.003798, 1786534912.000000, -36.680000,  -142.240005,  -246.960007, 0.000000,  0.000000 
 47568896.000000, 6.202196 , -32.195427, 28.567909, 1786555136.000000, -89.110001,  -140.210007,  -239.820007, 0.000000,  0.000000 
 47588352.000000, -0.449851 , -31.058840, 24.770498, 1786575616.000000, -112.279999,  -136.430008,  -298.200012, 0.000000,  0.000000 
 47608320.000000, -2.782853 , -20.212173, 18.704695, 1786594816.000000, 40.320000,  -167.160004,  -355.390015, 0.000000,  0.000000 
 47628288.000000, -4.498507 , -13.174881, 14.452648, 1786614784.000000, 72.800003,  -215.669998,  -332.079987, 0.000000,  0.000000 
 47648512.000000, -5.319244 , -8.233703, 12.937992, 1786635008.000000, 38.430000,  -220.710007,  -341.950012, 0.000000,  0.000000 
 47668736.000000, -5.618347 , -5.340781, 10.616954, 1786655232.000000, -24.500000,  -181.720001,  -329.070007, 0.000000,  0.000000 
 47688192.000000, -4.443472 , -2.751746, 7.245467, 1786675456.000000, -19.879999,  -119.349998,  -292.950012, 0.000000,  0.000000 
 47708160.000000, -3.443272 , 0.485743, 3.694518, 1786694912.000000, 44.799999,  -79.099998,  -229.250000, 0.000000,  0.000000 
 47728128.000000, -4.599005 , 3.036492, 1.110270, 1786714880.000000, 70.070000,  -56.840000,  -178.500000, 0.000000,  0.000000 
 47748608.000000, -7.214360 , 2.785245, 0.277567, 1786755072.000000, -81.550003,  26.740000,  -160.369995, 4048339968.000000,  1005.740234 
 47768832.000000, -7.946564 , 0.416351, -1.423729, 0.000000, 0.000000,  0.000000,  0.000000, 0.000000,  0.000000 
 47788032.000000, -7.680960 , 0.337388, -1.919044, 1786775296.000000, -135.240005,  57.680000,  -125.580002, 0.000000,  0.000000 
 47808000.000000, -8.803195 , 0.993021, -0.854238, 1786794752.000000, -157.500000,  76.019997,  -64.330002, 0.000000,  0.000000 
 47828224.000000, -10.545169 , 0.076570, 0.052642, 1786814720.000000, -150.430008,  95.830002,  -9.940000, 0.000000,  0.000000 
 47848448.000000, -10.370493 , 0.045464, 1.356731, 1786834688.000000, -109.830002,  100.379997,  36.610001, 0.000000,  0.000000 
 47870720.000000, -7.245467 , -1.435694, 6.049056, 1786855168.000000, -63.279999,  81.830002,  102.340004, 0.000000,  0.000000 
 47888128.000000, -7.039684 , -5.915058, 8.592626, 1786877440.000000, -37.520000,  64.260002,  170.940002, 0.000000,  0.000000 
 47908096.000000, -6.731010 , -8.563912, 10.253245, 1786894848.000000, -7.000000,  75.320000,  232.330002, 0.000000,  0.000000 
 47928064.000000, -4.943572 , -12.526425, 15.024533, 1786914816.000000, -6.790000,  90.370003,  321.579987, 0.000000,  0.000000 
 47948288.000000, -7.159326 , -18.812372, 20.374884, 1786934784.000000, -96.250000,  119.279999,  357.559998, 0.000000,  0.000000 
 47968512.000000, -8.193025 , -24.275187, 24.174686, 1786955008.000000, -221.970001,  179.199997,  338.660004, 0.000000,  0.000000 
 47987968.000000, -4.141976 , -21.734007, 23.152952, 1786975232.000000, -210.070007,  205.660004,  309.399994, 0.000000,  0.000000 
 48007936.000000, -0.256032 , -16.697117, 20.729021, 1786994688.000000, -73.080002,  180.740005,  280.769989, 0.000000,  0.000000 
 48027904.000000, 1.552942 , -13.887943, 16.601404, 1787014656.000000, 49.490002,  150.009995,  257.250000, 0.000000,  0.000000 
 48048384.000000, 1.684547 , -10.916058, 11.277373, 1787034624.000000, 88.480003,  115.150002,  233.940002, 0.000000,  0.000000 
 48068608.000000, 3.404987 , -7.463214, 8.458629, 1787055104.000000, 66.010002,  74.760002,  209.020004, 0.000000,  0.000000 
 48088320.000000, 6.769295 , -5.912664, 6.831509, 1787075328.000000, 3.150000,  28.559999,  207.270004, 0.000000,  0.000000 
 48108032.000000, 9.877571 , -6.355337, 6.211767, 1787095040.000000, -63.000000,  -5.670000,  219.380005, 0.000000,  0.000000 
 48128000.000000, 13.758730 , -7.066005, 5.422136, 1787114752.000000, -95.620003,  -28.420000,  201.600006, 0.000000,  0.000000 
 48148224.000000, 16.103697 , -4.711468, 5.852845, 1787134720.000000, -64.610001,  -59.849998,  170.520004, 0.000000,  0.000000 
 48168448.000000, 16.651653 , -2.787638, 5.225924, 1787154944.000000, 0.350000,  -80.080002,  96.739998, 0.000000,  0.000000 
 48187904.000000, 15.728023 , -1.820938, 5.637490, 1787175168.000000, 60.480000,  -98.419998,  -6.230000, 0.000000,  0.000000 
 48207872.000000, 13.292130 , -3.261417, 6.319445, 1787194624.000000, 67.059998,  -115.500000,  -94.360001, 0.000000,  0.000000 
 48227840.000000, 10.514063 , -8.870193, 5.903094, 1787214592.000000, 46.549999,  -130.270004,  -169.680008, 0.000000,  0.000000 
 48248320.000000, 10.719845 , -18.032312, 11.516656, 1787234560.000000, -5.740000,  -149.240005,  -235.339996, 0.000000,  0.000000 
 48268544.000000, 9.262616 , -31.391441, 21.190838, 1787254784.000000, -107.870003,  -157.220001,  -285.739990, 0.000000,  0.000000 
 48287744.000000, 0.031107 , -38.754154, 24.914070, 1787275264.000000, -183.820007,  -131.949997,  -295.750000, 0.000000,  0.000000 
 48307968.000000, -5.852845 , -29.685356, 20.260029, 1787294464.000000, -51.170002,  -112.559998,  -398.230011, 0.000000,  0.000000 
 48327936.000000, -6.266802 , -19.690536, 14.093725, 1787314432.000000, 108.150002,  -162.330002,  -404.459991, 0.000000,  0.000000 
 48348160.000000, -8.571091 , -13.574483, 13.421343, 1787334400.000000, 102.760002,  -203.279999,  -378.209991, 0.000000,  0.000000 
 48368384.000000, -12.866207 , -8.427521, 11.980864, 1787354880.000000, 37.730000,  -174.020004,  -373.380005, 0.000000,  0.000000 
 48387840.000000, -12.382857 , -3.366701, 6.642475, 1787375104.000000, -0.140000,  -98.209999,  -343.910004, 0.000000,  0.000000 
 48407808.000000, -7.518249 , 0.823131, 5.180461, 1787394560.000000, 35.349998,  -50.049999,  -261.519989, 0.000000,  0.000000 
 48427776.000000, -7.499106 , 5.020142, 3.113062, 1787414528.000000, 100.169998,  -18.760000,  -201.110001, 0.000000,  0.000000 
 48448000.000000, -11.626726 , 6.096912, -0.124427, 1787434496.000000, 139.860001,  35.139999,  -163.380005, 0.000000,  0.000000 
 48468480.000000, -12.004791 , 4.601398, -1.488336, 1787454720.000000, 155.889999,  96.949997,  -111.930000, 0.000000,  0.000000 
 48487680.000000, -9.276974 , 4.175476, -0.193819, 1787474944.000000, 132.860001,  113.190002,  -28.700001, 0.000000,  0.000000 
 48507648.000000, -8.939585 , 3.716053, 1.091127, 1787494400.000000, 80.360001,  106.820000,  58.730000, 0.000000,  0.000000 
 48527616.000000, -9.492328 , 0.942772, 1.916651, 1787514368.000000, -11.130000,  120.120003,  102.410004, 0.000000,  0.000000 
 48548096.000000, -8.142776 , -1.892723, 3.081956, 1787534336.000000, -94.500000,  130.830002,  120.330002, 0.000000,  0.000000 
 48568320.000000, -6.697510 , -4.297509, 5.582455, 1787554816.000000, -102.970001,  117.389999,  164.430008, 0.000000,  0.000000 
 48587776.000000, -6.003592 , -7.259824, 9.879964, 1787575040.000000, -56.630001,  103.389999,  228.899994, 0.000000,  0.000000 
 48607744.000000, -5.118248 , -11.633904, 13.653446, 1787594496.000000, -18.760000,  105.559998,  265.790009, 0.000000,  0.000000 
 48627712.000000, -1.457229 , -12.665211, 17.261824, 1787614464.000000, 39.270000,  113.120003,  297.010010, 0.000000,  0.000000 
 48647936.000000, 0.662812 , -13.789837, 19.556540, 1787634432.000000, 82.879997,  122.779999,  353.429993, 0.000000,  0.000000 
 48668160.000000, -3.895515 , -16.082161, 20.977875, 1787654656.000000, 17.710001,  153.089996,  364.839996, 0.000000,  0.000000 
 48687616.000000, -2.065006 , -16.998611, 19.475183, 1787674880.000000, -113.400002,  168.279999,  298.269989, 0.000000,  0.000000 
 48707584.000000, 5.821737 , -13.665410, 18.132809, 1787694336.000000, -174.930008,  140.910004,  257.600006, 0.000000,  0.000000 
 48727552.000000, 9.585647 , -11.959327, 17.958134, 1787714304.000000, -155.119995,  117.040001,  256.410004, 0.000000,  0.000000 
 48748032.000000, 6.032306 , -11.186446, 15.890735, 1787754752.000000, 101.709999,  101.430000,  108.430000, 4049339392.000000,  1005.743530 
 48768256.000000, 4.180261 , -7.499106, 12.961920, 0.000000, 0.000000,  0.000000,  0.000000, 0.000000,  0.000000 
 48787712.000000, 7.159326 , -3.280560, 9.025726, 1787774976.000000, 234.639999,  73.360001,  63.840000, 0.000000,  0.000000 
 48807680.000000, 8.836694 , 2.478964, 6.195018, 1787794176.000000, 269.149994,  31.850000,  77.769997, 0.000000,  0.000000 
 48827648.000000, 8.635696 , 6.247660, 5.603990, 1787814144.000000, 181.440002,  3.710000,  63.279999, 0.000000,  0.000000 
 48847872.000000, 8.137990 , 5.970093, 6.929615, 1787834368.000000, 19.600000,  -24.920000,  56.490002, 0.000000,  0.000000 
 48870144.000000, 8.257630 , 5.213961, 8.075776, 1787854592.000000, -104.090004,  -74.340004,  55.930000, 0.000000,  0.000000 
 48887552.000000, 8.712267 , 6.336195, 5.175675, 1787876864.000000, -75.110001,  -140.630005,  46.340000, 0.000000,  0.000000 
 48907520.000000, 7.877172 , 8.035098, 3.022135, 1787894272.000000, 30.870001,  -203.350006,  16.940001, 0.000000,  0.000000 
 48927488.000000, 6.879365 , 5.099105, 2.151148, 1787914240.000000, 44.450001,  -247.309998,  -22.120001, 0.000000,  0.000000 
 48947712.000000, 12.153147 , -1.923829, 6.687939, 1787934208.000000, -50.400002,  -269.989990,  -65.730003, 0.000000,  0.000000 
 48968192.000000, 15.656239 , -17.812172, 20.444277, 1787954432.000000, -193.130005,  -273.209991,  -107.940002, 0.000000,  0.000000 
 48987392.000000, 11.112268 , -29.730820, 29.091938, 1787974656.000000, -247.940002,  -238.210007,  -82.949997, 0.000000,  0.000000 
 49007360.000000, 2.146362 , -23.889940, 22.607388, 1787994112.000000, -151.130005,  -185.009995,  -135.309998, 0.000000,  0.000000 
 49027328.000000, 1.079163 , -18.147165, 18.183060, 1788014080.000000, 32.480000,  -179.339996,  -249.059998, 0.000000,  0.000000 
 49047808.000000, 0.861416 , -13.727623, 13.689339, 1788034048.000000, -75.669998,  -214.410004,  -242.199997, 0.000000,  0.000000 
 49068032.000000, -0.234497 , -8.322237, 10.021141, 1788054528.000000, -140.350006,  -191.520004,  -300.299988, 0.000000,  0.000000 
 49087488.000000, -2.160719 , -4.393222, 8.575876, 1788074752.000000, -155.539993,  -120.330002,  -328.929993, 0.000000,  0.000000 
 49107456.000000, -3.739982 , -2.304288, 7.609176, 1788114176.000000, -48.720001,  16.520000,  -279.649994, 0.000000,  0.000000 
 49127424.000000, -5.517848 , 0.330210, 5.821737, 0.000000, 0.000000,  0.000000,  0.000000, 0.000000,  0.000000 
 49147648.000000, -7.133004 , 3.074777, 3.976871, 1788134144.000000, 38.430000,  43.189999,  -236.740005, 0.000000,  0.000000 
 49167872.000000, -6.843473 , 5.175675, 1.701297, 1788154368.000000, 105.910004,  54.320000,  -188.160004, 0.000000,  0.000000 
 49187328.000000, -4.905287 , 6.896115, 0.696311, 1788174592.000000, 115.709999,  61.880001,  -136.149994, 0.000000,  0.000000 
 49207296.000000, -6.984650 , 4.704289, -1.205983, 1788194048.000000, 57.750000,  68.389999,  -82.250000, 0.000000,  0.000000 
 49227264.000000, -11.729616 , 3.196811, -0.251246, 1788214016.000000, -58.099998,  91.209999,  -43.610001, 0.000000,  0.000000 
 49247744.000000, -10.923235 , 2.660819, 0.098106, 1788233984.000000, -185.500000,  100.309998,  -31.430000, 0.000000,  0.000000 
 49267968.000000, -8.755339 , 1.629512, 0.746561, 1788254208.000000, -206.639999,  84.070000,  61.740002, 0.000000,  0.000000 
 49287424.000000, -8.228917 , -0.921237, 3.629912, 1788274688.000000, -183.750000,  66.430000,  97.160004, 0.000000,  0.000000 
 49307392.000000, -10.073784 , -4.295116, 6.343372, 1788293888.000000, -168.070007,  67.199997,  130.899994, 0.000000,  0.000000 
 49327360.000000, -12.708281 , -9.193225, 9.468399, 1788313856.000000, -106.889999,  80.220001,  207.059998, 0.000000,  0.000000 
 49347584.000000, -11.093125 , -15.378671, 17.407784, 1788334080.000000, -41.020000,  94.779999,  285.320007, 0.000000,  0.000000 
 49367808.000000, -8.262416 , -18.728622, 20.633310, 1788354304.000000, -63.490002,  109.340004,  339.500000, 0.000000,  0.000000 
 49387264.000000, -4.252046 , -22.308285, 23.490339, 1788374528.000000, -122.290001,  129.570007,  357.910004, 0.000000,  0.000000 
 49407232.000000, -5.127820 , -20.707485, 24.100512, 1788393984.000000, -129.639999,  172.059998,  370.369995, 0.000000,  0.000000 
 49427200.000000, -1.904687 , -17.316856, 24.141190, 1788413952.000000, -99.120003,  209.720001,  311.920013, 0.000000,  0.000000 
 49447424.000000, 2.718246 , -16.110876, 21.915863, 1788433920.000000, -71.470001,  217.979996,  271.179993, 0.000000,  0.000000 
 49467904.000000, 3.902694 , -13.562519, 17.410177, 1788454144.000000, -38.849998,  189.279999,  238.839996, 0.000000,  0.000000 
 49487104.000000, 2.883351 , -9.822537, 13.007384, 1788474368.000000, 8.890000,  137.690002,  193.619995, 0.000000,  0.000000 
 49507072.000000, 3.704089 , -7.791030, 9.681360, 1788493824.000000, 1.610000,  85.959999,  159.460007, 0.000000,  0.000000 
 49527296.000000, 5.077570 , -7.010970, 7.281359, 1788513792.000000, -62.090000,  36.049999,  146.440002, 0.000000,  0.000000 
 49547520.000000, 5.587241 , -5.611169, 5.352744, 1788533760.000000, -97.580002,  -4.830000,  147.559998, 0.000000,  0.000000 
 49567744.000000, 7.269395 , -4.218546, 3.850052, 1788554240.000000, -83.300003,  -33.599998,  139.229996, 0.000000,  0.000000 
 49587200.000000, 9.791430 , -2.330609, 4.074977, 1788574464.000000, -47.250000,  -59.709999,  136.919998, 0.000000,  0.000000 
 49607168.000000, 12.351749 , -0.976272, 3.967300, 1788593920.000000, -20.650000,  -82.040001,  123.270004, 0.000000,  0.000000 
 49627136.000000, 14.210974 , -0.457029, 3.744767, 1788613888.000000, 8.960000,  -102.340004,  80.570000, 0.000000,  0.000000 
 49647360.000000, 12.303895 , -0.710668, 5.044070, 1788633856.000000, 24.780001,  -112.910004,  10.290000, 0.000000,  0.000000 
 49667584.000000, 9.970891 , -3.783052, 7.068398, 1788654080.000000, -1.470000,  -106.540001,  -84.209999, 0.000000,  0.000000 
 49687040.000000, 9.248260 , -10.865808, 8.190632, 1788674304.000000, -42.840000,  -117.110001,  -176.190002, 0.000000,  0.000000 
 49707008.000000, 9.583255 , -18.886549, 14.270795, 1788693760.000000, -58.939999,  -133.350006,  -240.309998, 0.000000,  0.000000 
 49726976.000000, 8.705089 , -27.311678, 19.635502, 1788713728.000000, -65.099998,  -139.440002,  -275.239990, 0.000000,  0.000000 
 49747456.000000, 3.921836 , -29.781071, 22.018755, 1788733696.000000, -43.330002,  -149.449997,  -308.910004, 0.000000,  0.000000 
 49767680.000000, -0.794417 , -24.854248, 18.855442, 1788754176.000000, -30.870001,  -154.070007,  -364.839996, 4050339072.000000,  1005.743408 
 49787136.000000, -2.033899 , -18.817158, 14.959927, 1788774400.000000, 12.880000,  -168.279999,  -388.220001, 0.000000,  0.000000 
 49807104.000000, -1.978864 , -14.275579, 14.194223, 1788793600.000000, 31.850000,  -178.149994,  -380.799988, 0.000000,  0.000000 
 49827072.000000, -4.206582 , -10.377672, 13.038490, 1788813824.000000, 14.770000,  -150.570007,  -369.670013, 0.000000,  0.000000 
 49847296.000000, -5.979663 , -6.912865, 9.544970, 1788833792.000000, 8.260000,  -88.480003,  -362.250000, 0.000000,  0.000000 
 49869568.000000, -5.529813 , -2.888137, 7.039684, 1788854016.000000, 49.209999,  -42.490002,  -328.510010, 0.000000,  0.000000 
 49886976.000000, -5.596812 , 0.897308, 5.718846, 1788876288.000000, 91.489998,  -31.150000,  -271.250000, 0.000000,  0.000000 
 49906944.000000, -7.197611 , 2.292324, 3.361916, 1788893696.000000, 96.739998,  -24.010000,  -227.639999, 0.000000,  0.000000 
 49926912.000000, -7.518249 , 2.816352, 1.804188, 1788913664.000000, 95.970001,  -7.840000,  -204.259995, 0.000000,  0.000000 
 49947136.000000, -7.769495 , 3.811767, 0.370888, 1788933632.000000, 87.989998,  -2.590000,  -160.930008, 0.000000,  0.000000 
 49967616.000000, -10.760524 , 3.830909, -2.505285, 1788953856.000000, 62.650002,  -3.500000,  -95.690002, 0.000000,  0.000000 
 49986816.000000, -13.617554 , 2.749353, -3.991228, 1788974336.000000, 5.040000,  7.420000,  -44.660000, 0.000000,  0.000000 
 50007040.000000, -11.117055 , 0.227318, -1.495514, 1788993536.000000, -94.010002,  24.080000,  -1.330000, 0.000000,  0.000000 
 50027008.000000, -8.238488 , -0.741775, 2.845066, 1789013504.000000, -164.710007,  13.160000,  59.570000, 0.000000,  0.000000 
 50047232.000000, -7.511070 , -1.251446, 6.893722, 1789033472.000000, -151.830002,  18.270000,  135.520004, 0.000000,  0.000000 
 50067456.000000, -7.724032 , -5.154140, 6.716653, 1789053952.000000, -77.910004,  46.759998,  213.009995, 0.000000,  0.000000 
 50086912.000000, -4.232903 , -10.327423, 11.071590, 1789074176.000000, -22.400000,  76.019997,  273.910004, 0.000000,  0.000000 
 50106880.000000, -0.825524 , -17.934206, 21.458834, 1789093632.000000, -88.970001,  105.699997,  349.790009, 0.000000,  0.000000 
 50126848.000000, -4.453043 , -27.818956, 24.937998, 1789113600.000000, -219.380005,  171.289993,  422.799988, 0.000000,  0.000000 
 50147072.000000, -5.620740 , -26.615364, 23.827726, 1789133568.000000, -207.690002,  216.649994,  397.250000, 0.000000,  0.000000 
 50167296.000000, 3.725625 , -19.582861, 22.913670, 1789153792.000000, -40.880001,  211.750000,  333.410004, 0.000000,  0.000000 
 50186752.000000, 8.312666 , -17.242680, 19.922640, 1789174016.000000, 50.750000,  175.910004,  348.459991, 0.000000,  0.000000 
 50206720.000000, 5.094319 , -13.292130, 14.469398, 1789193472.000000, 49.910000,  159.669998,  291.130005, 0.000000,  0.000000 
 50226688.000000, 3.823731 , -10.057034, 10.791630, 1789213440.000000, 18.969999,  128.169998,  213.080002, 0.000000,  0.000000 
 50247168.000000, 7.460821 , -7.745567, 9.073583, 1789233408.000000, -36.470001,  80.849998,  182.279999, 0.000000,  0.000000 
 50267392.000000, 10.076177 , -6.558727, 6.958328, 1789253888.000000, -67.900002,  33.040001,  206.289993, 0.000000,  0.000000 
 50286848.000000, 11.887544 , -5.264209, 4.723432, 1789274112.000000, -28.070000,  4.200000,  199.710007, 0.000000,  0.000000 
 50306816.000000, 13.081561 , -2.940779, 3.558127, 1789293312.000000, 34.299999,  -17.780001,  175.630005, 0.000000,  0.000000 
 50326784.000000, 13.526627 , -1.143769, 3.469593, 1789313536.000000, 58.310001,  -37.869999,  137.970001, 0.000000,  0.000000 
 50347008.000000, 13.794623 , -0.516850, 2.876173, 1789333504.000000, 59.709999,  -58.520000,  83.440002, 0.000000,  0.000000 
 50367232.000000, 12.847065 , -0.866202, 2.524428, 1789353728.000000, 62.790001,  -79.800003,  17.219999, 0.000000,  0.000000 
 50386688.000000, 9.877571 , -3.862016, 4.089334, 1789373952.000000, 34.369999,  -94.430000,  -68.669998, 0.000000,  0.000000 
 50406656.000000, 7.862815 , -10.085747, 8.566305, 1789393408.000000, -45.220001,  -94.989998,  -168.350006, 0.000000,  0.000000 
 50426624.000000, 8.489735 , -19.977676, 13.351951, 1789433344.000000, -116.059998,  -113.610001,  -293.510010, 0.000000,  0.000000 
 50447104.000000, 8.884550 , -30.166317, 20.372492, 0.000000, 0.000000,  0.000000,  0.000000, 0.000000,  0.000000 
 50467328.000000, 2.172683 , -31.987251, 22.071394, 1789453568.000000, -89.459999,  -117.040001,  -314.089996, 0.000000,  0.000000 
 50486784.000000, -0.303888 , -24.076580, 18.594624, 1789474048.000000, -8.470000,  -127.400002,  -401.799988, 0.000000,  0.000000 
 50506752.000000, -0.964308 , -16.187445, 13.438091, 1789493248.000000, 75.110001,  -165.899994,  -392.000000, 0.000000,  0.000000 
 50526720.000000, -1.529014 , -11.392227, 13.957335, 1789513216.000000, 83.720001,  -186.130005,  -376.600006, 0.000000,  0.000000 
 50546944.000000, -4.668397 , -9.432507, 13.026526, 1789533184.000000, 14.630000,  -160.229996,  -352.799988, 0.000000,  0.000000 
 50567168.000000, -6.900900 , -6.738188, 9.437292, 1789553664.000000, -24.010000,  -96.389999,  -331.730011, 0.000000,  0.000000 
 50586880.000000, -7.295716 , -2.280360, 5.757132, 1789573888.000000, 25.270000,  -47.670002,  -287.769989, 0.000000,  0.000000 
 50606592.000000, -6.530013 , 2.203789, 4.479364, 1789593600.000000, 74.269997,  -31.290001,  -231.070007, 0.000000,  0.000000 
 50626560.000000, -6.391229 , 3.634698, 2.732604, 1789613312.000000, 76.790001,  -13.090000,  -184.449997, 0.000000,  0.000000 
 50646784.000000, -8.965906 , 3.026921, 1.004985, 1789633280.000000, 54.880001,  14.700000,  -157.289993, 0.000000,  0.000000 
 50667264.000000, -11.016556 , 2.756532, 1.153341, 1789653504.000000, 27.790001,  44.170002,  -134.750000, 0.000000,  0.000000 
 50686464.000000, -11.521441 , 2.651247, 2.725425, 1789673728.000000, -4.620000,  54.670002,  -72.169998, 0.000000,  0.000000 
 50706432.000000, -10.815558 , 1.969293, 3.237489, 1789693184.000000, 6.440000,  45.290001,  -3.430000, 0.000000,  0.000000 
 50726400.000000, -9.420543 , 1.179662, 3.196811, 1789713152.000000, 70.000000,  25.549999,  50.820000, 0.000000,  0.000000 
 50746880.000000, -7.420143 , -1.100698, 4.785645, 1789733120.000000, 103.250000,  20.299999,  128.520004, 0.000000,  0.000000 
 50767104.000000, -4.871787 , -3.634698, 8.111670, 1789753600.000000, 75.250000,  28.770000,  190.820007, 4051338496.000000,  1005.742554 
 50786560.000000, -1.710868 , -6.053841, 10.593026, 1789773824.000000, 45.290001,  41.020000,  224.490005, 0.000000,  0.000000 
 50806528.000000, 1.904687 , -8.092526, 15.759130, 1789793280.000000, 36.889999,  71.190002,  274.750000, 0.000000,  0.000000 
 50826496.000000, 0.270389 , -12.287145, 21.619152, 1789813248.000000, -2.940000,  130.270004,  340.619995, 0.000000,  0.000000 
 50846720.000000, -3.857230 , -16.029520, 21.595224, 1789833216.000000, -38.990002,  218.190002,  343.140015, 0.000000,  0.000000 
 50868992.000000, 0.854238 , -13.816156, 20.884556, 1789853440.000000, -35.349998,  261.799988,  278.880005, 0.000000,  0.000000 
 50886400.000000, 6.965507 , -10.291530, 19.204794, 1789875712.000000, -16.730000,  240.589996,  253.960007, 0.000000,  0.000000 
 50906368.000000, 7.422535 , -10.703095, 16.955542, 1789893120.000000, -38.709999,  222.110001,  222.880005, 0.000000,  0.000000 
 50926336.000000, 4.266403 , -10.303494, 13.701303, 1789913088.000000, -64.400002,  203.770004,  166.389999, 0.000000,  0.000000 
 50946816.000000, 4.048656 , -7.625926, 11.073983, 1789933056.000000, -73.709999,  173.669998,  140.000000, 0.000000,  0.000000 
 50967040.000000, 6.151947 , -5.381458, 8.362915, 1789953536.000000, -66.639999,  125.720001,  142.800003, 0.000000,  0.000000 
 50986496.000000, 7.204789 , -4.063013, 6.451050, 1789973760.000000, -78.610001,  84.139999,  157.570007, 0.000000,  0.000000 
 51006464.000000, 8.114061 , -2.744568, 6.228518, 1789992960.000000, -83.230003,  60.830002,  154.350006, 0.000000,  0.000000 
 51026432.000000, 9.566505 , -0.873380, 6.721439, 1790012928.000000, -62.160000,  37.310001,  148.889999, 0.000000,  0.000000 
 51046656.000000, 11.444871 , 0.373280, 6.855437, 1790033152.000000, -8.260000,  3.360000,  138.110001, 0.000000,  0.000000 
 51066880.000000, 14.009976 , 1.708475, 5.728417, 1790053376.000000, 84.279999,  -39.130001,  111.510002, 0.000000,  0.000000 
 51086336.000000, 13.938192 , 3.486342, 4.579862, 1790073600.000000, 153.649994,  -84.209999,  68.739998, 0.000000,  0.000000 
 51106304.000000, 10.250853 , 1.160519, 4.979464, 1790093056.000000, 117.110001,  -118.580002,  -5.180000, 0.000000,  0.000000 
 51126272.000000, 10.667203 , -6.190232, 6.975078, 1790113024.000000, -9.870000,  -150.009995,  -91.910004, 0.000000,  0.000000 
 51146496.000000, 14.297115 , -22.463820, 17.697317, 1790132992.000000, -188.720001,  -184.589996,  -162.190002, 0.000000,  0.000000 
 51166976.000000, 8.630912 , -36.521652, 27.294928, 1790153216.000000, -326.410004,  -193.270004,  -183.750000, 0.000000,  0.000000 
 51186176.000000, -1.959722 , -29.582466, 22.320250, 1790173440.000000, -242.690002,  -171.710007,  -262.640015, 0.000000,  0.000000 
 51206144.000000, -0.440279 , -20.267206, 17.149361, 1790192896.000000, -64.610001,  -159.039993,  -368.410004, 0.000000,  0.000000 
 51226368.000000, 0.186640 , -15.424134, 14.940784, 1790212864.000000, 77.489998,  -215.600006,  -346.429993, 0.000000,  0.000000 
 51246592.000000, -2.411965 , -11.227123, 14.323436, 1790232832.000000, -0.700000,  -242.550003,  -321.019989, 0.000000,  0.000000 
 51266816.000000, -3.962514 , -9.315259, 12.873385, 1790273536.000000, -54.810001,  -95.620003,  -350.279999, 0.000000,  0.000000 
 51286272.000000, -5.649454 , -5.773881, 8.865408, 0.000000, 0.000000,  0.000000,  0.000000, 0.000000,  0.000000 
 51306240.000000, -5.388636 , -1.653440, 6.451050, 1790292992.000000, 6.790000,  -30.870001,  -306.600006, 0.000000,  0.000000 
 51326208.000000, -6.305088 , 1.830509, 2.957529, 1790312960.000000, 53.900002,  -6.090000,  -251.440002, 0.000000,  0.000000 
 51346432.000000, -8.736196 , 3.407379, 1.531406, 1790332928.000000, 60.410000,  10.430000,  -213.779999, 0.000000,  0.000000 
 51366656.000000, -9.401401 , 2.892922, 1.146162, 1790353152.000000, 15.330000,  40.950001,  -191.800003, 0.000000,  0.000000 
 51386112.000000, -9.025726 , 2.486143, -0.624527, 1790373376.000000, -21.350000,  63.420002,  -136.220001, 0.000000,  0.000000 
 51406080.000000, -10.631311 , 2.938386, -2.129612, 1790392832.000000, -21.770000,  68.599998,  -57.959999, 0.000000,  0.000000 
 51426048.000000, -11.320443 , 2.199004, -1.823331, 1790412800.000000, -40.459999,  78.750000,  5.950000, 0.000000,  0.000000 
 51446528.000000, -8.973085 , 0.406780, -0.289532, 1790432768.000000, -73.010002,  83.300003,  58.099998, 0.000000,  0.000000 
 51466752.000000, -6.541977 , -0.586242, 2.543570, 1790452992.000000, -75.110001,  75.879997,  109.480003, 0.000000,  0.000000 
 51486208.000000, -6.142376 , -3.376273, 7.846066, 1790473472.000000, -51.310001,  88.340004,  175.699997, 0.000000,  0.000000 
 51506176.000000, -8.176274 , -10.016356, 13.785051, 1790492672.000000, -28.070000,  116.830002,  222.600006, 0.000000,  0.000000 
 51526144.000000, -7.293324 , -16.161125, 20.973089, 1790512640.000000, 1.050000,  148.889999,  260.399994, 0.000000,  0.000000 
 51546368.000000, -3.986443 , -19.111473, 27.754351, 1790532864.000000, -2.730000,  166.039993,  312.339996, 0.000000,  0.000000 
 51566592.000000, -6.116055 , -21.123838, 28.000811, 1790553088.000000, -61.529999,  181.509995,  337.260010, 0.000000,  0.000000 
 51586048.000000, -5.328816 , -17.472391, 25.916660, 1790573312.000000, -95.410004,  195.580002,  287.769989, 0.000000,  0.000000 
 51606016.000000, 0.808774 , -12.696317, 24.866211, 1790592768.000000, -56.000000,  178.009995,  237.369995, 0.000000,  0.000000 
 51625984.000000, 4.043870 , -11.901899, 20.616560, 1790612736.000000, -8.890000,  143.850006,  232.259995, 0.000000,  0.000000 
 51646208.000000, 4.508078 , -8.918050, 15.476776, 1790632704.000000, 56.910000,  113.330002,  194.529999, 0.000000,  0.000000 
 51666688.000000, 5.515456 , -5.364708, 10.700702, 1790652928.000000, 115.989998,  71.610001,  180.039993, 0.000000,  0.000000 
 51685888.000000, 7.549356 , -3.505485, 6.824330, 1790673152.000000, 113.050003,  29.049999,  187.320007, 0.000000,  0.000000 
 51705856.000000, 8.578269 , -3.268596, 3.481557, 1790692608.000000, 64.680000,  -9.310000,  196.630005, 0.000000,  0.000000 
 51726080.000000, 8.946764 , -3.694518, 1.454836, 1790712576.000000, 3.220000,  -32.130001,  191.309998, 0.000000,  0.000000 
 51746304.000000, 9.970891 , -2.991028, 1.354338, 1790732544.000000, -27.230000,  -47.670002,  185.289993, 0.000000,  0.000000 
 51766528.000000, 12.361321 , -1.785046, 0.567099, 1790753024.000000, -1.260000,  -64.190002,  172.059998, 4052337920.000000,  1005.740173 
 51785984.000000, 14.950355 , -0.452243, -0.294317, 1790773248.000000, 63.630001,  -94.150002,  148.399994, 0.000000,  0.000000 
 51805952.000000, 14.866607 , 0.081356, 0.392423, 1790792704.000000, 89.320000,  -121.520004,  101.639999, 0.000000,  0.000000 
 51825920.000000, 13.572090 , -1.170090, 3.189633, 1790812672.000000, 37.310001,  -143.919998,  19.180000, 0.000000,  0.000000 
 51846144.000000, 13.763516 , -4.709075, 4.701896, 1790832640.000000, -57.049999,  -184.660004,  -79.029999, 0.000000,  0.000000 
 51868416.000000, 14.689538 , -10.482956, 8.472985, 1790852864.000000, -133.559998,  -224.070007,  -173.180008, 0.000000,  0.000000 
 51885824.000000, 17.400606 , -23.705694, 18.448662, 1790875136.000000, -220.220001,  -233.729996,  -265.510010, 0.000000,  0.000000 
 51905792.000000, 10.131211 , -30.929625, 26.033911, 1790892544.000000, -294.910004,  -212.309998,  -291.339996, 0.000000,  0.000000 
 51925760.000000, 5.015356 , -25.859234, 24.284758, 1790912512.000000, -242.479996,  -165.830002,  -390.670013, 0.000000,  0.000000 
 51946240.000000, 1.847259 , -20.441883, 19.922640, 1790932480.000000, -69.230003,  -153.860001,  -413.209991, 0.000000,  0.000000 
 51966464.000000, -1.770689 , -15.885949, 17.204393, 1790952960.000000, -33.599998,  -169.119995,  -410.059998, 0.000000,  0.000000 
 51985920.000000, -4.297509 , -9.406186, 13.763516, 1790973184.000000, -34.369999,  -146.789993,  -417.200012, 0.000000,  0.000000 
 52005888.000000, -4.244867 , -4.208975, 10.518847, 1790992384.000000, -34.439999,  -103.949997,  -391.649994, 0.000000,  0.000000 
 52025856.000000, -4.713861 , -0.354138, 7.192825, 1791012608.000000, -10.640000,  -61.740002,  -329.209991, 0.000000,  0.000000 
 52046080.000000, -7.188039 , 2.653640, 3.890730, 1791032576.000000, 25.900000,  -32.410000,  -251.369995, 0.000000,  0.000000 
 52066304.000000, -7.743174 , 4.515256, 2.557927, 1791052800.000000, 28.210001,  6.720000,  -202.229996, 0.000000,  0.000000 
 52085760.000000, -5.575277 , 3.802195, 1.268196, 1791073024.000000, -9.520000,  36.959999,  -144.830002, 0.000000,  0.000000 
 52105728.000000, -6.128019 , 2.407180, 0.284746, 1791092480.000000, -56.700001,  54.110001,  -79.169998, 0.000000,  0.000000 
 52125696.000000, -9.284152 , 0.808774, -0.095713, 1791112448.000000, -99.959999,  79.029999,  -19.600000, 0.000000,  0.000000 
 52146176.000000, -11.688939 , -0.480957, 0.789631, 1791132416.000000, -134.539993,  106.680000,  40.180000, 0.000000,  0.000000 
 52166400.000000, -10.655239 , -1.782653, 1.435694, 1791152640.000000, -149.520004,  107.800003,  79.029999, 0.000000,  0.000000 
 52185600.000000, -8.171489 , -2.897708, 2.313859, 1791173120.000000, -117.110001,  89.669998,  110.389999, 0.000000,  0.000000 
 52205824.000000, -6.264410 , -3.101098, 4.409972, 1791192320.000000, -64.470001,  77.559998,  136.289993, 0.000000,  0.000000 
 52225792.000000, -5.170890 , -3.641876, 5.927022, 1791212288.000000, -10.640000,  90.019997,  189.770004, 0.000000,  0.000000 
 52246016.000000, -6.726225 , -5.632704, 8.145168, 1791232256.000000, 34.299999,  106.050003,  244.300003, 0.000000,  0.000000 
 52266240.000000, -6.606583 , -10.942378, 14.203795, 1791252736.000000, 23.590000,  137.130005,  282.589996, 0.000000,  0.000000 
 52285696.000000, -8.288737 , -18.352949, 25.316065, 1791272960.000000, -49.070000,  172.970001,  342.299988, 0.000000,  0.000000 
 52305664.000000, -13.433307 , -25.459631, 30.556345, 1791292416.000000, -119.419998,  237.440002,  390.040009, 0.000000,  0.000000 
 52325632.000000, -6.183054 , -22.143181, 31.539795, 1791312384.000000, -104.300003,  275.869995,  344.750000, 0.000000,  0.000000 
 52345856.000000, 1.378266 , -13.564911, 28.804800, 1791332352.000000, 16.170000,  252.839996,  290.640015, 0.000000,  0.000000 
 52366336.000000, 3.862016 , -7.446464, 20.750557, 1791352576.000000, 180.320007,  225.119995,  252.699997, 0.000000,  0.000000 
 52385536.000000, 5.393422 , -0.141177, 14.002798, 1791372800.000000, 352.730011,  182.000000,  195.649994, 0.000000,  0.000000 
 52405504.000000, 6.599405 , 4.381258, 9.757930, 1791392256.000000, 371.769989,  151.339996,  174.020004, 0.000000,  0.000000 
 52425472.000000, 6.455836 , 1.667797, 9.310472, 1791412224.000000, 222.880005,  136.639999,  150.430008, 0.000000,  0.000000 
 52445952.000000, 8.403593 , -2.902494, 9.305687, 1791432192.000000, -6.720000,  115.989998,  111.650002, 0.000000,  0.000000 
 52466176.000000, 12.368500 , -4.321437, 7.776673, 1791452672.000000, -124.389999,  78.470001,  127.820000, 0.000000,  0.000000 
 52485632.000000, 15.180067 , -3.455236, 5.783452, 1791472896.000000, -103.879997,  18.129999,  158.619995, 0.000000,  0.000000 
 52505600.000000, 14.806787 , -2.323431, 5.173282, 1791492352.000000, -58.450001,  -42.139999,  126.070000, 0.000000,  0.000000 
 52525568.000000, 13.229917 , -1.880759, 5.742774, 1791512320.000000, -58.029999,  -92.190002,  46.340000, 0.000000,  0.000000 
 52545792.000000, 12.095718 , -3.464807, 7.975278, 1791532288.000000, -102.830002,  -147.490005,  -36.820000, 0.000000,  0.000000 
 52566016.000000, 8.673983 , -5.852845, 11.854043, 1791552512.000000, -141.960007,  -198.309998,  -111.930000, 0.000000,  0.000000 
 52585472.000000, 4.235296 , -8.389235, 12.658032, 1791572736.000000, -122.709999,  -228.899994,  -194.600006, 0.000000,  0.000000 
 52605440.000000, 4.807181 , -10.114462, 17.453247, 1791592192.000000, -54.740002,  -268.450012,  -287.420013, 0.000000,  0.000000 
 52625408.000000, 7.987241 , -14.895321, 27.689745, 1791612160.000000, -46.830002,  -304.290009,  -313.670013, 0.000000,  0.000000 
 52645888.000000, 2.471786 , -21.379869, 28.912476, 1791632128.000000, -61.040001,  -301.209991,  -266.070007, 0.000000,  0.000000 
 52666112.000000, -1.399801 , -17.388643, 27.086754, 1791652352.000000, -66.150002,  -285.040009,  -320.179993, 0.000000,  0.000000 
 52685568.000000, -3.553342 , -10.717452, 20.638096, 1791672832.000000, 5.670000,  -287.209991,  -294.910004, 0.000000,  0.000000 
 52705536.000000, -4.735396 , -7.190433, 17.015362, 1791692032.000000, 43.049999,  -304.989990,  -270.200012, 0.000000,  0.000000 
 52725504.000000, -6.022735 , -3.481557, 12.344571, 1791712000.000000, 12.740000,  -286.230011,  -267.540009, 0.000000,  0.000000 
 52745728.000000, -4.347759 , 0.246461, 7.850852, 1791752448.000000, 13.650000,  -152.809998,  -189.210007, 4053337344.000000,  1005.741821 
 52765952.000000, -1.976472 , 3.460021, 3.605984, 1791772672.000000, 23.940001,  -108.080002,  -145.320007, 0.000000,  0.000000 
 52785408.000000, -3.067599 , 5.216353, 2.086541, 0.000000, 0.000000,  0.000000,  0.000000, 0.000000,  0.000000 
 52805376.000000, -6.953543 , 4.855037, 1.316052, 1791792128.000000, -17.080000,  -57.610001,  -162.119995, 0.000000,  0.000000 
 52825344.000000, -7.324430 , 4.594220, -0.937986, 1791812096.000000, -52.990002,  6.440000,  -165.550003, 0.000000,  0.000000 
 52845568.000000, -5.283352 , 5.175675, -2.074577, 1791832064.000000, -41.790001,  51.590000,  -98.980003, 0.000000,  0.000000 
 52867840.000000, -7.010970 , 4.094120, -2.304288, 1791852288.000000, -54.180000,  84.000000,  -10.990000, 0.000000,  0.000000 
 52885248.000000, -10.016356 , 2.213361, -2.256432, 1791874560.000000, -104.930000,  128.589996,  35.209999, 0.000000,  0.000000 
 52905216.000000, -9.334401 , 0.923629, -0.373280, 1791891968.000000, -143.289993,  165.339996,  68.669998, 0.000000,  0.000000 
 52925696.000000, -7.757531 , -0.629312, 1.629512, 1791911936.000000, -139.229996,  174.649994,  127.260002, 0.000000,  0.000000 
 52945664.000000, -9.269794 , -4.182654, 6.082555, 1791932416.000000, -131.669998,  183.960007,  185.430008, 0.000000,  0.000000 
 52965888.000000, -11.535798 , -11.102697, 11.282159, 1791952384.000000, -143.919998,  192.779999,  220.080002, 0.000000,  0.000000 
 52985344.000000, -8.946764 , -16.878971, 15.493526, 1791972608.000000, -130.899994,  188.089996,  258.299988, 0.000000,  0.000000 
 53005312.000000, -3.414558 , -22.908884, 21.444477, 1791992064.000000, -135.869995,  170.309998,  319.899994, 0.000000,  0.000000 
 53025280.000000, -7.874779 , -26.825935, 23.959335, 1792012032.000000, -191.869995,  172.970001,  367.920013, 0.000000,  0.000000 
 53045760.000000, -10.274779 , -25.299314, 22.750957, 1792032000.000000, -200.899994,  205.100006,  332.989990, 0.000000,  0.000000 
 53065728.000000, 0.148355 , -17.216360, 21.154945, 1792052480.000000, -132.229996,  198.309998,  262.920013, 0.000000,  0.000000 
 53085184.000000, 5.307281 , -12.593425, 17.828922, 1792072448.000000, -56.279999,  175.419998,  270.760010, 0.000000,  0.000000 
 53105152.000000, 3.428915 , -9.556933, 15.780666, 1792091904.000000, -21.350000,  177.380005,  220.290009, 0.000000,  0.000000 
 53125120.000000, 0.559920 , -7.805387, 13.105491, 1792111872.000000, 25.270000,  170.449997,  185.919998, 0.000000,  0.000000 
 53145600.000000, 2.244468 , -6.405586, 10.923235, 1792131840.000000, 37.660000,  138.740005,  151.410004, 0.000000,  0.000000 
 53165824.000000, 3.754339 , -5.924629, 9.930215, 1792152064.000000, 14.280000,  82.110001,  166.949997, 0.000000,  0.000000 
 53185280.000000, 5.912664 , -5.584848, 7.685746, 1792172544.000000, -38.430000,  19.879999,  192.850006, 0.000000,  0.000000 
 53205248.000000, 7.211967 , -4.565506, 6.355337, 1792191744.000000, -76.090004,  -24.780001,  189.559998, 0.000000,  0.000000 
 53225216.000000, 9.200402 , -3.510271, 5.326423, 1792211712.000000, -79.169998,  -55.720001,  171.919998, 0.000000,  0.000000 
 53245440.000000, 11.971292 , -1.864009, 4.697111, 1792231936.000000, -46.060001,  -84.980003,  148.330002, 0.000000,  0.000000 
 53265664.000000, 14.134403 , -0.354138, 3.823731, 1792252160.000000, -6.510000,  -113.889999,  112.349998, 0.000000,  0.000000 
 53285120.000000, 13.253844 , 0.256032, 4.232903, 1792272384.000000, 13.160000,  -137.199997,  52.290001, 0.000000,  0.000000 
 53305088.000000, 11.368300 , -1.540978, 6.458229, 1792291840.000000, -10.150000,  -145.880005,  -32.759998, 0.000000,  0.000000 
 53325056.000000, 9.911072 , -5.204390, 7.946564, 1792311808.000000, -52.080002,  -150.360001,  -124.250000, 0.000000,  0.000000 
 53345280.000000, 9.171689 , -11.803794, 9.982857, 1792331776.000000, -80.500000,  -163.169998,  -216.089996, 0.000000,  0.000000 
 53365760.000000, 11.892329 , -21.320049, 16.759329, 1792352000.000000, -84.699997,  -173.250000,  -294.910004, 0.000000,  0.000000 
 53384960.000000, 8.236095 , -31.066017, 22.822741, 1792372224.000000, -80.709999,  -170.240005,  -294.420013, 0.000000,  0.000000 
 53404928.000000, 1.529014 , -30.597023, 23.763123, 1792391680.000000, -62.790001,  -149.729996,  -346.500000, 0.000000,  0.000000 
 53425152.000000, -0.775275 , -24.660431, 19.925032, 1792411648.000000, 27.090000,  -140.139999,  -394.239990, 0.000000,  0.000000 
 53445376.000000, -3.026921 , -19.582861, 17.338394, 1792431616.000000, 58.170002,  -177.309998,  -370.649994, 0.000000,  0.000000 
 53465600.000000, -4.993821 , -14.122439, 15.366707, 1792452096.000000, 39.900002,  -191.449997,  -380.730011, 0.000000,  0.000000 
 53485056.000000, -6.537192 , -9.111869, 11.380265, 1792472320.000000, -4.480000,  -166.529999,  -373.170013, 0.000000,  0.000000 
 53505024.000000, -7.267002 , -3.974478, 7.010970, 1792491776.000000, 9.100000,  -111.090004,  -341.459991, 0.000000,  0.000000 
 53524992.000000, -8.279166 , 0.952343, 4.567898, 1792511744.000000, 47.389999,  -72.940002,  -286.019989, 0.000000,  0.000000 
 53545216.000000, -8.183454 , 3.574877, 3.431308, 1792531712.000000, 55.369999,  -43.889999,  -243.529999, 0.000000,  0.000000 
 53565440.000000, -9.442079 , 3.340380, 0.528814, 1792551936.000000, 33.040001,  -17.430000,  -206.779999, 0.000000,  0.000000 
 53584896.000000, -9.468399 , 3.421736, -0.626920, 1792572160.000000, 17.219999,  18.760000,  -168.630005, 0.000000,  0.000000 
 53604864.000000, -8.714661 , 2.443072, 0.378066, 1792591616.000000, -23.520000,  38.290001,  -90.160004, 0.000000,  0.000000 
 53624832.000000, -11.217552 , 0.433101, 0.244068, 1792611584.000000, -63.139999,  45.430000,  -7.210000, 0.000000,  0.000000 
 53645312.000000, -11.380265 , -1.564906, 1.418944, 1792631552.000000, -80.360001,  60.200001,  20.580000, 0.000000,  0.000000 
 53665536.000000, -7.781459 , -3.333202, 3.177669, 1792651776.000000, -61.180000,  59.150002,  73.989998, 0.000000,  0.000000 
 53684992.000000, -4.974678 , -4.723432, 6.357729, 1792672256.000000, -10.500000,  43.400002,  134.259995, 0.000000,  0.000000 
 53704960.000000, -3.129812 , -6.362515, 9.272188, 1792691456.000000, 35.700001,  52.920002,  181.509995, 0.000000,  0.000000 
 53724928.000000, -0.612563 , -7.467999, 11.157731, 1792711680.000000, 79.099998,  73.919998,  224.770004, 0.000000,  0.000000 
 53745152.000000, 4.048656 , -8.633304, 15.780666, 1792751872.000000, 15.400000,  144.830002,  349.720001, 4054336768.000000,  1005.745239 
 53765376.000000, 2.526821 , -13.677374, 22.851456, 0.000000, 0.000000,  0.000000,  0.000000, 0.000000,  0.000000 
 53784832.000000, -3.297310 , -18.008383, 23.090740, 1792772096.000000, -123.970001,  205.449997,  347.760010, 0.000000,  0.000000 
 53804800.000000, -0.191426 , -15.488741, 23.148167, 1792791552.000000, -144.339996,  219.029999,  294.700012, 0.000000,  0.000000 
 53824768.000000, 7.436893 , -11.672189, 20.401205, 1792811520.000000, -78.470001,  180.740005,  273.209991, 0.000000,  0.000000 
 53844992.000000, 7.980063 , -10.389636, 16.304693, 1792831488.000000, -7.700000,  140.770004,  279.160004, 0.000000,  0.000000 
 53867264.000000, 4.520042 , -8.171489, 12.533605, 1792851712.000000, 35.420002,  115.709999,  199.360001, 0.000000,  0.000000 
 53884672.000000, 4.235296 , -6.364908, 9.444471, 1792873984.000000, 29.190001,  92.889999,  155.119995, 0.000000,  0.000000 
 53904896.000000, 6.637690 , -5.335995, 7.420143, 1792891392.000000, -15.680000,  49.630001,  158.899994, 0.000000,  0.000000 
 53924864.000000, 8.013563 , -4.735396, 6.166305, 1792911360.000000, -48.860001,  10.360000,  176.680008, 0.000000,  0.000000 
 53945088.000000, 8.882158 , -3.242275, 5.180461, 1792931328.000000, -34.230000,  -12.110000,  175.979996, 0.000000,  0.000000 
 53965312.000000, 11.162518 , -1.476372, 4.110869, 1792951808.000000, 14.490000,  -29.540001,  162.399994, 0.000000,  0.000000 
 53984768.000000, 13.497912 , 0.033500, 3.299703, 1792972032.000000, 58.099998,  -61.110001,  136.080002, 0.000000,  0.000000 
 54004736.000000, 13.665410 , 0.830309, 2.337788, 1792991488.000000, 81.129997,  -92.540001,  81.199997, 0.000000,  0.000000 
 54024704.000000, 11.562119 , 0.318245, 2.658426, 1793011456.000000, 65.800003,  -115.010002,  -11.340000, 0.000000,  0.000000 
 54044928.000000, 8.953942 , -2.438286, 4.433900, 1793031424.000000, -2.590000,  -127.959999,  -112.349998, 0.000000,  0.000000 
 54065408.000000, 8.233703 , -6.599405, 6.032306, 1793051648.000000, -65.029999,  -135.520004,  -197.820007, 0.000000,  0.000000 
 54084608.000000, 13.414164 , -15.945770, 13.890336, 1793071872.000000, -86.449997,  -146.649994,  -258.510010, 0.000000,  0.000000 
 54104576.000000, 11.263017 , -25.172497, 20.829521, 1793091328.000000, -87.570000,  -155.539993,  -238.770004, 0.000000,  0.000000 
 54124544.000000, 4.615755 , -26.483761, 22.210180, 1793111296.000000, -113.260002,  -142.029999,  -253.119995, 0.000000,  0.000000 
 54145024.000000, 3.227918 , -19.764715, 20.149961, 1793131264.000000, -12.040000,  -136.919998,  -318.360016, 0.000000,  0.000000 
 54165248.000000, 0.136391 , -15.072391, 17.419750, 1793151744.000000, 19.320000,  -173.320007,  -280.489990, 0.000000,  0.000000 
 54184704.000000, -1.170090 , -10.155140, 15.627523, 1793171968.000000, 18.410000,  -187.039993,  -304.360016, 0.000000,  0.000000 
 54204672.000000, -1.957329 , -5.783452, 13.028918, 1793191424.000000, -10.080000,  -177.449997,  -294.559998, 0.000000,  0.000000 
 54224640.000000, -3.897908 , -1.545763, 9.367901, 1793211392.000000, -33.810001,  -134.889999,  -271.600006, 0.000000,  0.000000 
 54244864.000000, -5.051248 , 2.471786, 7.082755, 1793231360.000000, -20.160000,  -77.629997,  -231.000000, 0.000000,  0.000000 
 54265088.000000, -5.402994 , 4.622933, 4.103691, 1793251584.000000, 13.090000,  -34.299999,  -187.600006, 0.000000,  0.000000 
 54284544.000000, -8.066205 , 5.130211, 1.184447, 1793271808.000000, 26.460001,  2.380000,  -170.449997, 0.000000,  0.000000 
 54304512.000000, -7.948956 , 5.163712, 0.153141, 1793291264.000000, 25.480000,  46.200001,  -157.990005, 0.000000,  0.000000 
 54324480.000000, -6.568298 , 4.960321, -0.452243, 1793311232.000000, 7.490000,  70.349998,  -80.779999, 0.000000,  0.000000 
 54344960.000000, -8.135597 , 3.615555, -0.725025, 1793331200.000000, -12.110000,  80.779999,  -0.840000, 0.000000,  0.000000 
 54365184.000000, -9.284152 , 1.981257, 2.033899, 1793351424.000000, -37.240002,  100.239998,  25.340000, 0.000000,  0.000000 
 54384640.000000, -6.965507 , 0.038285, 4.259224, 1793371904.000000, -46.410000,  110.529999,  47.180000, 0.000000,  0.000000 
 54404608.000000, -5.027320 , -1.741975, 6.726225, 1793391104.000000, 7.140000,  100.309998,  100.379997, 0.000000,  0.000000 
 54424576.000000, -5.106283 , -4.000800, 9.382257, 1793411072.000000, 77.910004,  93.940002,  158.970001, 0.000000,  0.000000 
 54444800.000000, -4.637290 , -6.814759, 12.823137, 1793431296.000000, 97.580002,  102.059998,  211.190002, 0.000000,  0.000000 
 54465024.000000, -3.562913 , -12.246466, 18.372093, 1793451520.000000, 38.430000,  115.779999,  265.230011, 0.000000,  0.000000 
 54484480.000000, -5.359922 , -18.084953, 22.320250, 1793471744.000000, -65.800003,  124.389999,  319.970001, 0.000000,  0.000000 
 54504448.000000, -3.160919 , -19.767109, 21.422939, 1793491200.000000, -151.550003,  135.520004,  309.679993, 0.000000,  0.000000 
 54524416.000000, 3.649055 , -14.246865, 20.853449, 1793511168.000000, -140.699997,  116.129997,  297.010010, 0.000000,  0.000000 
 54544640.000000, 7.776673 , -11.241481, 19.580467, 1793531136.000000, -72.379997,  115.430000,  297.989990, 0.000000,  0.000000 
 54565120.000000, 5.637490 , -9.860823, 17.111074, 1793551360.000000, -11.690000,  151.830002,  254.100006, 0.000000,  0.000000 
 54584320.000000, 1.258625 , -8.697910, 13.251451, 1793571584.000000, 21.559999,  172.550003,  176.119995, 0.000000,  0.000000 
 54604288.000000, 1.564906 , -7.104291, 10.753345, 1793591040.000000, 17.360001,  164.080002,  124.739998, 0.000000,  0.000000 
 54624256.000000, 4.383651 , -6.829116, 8.994620, 1793611008.000000, -30.030001,  123.900002,  150.779999, 0.000000,  0.000000 
 54644736.000000, 4.737789 , -6.563512, 7.893922, 1793630976.000000, -98.279999,  82.389999,  176.889999, 0.000000,  0.000000 
 54664960.000000, 5.240282 , -5.429315, 6.623333, 1793651456.000000, -128.380005,  54.950001,  167.509995, 0.000000,  0.000000 
 54684416.000000, 8.362915 , -3.206382, 6.151947, 1793671680.000000, -84.419998,  23.309999,  168.559998, 0.000000,  0.000000 
 54704384.000000, 13.737194 , -0.770489, 5.953342, 1793691136.000000, -12.180000,  -17.710001,  175.979996, 0.000000,  0.000000 
 54724352.000000, 18.144773 , 0.988236, 4.740182, 1793711104.000000, 59.150002,  -61.110001,  165.619995, 0.000000,  0.000000 
 54744576.000000, 16.352549 , 2.572284, 4.484150, 1793731072.000000, 121.309998,  -92.120003,  110.110001, 0.000000,  0.000000 
 54764800.000000, 13.739587 , 2.500499, 3.637090, 1793751296.000000, 136.430008,  -105.209999,  2.940000, 4055336192.000000,  1005.747498 
 54784256.000000, 12.323036 , 0.349352, 1.820938, 1793771520.000000, 104.230003,  -133.139999,  -90.650002, 0.000000,  0.000000 
 54804224.000000, 11.763116 , -5.180461, 6.484549, 1793790976.000000, 16.660000,  -160.930008,  -158.619995, 0.000000,  0.000000 
 54824192.000000, 12.842279 , -20.480169, 15.687346, 1793810944.000000, -142.309998,  -154.770004,  -218.399994, 0.000000,  0.000000 
 54844672.000000, 10.382458 , -34.959141, 25.426134, 1793830912.000000, -254.940002,  -129.990005,  -209.930008, 0.000000,  0.000000 
 54866688.000000, 2.555535 , -32.599815, 23.791836, 1793851136.000000, -212.100006,  -99.260002,  -271.809998, 0.000000,  0.000000 
 54884352.000000, -1.438086 , -27.381069, 21.320049, 1793873408.000000, -18.969999,  -103.320000,  -350.350006, 0.000000,  0.000000 
 54904320.000000, -3.139383 , -20.193029, 17.290537, 1793890816.000000, 11.200000,  -152.110001,  -361.899994, 0.000000,  0.000000 
 54924288.000000, -3.481557 , -13.313664, 14.988641, 1793910784.000000, 24.780001,  -183.960007,  -374.360016, 0.000000,  0.000000 
 54944512.000000, -5.697310 , -9.140583, 12.378072, 1793931008.000000, 10.150000,  -168.699997,  -352.100006, 0.000000,  0.000000 
 54964736.000000, -9.604790 , -5.123034, 8.865408, 1793951232.000000, -15.260000,  -119.489998,  -317.170013, 0.000000,  0.000000 
 54984192.000000, -10.542776 , 0.090927, 7.082755, 1793971456.000000, -12.810000,  -77.419998,  -298.970001, 0.000000,  0.000000 
 55004160.000000, -8.190632 , 3.345166, 3.845266, 1793990912.000000, -8.050000,  -56.630001,  -245.490005, 0.000000,  0.000000 
 55024128.000000, -7.250252 , 5.156533, 2.457429, 1794010880.000000, 15.260000,  -28.070000,  -207.899994, 0.000000,  0.000000 
 55044352.000000, -6.503692 , 5.024928, 1.507478, 1794030848.000000, 26.040001,  16.379999,  -176.889999, 0.000000,  0.000000 
 55064832.000000, -6.259624 , 4.740182, 0.631705, 1794051072.000000, 16.730000,  51.380001,  -151.339996, 0.000000,  0.000000 
 55084032.000000, -7.695317 , 4.644469, -0.626920, 1794071296.000000, 13.370000,  65.239998,  -91.419998, 0.000000,  0.000000 
 55104000.000000, -9.061620 , 4.524827, -0.524028, 1794090752.000000, 7.070000,  70.279999,  -31.150000, 0.000000,  0.000000 
 55124224.000000, -7.850852 , 3.196811, 0.277567, 1794110720.000000, -29.120001,  73.150002,  26.180000, 0.000000,  0.000000 
 55144448.000000, -6.051448 , 1.014557, 0.607777, 1794130688.000000, -54.880001,  68.529999,  67.760002, 0.000000,  0.000000 
 55164672.000000, -5.450850 , -0.004786, 1.526621, 1794151168.000000, -26.809999,  63.349998,  102.550003, 0.000000,  0.000000 
 55184128.000000, -4.706682 , -0.904487, 5.422136, 1794171392.000000, 21.770000,  74.129997,  166.949997, 0.000000,  0.000000 
 55204096.000000, -5.800202 , -5.860023, 9.533006, 1794190848.000000, 33.110001,  90.720001,  232.119995, 0.000000,  0.000000 
 55224064.000000, -6.759724 , -15.050854, 15.517454, 1794210816.000000, -10.640000,  108.430000,  262.220001, 0.000000,  0.000000 
 55244288.000000, -3.897908 , -21.743578, 21.427727, 1794230784.000000, -69.720001,  109.410004,  289.589996, 0.000000,  0.000000 
 55264512.000000, -1.452443 , -22.047468, 22.987844, 1794251008.000000, -113.050003,  110.250000,  355.459991, 0.000000,  0.000000 
 55283968.000000, 0.562313 , -18.731016, 22.461426, 1794271232.000000, -110.879997,  117.389999,  354.269989, 0.000000,  0.000000 
 55303936.000000, 5.113462 , -14.366508, 22.454247, 1794290688.000000, -110.529999,  142.240005,  294.489990, 0.000000,  0.000000 
 55323904.000000, 5.245068 , -11.624333, 19.647467, 1794310656.000000, -102.690002,  163.240005,  245.630005, 0.000000,  0.000000 
 55344384.000000, 1.995614 , -9.743573, 13.619946, 1794330624.000000, -35.770000,  157.500000,  184.869995, 0.000000,  0.000000 
 55364608.000000, 2.158326 , -5.623133, 11.444871, 1794350848.000000, 38.360001,  130.270004,  152.320007, 0.000000,  0.000000 
 55384064.000000, 5.032106 , -4.823930, 8.599805, 1794371328.000000, 16.240000,  85.400002,  191.940002, 0.000000,  0.000000 
 55404032.000000, 6.362515 , -6.111269, 5.972485, 1794390528.000000, -63.420002,  35.279999,  229.180008, 0.000000,  0.000000 
 55424000.000000, 8.135597 , -6.422336, 4.524827, 1794410496.000000, -134.610001,  2.660000,  209.580002, 0.000000,  0.000000 
 55444224.000000, 11.382657 , -4.778467, 4.625326, 1794430720.000000, -139.160004,  -22.400000,  191.660004, 0.000000,  0.000000 
 55464448.000000, 13.328021 , -3.218346, 4.082155, 1794450944.000000, -84.699997,  -36.889999,  167.860001, 0.000000,  0.000000 
 55483904.000000, 11.911470 , -1.363909, 2.866602, 1794471168.000000, 1.890000,  -34.650002,  110.529999, 0.000000,  0.000000 
 55503872.000000, 10.588240 , 1.131805, 3.438486, 1794490624.000000, 72.800003,  -20.580000,  20.020000, 0.000000,  0.000000 
 55523840.000000, 10.377672 , 1.349552, 5.874380, 1794510592.000000, 82.250000,  -16.030001,  -53.619999, 0.000000,  0.000000 
 55544064.000000, 9.602397 , -1.720440, 8.164310, 1794530560.000000, 57.260002,  -25.969999,  -105.840004, 0.000000,  0.000000 
 55564544.000000, 9.052048 , -6.577869, 8.662018, 1794550784.000000, 29.820000,  -48.930000,  -155.539993, 0.000000,  0.000000 
 55583744.000000, 11.607583 , -16.936398, 14.330614, 1794571008.000000, -20.510000,  -84.559998,  -210.630005, 0.000000,  0.000000 
 55603968.000000, 11.870793 , -35.088352, 23.052454, 1794590464.000000, -151.759995,  -118.650002,  -229.460007, 0.000000,  0.000000 
 55623936.000000, 1.923829 , -37.646278, 21.064018, 1794610432.000000, -236.880005,  -131.180008,  -257.179993, 0.000000,  0.000000 
 55644160.000000, -0.325424 , -27.680172, 16.656439, 1794630400.000000, -59.430000,  -128.660004,  -371.910004, 0.000000,  0.000000 
 55664384.000000, 2.734996 , -24.184256, 13.189239, 1794650880.000000, 19.879999,  -183.680008,  -375.899994, 0.000000,  0.000000 
 55683840.000000, 0.734596 , -21.035301, 12.756138, 1794671104.000000, -51.590000,  -188.580002,  -380.940002, 0.000000,  0.000000 
 55703808.000000, -3.653840 , -17.233109, 11.368300, 1794690560.000000, -93.940002,  -141.119995,  -419.649994, 0.000000,  0.000000 
 55723776.000000, -6.374479 , -11.298907, 7.807780, 1794710528.000000, -51.869999,  -79.730003,  -421.610016, 0.000000,  0.000000 
 55744000.000000, -6.776474 , -5.429315, 4.943572, 1794750720.000000, 72.590004,  -26.740000,  -307.440002, 4056335616.000000,  1005.750061 
 55764480.000000, -8.334201 , 0.236889, 2.177469, 0.000000, 0.000000,  0.000000,  0.000000, 0.000000,  0.000000 
 55783680.000000, -11.490334 , 2.694318, -0.600598, 1794770944.000000, 65.660004,  2.940000,  -255.850006, 0.000000,  0.000000 
 55803648.000000, -13.713267 , 3.830909, -1.969293, 1794790400.000000, 22.610001,  41.090000,  -205.380005, 0.000000,  0.000000 
 55823616.000000, -11.071590 , 3.981657, -2.423929, 1794810368.000000, -33.110001,  89.180000,  -134.610001, 0.000000,  0.000000 
 55844096.000000, -11.289338 , 4.340580, -1.926222, 1794830336.000000, -52.779999,  92.610001,  -34.230000, 0.000000,  0.000000 
 55866368.000000, -11.222338 , 3.084348, -0.105284, 1794850816.000000, -55.510002,  103.669998,  28.980000, 0.000000,  0.000000 
 55883776.000000, -9.812965 , 1.323231, 0.710668, 1794872832.000000, -40.670002,  113.120003,  97.090004, 0.000000,  0.000000 
 55903744.000000, -8.224132 , -0.069392, 1.337588, 1794890496.000000, 23.660000,  118.790001,  180.669998, 0.000000,  0.000000 
 55923712.000000, -7.640282 , -2.825923, 5.328816, 1794910464.000000, 73.360001,  126.559998,  246.119995, 0.000000,  0.000000 
 55944192.000000, -8.080563 , -7.561320, 10.746166, 1794930432.000000, 61.250000,  138.669998,  274.329987, 0.000000,  0.000000 
 55964160.000000, -7.089933 , -13.143774, 13.289737, 1794950656.000000, 32.410000,  153.789993,  280.769989, 0.000000,  0.000000 
 55983616.000000, -3.579663 , -16.003199, 17.036898, 1794970880.000000, 24.920000,  163.309998,  301.140015, 0.000000,  0.000000 
 56003584.000000, -3.113062 , -20.834309, 23.203201, 1794990336.000000, -51.520000,  165.899994,  331.100006, 0.000000,  0.000000 
 56023552.000000, -8.669197 , -23.090740, 24.248865, 1795010304.000000, -143.430008,  197.539993,  334.950012, 0.000000,  0.000000 
 56044032.000000, -5.273781 , -18.563519, 23.475983, 1795030272.000000, -138.669998,  210.839996,  292.600006, 0.000000,  0.000000 
 56064256.000000, 3.507878 , -13.256237, 21.552153, 1795050496.000000, -73.989998,  181.930008,  258.230011, 0.000000,  0.000000 
 56083712.000000, 6.448657 , -11.083554, 18.099310, 1795070976.000000, -30.799999,  159.180008,  264.529999, 0.000000,  0.000000 
 56103680.000000, 3.873980 , -8.973085, 14.266008, 1795090176.000000, 11.060000,  136.990005,  209.300003, 0.000000,  0.000000 
 56123648.000000, 2.124826 , -8.240881, 11.389835, 1795110144.000000, -4.900000,  101.779999,  150.289993, 0.000000,  0.000000 
 56143872.000000, 5.000999 , -7.724032, 8.874979, 1795130112.000000, -66.639999,  55.510002,  123.129997, 0.000000,  0.000000 
 56164096.000000, 6.546762 , -6.360123, 6.022735, 1795150592.000000, -99.750000,  2.450000,  141.470001, 0.000000,  0.000000 
 56183552.000000, 7.037291 , -4.579862, 4.421937, 1795170816.000000, -82.110001,  -33.880001,  131.600006, 0.000000,  0.000000 
 56203520.000000, 8.595018 , -2.964707, 4.254438, 1795190272.000000, -54.110001,  -50.750000,  110.949997, 0.000000,  0.000000 
 56223488.000000, 10.320245 , -1.878366, 3.653840, 1795210240.000000, -26.460001,  -66.849998,  96.739998, 0.000000,  0.000000 
 56243712.000000, 11.531013 , -0.459422, 3.543770, 1795230208.000000, 13.650000,  -87.849998,  61.110001, 0.000000,  0.000000 
 56264192.000000, 11.258230 , 0.059821, 4.283153, 1795250432.000000, 36.889999,  -109.340004,  5.740000, 0.000000,  0.000000 
 56283392.000000, 9.257831 , -1.741975, 5.565705, 1795270656.000000, 19.040001,  -119.559998,  -63.560001, 0.000000,  0.000000 
 56303360.000000, 7.690532 , -5.972485, 4.644469, 1795290112.000000, -29.540001,  -119.910004,  -146.720001, 0.000000,  0.000000 
 56323328.000000, 9.140583 , -12.875778, 8.410772, 1795310080.000000, -88.690002,  -116.900002,  -231.419998, 0.000000,  0.000000 
 56343808.000000, 10.470992 , -27.242285, 14.969498, 1795330048.000000, -158.690002,  -103.599998,  -281.610016, 0.000000,  0.000000 
 56364032.000000, 4.811966 , -34.222149, 18.654444, 1795350528.000000, -205.660004,  -71.959999,  -294.630005, 0.000000,  0.000000 
 56383488.000000, 1.471586 , -30.525238, 17.465212, 1795370752.000000, -128.169998,  -45.920002,  -379.959991, 0.000000,  0.000000 
 56403456.000000, 0.849452 , -25.536201, 15.151353, 1795390208.000000, -7.980000,  -66.290001,  -382.829987, 0.000000,  0.000000 
 56423424.000000, -0.825524 , -21.123838, 13.749159, 1795410176.000000, 13.370000,  -88.970001,  -371.140015, 0.000000,  0.000000 
 56443648.000000, -2.885744 , -16.060625, 12.619746, 1795430144.000000, 1.610000,  -94.639999,  -385.489990, 0.000000,  0.000000 
 56463872.000000, -4.441079 , -11.205588, 9.839286, 1795450368.000000, 1.470000,  -75.459999,  -364.350006, 0.000000,  0.000000 
 56483328.000000, -5.156533 , -6.860222, 7.472785, 1795470592.000000, 34.930000,  -49.349998,  -320.670013, 0.000000,  0.000000 
 56503296.000000, -8.343772 , -2.289931, 5.302495, 1795490048.000000, 48.299999,  -30.660000,  -278.670013, 0.000000,  0.000000 
 56523264.000000, -11.732009 , 0.631705, 2.943172, 1795510016.000000, 35.209999,  -3.360000,  -258.720001, 0.000000,  0.000000 
 56543744.000000, -11.449656 , 2.679961, 0.734596, 1795529984.000000, 34.299999,  35.490002,  -210.630005, 0.000000,  0.000000 
 56563968.000000, -10.147961 , 4.218546, -1.237089, 1795550208.000000, 53.689999,  56.700001,  -132.089996, 0.000000,  0.000000 
 56583424.000000, -11.073983 , 5.615955, -3.117848, 1795570688.000000, 75.459999,  53.900002,  -64.540001, 0.000000,  0.000000 
 56603392.000000, -11.318050 , 5.048856, -3.122634, 1795589888.000000, 56.279999,  62.720001,  4.830000, 0.000000,  0.000000 
 56623360.000000, -8.252845 , 2.955136, -1.852045, 1795609856.000000, 6.720000,  66.500000,  62.930000, 0.000000,  0.000000 
 56643584.000000, -6.585048 , 0.890130, -0.662812, 1795630080.000000, -40.040001,  59.639999,  131.320007, 0.000000,  0.000000 
 56663808.000000, -8.178668 , -1.828116, 1.452443, 1795650304.000000, -51.730000,  71.889999,  204.680008, 0.000000,  0.000000 
 56683264.000000, -9.655040 , -7.293324, 5.426922, 1795670528.000000, -92.959999,  92.610001,  255.850006, 0.000000,  0.000000 
 56703232.000000, -8.599805 , -16.493725, 7.456036, 1795689984.000000, -156.869995,  88.269997,  285.459991, 0.000000,  0.000000 
 56723200.000000, -3.881158 , -23.341984, 10.116854, 1795709952.000000, -173.600006,  64.889999,  323.470001, 0.000000,  0.000000 
 56743680.000000, -2.053042 , -32.063824, 14.778071, 1795750144.000000, -280.559998,  72.730003,  421.119995, 4057335040.000000,  1005.753174 
 56763904.000000, -5.970093 , -33.279377, 16.658833, 0.000000, 0.000000,  0.000000,  0.000000, 0.000000,  0.000000 
 56783104.000000, -0.945165 , -26.761328, 17.137396, 1795770368.000000, -246.259995,  89.529999,  341.459991, 0.000000,  0.000000 
 56803072.000000, 5.357530 , -21.128624, 15.658630, 1795789824.000000, -164.850006,  88.410004,  278.950012, 0.000000,  0.000000 
 56823296.000000, 6.206983 , -17.379070, 12.301501, 1795809792.000000, -47.529999,  97.790001,  245.630005, 0.000000,  0.000000 
 56843520.000000, 4.185047 , -11.040483, 11.526227, 1795829760.000000, 102.410004,  82.110001,  185.430008, 0.000000,  0.000000 
 56865792.000000, 3.555735 , -7.137790, 10.143176, 1795850240.000000, 175.139999,  49.700001,  139.580002, 0.000000,  0.000000 
 56883200.000000, 4.984250 , -4.788038, 7.764710, 1795872256.000000, 176.259995,  5.740000,  119.419998, 0.000000,  0.000000 
 56903168.000000, 6.453443 , -2.629712, 5.333601, 1795889920.000000, 168.139999,  -15.330000,  128.169998, 0.000000,  0.000000 
 56923136.000000, 7.247860 , -1.256232, 4.666004, 1795909888.000000, 150.360001,  -51.869999,  129.710007, 0.000000,  0.000000 
 56943360.000000, 8.238488 , -1.012164, 4.560720, 1795929856.000000, 116.830002,  -75.739998,  121.099998, 0.000000,  0.000000 
 56963584.000000, 9.135797 , -0.978664, 4.491328, 1795950080.000000, 69.720001,  -94.639999,  100.519997, 0.000000,  0.000000 
 56983040.000000, 10.734202 , -0.363709, 3.424129, 1795970304.000000, 51.869999,  -116.199997,  72.730003, 0.000000,  0.000000 
 57003008.000000, 10.231709 , 0.215354, 2.878566, 1795989760.000000, 61.810001,  -137.059998,  32.619999, 0.000000,  0.000000 
 57022976.000000, 8.305488 , -1.476372, 3.979264, 1796009728.000000, 41.160000,  -137.970001,  -32.549999, 0.000000,  0.000000 
 57043456.000000, 7.264609 , -6.056234, 4.402793, 1796029696.000000, -31.010000,  -124.739998,  -107.379997, 0.000000,  0.000000 
 57063680.000000, 8.537591 , -14.864214, 7.925028, 1796050176.000000, -110.879997,  -114.800003,  -185.220001, 0.000000,  0.000000 
 57083136.000000, 10.339387 , -28.814371, 15.388243, 1796070400.000000, -187.110001,  -102.900002,  -249.059998, 0.000000,  0.000000 
 57103104.000000, 3.165704 , -33.150162, 17.194822, 1796089600.000000, -223.440002,  -73.989998,  -254.800003, 0.000000,  0.000000 
 57123072.000000, 0.559920 , -28.661228, 15.737594, 1796109568.000000, -77.910004,  -54.320000,  -350.489990, 0.000000,  0.000000 
 57143296.000000, 1.552942 , -22.822741, 13.339987, 1796129792.000000, 28.840000,  -92.820000,  -364.140015, 0.000000,  0.000000 
 57163520.000000, -1.320838 , -17.336000, 11.521441, 1796150016.000000, 31.780001,  -120.750000,  -343.839996, 0.000000,  0.000000 
 57182976.000000, -3.428915 , -12.026326, 9.748360, 1796170240.000000, 35.349998,  -114.379997,  -360.640015, 0.000000,  0.000000 
 57202944.000000, -4.335794 , -7.903493, 8.805587, 1796189696.000000, 35.980000,  -86.449997,  -325.989990, 0.000000,  0.000000 
 57222912.000000, -6.128019 , -4.086941, 7.046863, 1796229632.000000, 29.049999,  -13.790000,  -245.699997, 0.000000,  0.000000 
 57243136.000000, -7.331609 , -0.686740, 4.967500, 0.000000, 0.000000,  0.000000,  0.000000, 0.000000,  0.000000 
 57263616.000000, -5.998806 , 2.132005, 4.390830, 1796249856.000000, 33.880001,  25.340000,  -203.210007, 0.000000,  0.000000 
 57282816.000000, -4.926822 , 3.364309, 4.199404, 1796270080.000000, 33.320000,  58.450001,  -146.160004, 0.000000,  0.000000 
 57302784.000000, -5.761917 , 3.790231, 2.591427, 1796289536.000000, 45.709999,  88.340004,  -109.129997, 0.000000,  0.000000 
 57323008.000000, -7.700103 , 4.074977, 1.220340, 1796309504.000000, 70.070000,  107.449997,  -73.500000, 0.000000,  0.000000 
 57343232.000000, -8.834301 , 4.510471, 1.562513, 1796329472.000000, 100.940002,  109.340004,  -29.610001, 0.000000,  0.000000 
 57363456.000000, -8.257630 , 4.070191, 2.002793, 1796349952.000000, 99.260002,  95.550003,  17.430000, 0.000000,  0.000000 
 57382912.000000, -6.848258 , 1.679761, 1.938186, 1796370176.000000, 76.300003,  81.620003,  55.230000, 0.000000,  0.000000 
 57402880.000000, -5.929415 , -0.937986, 3.323631, 1796389632.000000, 66.150002,  72.870003,  88.269997, 0.000000,  0.000000 
 57422848.000000, -5.295317 , -3.256632, 7.482357, 1796409600.000000, 40.670002,  72.099998,  132.930008, 0.000000,  0.000000 
 57443072.000000, -4.912465 , -7.551748, 10.418350, 1796429568.000000, 23.030001,  72.800003,  187.320007, 0.000000,  0.000000 
 57463296.000000, -4.101298 , -12.313466, 13.691730, 1796449792.000000, 29.469999,  82.110001,  231.350006, 0.000000,  0.000000 
 57482752.000000, -2.648855 , -16.113268, 18.991835, 1796470016.000000, 5.250000,  102.620003,  273.839996, 0.000000,  0.000000 
 57502720.000000, -5.388636 , -16.914864, 20.934805, 1796489472.000000, -38.639999,  146.300003,  329.700012, 0.000000,  0.000000 
 57522688.000000, -4.555934 , -15.646667, 18.898514, 1796509440.000000, -82.250000,  182.699997,  289.309998, 0.000000,  0.000000 
 57543168.000000, 3.005385 , -9.822537, 19.305294, 1796529408.000000, -80.220001,  183.119995,  223.509995, 0.000000,  0.000000 
 57563392.000000, 6.876972 , -8.657232, 18.307486, 1796549888.000000, -76.790001,  171.639999,  216.229996, 0.000000,  0.000000 
 57582848.000000, 3.737589 , -8.523234, 16.740189, 1796570112.000000, -39.270000,  170.449997,  177.169998, 0.000000,  0.000000 
 57602816.000000, 1.222732 , -6.788438, 14.206188, 1796589312.000000, 10.570000,  156.589996,  126.770004, 0.000000,  0.000000 
 57622784.000000, 4.019942 , -5.235496, 12.423534, 1796609536.000000, 16.590000,  117.949997,  119.629997, 0.000000,  0.000000 
 57643008.000000, 5.678168 , -4.780859, 10.356135, 1796629504.000000, -35.490002,  59.500000,  150.850006, 0.000000,  0.000000 
 57663232.000000, 5.173282 , -4.393222, 8.496914, 1796649728.000000, -97.300003,  16.100000,  145.039993, 0.000000,  0.000000 
 57682688.000000, 5.673382 , -3.400201, 6.788438, 1796669952.000000, -117.529999,  -14.770000,  123.199997, 0.000000,  0.000000 
 57702656.000000, 7.247860 , -1.610370, 6.597012, 1796689408.000000, -104.019997,  -46.759998,  117.250000, 0.000000,  0.000000 
 57722624.000000, 8.434700 , -0.083749, 7.384251, 1796709376.000000, -73.290001,  -77.349998,  107.379997, 0.000000,  0.000000 
 57743104.000000, 9.999605 , 0.725025, 6.802795, 1796729344.000000, -8.050000,  -106.540001,  82.949997, 0.000000,  0.000000 
 57763328.000000, 11.464014 , 3.290131, 4.821537, 1796749568.000000, 108.080002,  -142.029999,  47.110001, 4058334464.000000,  1005.755615 
 57782528.000000, 9.427721 , 5.496314, 3.524628, 1796770048.000000, 188.020004,  -178.149994,  -5.460000, 0.000000,  0.000000 
 57802752.000000, 6.589834 , 3.337988, 2.610569, 1796789248.000000, 150.850006,  -198.309998,  -83.440002, 0.000000,  0.000000 
 57822720.000000, 13.115060 , -3.058028, 4.419543, 1796809216.000000, 17.990000,  -219.660004,  -145.320007, 0.000000,  0.000000 
 57842944.000000, 22.523640 , -22.645674, 18.106489, 1796829184.000000, -193.059998,  -244.160004,  -180.529999, 0.000000,  0.000000 
 57865216.000000, 10.918450 , -31.580473, 27.457640, 1796849664.000000, -303.519989,  -232.610001,  -135.520004, 0.000000,  0.000000 
 57882624.000000, -0.669990 , -21.511477, 19.243080, 1796871936.000000, -138.529999,  -147.979996,  -241.779999, 0.000000,  0.000000 
 57902592.000000, 1.677369 , -13.710874, 14.790037, 1796889344.000000, 142.940002,  -143.500000,  -331.730011, 0.000000,  0.000000 
 57922560.000000, 2.143969 , -11.145767, 15.014962, 1796909312.000000, 33.529999,  -223.649994,  -254.940002, 0.000000,  0.000000 
 57942784.000000, -0.387637 , -8.482556, 13.624733, 1796929280.000000, -97.230003,  -185.430008,  -306.529999, 0.000000,  0.000000 
 57963264.000000, -1.270589 , -5.206782, 10.339387, 1796949504.000000, -109.690002,  -103.949997,  -324.380005, 0.000000,  0.000000 
 57982464.000000, -0.971486 , -1.868794, 7.601997, 1796969728.000000, -10.080000,  -42.139999,  -287.070007, 0.000000,  0.000000 
 58002432.000000, -2.849852 , 1.954936, 6.441479, 1796989184.000000, 66.080002,  -9.870000,  -234.779999, 0.000000,  0.000000 
 58022400.000000, -6.996613 , 3.510271, 4.103691, 1797009152.000000, 79.870003,  14.420000,  -208.740005, 0.000000,  0.000000 
 58042880.000000, -8.784052 , 3.562913, 1.253839, 1797029120.000000, 75.250000,  32.130001,  -186.899994, 0.000000,  0.000000 
 58063104.000000, -6.087341 , 4.022335, -0.722632, 1797049600.000000, 65.730003,  40.180000,  -134.399994, 0.000000,  0.000000 
 58082560.000000, -5.843273 , 3.840480, -1.998007, 1797069824.000000, 27.510000,  27.930000,  -44.240002, 0.000000,  0.000000 
 58102528.000000, -9.035298 , 1.861616, -3.333202, 1797089280.000000, -60.130001,  37.099998,  10.220000, 0.000000,  0.000000 
 58122496.000000, -8.752945 , -0.208176, -2.234896, 1797109248.000000, -161.630005,  58.799999,  19.040001, 0.000000,  0.000000 
 58142720.000000, -5.737988 , -1.892723, -0.248854, 1797129216.000000, -203.070007,  61.320000,  55.650002, 0.000000,  0.000000 
 58162944.000000, -4.287938 , -2.194218, 2.392823, 1797149440.000000, -152.039993,  56.560001,  105.279999, 0.000000,  0.000000 
 58182400.000000, -5.391029 , -4.053442, 3.409772, 1797169664.000000, -63.980000,  81.199997,  177.169998, 0.000000,  0.000000 
 58202368.000000, -5.769095 , -8.020741, 8.080563, 1797189120.000000, -7.770000,  118.440002,  251.020004, 0.000000,  0.000000 
 58222336.000000, -4.278367 , -16.584654, 18.352949, 1797209088.000000, -74.059998,  145.180008,  295.119995, 0.000000,  0.000000 
 58242816.000000, -4.055835 , -24.311079, 25.351955, 1797229056.000000, -176.259995,  171.080002,  315.910004, 0.000000,  0.000000 
 58263040.000000, -4.890929 , -23.432913, 27.060432, 1797249280.000000, -192.080002,  207.130005,  323.750000, 0.000000,  0.000000 
 58282240.000000, -1.043271 , -17.283358, 27.201607, 1797269760.000000, -106.680000,  218.050003,  250.600006, 0.000000,  0.000000 
 58302464.000000, 2.409572 , -12.729815, 22.698315, 1797288960.000000, -22.680000,  216.930008,  207.690002, 0.000000,  0.000000 
 58322432.000000, 1.141376 , -8.578269, 16.515261, 1797308928.000000, 45.220001,  196.139999,  170.729996, 0.000000,  0.000000 
 58342656.000000, 0.459422 , -5.309673, 12.782458, 1797328896.000000, 54.880001,  152.039993,  116.059998, 0.000000,  0.000000 
 58362880.000000, 2.517249 , -4.555934, 9.906286, 1797349376.000000, -9.800000,  99.750000,  105.629997, 0.000000,  0.000000 
 58382336.000000, 3.682554 , -5.481956, 8.705089, 1797369600.000000, -84.980003,  51.380001,  137.970001, 0.000000,  0.000000 
 58402304.000000, 3.701697 , -5.766702, 7.551748, 1797389056.000000, -116.129997,  14.840000,  151.130005, 0.000000,  0.000000 
 58422272.000000, 4.295116 , -4.208975, 5.242674, 1797409024.000000, -74.690002,  -14.560000,  155.750000, 0.000000,  0.000000 
 58443008.000000, 6.434300 , -2.359323, 3.984050, 1797428992.000000, -9.520000,  -39.480000,  160.509995, 0.000000,  0.000000 
 58462976.000000, 10.059426 , -0.906880, 4.003192, 1797449472.000000, 19.040001,  -56.490002,  156.589996, 0.000000,  0.000000 
 58482176.000000, 12.863814 , 0.189033, 4.744967, 1797469440.000000, 18.549999,  -69.300003,  135.380005, 0.000000,  0.000000 
 58502144.000000, 13.179667 , 0.394816, 5.651847, 1797488896.000000, 18.270000,  -79.309998,  86.940002, 0.000000,  0.000000 
 58522112.000000, 12.210573 , 0.141177, 6.068198, 1797508864.000000, 32.549999,  -79.940002,  9.730000, 0.000000,  0.000000 
 58542592.000000, 11.129018 , -2.356930, 6.209375, 1797528832.000000, 33.389999,  -89.949997,  -80.709999, 0.000000,  0.000000 
 58562816.000000, 9.997212 , -7.188039, 7.659425, 1797549312.000000, -6.160000,  -114.099998,  -166.809998, 0.000000,  0.000000 
 58582272.000000, 13.519447 , -18.443878, 15.651453, 1797569536.000000, -81.480003,  -131.809998,  -245.139999, 0.000000,  0.000000 
 58602240.000000, 11.265409 , -31.180872, 24.277578, 1797588992.000000, -113.190002,  -148.820007,  -251.790009, 0.000000,  0.000000 
 58622208.000000, 1.055235 , -33.324841, 24.179472, 1797608960.000000, -113.260002,  -135.380005,  -270.899994, 0.000000,  0.000000 
 58642432.000000, -2.048256 , -26.845078, 20.618954, 1797628928.000000, -2.310000,  -133.839996,  -366.799988, 0.000000,  0.000000 
 58662656.000000, -2.706282 , -20.161924, 16.376478, 1797649152.000000, 42.700001,  -190.470001,  -338.450012, 0.000000,  0.000000 
 58682112.000000, -4.029513 , -13.959727, 13.818550, 1797669376.000000, 48.160000,  -223.229996,  -342.510010, 0.000000,  0.000000 
 58702080.000000, -6.376873 , -9.513863, 11.377872, 1797688832.000000, 15.400000,  -195.860001,  -340.480011, 0.000000,  0.000000 
 58722048.000000, -7.903493 , -5.352744, 7.130611, 1797708800.000000, 3.850000,  -118.860001,  -325.220001, 0.000000,  0.000000 
 58742528.000000, -8.336594 , -0.868595, 4.290331, 1797728768.000000, 45.639999,  -56.980000,  -276.429993, 0.000000,  0.000000 
 58762752.000000, -7.927422 , 2.859423, 2.110470, 1797749248.000000, 89.739998,  -22.049999,  -234.990005, 4059333888.000000,  1005.756348 
 58782208.000000, -8.525627 , 5.067998, 0.602991, 1797769472.000000, 92.959999,  0.980000,  -193.410004, 0.000000,  0.000000 
 58802176.000000, -7.846066 , 4.855037, 0.413958, 1797788672.000000, 79.660004,  21.070000,  -164.570007, 0.000000,  0.000000 
 58822144.000000, -7.152147 , 4.735396, -0.677169, 1797808640.000000, 49.209999,  58.730000,  -144.690002, 0.000000,  0.000000 
 58842368.000000, -8.324631 , 5.084748, -2.385644, 1797828864.000000, 41.160000,  73.779999,  -76.930000, 0.000000,  0.000000 
 58864640.000000, -8.815158 , 5.154140, -2.368894, 1797849088.000000, 43.820000,  85.050003,  0.210000, 0.000000,  0.000000 
 58882048.000000, -8.236095 , 3.570091, -1.641476, 1797871360.000000, 5.810000,  92.959999,  48.509998, 0.000000,  0.000000 
 58902016.000000, -6.262017 , 1.289732, -0.626920, 1797888768.000000, -51.590000,  94.570000,  96.809998, 0.000000,  0.000000 
 58921984.000000, -5.099105 , 0.071785, 1.847259, 1797908736.000000, -83.090004,  91.699997,  145.809998, 0.000000,  0.000000 
 58942208.000000, -4.381258 , -2.529213, 4.701896, 1797928704.000000, -73.639999,  98.699997,  205.520004, 0.000000,  0.000000 
 58962688.000000, -4.280759 , -9.121440, 8.561519, 1797948928.000000, -29.960001,  115.639999,  253.750000, 0.000000,  0.000000 
 58981888.000000, -3.227918 , -11.818150, 17.221144, 1797969152.000000, 41.580002,  150.500000,  289.450012, 0.000000,  0.000000 
 59001856.000000, -7.341179 , -8.834301, 23.231916, 1797988608.000000, 115.919998,  192.710007,  365.540009, 0.000000,  0.000000 
 59022080.000000, -15.993626 , -11.851650, 25.452454, 1798008576.000000, 158.339996,  250.600006,  388.149994, 0.000000,  0.000000 
 59042304.000000, -10.554741 , -19.724037, 29.807392, 1798028544.000000, -13.300000,  275.029999,  271.529999, 0.000000,  0.000000 
 59062528.000000, -0.940379 , -16.153946, 26.859436, 1798049024.000000, -227.500000,  250.809998,  190.889999, 0.000000,  0.000000 
 59081984.000000, 1.849652 , -11.796617, 20.839094, 1798069248.000000, -189.699997,  198.240005,  190.330002, 0.000000,  0.000000 
 59101952.000000, -2.184647 , -9.008978, 14.440684, 1798088704.000000, -34.160000,  155.119995,  155.259995, 0.000000,  0.000000 
 59121920.000000, -0.485743 , -7.463214, 10.463813, 1798108672.000000, 25.969999,  121.870003,  103.110001, 0.000000,  0.000000 
 59142144.000000, 3.254239 , -5.345565, 8.623734, 1798128640.000000, -20.719999,  95.199997,  121.940002, 0.000000,  0.000000 
 59162368.000000, 4.268795 , -4.493721, 6.429514, 1798148864.000000, -86.519997,  72.660004,  155.330002, 0.000000,  0.000000 
 59181824.000000, 5.520242 , -4.627719, 6.429514, 1798169088.000000, -143.710007,  60.130001,  140.139999, 0.000000,  0.000000 
 59201792.000000, 7.920243 , -4.311867, 7.422535, 1798188544.000000, -176.680008,  53.340000,  136.009995, 0.000000,  0.000000 
 59221760.000000, 10.951948 , -2.957529, 7.233503, 1798208512.000000, -136.850006,  40.810001,  138.600006, 0.000000,  0.000000 
 59242240.000000, 14.301902 , 0.191426, 7.477571, 1798228480.000000, -44.520000,  17.780001,  118.160004, 0.000000,  0.000000 
 59262464.000000, 14.352149 , 2.610569, 9.485149, 1798248704.000000, 30.940001,  -10.640000,  83.019997, 0.000000,  0.000000 
 59281920.000000, 11.944970 , 3.103491, 8.846266, 1798269184.000000, 93.940002,  -46.619999,  23.870001, 0.000000,  0.000000 
 59301888.000000, 11.564510 , 3.531806, 5.560920, 1798288384.000000, 191.869995,  -99.889999,  -29.469999, 0.000000,  0.000000 
 59321856.000000, 8.934800 , 4.108476, 4.237689, 1798308608.000000, 271.950012,  -158.690002,  -44.450001, 0.000000,  0.000000 
 59342080.000000, 7.848458 , -1.117448, 15.069997, 1798328576.000000, 181.229996,  -185.080002,  -67.340004, 0.000000,  0.000000 
 59362304.000000, 4.816752 , -25.469204, 29.266613, 1798348800.000000, -84.349998,  -179.339996,  -70.629997, 0.000000,  0.000000 
 59381760.000000, -8.903693 , -43.314877, 41.635117, 1798369024.000000, -301.630005,  -186.970001,  -83.440002, 0.000000,  0.000000 
 59401728.000000, -15.273388 , -25.306492, 28.024738, 1798388480.000000, -159.460007,  -218.399994,  -167.649994, 0.000000,  0.000000 
 59421696.000000, -3.866802 , -16.615761, 17.647066, 1798408448.000000, 83.510002,  -338.450012,  -213.639999, 0.000000,  0.000000 
 59441920.000000, -3.014957 , -9.693325, 14.127225, 1798428416.000000, 18.410000,  -358.820007,  -167.789993, 0.000000,  0.000000 
 59462400.000000, -7.233503 , -7.932207, 11.794223, 1798448640.000000, -59.080002,  -312.130005,  -258.860016, 0.000000,  0.000000 
 59481600.000000, -8.463413 , -7.113862, 9.571291, 1798468864.000000, -124.389999,  -202.580002,  -332.570007, 0.000000,  0.000000 
 59501824.000000, -7.386643 , -3.091527, 6.637690, 1798488320.000000, -94.779999,  -86.590004,  -334.950012, 0.000000,  0.000000 
 59521792.000000, -8.310273 , 1.423729, 4.594220, 1798508288.000000, -8.750000,  -26.320000,  -299.040009, 0.000000,  0.000000 
 59542016.000000, -10.392029 , 3.393023, 1.593620, 1798528256.000000, 46.270000,  10.080000,  -272.089996, 0.000000,  0.000000 
 59562240.000000, -9.403792 , 4.900501, 0.847059, 1798548736.000000, 62.790001,  44.240002,  -227.290009, 0.000000,  0.000000 
 59581696.000000, -5.982057 , 5.663811, 0.870987, 1798568960.000000, 36.820000,  68.250000,  -174.930008, 0.000000,  0.000000 
 59601664.000000, -6.750153 , 5.343173, -0.380459, 1798588416.000000, 9.170000,  76.370003,  -97.650002, 0.000000,  0.000000 
 59621632.000000, -9.221939 , 4.242475, -0.485743, 1798608384.000000, -31.500000,  85.470001,  -47.810001, 0.000000,  0.000000 
 59641856.000000, -9.004191 , 3.270989, 0.593420, 1798628352.000000, -92.400002,  88.340004,  -11.970000, 0.000000,  0.000000 
 59662336.000000, -6.494121 , 2.306681, 1.048056, 1798648576.000000, -115.290001,  78.610001,  19.320000, 0.000000,  0.000000 
 59681536.000000, -4.869394 , 1.519442, 1.545763, 1798668800.000000, -69.370003,  69.300003,  63.070000, 0.000000,  0.000000 
 59701504.000000, -5.161318 , 1.050449, 2.801995, 1798688256.000000, 5.950000,  72.660004,  120.260002, 0.000000,  0.000000 
 59721472.000000, -6.575477 , 0.284746, 5.221139, 1798708224.000000, 74.340004,  100.029999,  191.029999, 0.000000,  0.000000 
 59741952.000000, -7.439285 , -4.632504, 11.069198, 1798748672.000000, -20.299999,  191.029999,  302.890015, 4060333568.000000,  1005.756653 
 59762176.000000, -12.713067 , -15.471991, 23.263021, 0.000000, 0.000000,  0.000000,  0.000000, 0.000000,  0.000000 
 59781632.000000, -16.163517 , -30.061029, 29.405397, 1798768896.000000, -214.830002,  246.750000,  283.220001, 0.000000,  0.000000 
 59801600.000000, -6.553941 , -20.781666, 25.710878, 1798788352.000000, -237.580002,  254.309998,  261.799988, 0.000000,  0.000000 
 59821568.000000, 3.115455 , -11.825329, 22.267607, 1798808320.000000, -67.970001,  183.399994,  249.830002, 0.000000,  0.000000 
 59841792.000000, 5.240282 , -8.463413, 20.039888, 1798828288.000000, -10.710000,  180.949997,  200.199997, 0.000000,  0.000000 
 59864064.000000, 0.591027 , -7.862815, 17.529818, 1798848512.000000, -15.260000,  198.309998,  118.860001, 0.000000,  0.000000 
 59881472.000000, -0.098106 , -5.654240, 14.641682, 1798870784.000000, 25.760000,  175.350006,  65.519997, 0.000000,  0.000000 
 59901440.000000, 3.632305 , -3.000600, 12.107682, 1798888192.000000, 40.529999,  124.879997,  71.050003, 0.000000,  0.000000 
 59921408.000000, 5.134997 , -2.273181, 10.066606, 1798908160.000000, -13.650000,  73.150002,  108.150002, 0.000000,  0.000000 
 59941888.000000, 4.536791 , -2.737389, 8.492127, 1798928128.000000, -90.300003,  39.900002,  98.840004, 0.000000,  0.000000 
 59962112.000000, 5.886343 , -2.246860, 7.092326, 1798948352.000000, -125.930000,  11.200000,  86.730003, 0.000000,  0.000000 
 59981312.000000, 8.262416 , -0.531207, 6.396015, 1798968832.000000, -105.769997,  -21.980000,  96.250000, 0.000000,  0.000000 
 60001536.000000, 9.908678 , 0.753739, 6.577869, 1798988032.000000, -68.459999,  -56.630001,  96.529999, 0.000000,  0.000000 
 60021504.000000, 10.545169 , 1.820938, 6.855437, 1799008000.000000, -25.129999,  -90.019997,  61.599998, 0.000000,  0.000000 
 60041728.000000, 9.906286 , 2.129612, 6.096912, 1799027968.000000, 34.650002,  -126.349998,  9.660000, 0.000000,  0.000000 
 60061952.000000, 7.104291 , 1.579263, 7.932207, 1799048448.000000, 63.630001,  -156.800003,  -56.000000, 0.000000,  0.000000 
 60081408.000000, 6.508478 , -4.036692, 7.999206, 1799068672.000000, 8.890000,  -179.830002,  -129.080002, 0.000000,  0.000000 
 60101376.000000, 10.667203 , -12.988241, 14.316258, 1799088128.000000, -63.070000,  -212.100006,  -185.710007, 0.000000,  0.000000 
 60121344.000000, 9.812965 , -26.395227, 24.313471, 1799108096.000000, -113.330002,  -226.029999,  -194.880005, 0.000000,  0.000000 
 60141568.000000, -0.349352 , -31.101908, 25.476381, 1799128064.000000, -83.510002,  -200.970001,  -173.880005, 0.000000,  0.000000 
 60162048.000000, -3.897908 , -24.394827, 21.619152, 1799148288.000000, 25.969999,  -199.779999,  -306.320007, 0.000000,  0.000000 
 60181248.000000, -3.062813 , -17.202002, 15.613168, 1799168512.000000, 110.809998,  -250.880005,  -275.589996, 0.000000,  0.000000 
 60201216.000000, -1.957329 , -12.165110, 13.560125, 1799187968.000000, 95.410004,  -280.839996,  -271.739990, 0.000000,  0.000000 
 60221184.000000, -3.857230 , -8.855836, 11.688939, 1799207936.000000, 39.060001,  -257.529999,  -275.869995, 0.000000,  0.000000 
