time,seconds_elapsed,z,y,x
1633781424818297600,0.041297607421875,-0.09649404259324074,0.11622224089205264,-0.12044468089267611
1633781424838175500,0.061175537109375,-0.2346796934902668,0.07646247743368148,-0.03602222089786082
1633781424858054700,0.0810546875,-0.23815058447122572,0.05696282719373703,0.12693389678150416
1633781424877933600,0.10093359375,-0.06806757405400275,0.029232816486060617,0.16847265261113642
1633781424897812500,0.1208125,-0.033873043507337566,-0.03637158232480287,0.20269582473039627
1633781424917691600,0.140691650390625,-0.0818470930814743,-0.046941199395060536,0.37146892159283157
1633781424937569500,0.160569580078125,0.17996143035292625,-0.12688976537883281,0.361892261082679
1633781424957448400,0.180448486328125,0.469539419722557,-0.11985767478495836,-0.015063275227695702
1633781424977327600,0.20032763671875,0.3500321658104658,0.045862171986699105,0.07593187768831848
1633781424997206800,0.220206787109375,-0.23415303926765918,0.17669336846768854,0.4312034785222262
1633781425017084700,0.240084716796875,-0.7884124771595,-0.04017828113138675,0.8968743131831288
1633781425036963600,0.259963623046875,-0.576253243035078,-0.7807713147565722,0.8746160118848085
1633781425056842500,0.279842529296875,0.008067571121454238,-1.0721712588563561,0.3598986030474305
1633781425076721700,0.2997216796875,0.2970721445173025,-0.9215858528524636,-0.07720686606019735
1633781425096600600,0.3196005859375,0.44213352640271186,-0.6117836983606219,0.2469097911186516
1633781425116478700,0.339478759765625,0.2799865696817636,-0.37716654871255156,0.4547926265655085
1633781425136357600,0.359357666015625,-0.07308335638940334,-0.3268853912398219,0.14700984907206147
1633781425156236500,0.379236572265625,-0.2974164279103279,-0.26394319737553595,-0.06791472157984972
1633781425176115500,0.399115478515625,-0.2909609681606293,-0.11718524070531129,-0.013877609107084571
1633781425195994600,0.41899462890625,-0.555758736538887,-0.2087909267351031,-0.08782061453312635
1633781425215872800,0.438872802734375,-0.8322668164551258,-0.28770985741019245,-0.14452552144303918
1633781425235752000,0.458751953125,-0.9821610253244638,-0.24514614244699476,-0.10986775729879736
1633781425255630800,0.478630859375,-0.8332529048830271,0.023049451676011082,-0.15789748258292674
1633781425275509800,0.498509765625,-0.3831850783497095,0.38296734394580123,-0.23536811414584516
1633781425295389000,0.518388916015625,-0.16307225487232208,0.5140203664839268,-0.2731105464324355
1633781425315266800,0.538266845703125,-0.14940905570089816,0.4955255093723535,-0.19119272620230912
1633781425335146000,0.55814599609375,-0.1048778400570154,0.5465624536484479,-0.11738911098064854
1633781425355025000,0.57802490234375,0.07306582073271274,0.42350247569084165,-0.1722859272889793
1633781425374903800,0.59790380859375,0.1988952634036541,0.2019569890618324,-0.2506796650461852
1633781425394782000,0.617781982421875,0.2796481315076351,0.17878595683276652,-0.18829393602088093
1633781425414660900,0.637660888671875,0.38166064526140686,0.4214285920262337,-0.06208076386251486
1633781425434539800,0.657539794921875,0.3448182305544615,0.4542050724685192,-0.05085325827226043
1633781425454419000,0.6774189453125,0.12674772655963898,0.22747020050287245,-0.051664428524672984
1633781425474297900,0.6972978515625,0.02266717436015606,0.12977087377309798,0.004730974044650792
1633781425494176000,0.717176025390625,0.037062194937467575,0.11304594894349575,0.05592296275198459
1633781425514054700,0.7370546875,0.18054010702371595,0.14792670818865297,-0.00872208950743079
1633781425533933800,0.756933837890625,0.2880786907225847,0.1530371830701828,-0.06767389856129884
1633781425553812700,0.776812744140625,0.2526385440289974,0.0868400790631771,-0.04425444452911615
1633781425573692000,0.79669189453125,0.20595394974350928,0.14733575655817985,-0.010187485884875058
1633781425593569800,0.81656982421875,0.12500994298160076,0.17885317685008048,-0.07742898437827825
1633781425613449000,0.836448974609375,0.13313538177013395,0.1820680472433567,-0.13030878004208207
1633781425633327900,0.856327880859375,0.130231477022171,0.21957915499210356,-0.1357597389243543
1633781425653206800,0.876206787109375,0.1176268469929695,0.3579477612406015,0.04050649017244577
1633781425673086000,0.8960859375,0.20532851132154464,0.456792166352272,0.21395167049914599
1633781425692963800,0.9159638671875,0.20166472811698913,0.3032330052345991,0.22020766215398907
1633781425712843000,0.935843017578125,0.15532207913696766,0.0002758943319320679,0.009047668199986219
1633781425732722000,0.955721923828125,0.018624036449193953,-0.2554232063114643,-0.05029430921524763
1633781425752600800,0.975600830078125,-0.06611117928922176,-0.26822482021749017,-0.008652823663502932
1633781425772479700,0.995479736328125,-0.05513678081035614,-0.1386936004191637,0.08564297823309898
1633781425792358000,1.01535791015625,-0.19873919605910778,-0.17056874810755251,0.3650079088851809
1633781425812236800,1.03523681640625,-0.28888825353980063,-0.450990202075243,0.4422995306193828
1633781425832116000,1.055115966796875,-0.28504852924644947,-0.40551264549195765,0.5310423745639622
1633781425851995000,1.074994873046875,-0.21627777535915374,-0.2832511244356632,0.6190043703291565
1633781425871873000,1.094873046875,0.08653028246164321,-0.0570814851373434,0.6443181867405772
1633781425891751700,1.114751708984375,0.36717093213796614,-0.08745382704734801,0.5506074912555515
1633781425911630800,1.134630859375,0.3207610631406307,-0.18432839339077473,0.5299002918567508
1633781425931509800,1.154509765625,0.3010352029293775,-0.11579787800014019,0.5919488978821784
1633781425951389000,1.174388916015625,0.546062687432766,-0.08797463605105876,0.5034453425861894
1633781425971266800,1.194266845703125,0.7737485765129327,-0.07787468231916427,0.338576303957589
1633781425991145700,1.214145751953125,0.6991255894660949,-0.0075075991511344906,0.08373034954480826
1633781426011025000,1.23402490234375,0.5880991636514663,0.15905132879316805,-0.08026113906428217
1633781426030903800,1.25390380859375,0.5217454077780247,0.15393267060518265,-0.2826348191682249
1633781426050783000,1.273782958984375,0.28676936168968675,0.24098493111431596,-0.2779243764549494
1633781426070660900,1.293660888671875,0.18359598746299743,0.17301204960644245,-0.27198285757675766
1633781426090540000,1.3135400390625,0.3013198650896549,0.18880933819711207,-0.26334026304632424
1633781426110418700,1.333418701171875,0.27513679156303406,0.20510873109102248,-0.19649448587223886
1633781426130297900,1.3532978515625,0.22241759328842162,0.18838731339275835,-0.20810382125377655
1633781426150176800,1.3731767578125,0.20843524516522882,0.20642507438659666,-0.4109824186725542
1633781426170055000,1.393054931640625,0.25651918485462666,0.4584340883404016,-0.3018280338075012
1633781426189933800,1.412933837890625,0.42705695330202575,0.7274626261562108,0.009974318058229983
1633781426209813000,1.43281298828125,0.5827905358493328,0.33358138174712654,-0.15876250191442667
1633781426229691600,1.452691650390625,0.6735504187047481,-0.2511152799844742,-0.385343352362141
1633781426249569800,1.47256982421875,0.038951369684934616,-0.6057827043801546,-0.46720681205652653
1633781426269448700,1.49244873046875,-0.30825813992023465,-0.5371063507780433,-0.12194324888736009
1633781426289327900,1.512327880859375,0.29020693492293353,-0.2621756031811237,-0.1142506485581398
1633781426309207000,1.53220703125,0.9279086261332035,-0.036250001771748065,-0.3347420230243355
1633781426329086000,1.5520859375,0.6657412062585354,-0.11171674616634845,-0.526125814819336
1633781426348963800,1.5719638671875,-0.010295184043049811,-0.2367348724544048,-0.21557240356877444
1633781426368842800,1.5918427734375,-0.6900999869674443,-0.38642303735762834,-0.048252135863155125
1633781426388722000,1.611721923828125,-0.9791296948045491,-0.3258943343758583,-0.05853044183664024
1633781426408600800,1.631600830078125,-0.936863501483202,-0.021425942127406596,-0.023636384718492626
1633781426428480000,1.65147998046875,-0.7557821271896362,0.11487959411144257,-0.09349654127769172
1633781426448358000,1.67135791015625,-0.40724984454810614,0.10633476086705923,-0.267820988656953
1633781426468236800,1.69123681640625,-0.2582540458232164,0.22744740414917466,-0.390529449763149
1633781426488115700,1.71111572265625,-0.31541268784999843,0.5290273814797402,-0.1517107567720115
1633781426507995000,1.730994873046875,-0.6237970844984054,0.7588219332769512,0.22199330346174537
1633781426527873800,1.750873779296875,-0.5943213991671801,0.8893047547116875,0.47575011093094943
1633781426547752000,1.770751953125,0.025181787529587746,0.9146358875840902,0.4293415571078658
1633781426567630800,1.790630859375,0.6591133125513792,0.7843056263625622,0.1730386453524232
1633781426587509800,1.810509765625,0.8395224866718053,0.5153574603065848,0.05009929809980094
1633781426607388700,1.830388671875,0.5476923344612121,0.14973638795912264,0.021629721071198583
1633781426627267800,1.850267822265625,0.1750742428332567,-0.008204641504585742,-0.06326302331648767
1633781426647145700,1.870145751953125,-0.034515433064103124,-0.029123218631744382,0.09898870895318686
1633781426667025000,1.89002490234375,0.031359014859795566,-0.10430150147378445,0.04053586239740252
1633781426686904000,1.909904052734375,0.3032809360295534,-0.20132044472396374,0.07013254375979304
1633781426706782700,1.92978271484375,0.3284253141582012,-0.5100289587602019,0.029442294518277047
1633781426726660900,1.949660888671875,0.3157593093305826,-0.8119070422545075,-0.14808694025166333
1633781426746539800,1.969539794921875,0.5538835903167725,-0.872248405970633,0.010769523556530476
1633781426766419000,1.9894189453125,0.5266705892205238,-0.9294508871391415,0.17396379737332462
1633781426786297900,2.0092978515625,0.1533329511463642,-0.8597197637870907,0.08520020290166139
1633781426806177000,2.029177001953125,-0.12056348496675491,-0.46414837433397765,0.019468159123137593
1633781426826055000,2.049054931640625,-0.3538151914805174,-0.03311959479153156,-0.026192645072564483
1633781426845933800,2.068933837890625,-0.48012628018856046,0.17334201221317053,-0.1777569791112095
1633781426865812700,2.088812744140625,-0.4011573728919029,0.16472206790596244,-0.26235738948881626
1633781426885692000,2.10869189453125,-0.03466565518975258,0.12450023989379405,-0.3587569587316364
1633781426905570800,2.12857080078125,-0.014432429978251456,0.07701309705376624,-0.4189823679178953
1633781426925449000,2.148448974609375,0.10871464174091815,0.1348483231678605,-0.317278116395697
1633781426945327900,2.168327880859375,-0.06297872648239135,0.11382307079583406,-0.23443368283994495
1633781426965206800,2.188206787109375,-0.2365045708298683,0.08209668392837047,-0.16982932791709898
1633781426985086000,2.2080859375,-0.1624701973259449,0.1541653103172779,-0.018130188517645
1633781427004964900,2.22796484375,-0.018490180936455724,0.0881692818403244,-0.09651661975122988
1633781427024842800,2.2478427734375,0.022504677274823186,-0.06282499722540379,-0.12407569433879106
1633781427044722000,2.267721923828125,-0.07954115422666072,-0.10334230105280875,0.019791472793370485
1633781427064600800,2.287600830078125,-0.2226882269233465,-0.010063128852844237,0.20965280426144597
1633781427084479700,2.307479736328125,-0.09026888446807861,0.2731651992291212,0.3813237414572388
1633781427104359000,2.32735888671875,0.19231822310090063,0.10237024115025997,0.37770240915492176
1633781427124236800,2.34723681640625,0.2275198848634958,-0.25402736803889275,0.18302425198964772
1633781427144116000,2.367115966796875,0.1332335814476013,-0.28003625404238697,-0.0038696079749614
1633781427163995000,2.386994873046875,-0.0767448015064001,0.02946808654665947,0.07917685095891357
1633781427183873800,2.406873779296875,-0.09447101233303547,0.5118535438388586,0.31540932684913275
1633781427203751700,2.426751708984375,0.019766776743531226,0.49091947688162324,0.4387065476287156
1633781427223630800,2.446630859375,0.1318570323973894,0.06373509780764579,0.21742197695821522
1633781427243510000,2.466510009765625,0.19990823983848094,-0.1929424924790859,0.01832541882880032
1633781427263389000,2.486388916015625,0.1633715300798416,-0.21629414197206495,-0.020157237365841865
1633781427283268000,2.50626806640625,0.14025135125517843,-0.05211538716256618,0.11182736693397163
1633781427303146000,2.52614599609375,0.21794249370098112,0.08245616489052772,0.15319836498126388
1633781427323025000,2.54602490234375,0.020863924330472947,-0.033625790748000144,0.17670381679646668
1633781427342904000,2.565904052734375,-0.1629962670266628,-0.18391279832720756,0.10213226767592132
1633781427362783000,2.585782958984375,0.08488485334217548,-0.13191665363013744,0.17636143309958277
1633781427382662100,2.605662109375,0.24930267760455607,-0.08652385272085666,0.036166122880578036
1633781427402540000,2.6255400390625,0.3853238439440727,-0.11582067435383796,-0.0014119856897741555
1633781427422419000,2.6454189453125,0.24372750782072541,-0.37815819009840484,0.01790989683046937
1633781427442297900,2.6652978515625,0.06539981614947318,-0.5176712902069092,-0.05894610996544361
1633781427462177000,2.685177001953125,0.10418576613962649,-0.30384558417499063,0.0468937069915235
1633781427482056000,2.705055908203125,0.2048772604227066,-0.07314765379726887,0.0886067964747548
1633781427501934000,2.72493408203125,-0.03142214322388172,-0.09397767585813999,0.08272489882931112
1633781427521813000,2.74481298828125,-0.07097849306464195,-0.09437573526501655,0.0306409297183156
1633781427541692000,2.76469189453125,0.1723649838745594,0.008974749094247817,0.016702274606376886
1633781427561570800,2.78457080078125,0.38469431386888026,0.0035679216146469114,0.06189224641993642
1633781427581450000,2.804449951171875,0.42546880732774733,-0.10942308227121829,-0.09494973576068877
1633781427601327900,2.824327880859375,0.37073008592426776,-0.07345394326746463,-0.03928213600926101
1633781427621207000,2.84420703125,0.19521511358618734,0.019152444237470624,0.033019787678867575
1633781427641086000,2.8640859375,0.024627076256275176,-0.02868599625825882,0.06783975664749742
1633781427660964900,2.88396484375,-0.07311199796199798,-0.04154138617813587,0.10282404933236539
1633781427680844000,2.903843994140625,-0.005462941581010818,0.03383271149694919,0.1759787904575467
1633781427700722000,2.923721923828125,0.0504284569889307,-0.018166940331459044,0.1106922984894365
1633781427720601000,2.94360107421875,-0.03545242165327072,-0.08461948040425776,0.10513860988505185
1633781427740480000,2.96347998046875,-0.0022328736186027526,-0.0277414088845253,0.12414843078143895
1633781427760359200,2.983359130859375,0.11758885307013987,-0.02065408097207546,0.1390163295675069
1633781427780237000,3.003237060546875,0.2554875037193298,-0.15003390960097313,0.04382007169984281
1633781427800116000,3.023115966796875,0.21791852830350397,-0.2950941224426031,0.002996624532714486
1633781427819995000,3.042994873046875,0.09297229820787906,-0.31841479227542874,0.0068257543668150894
1633781427839874000,3.0628740234375,0.029178163689374922,-0.19590660298168658,-0.0447981960169971
1633781427859753000,3.0827529296875,0.27640871119499205,-0.010745850419998168,0.10760894552133977
1633781427879631000,3.102631103515625,0.3409334980756044,-0.021259061127901074,0.12797025409191845
1633781427899510000,3.122510009765625,0.10236848758459091,-0.11389116759598254,0.14238799795769155
1633781427919389000,3.142388916015625,-0.03412614148557186,-0.03968552917838097,0.21045666799023746
1633781427939267800,3.162267822265625,-0.15861293737590312,0.06212006382644176,0.14136128525845706
1633781427959147000,3.18214697265625,-0.1224631811082363,0.13670856408178805,0.1553628495387733
1633781427979025000,3.20202490234375,-0.08029284937679768,0.07059680027067661,0.13030640542190522
1633781427998904000,3.221904052734375,-0.033581367084383966,-0.04398351863324642,0.05730908334814012
1633781428018783000,3.241782958984375,-0.05146130716800689,-0.032092005309462546,-0.0002883519547060132
1633781428038662000,3.261661865234375,-0.08081248933672905,0.05856032551825046,0.09778305949047207
1633781428058541000,3.281541015625,-0.16871873632669449,0.07456921103298664,0.1310003790354356
1633781428078419000,3.3014189453125,-0.24626667090952395,0.07051964338123798,0.14210779277682303
1633781428098298000,3.321298095703125,-0.09002163170874118,0.11065817702412604,0.1830482904523611
1633781428118177000,3.341177001953125,0.08593816178739071,0.06684943043589592,0.0847507055684924
1633781428138056000,3.361055908203125,0.18368308122456073,0.015229717835783958,0.019946736420318485
1633781428157934800,3.380934814453125,0.06674597006142138,0.016799159109592437,0.013693813505396247
1633781428177813000,3.40081298828125,-0.07863456077575683,0.04339022891521454,0.05338730679452419
1633781428197692000,3.42069189453125,-0.05913900218904018,0.08374795826673508,0.19911453217752276
1633781428217570800,3.44057080078125,0.012175006440281867,0.02317980005741119,0.10688870495539159
1633781428237450000,3.460449951171875,0.1402881761342287,0.013514146089553833,0.09655676909852773
1633781428257327900,3.480327880859375,0.07005436395704746,-0.018935002094507217,0.1530764921672642
1633781428277206800,3.500206787109375,-0.006100654962658882,-0.027629180681705473,0.16678590510059146
1633781428297085700,3.520085693359375,-0.11590543002784251,-0.04257482087910175,0.18139292446076868
1633781428316964900,3.53996484375,0.030056115567684172,-0.013649170646071433,0.12791976601369678
1633781428336843800,3.55984375,0.08950549888014793,-0.11245441279113293,0.055461336589604615
1633781428356722000,3.579721923828125,0.16442483852505682,-0.1432470259398222,0.023051424437388775
1633781428376600800,3.599600830078125,0.10427227537930012,-0.14988953269422053,-0.03789926681611687
1633781428396479700,3.619479736328125,-0.13052023083567618,-0.062083823469281194,0.03901486337520182
1633781428416358700,3.639358642578125,-0.2511176180720329,0.0702484252244234,0.16779285365343094
1633781428436237800,3.65923779296875,-0.2252373268842697,0.12496551931798458,0.0965343015383929
1633781428456115700,3.67911572265625,-0.09429273315668106,0.19529811569452285,0.13576587640419602
1633781428475995000,3.698994873046875,0.07407704360187053,0.09965396792888641,0.012383059700392185
1633781428495873800,3.718873779296875,-0.054773208194971085,-0.04107201510071754,-0.0991239892380312
1633781428515752700,3.738752685546875,-0.10836334408521651,0.09285013313293457,-0.06967818758841604
1633781428535631600,3.758631591796875,-0.011498130092024803,0.2093774944514036,-0.017860139404609798
1633781428555509800,3.778509765625,0.13288228379189967,0.20888298893272875,-0.01274608432650566
1633781428575388700,3.798388671875,0.15281389570832252,0.07902852852940559,-0.09288600816391408
1633781428595267800,3.818267822265625,0.1525356632888317,0.01576338632106781,-0.06426920468434691
1633781428615146800,3.838146728515625,-0.04244739510715007,0.03707096276581287,0.00006583177782595157
1633781428635025700,3.858025634765625,0.025939912420511243,0.08823825542330742,0.030562676850333807
1633781428654903600,3.877903564453125,0.1435305190563202,-0.03941898719668388,-0.03215827547870576
1633781428674782700,3.89778271484375,0.12951193057596683,-0.10418635066151619,-0.01848776978366077
1633781428694662000,3.917661865234375,0.24451953498125076,-0.07645546317100524,-0.0031620442274957893
1633781428714540800,3.937540771484375,0.1612888785868883,-0.04487988295108079,-0.007988149209693074
1633781428734419000,3.9574189453125,0.08647767549157143,0.031056232520937917,0.10729301143996417
1633781428754297900,3.9772978515625,0.0460714308232069,0.03213642897307872,0.15544965103939173
1633781428774176800,3.9971767578125,-0.052987493821978565,-0.05302548774480819,0.09607691315971315
1633781428794055700,4.0170556640625,0.02985620908141136,-0.02844400419592857,0.11131225701868533
1633781428813934800,4.036934814453125,0.11655015767216682,-0.024887480758130548,0.01501424845419824
1633781428833812700,4.056812744140625,0.1608744525671005,-0.09364479064196347,-0.03806282334737479
1633781428853692000,4.07669189453125,0.07776596124768256,-0.14361147533804178,-0.1355557407848537
1633781428873570600,4.096570556640625,0.030844635596871374,-0.07377016960978508,-0.11468027214705943
1633781428893449700,4.11644970703125,-0.0203343474984169,0.05812690253704786,-0.11962956511750816
1633781428913328600,4.13632861328125,-0.023161095356941223,0.1852835021585226,-0.11417561056055128
1633781428933206800,4.156206787109375,-0.005547112733125686,0.20802286497205494,-0.12339191332571207
1633781428953085700,4.176085693359375,-0.019476269364356993,0.16060820284634827,-0.15874408947490154
1633781428972964900,4.19596484375,0.02254851641654968,0.08119213630408048,-0.1649436747673899
1633781428992843800,4.21584375,0.08800327762365341,0.03238368173241615,-0.1679978747062385
1633781429012721700,4.2357216796875,0.024354689055681226,0.06028904900699854,-0.07349639416970312
1633781429032600800,4.255600830078125,0.05530220050513744,0.04112988276779651,0.0026031682357192036
1633781429052479700,4.275479736328125,0.17262918776869773,-0.01196837795227766,-0.007671484475955366
1633781429072359000,4.29535888671875,0.17079378903508186,-0.12518880667984486,-0.02276435112431645
1633781429092237800,4.31523779296875,0.06344809755980968,-0.14113427156955002,0.03870258255563676
1633781429112116000,4.335115966796875,-0.16462883666455744,-0.15472820489704608,0.09181311823539436
1633781429131994600,4.35499462890625,-0.19681144286692143,-0.1307896954268217,0.09675079383328557
1633781429151873800,4.374873779296875,-0.07424304781854152,-0.040947804199159145,0.07833736792746931
1633781429171752700,4.394752685546875,0.04535129985511303,0.006324526846408844,-0.004994410753808915
1633781429191632000,4.4146318359375,-0.0017284312278032302,-0.007481003405153751,-0.027698848384432494
1633781429211509800,4.434509765625,-0.07518354353904724,0.0023760814815759657,0.031664391014538704
1633781429231389000,4.454388916015625,-0.08552958098649978,0.06533084256649017,0.0207515499971807
1633781429251267600,4.474267578125,-0.1164157176375389,0.1260451312482357,0.054538376525789495
1633781429271146800,4.494146728515625,0.0235018716186285,0.12930968600213527,0.024366087232530115
1633781429291026000,4.51402587890625,0.03020867578089237,0.04800415245145559,-0.04883950729705393
1633781429310903800,4.53390380859375,0.22001988449692725,0.11627104846984147,-0.030555845250748098
1633781429330782700,4.55378271484375,0.23110066595971582,0.06476239502876997,-0.10450560921113937
1633781429350661600,4.57366162109375,0.12221417478322982,0.055552960395812985,-0.08246865904591977
1633781429370540800,4.593540771484375,0.0553214897274971,0.09194149385541676,-0.057493207743391395
1633781429390419700,4.613419677734375,0.06155073950588703,0.08351824116408825,-0.06312748730331659
1633781429410297900,4.6332978515625,0.09228373142182826,0.09995295087546109,-0.03850158009082079
1633781429430176800,4.6531767578125,0.08729016091823577,0.05523965666294098,-0.05773114468511194
1633781429450056000,4.673055908203125,0.02901215947270393,0.07892039197981357,-0.06356595178581774
1633781429469934600,4.6929345703125,-0.039103345376253124,0.12258359261751174,0.08461955346949399
1633781429489813800,4.712813720703125,-0.08455459847450256,0.0695604429602623,0.11230163338221609
1633781429509691600,4.732691650390625,-0.015977905854582787,-0.01681815607100725,0.09868431917913258
1633781429529570800,4.75257080078125,-0.004105097231268883,-0.0696603962033987,0.1311217769253999
1633781429549449700,4.77244970703125,-0.009438859474658966,-0.06485825661867857,0.13299264883119613
1633781429569329000,4.792328857421875,-0.011809680259227752,-0.04994096573293209,0.13731398262903094
1633781429589206800,4.812206787109375,-0.0414922863394022,-0.06243862825632095,0.14025222803801296
1633781429609085700,4.832085693359375,-0.09087620271146298,-0.1207490706667304,0.12914236661121248
1633781429628964600,4.851964599609375,-0.021442016479372977,-0.11275924095660447,0.10229973319731653
1633781429648843800,4.87184375,0.14794541288912297,0.030223873350024223,0.06929225701075047
1633781429668723000,4.891722900390625,0.28164544280469417,0.01133183361440897,-0.000573562104254961
1633781429688600800,4.911600830078125,0.1768219632834196,-0.06935410673320293,-0.06079674280080944
1633781429708480000,4.93147998046875,0.11308628095388412,-0.012013386137783527,0.0002882788894698024
1633781429728358700,4.951358642578125,0.10170797784924507,0.09138795162588358,-0.021898235814273356
1633781429748237800,4.97123779296875,0.04544482335746288,0.131292676512897,0.0007607552394270896
1633781429768116700,4.99111669921875,-0.010566986721754074,0.12279197467118501,0.03455408457405865
1633781429787995000,5.010994873046875,-0.09089373836815356,0.007118892094492912,0.09807996007781475
1633781429807873800,5.030873779296875,-0.133879478135705,-0.0439037313953042,0.1371773871699348
1633781429827752700,5.050752685546875,-0.31136487376391886,-0.07800210809111595,0.21406919593159107
1633781429847631600,5.070631591796875,-0.19995617063343524,-0.07241495560854673,0.23142244525998829
1633781429867510800,5.0905107421875,-0.01832359219789505,-0.13129706042706965,0.12536971620470286
1633781429887388700,5.110388671875,0.1010837084710598,-0.17711334744542837,0.06446187771223486
1633781429907267800,5.130267822265625,0.0014846855998039245,-0.25705986760258676,0.04208795067761093
1633781429927146800,5.150146728515625,0.00995674586892128,-0.15947773751169442,0.018484920239448546
1633781429947025700,5.170025634765625,-0.03484802601933479,-0.021855273455381394,0.041166196190193294
1633781429966904800,5.18990478515625,0.04179506867825985,0.06598550708293914,0.05257273900862783
1633781429986782700,5.20978271484375,0.0973585504680872,0.08640987095236778,-0.04008760717324912
1633781430006661600,5.22966162109375,0.20266192246079442,0.09366057273298502,-0.05353804037682712
1633781430026540800,5.249540771484375,0.22015958522856235,0.08836217406392097,-0.13643719979450106
1633781430046420000,5.269419921875,0.13585750021040438,0.17655162190943954,-0.09295600466020405
1633781430066297900,5.2892978515625,0.075978493309021,0.20228052192777393,-0.030623211398534474
1633781430086176800,5.3091767578125,0.04251812225580215,0.12916735492199657,-0.016939517428353427
1633781430106055700,5.3290556640625,0.13190730127990244,0.04487228416651487,-0.03296550020836293
1633781430125934800,5.348934814453125,0.19093056813478468,-0.010746434941887855,-0.00917593422215432
1633781430145813800,5.368813720703125,0.18232757496237753,-0.06023585751503706,-0.013634849859774112
1633781430165692000,5.38869189453125,0.014738719448447226,-0.07182721884846686,-0.004912468091398477
1633781430185570800,5.40857080078125,-0.07061842758059501,-0.060192310634255404,0.07190477759670466
1633781430205449700,5.42844970703125,-0.07782149082720279,-0.07039046404361725,0.008949322392046452
1633781430225329400,5.448329345703125,0.045621933490037916,-0.08649842601865529,-0.038686654334142805
1633781430245208600,5.46820849609375,0.09157412184774875,-0.08336860356032848,-0.10120532555673271
1633781430265086500,5.48808642578125,-0.06459609855115413,0.001383271051943302,-0.0763856128051877
1633781430284965600,5.507965576171875,-0.17674071474075317,0.08409691783487797,-0.050793125582858915
1633781430304844300,5.52784423828125,-0.07082359476387501,0.14367548048496245,-0.02329860413148999
1633781430324723500,5.547723388671875,0.11428396630585193,0.12702011376023292,-0.08003730371315032
1633781430344602600,5.5676025390625,0.14774258379340172,-0.014301497074961662,-0.1366568704271689
1633781430364480500,5.58748046875,0.029252982491254804,0.04933218618482351,-0.06608772534839809
1633781430384359400,5.607359375,0.07315759066939354,0.07613339160978794,0.013471622122079132
1633781430404238300,5.62723828125,0.14309914190173148,0.12848258752822875,-0.09319598742853849
1633781430424117500,5.647117431640625,0.20427403383255005,0.17832360001802444,-0.08696958719436079
1633781430443996400,5.666996337890625,0.24469664511382577,0.23679040203392504,-0.02915675557516515
1633781430463874600,5.68687451171875,-0.003879471781849861,0.1820829525515437,0.021705233992822467
1633781430483753500,5.70675341796875,-0.2079968537479639,0.12905629576295613,0.11317637039013206
1633781430503632600,5.726632568359375,-0.24742636233866214,0.05984101297855377,0.1505178571930155
1633781430523511300,5.74651123046875,-0.12125789697170257,-0.0034247137516736983,0.10562957173977047
1633781430543390500,5.766390380859375,-0.009963175609707832,-0.025983459301292894,0.06758965434394776
1633781430563268400,5.786268310546875,-0.1739718345493078,-0.03962853829413652,0.038933212973736225
1633781430583147500,5.8061474609375,-0.1860457187026739,0.025178280398249625,0.09284001359771936
1633781430603026400,5.8260263671875,-0.026688100439310074,0.04922025024294853,0.0829738686216995
1633781430622905600,5.845905517578125,0.1117448032170534,-0.0334837519288063,-0.006352474299259484
1633781430642783500,5.865783447265625,0.05311082794070243,-0.11659750394523143,0.01693893290646374
1633781430662662400,5.885662353515625,-0.07655892354547977,-0.07753332153558731,0.029185068354196844
1633781430682541300,5.905541259765625,-0.2001712746888399,0.028485212989151475,0.06647153703421355
1633781430702420500,5.92542041015625,-0.12075345458090304,0.19448183087557552,0.05930237605720758
1633781430722299600,5.945299560546875,-0.007571312037110328,0.1693953204140067,0.05084492883533239
1633781430742177500,5.965177490234375,0.11821370697021484,0.0036082536250352857,-0.08448449238035827
1633781430762056700,5.985056640625,0.18146598969697952,-0.07775397854894399,-0.16044369646701961
1633781430781935400,6.004935302734375,0.1121808565467596,0.06218640706092119,-0.1123402118269354
1633781430801814500,6.024814453125,-0.07455985868275165,0.25777912178784607,-0.04596238095816225
1633781430821693400,6.044693359375,-0.09313888694643974,0.29371055912971494,0.10065430407784878
1633781430841571600,6.064571533203125,0.008678981018066407,0.1159890166580677,-0.03875734495017677
1633781430861450500,6.084450439453125,0.13541852427124976,-0.01367284378260374,-0.055741980161890387
1633781430881329700,6.10432958984375,0.2985737812519073,-0.04883651162236929,-0.07226999417990446
1633781430901208300,6.124208251953125,0.19377660521566867,-0.05831657989025116,-0.07256251085307448
1633781430921087500,6.14408740234375,0.1205161386936903,0.050986675393581385,0.07294376525562256
1633781430940965400,6.16396533203125,0.20592998434603213,0.07465864288210869,0.0937724721422419
1633781430960844500,6.183844482421875,0.22744798867106436,-0.03653846332430839,0.04218662527911365
1633781430980723500,6.203723388671875,0.15853870309591292,-0.11803922718614339,0.04269811846520751
1633781431000602400,6.223602294921875,0.05007891289889812,-0.12917349240183829,0.09198010883275419
1633781431020481500,6.2434814453125,-0.11473638624846935,-0.06218260766863823,0.14857950954157859
1633781431040359400,6.263359375,-0.09290741627812385,-0.03834025204926729,0.18064864543210715
1633781431060238300,6.28323828125,-0.04964812026619911,-0.10042495230138301,0.04927249188683927
1633781431080117500,6.303117431640625,-0.09375789562761783,-0.052985740256309505,0.001905249099433422
1633781431099996700,6.32299658203125,-0.12686112380623818,0.12701222271472215,0.1101636715054512
1633781431119874600,6.34287451171875,-0.07648293569982051,0.1443947346702218,0.10451379251759499
1633781431139753500,6.36275341796875,-0.02376023029386997,0.016139233896136283,-0.03931830330118537
1633781431159632400,6.38263232421875,-0.04665244558155537,-0.045889352254569526,-0.0332541809566319
1633781431179511600,6.402511474609375,-0.03453764489591121,0.03911445129215717,-0.06984985436089336
1633781431199390500,6.422390380859375,-0.12422902173697947,0.12622633303403855,0.01164846181552857
1633781431219267800,6.442267822265625,-0.05231763173639774,0.13156915536671876,0.08139675549808889
1633781431239146800,6.462146728515625,0.14048516001105307,0.011754735201597213,-0.02640906430222094
1633781431259026000,6.48202587890625,0.186978031116724,-0.12062456750422715,-0.08271693471856414
1633781431278904600,6.501904541015625,0.14802899951934814,-0.036432080340385434,-0.036735264538042246
1633781431298783700,6.52178369140625,0.03489069611728191,0.058060851563513274,0.07146532673351466
1633781431318661600,6.54166162109375,0.11653963627815246,0.05149754752516746,0.13388777104001492
1633781431338540800,6.561540771484375,0.17599661837518213,-0.08347615558803081,0.07331347535084932
1633781431358419700,6.581419677734375,0.21559213118255138,-0.21329642146080732,0.06736841280870139
1633781431378299000,6.601298828125,0.11983750877976417,-0.18616876056045292,0.045665480370819564
1633781431398177800,6.621177734375,0.010357143363356589,-0.023040683847665784,0.10158899111207574
1633781431418055700,6.6410556640625,-0.11738368588685989,0.0398822207942605,0.11942308275997637
1633781431437934800,6.660934814453125,-0.07449380770921707,-0.004435936620831489,0.021098025347292423
1633781431457813800,6.680813720703125,0.005799041667580604,-0.09155541714727879,-0.09073339670728892
1633781431477693000,6.70069287109375,0.0509206244200468,-0.04991612355262041,-0.16860818862430751
1633781431497571600,6.720571533203125,-0.09626607905626297,0.10990560509115457,-0.11609185597803443
1633781431517449700,6.74044970703125,-0.1463268717765808,0.2255032843440771,-0.051337096266448494
1633781431537328600,6.76032861328125,-0.21322540205121038,0.1831818537041545,-0.10725899957250803
1633781431557207800,6.780207763671875,-0.00760696787238121,0.14800591090470552,-0.12193214297145605
1633781431577086700,6.800086669921875,0.033792964008450506,0.09217150321900844,-0.15661986386254428
1633781431596964900,6.81996484375,0.08777297599911689,0.05483955142945051,-0.13792773061320185
1633781431616843800,6.83984375,0.07538169645965098,-0.00407557887583971,-0.14968495003283022
1633781431636722700,6.85972265625,0.09461831184923648,0.009688450321555138,-0.05942055907677859
1633781431656601600,6.8796015625,0.056195934474468225,-0.04656885895133018,-0.009074556206911801
1633781431676480800,6.899480712890625,0.04045183737576007,-0.05989625029712915,0.038830483251623804
1633781431696358700,6.919358642578125,0.018808160844445226,-0.06797638863921165,0.06131101246587932
1633781431716237800,6.93923779296875,-0.021616788524389266,-0.026548984229564664,0.11044760301336645
1633781431736116700,6.95911669921875,-0.0029629414588212967,-0.0465966237410903,0.11414853989053517
1633781431755995600,6.97899560546875,0.1411591137498617,-0.08794394865185022,0.08695110168959945
1633781431775874800,6.998874755859375,0.17350363251566886,-0.08302724277675151,-0.008369915068894625
1633781431795752700,7.018752685546875,0.059302083796262735,-0.036381811457872386,0.04906020084302872
1633781431815632000,7.0386318359375,-0.04449263719916344,0.06822393365949392,0.08614712836295366
1633781431835510800,7.0585107421875,-0.09920680868327617,0.05799772319942712,0.05566540779434144
1633781431855390000,7.078389892578125,-0.07663666495680808,0.04107552223205566,0.026891185263358056
1633781431875268600,7.0982685546875,0.022357962280511855,0.00488338812738657,0.016635748708806932
1633781431895146800,7.118146728515625,0.01659340740442276,0.000976151555776596,0.010020751015841961
1633781431915025700,7.138025634765625,-0.11765256595611571,0.03061521075516939,0.05140807914342731
1633781431934904800,7.15790478515625,-0.10969079329669475,0.07242547700256109,0.02564885705206543
1633781431954783700,7.17778369140625,0.0004331307202577591,0.07661503764688968,-0.023506474728509783
1633781431974662700,7.19766259765625,0.11479834556877612,0.03582388531416655,-0.057027562993019816
1633781431994540800,7.217540771484375,0.12573708821237087,0.014212065225839614,-0.08251465361211448
1633781432014419700,7.237419677734375,0.060169514280557626,0.034925182908773424,0.009579290858656168
1633781432034298600,7.257298583984375,-0.013875380617380141,0.05892126778513193,0.01911499830391258
1633781432054177800,7.277177734375,-0.05995908640027046,0.11724135480672121,0.08471862992979586
1633781432074055700,7.2970556640625,-0.1181979248791933,0.09400222577750682,0.11069858209975063
1633781432093934800,7.316934814453125,-0.06018938802480697,0.0766164989516139,0.0998685605276376
1633781432113813800,7.336813720703125,0.005935819789767265,0.04681611171066761,0.058625317045859986
1633781432133692700,7.356692626953125,0.17835048802495002,0.06121493168026208,0.016694164365157485
1633781432153571800,7.37657177734375,0.14190496368110178,0.01283931556791067,-0.023074074660614133
1633781432173449700,7.39644970703125,0.030789690539240834,0.01811228753477335,0.03310359350480139
1633781432193329000,7.416328857421875,-0.06606675562560559,0.031123744799196718,0.03496423627752811
1633781432213211600,7.436211669921875,-0.15254676920473575,0.05513122785240412,0.07456186797674745
1633781432233090600,7.456090576171875,-0.19957623140513897,0.115102589212358,0.041555378170870245
1633781432252969500,7.475969482421875,-0.06328501595258712,0.18658347884118556,0.07281389179825783
1633781432272847600,7.49584765625,0.05981178688406944,0.08420300855785608,0.03316569895558059
1633781432292726500,7.5157265625,0.20111469301879406,-0.06526888324618339,-0.10149714811015874
1633781432312605700,7.535605712890625,0.16947510765194893,-0.005992810674011707,-0.05637216782420873
1633781432332484600,7.555484619140625,-0.03597381517887115,0.09102788614183664,-0.025910540195554492
1633781432352363500,7.575363525390625,-0.13000234444141387,0.1689031529828906,0.05192965533211827
1633781432372241400,7.595241455078125,0.061356093716621395,0.11645604964792727,-0.05690905117988586
1633781432392120600,7.61512060546875,0.2507119598805904,0.046101533700525756,-0.10179492548033595
1633781432411999700,7.634999755859375,0.25895079591572284,-0.03462064700424671,-0.1063075805991888
1633781432431878700,7.654878662109375,0.16501579015552997,-0.02580108847171068,-0.050433498490229246
1633781432451757600,7.674757568359375,-0.030620179191231726,-0.0022188450932502744,-0.011753712288290261
1633781432471635500,7.694635498046875,-0.07719371431767941,0.03310761209279298,0.06931107130907475
1633781432491514600,7.7145146484375,0.051423313245177266,0.03633534196764231,0.01969604959487915
1633781432511393500,7.7343935546875,0.04161035976111889,0.018119886319339275,-0.0420121089624241
1633781432531272700,7.754272705078125,-0.028835049340128895,0.07225596565455197,0.029342487405613064
1633781432551150600,7.774150634765625,-0.0574257685303688,0.14066636179685593,0.012930866308882832
1633781432571029800,7.79402978515625,0.012209493231773375,0.15583850422650575,0.04390519270002842
1633781432590908400,7.813908447265625,0.11212474244534969,0.0786269619911909,-0.02054693080317229
1633781432610787600,7.83378759765625,0.17345570172071456,-0.03664104691594839,-0.04419087777361273
1633781432630666500,7.85366650390625,0.07460486686825751,-0.12184241886138915,-0.0662815674200654
1633781432650544600,7.873544677734375,-0.05064823721945286,-0.0480298714146018,-0.008876695547252893
1633781432670423600,7.893423583984375,-0.09065583795905113,0.11103344007730484,0.05383410071395337
1633781432690302700,7.913302734375,-0.003584872749447822,0.1399377552613616,-0.0038141879932954907
1633781432710181600,7.933181640625,0.14494856916069984,0.10230185208916663,-0.04333893711939454
1633781432730060500,7.953060546875,0.13424363527297972,0.04704465976953506,-0.07956862675547599
1633781432749938400,7.9729384765625,0.07295242348611354,0.060170683324337004,-0.010131116055138409
1633781432769817600,7.992817626953125,-0.06728899089694022,0.055957449543476104,0.020356267069280145
1633781432789696800,8.01269677734375,-0.10870996556580066,0.0853434107646346,0.013941029732115567
1633781432809575700,8.03257568359375,-0.01824994243979454,0.10822773500680923,0.06733867525756358
1633781432829454600,8.05245458984375,0.08548807993233204,-0.023264555731415747,-0.016131890839897096
1633781432849332500,8.07233251953125,0.12072481300830841,-0.10152589928060769,-0.05058525498583913
1633781432869211600,8.092211669921875,0.04998480487465858,-0.04600099593549967,-0.039839550696313376
1633781432889090600,8.112090576171875,-0.043648587590456006,0.03516571366637945,0.03312507468424737
1633781432908969700,8.1319697265625,-0.11515490392148495,0.10564327147156,0.08950681405439972
1633781432928847600,8.15184765625,-0.09073708650171756,0.0584998275026679,0.05539364164825528
1633781432948726500,8.1717265625,-0.0275146143913269,0.000009060089290142059,0.05619878401868045
1633781432968605400,8.19160546875,0.10663491285741329,-0.06489391245394945,-0.0019279723878949879
1633781432988484600,8.211484619140625,0.21747078453600405,-0.08991758681237697,-0.02676416135020554
1633781433008363500,8.231363525390625,0.08434533963799476,-0.06597995412498713,-0.022944968388229608
1633781433028241700,8.25124169921875,-0.06882102276980877,0.01967149967551231,0.12068097386658191
1633781433048120600,8.27112060546875,-0.06315174496173859,0.02777881828546524,0.07593889195099472
1633781433067999500,8.29099951171875,0.0618570289760828,-0.0164957922488451,0.04479406783115118
1633781433087878700,8.310878662109374,0.04781155248880386,-0.06720745009332894,0.06185626179110258
1633781433107757600,8.330757568359376,0.05216039534807205,-0.08317717264145612,0.06492094659134745
1633781433127635700,8.3506357421875,0.011752397114038467,-0.037707507103681565,0.07959686646927147
1633781433147514600,8.3705146484375,0.005094108268618583,-0.005443944619596004,0.054199536492861806
1633781433167393800,8.390393798828125,-0.031549568995833395,-0.04622691364586353,0.05016286485530436
1633781433187272400,8.4102724609375,0.05802665703296661,-0.08540332425832747,-0.008426979018375276
1633781433207151600,8.430151611328125,0.21900749258399008,-0.03060819649249315,-0.03580039484072477
1633781433227026000,8.45002587890625,0.2552256379127502,0.024671792180836198,-0.035830972642079
1633781433246905000,8.469905029296875,0.16287702456116676,0.04957914668321609,-0.01339059277512133
1633781433266784300,8.4897841796875,-0.05704875191152096,0.06732084733992814,0.0188761480467394
1633781433286663200,8.5096630859375,-0.16488953342735765,0.07387947520315646,0.043254071847535665
1633781433306542000,8.5295419921875,-0.0364250660777092,0.044648704543709755,0.04256959671471268
1633781433326420000,8.549419921875,0.11957798106074333,-0.03040215252637863,-0.04700191660635173
1633781433346299100,8.569299072265625,0.20391981356739997,-0.07212532501220703,-0.046981166079267854
1633781433366178000,8.589177978515625,0.027909751188755032,-0.09465747481584548,0.010814897068217396
1633781433386057200,8.60905712890625,-0.09913725057840346,-0.09477379467189312,0.06841098066419363
1633781433405936000,8.62893603515625,-0.0761176095187664,-0.07844079176932572,0.05361212852634489
1633781433425814300,8.648814208984374,-0.022846038058400152,-0.054068859317898746,0.047940439565479755
1633781433445693000,8.66869287109375,0.053880643269419666,-0.07419014858752489,0.024957331123948094
1633781433465572000,8.688572021484376,0.06066051266789436,-0.11355857464075088,-0.05499496118687093
1633781433485451000,8.708450927734376,0.04274725483655929,-0.08588175542503595,-0.04990282567963004
1633781433505329200,8.7283291015625,0.027536826223134993,-0.021932138083875178,-0.08465119071677327
1633781433525208000,8.7482080078125,0.08988602263033389,0.04789747720658779,-0.09249832402057945
1633781433545087000,8.7680869140625,0.05014321030676364,0.057443304187059396,-0.1269375865759328
1633781433564966100,8.787966064453125,-0.0018880057036876677,0.09849281519502401,-0.07378975109308958
1633781433584845000,8.807844970703124,-0.02905015339553356,0.112877606639266,-0.06995455684438348
1633781433604723200,8.82772314453125,-0.008523498195409774,0.14959551818370817,-0.032437165485322474
1633781433624602000,8.84760205078125,-0.011769932770729064,0.20011808319687843,-0.021717983876541256
1633781433644481300,8.867481201171875,-0.03242635183036327,0.21288491805046794,0.013990714092738925
1633781433664360000,8.88735986328125,0.005555880561470985,0.14545008894205091,-0.01125697827991098
1633781433684239000,8.907239013671875,0.023415946900844573,-0.024436229859292505,-0.03527553071640432
1633781433704117000,8.927116943359374,0.051100657162070275,-0.06290566124618054,-0.05895436633713543
1633781433723996200,8.94699609375,0.10678513498306273,-0.02354366493374109,-0.026846652001887558
1633781433743875000,8.966875,0.03833645265698433,0.05268880313634872,0.001012720706500113
1633781433763754200,8.986754150390626,-0.12043956632614135,0.10720715978741645,0.07218549423422664
1633781433783633000,9.0066328125,-0.03958966758847236,0.0401698055639863,0.053378685096651314
1633781433803511000,9.026510986328125,0.07320318337678909,0.01631137559264898,-0.01801576835773885
1633781433823390000,9.046389892578125,0.14878653988838195,0.022189035454392433,-0.018938216964900494
1633781433843269000,9.06626904296875,0.02724164266884327,-0.008020224848389625,-0.07084233599696307
1633781433863148300,9.086148193359374,-0.013742694148421287,0.07328881583362817,-0.029055596755631265
1633781433883027200,9.106027099609374,-0.02951192568838596,0.1403045427471399,0.006747903357632458
1633781433902905000,9.125905029296876,0.039698973181843754,0.10091215129643678,-0.028303463214077052
1633781433922784000,9.145783935546875,0.08253039917051792,0.03332008579969406,-0.001692190870642662
1633781433942663200,9.1656630859375,-0.007467851662635803,0.00712853670567274,0.07222177112400531
1633781433962542000,9.1855419921875,-0.1534720673561096,-0.013116963465511798,0.1355018551731482
1633781433982421200,9.205421142578125,-0.11521510967612265,0.010229425330460071,0.13853749654199926
1633781434002299100,9.225299072265624,0.09771744690835475,-0.020220950251817704,0.08346373449787498
1633781434022178000,9.245177978515626,0.24352993942201137,-0.07137976734191179,-0.003028407910466194
1633781434042057000,9.265056884765626,0.13300327982306479,-0.12071136900484561,0.011831965156272052
1633781434061936000,9.28493603515625,-0.043888826087117194,0.015587152971327303,0.0660891501205042
1633781434081815000,9.30481494140625,-0.09531097028851508,0.13651158020496368,0.12479980736225843
1633781434101693200,9.324693115234375,-0.11153028368353843,0.1366419285863638,0.108948523562029
1633781434121572000,9.344572021484375,-0.008518822020292282,0.05394289485067129,0.05936320286635309
1633781434141451000,9.364450927734374,0.08857494003176689,-0.03768880240321159,0.02302059090770781
1633781434161330000,9.384329833984374,0.17821254085898397,-0.08244885836690664,-0.027459596268460153
1633781434181209000,9.404208984375,0.1533019714862108,-0.013785071985423563,0.01633519485965371
1633781434201087000,9.4240869140625,0.08352817803621292,-0.0006795066967606545,0.05415219021979719
1633781434220966100,9.443966064453125,0.06561316663920878,0.009475099831819534,0.04006700277663767
1633781434240845000,9.463844970703125,0.0968178677201271,-0.024640227998793125,0.008079992211610078
1633781434260724000,9.483723876953125,0.058474400800466536,0.0004512508988380432,0.009826068693958223
1633781434280603000,9.503602783203124,-0.05845511157810688,0.033468262098729606,0.07060381453335285
1633781434300481000,9.52348095703125,-0.13580197063088417,0.04307078770250082,0.05948774256147444
1633781434320360000,9.54335986328125,-0.15809271289408205,-0.020705811159312724,0.04302029962427914
1633781434340239000,9.563239013671875,-0.10278758977949619,-0.1357683606222272,0.037070633972249925
1633781434360118000,9.583117919921875,-0.02389876198172569,-0.18803221634477377,0.0046165173521265385
1633781434379997000,9.602996826171875,0.013031331008672714,-0.08838935433179139,0.08073219064213336
1633781434399874800,9.622874755859375,-0.136296476149559,-0.01975216369628906,0.11686477657929062
1633781434419754000,9.64275390625,-0.16128186432421207,0.017783786232769487,0.13296276514958588
1633781434439633200,9.662633056640624,-0.047504093974828715,0.01196925473511219,0.0810802368948236
1633781434459512000,9.682511962890626,0.09437924239635467,-0.014132862509787082,0.011856149749457836
1633781434479391000,9.702390869140626,0.15046119510233402,-0.04409282422661781,-0.06259524359013885
1633781434499269000,9.72226904296875,0.29476912827193735,0.014871698178350925,-0.11146470763403922
1633781434519148000,9.74214794921875,0.2202624610811472,0.041327743427455425,-0.10823105947505682
1633781434539027000,9.76202685546875,0.09474456857740879,0.05546352854669094,-0.13840959584601223
1633781434558906000,9.781906005859375,0.04185118277966976,0.09715864398181438,-0.11991097587477414
1633781434578785000,9.801784912109374,-0.02044716022312641,0.1694067185908556,-0.1332475734403357
1633781434598663200,9.8216630859375,-0.04822831659615039,0.16022797135710715,-0.1499587254729122
1633781434618542000,9.8415419921875,-0.1318523562222719,0.08126461701840162,-0.17609664468355476
1633781434638421000,9.8614208984375,-0.07389175016283989,0.08555296186208725,-0.14232063180990517
1633781434658300000,9.8812998046875,-0.06156126089990139,0.0629243659466505,-0.11978336743973195
1633781434678179000,9.901178955078125,0.027098434805870056,0.10651333230435847,-0.07282912590000779
1633781434698057000,9.921056884765624,0.07721417258381844,0.06822539496421813,-0.08433427025470883
1633781434717936000,9.94093603515625,0.08435469198822974,0.0419736401155591,-0.08506828361768275
1633781434737814800,9.960814697265626,0.0914455270320177,0.020929975304007527,-0.008871252187155187
1633781434757694000,9.98069384765625,0.153973002615571,-0.02524520815461874,-0.021721198746934532
1633781434777573000,10.000572998046875,0.2556353877574205,0.05097293912917375,-0.00010503127705305814
1633781434797451000,10.020450927734375,0.09075111502707003,0.05720657282173633,0.054534029144234955
1633781434817330200,10.040330078125,-0.010052022936940193,-0.011120528951287269,0.09197978003919124
1633781434837209000,10.060208984375,0.037487726873159405,-0.11357611029744148,0.021902546663209795
1633781434857088000,10.080087890625,0.1780640722990036,-0.1272805182620883,-0.017495616941154
1633781434876967000,10.099966796875,0.25159517245590685,-0.07046323701888323,-0.03726615654435009
1633781434896845000,10.119844970703125,0.1682119558483362,0.018773966313898563,-0.05756605378389358
1633781434916724000,10.139723876953125,0.017947744622826577,0.01650923625230789,-0.021203969939798114
1633781434936603100,10.15960302734375,-0.04296645054519176,0.051830432741343975,-0.02246047280691564
1633781434956482000,10.17948193359375,-0.023929741641879082,0.05731558615416288,0.01258190674073994
1633781434976361000,10.19936083984375,0.008576105165481566,-0.005509118810296058,-0.035973742113634945
1633781434996238800,10.21923876953125,0.053231239449977874,-0.020738836646080016,-0.04651015103403479
1633781435016118000,10.239117919921876,0.12990414476394652,0.03759644794464111,-0.03700356008540839
1633781435035997000,10.258996826171876,0.05565642077028751,0.06317044966220856,-0.06531944438964128
1633781435055876000,10.2788759765625,-0.0037777649730443954,0.05909954696148634,0.03319404826723039
1633781435075755000,10.298755126953125,0.0010866261929273605,-0.05679974558651447,0.016513437503390013
1633781435095633200,10.318633056640625,-0.028883564656972883,-0.05651771377474069,-0.01046056720521301
1633781435115512000,10.338511962890625,-0.12695873896181584,0.010607903254032134,0.04386018451452255
1633781435135391000,10.358390869140624,-0.2384866845577955,0.15466449201107024,0.12655505353175103
1633781435155270100,10.378270263671874,-0.12498597758412361,0.11647826147973536,0.12298453810121864
1633781435175149000,10.398149169921876,0.020261282262206075,-0.07537818932831288,-0.026896007568947968
1633781435195027200,10.418027099609375,0.12488836242854594,-0.1693663865804672,-0.029469949710182845
1633781435214905600,10.437905517578125,0.18677578654289245,-0.07522007615715265,-0.03151256145369261
1633781435234784500,10.457784423828125,0.0931581761687994,0.05226590154916048,0.043282055833004415
1633781435254663700,10.47766357421875,-0.005757540613412856,0.06609978111237287,0.07810600685700773
1633781435274542600,10.49754248046875,-0.04397533532679081,-0.021432371868193148,0.08674092953763901
1633781435294420500,10.51742041015625,-0.024912907460331916,-0.05769903251379728,0.1242460824696347
1633781435314299600,10.537299560546876,0.11050561681091785,-0.0646451983898878,0.10914466718863695
1633781435334178600,10.557178466796875,0.14488251818716524,-0.08056406753361224,0.062580740140751
1633781435354057500,10.577057373046875,0.08516367028355598,-0.010281155517697333,0.0846824626378715
1633781435373936600,10.5969365234375,-0.06376023224890232,0.024971651910245418,0.11761311072856187
1633781435393814500,10.616814453125,-0.1192348667114973,0.05594692814946174,0.12150310390442609
1633781435413693700,10.636693603515624,-0.01135316866338253,0.021060031424462795,0.08721837432365864
1633781435433572600,10.656572509765626,0.14647650938034057,0.014238076449930666,0.08501374041885137
1633781435453451500,10.676451416015626,0.15646774204075337,-0.04268704908192158,0.0646302930817008
1633781435473330400,10.696330322265625,0.056954059365391725,-0.07773264349997043,0.0642354120125994
1633781435493208600,10.71620849609375,0.025007600006461142,-0.025387831495702264,0.09019516164474188
1633781435513087500,10.73608740234375,0.030425533401966093,-0.02092646817266941,0.06791914202664047
1633781435532966700,10.755966552734375,0.08115326559841632,-0.07709697594493627,0.002496054599434137
1633781435552845800,10.775845703125,0.0685801997512579,-0.1901651367202401,-0.04110920530594885
1633781435572724500,10.795724365234374,0.029632921719551085,-0.12891659503132105,-0.06288728533927351
1633781435592602400,10.815602294921876,-0.0007692308068275451,0.03999240317046642,-0.037191556938178834
1633781435612481500,10.8354814453125,-0.06919511677920819,0.13924012838602065,-0.047903651219047605
1633781435632360700,10.855360595703125,-0.08995032003819942,0.19080694175511598,-0.022212160601653156
1633781435652239600,10.875239501953125,0.018528174859285353,0.16568331415355206,-0.050260406945645805
1633781435672118800,10.895118896484375,0.16474807913005352,0.13728928657919168,-0.025809819767437875
1633781435691997400,10.91499755859375,0.23930852233469485,0.04904460141509771,-0.11757588399071246
1633781435711875600,10.93487548828125,0.14330956978201864,0.05136339975148439,-0.06137052410077303
1633781435731754500,10.95475439453125,-0.19443068521022797,0.049694297495484346,0.06343680898081511
1633781435751633700,10.974633544921875,-0.15530512800216673,0.04844254386872053,0.11581877465769648
1633781435771512600,10.9945126953125,0.06696224316060542,-0.04487783712446689,0.024026114688441156
1633781435791391500,11.0143916015625,0.17360533932447433,-0.11653554462492466,-0.013137677459977567
1633781435811269600,11.03426953125,0.03226619283258915,-0.06679068598598241,0.021228812120109797
1633781435831148500,11.0541484375,-0.027284897288680075,0.0550230913028121,0.06802256586849689
1633781435851027500,11.07402734375,-0.11067863529026507,0.0016065584138035772,0.0906765519535169
1633781435870906600,11.09390673828125,-0.051778118032217026,-0.09833674785047769,0.07405870422758161
1633781435890785800,11.113785888671876,0.042481881898641584,-0.14170505719482898,-0.019232487203739584
1633781435910663700,11.13366357421875,0.11403320641517639,-0.06933861690312623,0.004026880895905196
1633781435930542600,11.15354248046875,0.04939034611284732,0.008280337089300155,0.014367292320169507
1633781435950421500,11.17342138671875,-0.029641689547896383,0.022600246603786945,0.00436323671080172
1633781435970300700,11.19330078125,-0.04846504796147346,0.025778876639902592,0.0008168693408370018
1633781435990179600,11.2131796875,-0.010872691670060157,0.019545535208284854,-0.00879559313505888
1633781436010057700,11.2330576171875,0.042152796074748033,-0.026574410931766032,-0.03478891624324024
1633781436029936600,11.2529365234375,0.0664794280797243,0.034816754098236556,-0.06417568118199705
1633781436049815600,11.272815673828125,0.006148585757613182,0.12415975589305162,0.04786021393612027
1633781436069694500,11.292694580078125,-0.015665186643600462,0.07139934882521629,0.03735778035055846
1633781436089573600,11.31257373046875,0.027674773389101025,-0.03314882088601589,0.027694062611460683
1633781436109451500,11.332451416015624,0.053906362232565876,-0.07146276945024728,0.07746281358264386
1633781436129330700,11.35233056640625,0.03151391316056251,-0.02347790622115135,0.08830602342989295
1633781436149209600,11.372209716796876,-0.08440671443641186,0.030650282068550586,0.1410362910877913
1633781436169088500,11.392088623046876,-0.06447802512943744,0.02245090126097202,0.14902414803653954
1633781436188967700,11.4119677734375,0.09995265861451626,-0.05321574961990118,0.03569996667355299
1633781436208845600,11.431845458984375,0.20127660558223723,-0.02982435263842344,0.00025477847866714
1633781436228724700,11.451724853515625,0.13746318184137343,0.02344868012666702,0.025247327046468853
1633781436248603600,11.471603759765625,0.040212183400988574,0.06351034914106131,0.08751571330241859
1633781436268482600,11.491482666015624,0.03497136013805866,0.0005246083959937096,0.045134624897129834
1633781436288361500,11.511361572265624,0.06005787059962749,-0.08842004173099995,0.010655395657569169
1633781436308239600,11.531239501953126,0.014116203635931013,-0.11168985815942287,0.04905545160267502
1633781436328118500,11.551118408203125,0.11054594882130622,-0.023173078055679797,0.024433526445552706
1633781436347997700,11.570997802734375,0.01599953316450119,-0.002158347077667713,0.07428728881906718
1633781436367876600,11.590876708984375,-0.051613282859325406,0.05258914215415716,0.046182672645337874
1633781436387755500,11.610755615234375,-0.07589432215690613,-0.005168634809553623,0.005782821185141802
1633781436407633700,11.630633544921874,-0.029918168401718136,-0.05384206482470035,-0.03511913457829505
1633781436427512600,11.6505126953125,0.039570962888002395,-0.09255962575376034,-0.033774113177508114
1633781436447391500,11.6703916015625,0.04719020572006702,-0.09167612091749906,-0.05117543943133205
1633781436467270700,11.690270751953125,0.03734393448829651,-0.07638941219747065,0.0007990048905834555
1633781436487149800,11.71014990234375,0.06337503232359885,-0.015772738671302796,-0.03614785657152533
1633781436507027700,11.73002783203125,0.13055296406149863,0.01880114658176899,-0.05424662703759968
1633781436526906400,11.74990625,0.13875263713002203,-0.030829730288684368,-0.11299706830047071
1633781436546785500,11.76978564453125,0.11299568006098269,-0.008505085755884647,-0.05019523275494575
1633781436566664700,11.789664794921874,0.1161632041811943,0.0724856827571988,-0.07501856223568319
1633781436586543600,11.809543701171876,0.09956687416732311,0.1348456928193569,-0.05720584216937422
1633781436606421800,11.829421875,0.06063888535797596,0.17244097172021866,-0.012119075001962482
1633781436626300700,11.84930078125,0.07107143204510212,0.09823387199789285,-0.02154416167959571
1633781436646179600,11.8691796875,0.025131518647074698,0.018718436734378337,0.0036424116229638454
1633781436666058500,11.88905859375,0.061550154983997345,-0.08940086946189403,-0.004375475137867033
1633781436685937700,11.908937744140625,0.036382395979762075,-0.1334995389074087,-0.000638809360191226
1633781436705815600,11.928815673828124,0.008851414975523948,-0.12454554034024476,0.04902637163866311
1633781436725694700,11.94869482421875,-0.0920861630231142,-0.14357757306843996,0.05158011124208569
1633781436745573600,11.96857373046875,-0.15993454136848448,-0.08854074550122022,0.05596844586152583
1633781436765452500,11.98845263671875,-0.17389935383498667,-0.031159108373522756,0.041183293455466626
1633781436785331500,12.00833154296875,-0.01663257037103176,0.014307634554803371,0.0072772975265979764
1633781436805209600,12.028209716796875,0.07842471741735935,-0.021122867527604103,-0.04558375690411776
1633781436825088500,12.048088623046874,0.004088146096467972,0.007440379133820533,-0.033485322831384834
1633781436844967700,12.0679677734375,0.004637596672773361,0.09783493580818176,-0.01344553783275187
1633781436864846600,12.0878466796875,0.022824995270371434,0.13839198712408543,0.037071108896285294
1633781436884725500,12.1077255859375,0.06436755049228668,0.06236994693428278,-0.03727112498041242
1633781436904603400,12.127603271484375,0.12073299631476402,0.04657207382172346,-0.04447564953174442
1633781436924482600,12.147482666015625,0.1802811638265848,0.006700374421477318,-0.06901102891657501
1633781436944361700,12.16736181640625,0.1177794072061777,-0.02732552156001329,-0.03551555001735687
1633781436964240600,12.18724072265625,0.0685842914044857,-0.06813099467903375,-0.05297938358075917
1633781436984119600,12.20711962890625,0.03155424517095089,-0.039598727677762506,-0.0613878770943731
1633781437003997400,12.22699755859375,0.06451251192092895,0.08739449807554484,-0.0756369863949716
1633781437023876600,12.246876708984376,0.15634031626880168,0.21451602638363837,-0.09248265152741222
1633781437043755500,12.266755615234375,0.15879939985871314,0.27649112878143783,-0.11157204046603292
1633781437063634700,12.286634765625,0.03783025670051574,0.1966846016168594,-0.008626629776321351
1633781437083513600,12.306513671875,-0.061308747443556785,0.046638417056202884,-0.08200717901401221
1633781437103391700,12.326391845703125,0.038893502017855644,0.056652153809368604,-0.06694894528761505
1633781437123270400,12.3462705078125,-0.07552899597585201,0.05003916541039943,-0.010127499325945973
1633781437143149600,12.366149658203126,-0.07114215919375419,0.021897943553328515,-0.005491437023133039
1633781437163028700,12.38602880859375,-0.023743863680958748,-0.009142214615643024,-0.0045607685768976804
1633781437182907600,12.40590771484375,0.01650748268663883,-0.0281444367274642,-0.007038520334661007
1633781437202785500,12.42578564453125,0.034222587597370145,-0.02338087558746338,-0.018825477305427194
1633781437222665200,12.445665283203125,-0.062086746078729625,0.01218932722657919,0.03931424818057567
1633781437242544400,12.46554443359375,-0.1064379289805889,0.06332447118014096,0.11022073545493184
1633781437262423300,12.48542333984375,0.009952654215693474,0.12374357630759476,0.071754482405819
1633781437282301400,12.505301513671874,0.20205811134874818,0.12757570181638,0.0543101937931031
1633781437302180400,12.525180419921876,0.15175240395665168,0.0854155992180109,0.0015007234191522002
1633781437322059500,12.5450595703125,0.024019173491001126,0.03269260155111551,0.0681731533203274
1633781437341938200,12.564938232421875,-0.012993921607732772,0.02053045459240675,0.05488898006174713
1633781437361817300,12.5848173828125,0.07451485049724578,0.055323535554111,0.05689228270817548
1633781437381696500,12.604696533203125,0.1342190853536129,0.06205547415763139,0.043656551701202986
1633781437401574400,12.624574462890624,0.06121288585364818,-0.017414076137542724,0.0499477973325178
1633781437421453300,12.644453369140624,0.032660160586237906,-0.013025193528831004,0.06648761138617992
1633781437441332200,12.664332275390626,0.050606736165285104,-0.0060541854724287985,0.054064877262525256
1633781437461211400,12.68421142578125,-0.05258651180565357,-0.006051555123925209,0.029997590313479303
1633781437481090300,12.70409033203125,-0.14165361926853656,-0.020484277363121507,0.06234481249302625
1633781437500968400,12.723968505859375,-0.18608663523495197,0.02539367671459913,0.05365794042944908
1633781437520847400,12.743847412109375,-0.08179565515518188,0.0964952116370201,0.02903933974057436
1633781437540726500,12.7637265625,-0.003338204512000084,0.1102440432652831,0.003717193892225623
1633781437560605200,12.783605224609374,-0.021679916888475415,0.09055471567213534,0.0033340397935360667
1633781437580483300,12.8034833984375,-0.0044528877556324,0.0485462965041399,0.03105166594367474
1633781437600362200,12.8233623046875,-0.0037339258313179016,0.07788871084451675,0.037797486942075194
1633781437620241400,12.843241455078125,0.0692377868771553,0.0967050549954176,0.09720456548277288
1633781437640120300,12.863120361328125,0.14511398885548113,0.02697539294809103,-0.005649988585710525
1633781437659999500,12.88299951171875,0.22366788561046122,-0.029963176587224007,-0.041989933663234114
1633781437679877400,12.90287744140625,0.19378595756590367,-0.03981295495033264,-0.0011045637084171175
1633781437699756300,12.92275634765625,0.10912848323881626,-0.01580079572200775,0.002139277051016688
1633781437719635200,12.94263525390625,0.06396423038840293,0.013075170150399208,0.04644333287551999
1633781437739514400,12.962514404296876,-0.03243862679004669,0.013356325179338454,0.0604022270578891
1633781437759393500,12.9823935546875,-0.1715764638453722,-0.02821837874650955,0.06668795626387
1633781437779272200,13.002272216796875,-0.15927929233014582,-0.04792904138863086,0.045937283049523825
1633781437799150600,13.022150634765625,-0.05741057096123695,-0.04741787699609994,-0.0038766953028738496
1633781437819029200,13.042029296875,0.12005027474761008,-0.014816753120720385,-0.04912205056548118
1633781437838908400,13.061908447265624,-0.001603343543410301,-0.014185177218914031,-0.026890162350051105
1633781437858787300,13.081787353515624,-0.13750351385176182,0.03059475248903036,0.027527473872900006
1633781437878665500,13.10166552734375,-0.09042027563750743,0.056252340836822984,0.036044396197050806
1633781437898544400,13.12154443359375,0.0146352590739727,0.053824529168009755,-0.01564801631309092
1633781437918423300,13.14142333984375,-0.02870236287117004,0.09100888918042183,0.014871113656461238
1633781437938302200,13.16130224609375,0.005456511840224266,0.14742226579785347,-0.007817761078849435
1633781437958181400,13.181181396484375,0.029937457624077794,0.14342764320373536,-0.018146226336993275
1633781437978059300,13.201059326171874,0.07239712769091129,0.054581192754209036,-0.0634461978636682
1633781437997938400,13.2209384765625,0.14652151756584644,0.014900924272835254,-0.09518120642900467
1633781438017817300,13.2408173828125,0.057497664722800254,0.07556903572529554,-0.07844970572814344
1633781438037696300,13.2606962890625,0.008891162464022636,0.13462357450127602,-0.024506555149145424
1633781438057575400,13.280575439453125,-0.0523760839253664,0.11705810719430446,-0.03677943247333169
1633781438077453300,13.300453369140625,0.02223871981501579,0.08028934224545956,-0.033404658810608084
1633781438097332200,13.320332275390625,0.1127384904295206,0.03486205454468727,-0.03850961726680398
1633781438117211400,13.34021142578125,0.1084989531636238,-0.034947102479636664,-0.09092460843045264
1633781438137090600,13.360090576171874,0.07505319515764713,-0.022621289391815663,-0.10679671582300215
1633781438156969200,13.37996923828125,-0.05438274757266044,-0.013111995029449462,-0.008008570943214
1633781438176847400,13.399847412109375,0.011011223357915878,0.023794717085361478,-0.014374014321900903
1633781438196726300,13.419726318359375,0.1163116727411747,-0.005809563061594963,-0.02998374445121735
1633781438216604700,13.439604736328125,0.24985212818086147,-0.03319236776679754,-0.03774849670119584
1633781438236483600,13.459483642578125,0.25238778413832186,-0.08086217369735241,-0.0073863839242607355
1633781438256362800,13.47936279296875,0.025275311031937597,-0.1355760529205203,0.04897654114756733
1633781438276240600,13.49924072265625,-0.24502222380638122,-0.0681853552147746,0.0804125667663291
1633781438296119800,13.519119873046876,-0.29926000995039936,0.04426145879179239,0.11772994204126298
1633781438315998500,13.53899853515625,-0.059710080075263974,0.09329407750815152,0.05530472125578671
1633781438335877600,13.558877685546875,0.12902853097319603,0.043564708699285984,-0.1037300582613796
1633781438355756800,13.5787568359375,0.04824292964339256,0.03205342686474323,-0.06815594645719975
1633781438375634700,13.598634765625,-0.09549567920565605,0.12072247492074965,-0.07769972761105745
1633781438395513600,13.618513671875,-0.14255202941298484,0.21559330022633075,-0.015253062178753315
1633781438415392500,13.638392578125,-0.06055822133719921,0.1420250829294324,-0.024127163910120725
1633781438435271700,13.658271728515626,0.1634457643598318,0.08938976354598999,-0.08966989566162228
1633781438455150600,13.678150634765625,0.20740473307371138,0.0347299525976181,-0.0908129647495225
1633781438475028700,13.69802880859375,0.12528057661652564,-0.030853987947106358,-0.06776413412801921
1633781438494907600,13.71790771484375,0.030693244427442548,0.014110358417034148,-0.031807854605838654
1633781438514786800,13.737786865234375,-0.0152671272367239,0.0787754305511713,0.05201094040740281
1633781438534665500,13.75766552734375,-0.021125790137052534,0.08814034800678491,0.05808394017815589
1633781438554544600,13.777544677734374,0.12889233737289904,0.08826426664739846,0.05028481073454022
1633781438574422500,13.797422607421876,0.2229892556965351,0.01101502275019884,0.04435779530573636
1633781438594301700,13.8173017578125,0.23338673107028007,-0.09674597152769565,0.06557356528118252
1633781438614180600,13.8371806640625,0.18902678034007547,-0.1713774341419339,0.09057904639579355
1633781438634059800,13.857059814453125,-0.05701835677325725,-0.13455635448396205,0.13017558211646973
1633781438653938400,13.8769384765625,-0.20766893696784972,0.018290274450182914,0.24029037297889588
1633781438673816600,13.896816650390624,-0.15156301886439322,0.07797492782324553,0.20248758880719542
1633781438693695500,13.916695556640626,-0.09769114342331886,0.023884733456373212,0.06626436055693775
1633781438713574700,13.93657470703125,-0.04089958114326,-0.03220598707795143,0.010680493566207587
1633781438733453800,13.956453857421875,-0.09547638998329638,-0.050289048518240446,-0.006931625894084572
1633781438753331700,13.976331787109375,-0.19470190336704252,-0.008314239358901977,0.0035714652786031365
1633781438773210600,13.996210693359375,-0.21589549804329872,0.09194149385541676,0.03185900027118623
1633781438793089500,14.016089599609375,-0.17197861490547656,0.14016513427644967,-0.013934636523947119
1633781438812968700,14.03596875,-0.003584872749447822,0.11176584600508212,-0.06878763195686041
1633781438832847600,14.05584765625,0.0812637402355671,0.04652472754865884,-0.06462605529800057
1633781438852725800,14.075725830078126,0.09429273315668106,-0.01566927829682827,-0.07247267714515328
1633781438872604700,14.095604736328125,0.12178981189131736,-0.0005780921489000321,0.029070465531200167
1633781438892483600,14.115483642578125,0.12092998019158839,-0.03396218309551477,-0.008832308416254818
1633781438912362500,14.135362548828125,0.26635201208293435,-0.06261456934511661,0.030511567717604337
1633781438932241700,14.15524169921875,0.3284995484381914,-0.0703098000228405,-0.009744272162020206
1633781438952119600,14.17511962890625,0.2968646392464638,-0.04844400517344474,-0.02029109287858009
1633781438971998700,14.194998779296874,0.051723172974586486,-0.0011637830823659895,0.08796363973300904
1633781438991877600,14.214877685546876,-0.11888240001201629,0.02582593065202236,0.06768025523684919
1633781439011756500,14.234756591796875,-0.10614859064519405,0.07657149076610803,0.086555855294317
1633781439031635500,14.254635498046875,-0.08810264634490013,-0.000874152486026287,0.0026858780831098554
1633781439051513600,14.274513671875,-0.10173369681239128,-0.005052607214450836,-0.02551733962688595
1633781439071392500,14.294392578125,-0.11517945384085178,0.027642624685168263,-0.03145838358104229
1633781439091271700,14.314271728515624,-0.1010223336726427,0.11019026725143194,-0.06739902714267372
1633781439111150800,14.33415087890625,-0.08478314653337002,0.1515358385965228,-0.037981611337326464
1633781439131029500,14.354029541015626,-0.1076800379961729,0.03408347138762474,-0.03704115214943886
1633781439150907600,14.37390771484375,0.0010801964521408081,-0.036733401374518866,-0.07241305591240525
1633781439170786600,14.39378662109375,0.16969547240436075,0.018721067082881928,-0.08192381157949566
1633781439190665700,14.413665771484375,0.23903905774354933,0.08318214107751846,-0.09081336660832166
1633781439210544600,14.433544677734375,0.1810351970642805,0.016962240716814993,-0.07545684405509381
1633781439230423300,14.45342333984375,0.04773673368692398,-0.07509089681953192,-0.010372852389141917
1633781439250301200,14.47330126953125,0.0010147300004959105,-0.10594137763530015,0.02645692203193903
1633781439270180400,14.493180419921876,0.07502630715072155,-0.07492576938569545,-0.01648925291020423
1633781439290059000,14.51305908203125,0.08232230937778949,-0.06327975525557994,0.0228618932146579
1633781439309938200,14.532938232421875,0.018166940331459044,-0.06354834306389093,-0.03312273659668863
1633781439329816000,14.552816162109375,-0.14033786049485206,0.00419803621172905,-0.005415339579619467
1633781439349695200,14.5726953125,-0.2497808165103197,0.08017243786752223,0.09979918508585542
1633781439369574100,14.59257421875,-0.15409750577807427,0.04692074112892151,-0.009949220149591565
1633781439389453000,14.612453125,0.08789631011784076,-0.013781564854085444,-0.08653747938740998
1633781439409332000,14.63233203125,0.17285189060866832,-0.0895417392373085,-0.10482410057578236
1633781439429210000,14.652210205078125,0.21991116342544553,-0.06698854664564133,-0.12276523279473185
1633781439449089000,14.672089111328125,0.043161680856347084,0.0782131204932928,-0.048775063758715986
1633781439468968200,14.69196826171875,-0.03351297802329063,0.2163546399876475,0.03819503489229828
1633781439488847400,14.711847412109375,0.045341362982988354,0.16969927179664374,0.028275515761226413
1633781439508726000,14.73172607421875,0.19127134439647198,-0.01974661073833704,-0.027216033303551376
1633781439528604000,14.75160400390625,0.289594355982542,-0.1408019708752632,-0.037834969408251345
1633781439548483000,14.771483154296876,0.27984686895012856,-0.13297054659724233,-0.04414904792588204
1633781439568362200,14.7913623046875,0.048447512304782864,-0.04517769685387611,-0.0030859833166003224
1633781439588241200,14.8112412109375,-0.19408406372964382,0.11503946084827184,0.10718626312986015
1633781439608120300,14.831120361328125,-0.21135785461366174,0.18029373104721308,0.16142920037303118
1633781439627998200,14.850998291015625,-0.15166589471697806,0.08705956703275441,0.07969787915833294
1633781439647877000,14.870877197265624,-0.05040156898200512,0.009058335724473,0.03857917537167668
1633781439667756000,14.890756103515624,0.05016659118235111,-0.008045943811535835,0.021092180128395557
1633781439687635200,14.91063525390625,0.009033785805106163,0.008447510349750519,0.021667641928792
1633781439707514000,14.93051416015625,-0.05611117880046367,0.06340835007131099,0.07160824233554303
1633781439727392300,14.950392333984375,-0.11608370920419692,0.07043722579479217,0.11840572241097688
1633781439747271200,14.970271240234375,0.03280746010243892,0.05659224031567573,0.08250347463097422
1633781439767150000,14.990150146484375,0.206297648614645,0.0017228782698512077,0.0045502106502652165
1633781439787029000,15.010029052734374,0.3052928603738546,0.0015469371810555457,-0.04159870585594326
1633781439806908200,15.029908203125,0.22107845363914966,0.029805063416063784,0.04037753003053367
1633781439826786000,15.0497861328125,0.03954816653430462,0.04598696741014719,0.03786317258942872
1633781439846665200,15.069665283203125,0.012473697125911712,0.047022740198671815,0.0669809113284573
1633781439866544000,15.089544189453125,0.07968143948018551,0.015490706859529017,0.010616415354050696
1633781439886423000,15.109423095703125,0.17375322336256502,-0.04989420398175716,-0.06749423114545643
1633781439906301200,15.12930126953125,0.1512380246937275,-0.045019291421771045,-0.04637348250970244
1633781439926180000,15.14918017578125,0.04498246654272079,0.03690671211481094,0.0037442280296236274
1633781439946059300,15.169059326171874,-0.0666150371581316,0.09402999056726694,0.07065232985019683
1633781439965938200,15.188938232421876,-0.08619827402830123,0.09759177470207214,0.0977420698929578
1633781439985817000,15.208817138671876,-0.0663268678665161,0.038411855980753896,0.04578019279167056
1633781440005695200,15.2286953125,0.06343231546878814,0.02282908692359924,0.03097301121689379
1633781440025574100,15.24857421875,0.07390051799118519,-0.05168634809553623,-0.00008837240319699048
1633781440045453000,15.268453125,0.07909867115616798,-0.10029080452769994,0.005678337897360324
1633781440065332200,15.288332275390625,0.07074819144010544,-0.07556845120340586,0.014324731820076703
1633781440085211100,15.308211181640624,0.03183364663422107,-0.04457330121994018,0.07926789024323225
1633781440105089300,15.32808935546875,0.08676409121751785,-0.05997194588184356,0.04281330581009388
1633781440124968000,15.347968017578125,0.13316110073328016,-0.1520697993427515,-0.05248034801743924
1633781440144847000,15.36784716796875,0.08013152133524418,-0.12096505150496958,-0.04316489572674036
1633781440164726300,15.387726318359375,-0.06804302413463592,-0.025884382840991017,0.02045344383344054
1633781440184605200,15.407605224609375,-0.17787293364107606,0.06086918698251247,0.01998012723326683
1633781440204483000,15.427483154296874,-0.10664017355442046,0.09399053533971309,-0.003547024957090616
1633781440224362800,15.44736279296875,0.058087447309494014,0.06385580157786608,-0.08261555670332163
1633781440244242000,15.467241943359374,-0.03207037799954414,0.013153203822672366,-0.08645882466062903
1633781440264120800,15.487120849609376,-0.03172083390951157,0.034894495509564874,-0.05517926824521273
1633781440284000000,15.507,0.010343699359893798,0.010890227326750756,-0.02900061516538262
1633781440303878000,15.5268779296875,0.023562077373266217,0.023291151477396486,-0.014841376105323432
1633781440323757000,15.546757080078125,0.07847147916853428,0.048831835447251795,0.018171068517304954
1633781440343635700,15.5666357421875,0.06735737995803356,-0.01633504872918129,-0.009372516240179539
1633781440363515000,15.586514892578125,0.0925958661109209,-0.03551321192979812,-0.010498049671389162
1633781440383393800,15.606393798828124,0.1256523325383663,-0.06874532718509435,-0.062312736854329705
1633781440403272000,15.62627197265625,0.11723287923932074,-0.04800386019051075,-0.08994162527509034
1633781440423150800,15.64615087890625,0.07750058830976486,0.0500821277692914,-0.052468365318700666
1633781440443029800,15.66602978515625,-0.04391103791892528,0.10792290684133768,-0.005683671659603715
1633781440462908700,15.68590869140625,-0.1261614511042833,0.08456336630284786,-0.03800835321377963
1633781440482786800,15.705786865234375,-0.012693477356433868,0.1049696099936962,-0.04114752802234143
1633781440502665700,15.725665771484374,0.09252689252793789,0.09567045125067233,-0.013901063047908245
1633781440522545000,15.745544921875,0.08218611577749252,0.039711248141527176,-0.01958466164227575
1633781440542424000,15.765424072265626,0.1258183367550373,0.027658406776189803,-0.020669497736915943
1633781440562302700,15.785302734375,0.0994189901292324,0.046024084550142286,-0.01696998563185334
1633781440582180900,15.805180908203125,0.07390811677575111,0.05652092864513397,0.02839410063959658
1633781440602059800,15.825059814453125,0.11277239269912243,-0.02968319060206413,0.01964629216901958
1633781440621939000,15.84493896484375,0.1318137777775526,-0.09973580099344254,0.032659356868639584
1633781440641817900,15.86481787109375,0.09404664944112301,-0.10757599309980868,0.0647868718829006
1633781440661697000,15.884697021484374,0.03277764948606491,-0.04814239187836647,0.1235723844591528
1633781440681575000,15.904574951171876,-0.05351414804458618,-0.08668634980618953,0.15600523909553884
1633781440701453800,15.924453857421875,0.04469488177299499,-0.1605436131775379,0.06624532706290483
1633781440721332700,15.944332763671875,0.11838789449334144,-0.1434995393961668,-0.0012820026345551014
1633781440741212000,15.9642119140625,0.023203180932998654,-0.0491693968385458,0.026571853648498654
1633781440761090800,15.9840908203125,-0.04530746071338653,0.04789046294391155,0.08501922031156718
1633781440780969000,16.003968994140624,-0.04526186800599098,0.04659808504581451,0.05249788367412984
1633781440800848000,16.023847900390624,-0.027221184402704237,-0.0017617489755153656,0.006217924666777253
1633781440820726800,16.043726806640624,-0.0053355158090591425,0.024209143105149267,0.011272979566641151
1633781440840605700,16.063605712890624,0.10957739605009555,0.0786141025096178,-0.035595556451007725
1633781440860484900,16.08348486328125,0.21287878057062626,0.10654606553018092,-0.0709673140835017
1633781440880362800,16.10336279296875,0.24787118349671364,0.09480068267881869,-0.09305230464152991
1633781440900242000,16.123241943359375,0.1720107636094093,0.02135609176158905,-0.09530644024387001
1633781440920120800,16.143120849609375,0.17166531117260456,0.05051321266293526,-0.0594942453674972
1633781440939999700,16.162999755859374,0.034549919855594635,0.028982348856329915,-0.013920206139795482
1633781440959879000,16.18287890625,0.025676293048262595,0.021419804647564888,0.01752188389357179
1633781440979756800,16.2027568359375,-0.005447744011878967,-0.017256255227327346,0.013494783801957963
1633781440999636000,16.222635986328125,-0.03485562480390072,-0.0023947861820459364,0.10272314624115825
1633781441019515000,16.242514892578125,-0.055103463062644,-0.029558979700505732,0.08170841526314616
1633781441039393800,16.262393798828125,0.03569382919371128,-0.09512100067436695,0.04464709710851311
1633781441059272000,16.28227197265625,-0.021185411369800566,-0.14087328254580497,0.0560270076483488
1633781441079150800,16.30215087890625,0.12105097622275351,-0.08648673558086156,0.08253449082374573
1633781441099029800,16.32202978515625,0.19345979435145855,-0.06896189254522324,-0.010320903006196022
1633781441118909000,16.341908935546876,0.16681436401009558,-0.07335808167755603,0.0037169746965169904
1633781441138787800,16.361787841796875,-0.008751461732387542,-0.011197101318836212,0.012874861805327235
1633781441158666000,16.381666015625,-0.09360299732685089,0.04442161778956651,0.028869609196856615
1633781441178544600,16.401544677734375,-0.1072358013600111,-0.005203998383879661,-0.044051323172450065
1633781441198423800,16.421423828125,-0.02591886963248253,-0.059223173341155046,-0.06522734565939754
1633781441218304000,16.441303955078126,-0.006990297278761863,-0.05773381156623363,-0.09112893536351621
1633781441238182700,16.4611826171875,0.05071370367109775,0.03428717726618051,-0.06778320415467023
1633781441258061000,16.48106103515625,-0.03737140701711177,0.09875818813294172,-0.06239738293047994
1633781441277939700,16.500939697265625,-0.1623433560758829,0.15457126076966524,0.0052783057291060686
1633781441297819000,16.52081884765625,-0.20585984171926974,0.08779168069958686,0.044876229689270256
1633781441317697800,16.54069775390625,-0.08825111490488052,0.006470365057885646,-0.018545125994086264
1633781441337577000,16.560576904296877,-0.029838088902831076,-0.12830986130982636,-0.06262030496615915
1633781441357454800,16.580454833984376,-0.04240004883408546,-0.06557663402110338,-0.026549714881926773
1633781441377333800,16.600333740234376,-0.043732758742570876,0.00845657043904066,-0.023111484061554072
1633781441397212700,16.620212646484376,0.04024900828003883,0.03985650183111429,-0.010041355412453412
1633781441417091800,16.640091796875,0.005251344656944275,-0.020899287904798985,-0.027832119375281034
1633781441436969700,16.6599697265625,-0.032251579785346984,-0.03722615332752466,-0.04703406531028449
1633781441456849000,16.679848876953123,-0.0909533596009016,0.08825345299243927,0.008036591461300849
1633781441476728000,16.69972802734375,-0.07045885310471058,0.21614888828247783,0.0627656682536006
1633781441496606700,16.719606689453126,-0.04059095358550548,0.17968962767422197,0.056803143119998276
1633781441516486000,16.73948583984375,0.0005851064115762711,0.05688888517469167,-0.013526713310182095
1633781441536363800,16.75936376953125,0.07899462625980377,0.0012955927684903145,-0.005676803527399897
1633781441556243000,16.779242919921874,0.17460194914638996,0.010432254426181316,-0.02379391336776316
1633781441576121900,16.799121826171874,0.29834874032437797,0.028054420356452465,-0.05737093307059258
1633781441596001000,16.8190009765625,0.20187807860672471,0.024612755469977855,-0.04524667043685913
1633781441615879700,16.838879638671877,0.011149170523881912,0.05351677839308977,0.008010434106737374
1633781441635757800,16.8587578125,-0.07713350856304169,0.06557780306488276,0.08934541294761002
1633781441655636700,16.87863671875,-0.10106617281436919,0.018394319346547127,0.0472731347631663
1633781441675516000,16.898515869140624,0.013265139764547348,0.007548807944357395,0.03595167641229927
1633781441695394800,16.918394775390624,0.028103227934241293,-0.024347674793004988,0.013510200566798448
1633781441715274000,16.93827392578125,0.031739538609981535,0.02552402509599924,0.08058412394095212
1633781441735151900,16.95815185546875,0.05189443788826465,0.0369368149921298,0.08390504852458834
1633781441755030800,16.97803076171875,0.008778934261202812,0.08547492818981409,0.09449808300305157
1633781441774909700,16.99790966796875,-0.02360299390554428,0.15044541301131248,0.07890366004072129
1633781441794788900,17.017788818359374,-0.025465865167975422,0.1702878853395581,0.02890533809736371
1633781441814668000,17.03766796875,-0.14114391618072986,0.12752075675874947,0.06458868242967873
1633781441834546000,17.0575458984375,-0.11758476141691207,0.015226502965390682,0.06661423344053327
1633781441854424800,17.0774248046875,0.048213119027018546,-0.11407675329595804,-0.0633530031548813
1633781441874303700,17.0973037109375,0.18972236138880252,-0.14729308646023273,-0.03649904462937265
1633781441894183000,17.117182861328125,0.1492635097503662,-0.12393062331229447,-0.023506474728509783
1633781441914061800,17.137061767578125,0.08584989898204803,-0.05437514878809452,0.026007753492332992
1633781441933940000,17.15693994140625,0.0637257454574108,0.0352004927188158,0.08036006939411162
1633781441953819000,17.17681884765625,0.055070145314931866,0.05292524224072694,0.06798522953279316
1633781441973697800,17.19669775390625,0.09211012842059135,0.026971301294863224,0.09113134651631116
1633781441993576700,17.21657666015625,0.15579028117060661,-0.022733517594635485,0.06233867501318455
1633781442013454800,17.236454833984375,0.06551964313685893,-0.014118833984434604,0.03336125806029886
1633781442033333800,17.256333740234375,0.012981646648049353,0.0766036394700408,0.09410765891335904
1633781442053213000,17.276212890625,-0.04698562305867671,0.10867284842580556,0.026540691325254738
1633781442073091800,17.296091796875,0.023829788398742675,0.16445114201009273,0.038857992313057185
1633781442092970800,17.315970703125,0.09046879095435142,0.09230886586308479,-0.033037469466030596
1633781442112848600,17.3358486328125,0.19280220722556113,0.025353344704210756,-0.04299352121520787
1633781442132727800,17.355727783203125,0.17249883938729763,-0.04012918129265308,-0.08061619957964866
1633781442152607000,17.37560693359375,0.17237082909345625,-0.010589490814507007,-0.031279921741597355
1633781442172486000,17.39548583984375,0.09678981066942215,0.005644435627758503,0.01510550693422556
1633781442192365000,17.415364990234377,0.043535190343856806,-0.030952187624573704,0.012020473465695977
1633781442212243000,17.435242919921876,0.033226562297344206,-0.047050504988431927,0.0005757175287231803
1633781442232121000,17.45512109375,0.09627835401594638,-0.03728782038688659,0.014062829480879007
1633781442252000000,17.475,0.1010007063627243,-0.0697542119666934,-0.015091186147928237
1633781442271879000,17.49487890625,0.023009704187512397,-0.06786766756772994,0.00955426601525396
1633781442291756800,17.5147568359375,-0.062039399805665016,-0.06930091524124145,0.05052245541531592
1633781442311636000,17.534635986328126,-0.14053425984978676,-0.0016968670457601547,0.04057999380007386
1633781442331515100,17.55451513671875,-0.11781681660711765,0.10572656584084034,0.06816095142588019
1633781442351394000,17.57439404296875,-0.04640869995355606,0.0910275938808918,-0.002466682374477386
1633781442371273000,17.59427294921875,0.020182956328988075,0.038215456625819204,-0.048651656574755904
1633781442391150800,17.61415087890625,0.06152735863029957,-0.016874270172417164,-0.06982965182308107
1633781442411030000,17.634030029296873,0.0875935277789831,-0.04802373393476009,-0.09763239897340535
1633781442430909000,17.653908935546873,0.11236731902956962,0.05610971749573946,-0.005225625693798065
1633781442450788000,17.6737880859375,0.027125907334685322,0.06223989081382751,0.015194756120257079
1633781442470667000,17.6936669921875,-0.008811082965135573,0.033712007726728915,0.07154460251480341
1633781442490545200,17.713545166015624,0.024347090271115302,-0.011442308251559733,0.07250278002247214
1633781442510423800,17.733423828125,0.14061726195812224,-0.03567541675418615,0.029365320291928947
1633781442530303000,17.753302978515624,0.25339608439803124,-0.015681845517456532,0.024056327163614333
1633781442550182000,17.773181884765624,0.1334042618393898,-0.017583587485551833,0.015413184643909334
1633781442570061000,17.79306103515625,0.025249592068791387,0.023743863680958748,0.06807279821839184
1633781442589939000,17.81293896484375,-0.08161737597882747,0.028920974057912826,0.047588740050978955
1633781442609817900,17.83281787109375,-0.02395546060502529,0.024754209767282008,0.07739636075031012
1633781442629697000,17.852697021484374,-0.0015244330883026121,-0.038057051193714136,0.031539960917271674
1633781442649576000,17.872575927734374,-0.09433189612329006,-0.03624152620434761,0.0341905484912917
1633781442669455000,17.892455078125,-0.0640045623987913,0.04887859719842672,0.04210954145491123
1633781442689333000,17.9123330078125,0.020609072786569593,0.07684650831520556,-0.012903539910539984
1633781442709212200,17.932212158203125,0.04144318650066852,0.029950901627540587,-0.052126968002505596
1633781442729090800,17.9520908203125,0.1117582472205162,-0.023923896422982215,-0.09515640078131109
1633781442748970000,17.971969970703125,0.10318214205503463,0.027355916698276996,-0.06201309632062912
1633781442768848000,17.991847900390624,0.06888005948066711,0.1051598718687892,-0.029574907921999693
1633781442788727000,18.01172705078125,-0.04738192889988422,0.141788936085999,-0.0026368513096123934
1633781442808606000,18.03160595703125,-0.06796703628897667,0.12120061382651329,0.06912179581467062
1633781442828485000,18.051485107421875,-0.07226677930951118,-0.002029167740046978,0.05583152160886675
1633781442848363800,18.07136376953125,0.023619360518455503,-0.08024404179900885,0.009434913951903582
1633781442868242000,18.091241943359375,0.04993044433891773,-0.10085925206542014,-0.005618314805813133
1633781442888120800,18.111120849609375,0.04135784630477428,-0.0530275335714221,0.008961633884347975
1633781442908000000,18.131,0.03037760260701179,-0.001874269439280033,-0.03886212049890309
1633781442927879000,18.15087890625,-0.029213235002756115,0.06961684932261705,-0.01044759812578559
1633781442947758000,18.170758056640626,-0.08199673068523407,0.10370265879780054,-0.0193453364610672
1633781442967636000,18.190635986328125,-0.07413023509383201,0.10988427004218101,0.010969174314476549
1633781442987515000,18.210514892578125,0.04190905044674873,0.04257745122760534,-0.024182912685349583
1633781443007394000,18.23039404296875,0.07842997811436653,0.04783960953950882,-0.02843103511650115
1633781443027273000,18.25027294921875,0.005952770924568176,0.06234072083979845,0.00910991978123784
1633781443047152000,18.270152099609376,-0.07497896087765693,0.06054360828995704,0.04035802161246538
1633781443067030000,18.290030029296876,0.025168343526124952,0.0030345453903079032,0.004372442930564284
1633781443086909000,18.309908935546876,0.13769056085646153,-0.012567805150151252,-0.00040284517984837294
1633781443106787800,18.329787841796875,0.09922025268673897,0.004821721068024635,-0.00940148660633713
1633781443126667000,18.3496669921875,0.05673661722242832,0.05526625240892172,-0.004815875849127769
1633781443146546000,18.3695458984375,0.0004278700232505798,0.045996319760382175,0.0040300592336803675
1633781443166424000,18.389424072265626,-0.018675474375486372,0.039052491971850394,-0.02253602226115763
1633781443186303000,18.409302978515626,0.033815760362148284,0.03529693883061409,-0.02015855254009366
1633781443206182000,18.429181884765626,0.1443880126684904,0.036954058387875556,-0.05871032844819128
1633781443226060000,18.44906005859375,0.13093933303058147,0.012205109317600726,-0.048787557914108035
1633781443245938200,18.468938232421873,-0.023659108006954192,0.04142272823452949,-0.03904255509972572
1633781443265817000,18.488817138671877,-0.09823884043395519,0.08923749559372662,0.0625902386214584
1633781443285696000,18.508696044921876,-0.04790507599115371,0.08485971890091895,0.0066147784972563385
1633781443305575200,18.5285751953125,0.16173136165738106,0.04964285956919193,-0.06918886970151215
1633781443325454000,18.5484541015625,0.15557985329031943,0.04666296697556972,-0.058918564371392125
1633781443345332200,18.568332275390624,0.024983634608983993,-0.013460370075702666,0.03721676444467157
1633781443365211100,18.588211181640624,-0.14685469504296778,-0.013543956705927849,0.059728638645261525
1633781443385090000,18.608090087890623,-0.1366279000610113,0.03409925347864628,0.0554430337479338
1633781443404969200,18.62796923828125,0.023509470403194427,0.06032265901565551,0.026450674954243004
1633781443424848100,18.64784814453125,0.19664836125969887,0.028527590826153755,-0.052672509588673706
1633781443444726000,18.66772607421875,0.10453531022965908,-0.03408288686573505,-0.054847442474961275
1633781443464605200,18.687605224609374,-0.10560790789723395,-0.007880524116754531,-0.0009467793308198452
1633781443484484000,18.707484130859374,-0.2406786416441202,0.06402998910099268,0.08688516031391919
1633781443504363000,18.727363037109374,-0.01957446904182434,0.09522241522222757,0.08414517742339521
1633781443524242200,18.7472421875,0.12709434804022313,0.0161035780608654,0.015564941139519214
1633781443544120000,18.7671201171875,0.07535188584327697,-0.02307750872671604,0.012630860449001193
1633781443563999200,18.786999267578125,-0.021324527579545973,0.016314882723987102,0.07505597163662314
1633781443583878100,18.806878173828125,-0.0591033463537693,0.011053308933973311,0.06471022645011544
1633781443603757000,18.826757080078124,-0.02949497455358505,-0.047777357958257195,0.03264145588576794
1633781443623635000,18.846635009765624,0.10353343971073627,-0.05272767384201288,-0.013382774794846772
1633781443643514000,18.86651416015625,0.14150047453343867,0.005056114345788955,0.012014920507743955
1633781443663393000,18.88639306640625,0.0808884771823883,0.01964198132008314,-0.016259060883522032
1633781443683272200,18.906272216796875,0.0582405920445919,0.03955839566737413,0.04229333705659955
1633781443703151000,18.926151123046875,-0.007411153039336204,0.020649697057902813,0.04705759231634438
1633781443723029200,18.946029296875,-0.04456745600104332,0.03167699476778507,0.020867577592283484
1633781443742908000,18.965907958984374,-0.011738368588685988,0.00026829554736614226,0.01332571084536612
1633781443762787000,18.985787109375,0.13076689907312392,-0.007734101383388042,-0.03274425867311656
1633781443782666200,19.005666259765626,0.17882979597449303,0.00509469279050827,-0.060370735941082235
1633781443802545200,19.025545166015625,0.06752747582793235,0.024271979208290575,-0.012105850194208323
1633781443822423000,19.045423095703125,-0.0774380444675684,-0.0027335166171193123,0.005193367392010986
1633781443842302200,19.06530224609375,-0.09532733690142631,-0.008886778549849986,-0.019956819422915578
1633781443862181000,19.08518115234375,-0.030569910308718678,0.030179449686408042,0.017607699013501406
1633781443882060000,19.10506005859375,-0.06239537363648414,-0.048669338361918925,-0.00717106067314744
1633781443901939200,19.124939208984376,-0.06947860989570617,-0.027899522055685518,-0.006113368313759565
1633781443921817000,19.144817138671876,-0.023137129959464073,0.07762976764738559,-0.014384791444242
1633781443941696300,19.1646962890625,0.040085926672816276,0.10562193642258644,-0.02228186483699828
1633781443961575000,19.184574951171875,-0.004690203642845153,0.03687631697654724,-0.07546502736154943
1633781443981454000,19.2044541015625,0.042165071034431456,0.01024520742148161,-0.043325529648549854
1633781444001332000,19.22433203125,0.10035071802139281,0.029085809230804442,-0.0630817119328305
1633781444021211100,19.244211181640626,-0.017263269490003584,0.05411386750340461,-0.009474223048985004
1633781444041090000,19.264090087890626,-0.11229250022768973,0.1179798982143402,0.038492593066766854
1633781444060969200,19.28396923828125,-0.009915829336643218,0.11127718570530414,0.053053033338859676
1633781444080848100,19.30384814453125,0.09685176998972893,-0.00436053329706192,-0.005540390731394291
1633781444100726000,19.32372607421875,0.16440145764946937,-0.0825815448358655,-0.03304974442571401
1633781444120605000,19.34360498046875,0.13182429917156696,-0.042919396533071995,-0.026155199139006435
1633781444140484000,19.363484130859376,0.07916881378293036,0.011120236690342426,0.0373627853192389
1633781444160363300,19.38336328125,-0.06525368567705155,0.04801408932358026,0.05414630846828222
1633781444180242200,19.4032421875,0.00635433746278286,0.04800064532011747,0.049683410775288935
1633781444200120300,19.423120361328124,0.0028635727375745774,-0.014765899716317653,0.02289214222244918
1633781444219999000,19.4429990234375,0.012231705063581465,-0.09314414764344692,0.0812624250613153
1633781444239878100,19.462878173828123,0.20992986763715743,-0.092334584826231,-0.07712525219134986
1633781444259757000,19.482757080078127,0.08442892626821995,0.009717676416039467,-0.053203584258072076
1633781444279636200,19.50263623046875,-0.060488078710436814,0.04826923312842846,0.016299539024382827
1633781444299514000,19.52251416015625,-0.05276771359145641,0.057710430690646165,0.009673179687187075
1633781444319393300,19.542393310546874,0.08032733616828917,0.1229167700946331,-0.014874109331145881
1633781444339272000,19.56227197265625,0.11830080073177814,0.06552782644331455,-0.02371945989206433
1633781444359151000,19.582151123046874,0.0387210680603981,-0.033193536810576914,-0.01066701303012669
1633781444379030000,19.602030029296873,-0.04830138183236122,-0.053286184507608414,-0.0020682941740378736
1633781444398908200,19.621908203125,-0.09573474865853786,0.03199088302254677,0.08330310057606548
1633781444418787000,19.641787109375,-0.10200082331597804,0.06312807182520627,0.06916530616283416
1633781444438666000,19.661666015625,0.045938744354248044,-0.010858078622817992,0.010824395548924804
1633781444458545200,19.681545166015624,0.20995909373164176,-0.09214753782153129,-0.09477649808563292
1633781444478423000,19.701423095703124,0.27972470387518406,-0.07024930200725793,-0.1174202185049653
1633781444498302000,19.721302001953124,0.08318331012129783,-0.011091595117747783,-0.04429368056096136
1633781444518181000,19.74118115234375,-0.04660393026471138,0.10512743090391158,0.06680014793407171
1633781444538060300,19.761060302734375,-0.15066051706671713,0.05756313117444515,0.06131305829249322
1633781444557939000,19.78093896484375,0.017015432208776472,0.08387333821207285,0.03662095397599041
1633781444577817000,19.800817138671874,0.09995850383341312,0.06398322734981775,0.030848946445807813
1633781444597696000,19.820696044921874,-0.02935293573439121,-0.002391279050707817,0.037092370880022645
1633781444617575200,19.8405751953125,-0.08408464287519454,-0.02357902850806713,0.039440212647803126
1633781444637454000,19.8604541015625,0.04662438853085041,0.020809563794732092,0.0588015869282186
1633781444657333200,19.880333251953125,0.13109715394079685,0.04195844254642725,-0.005749028513394296
1633781444677211100,19.900211181640625,0.13691899196207521,0.09236234961599112,0.038690928650461136
1633781444697090000,19.920090087890625,0.08414894028306007,0.10711597437262535,0.018353804673068224
1633781444716969000,19.939968994140624,0.08899579579234122,0.11687427505999803,0.018169716810435055
1633781444736848100,19.95984814453125,0.12000935821533203,0.06447188764959573,0.03525945636443793
1633781444756727000,19.97972705078125,0.15243395648002622,-0.018336451679468155,0.01921228466592729
1633781444776605200,19.999605224609375,0.15933423738777636,-0.054635261029005046,0.02295256717279553
1633781444796484000,20.019484130859375,0.15652034901082515,-0.09480155946165322,-0.0016375380739569662
1633781444816363000,20.039363037109375,0.08196750459074974,-0.1254895431920886,0.0001581131711602211
1633781444836242200,20.0592421875,-0.06098959849178791,-0.02933072390258312,0.023925576923415064
1633781444856120000,20.0791201171875,-0.23185469919741153,-0.023792963519692418,0.10737228722125292
1633781444875999200,20.098999267578126,-0.18672259505093097,-0.06697597942501306,0.054180393400974566
1633781444895878100,20.118878173828126,-0.049990650093555446,0.012203355751931667,-0.029257768264226613
1633781444915757000,20.138757080078125,-0.08227613214850425,0.08282908985614776,0.07114391275942325
1633781444935636000,20.158635986328125,-0.18332067765295504,0.056038698086142535,0.04086662872172892
1633781444955514000,20.17851416015625,-0.174799517545104,0.10412146873176097,-0.005978014963679015
1633781444975393000,20.19839306640625,0.023648586612939834,0.13961159204691648,-0.004070975765958428
1633781444995272200,20.218272216796876,0.20248422780632971,0.02903320226073265,-0.12883081644400954
1633781445015151000,20.238151123046876,0.31826573919355866,-0.01395604463815689,-0.18505159309878944
1633781445035030000,20.258030029296876,0.282070974740386,0.05832417867481708,-0.1146315011018887
1633781445054908200,20.277908203125,0.09077800303399562,0.17231413047015665,-0.034991233882308
1633781445074787000,20.297787109375,0.004601356315612793,0.20234540385752914,0.025077888763695953
1633781445094666000,20.317666015625,-0.05310848985314369,0.0969441244482994,0.022764278059080243
1633781445114545200,20.337545166015627,0.06650923869609833,-0.04692833991348743,-0.010863558515533804
1633781445134424300,20.35742431640625,0.06879647285044192,-0.10456482858508824,0.009378507589548826
1633781445154302200,20.37730224609375,-0.03490297107696533,-0.06549246286898851,0.05460987085942179
1633781445174180900,20.397180908203126,-0.05970306581258773,-0.03256722160577774,0.05118530323822051
1633781445194060000,20.41706005859375,0.009797755914926529,-0.03272475025504827,0.04607333051934838
1633781445213939200,20.436939208984374,0.08296119180321693,-0.08240355792045592,-0.027564116088859735
1633781445233819000,20.45681884765625,-0.029880759000778197,-0.08732844710201025,0.004886676063016056
1633781445253697000,20.476697021484377,-0.12593874826431273,0.014662147080898283,0.11326949203368275
1633781445273575700,20.49657568359375,-0.02257423537969589,0.05923194116950035,0.021060031424462795
1633781445293454800,20.516454833984376,0.07643383586108685,0.055693245649337766,-0.011054551042988896
1633781445313333800,20.536333740234376,0.07825988224446773,0.049209728848934174,-0.06975465035811067
1633781445333212000,20.5562119140625,0.10795768589377402,0.03041559652984142,-0.08474412969723344
1633781445353090800,20.5760908203125,0.0353746802419424,0.0629810645699501,-0.04334215198978782
1633781445372970000,20.595969970703123,0.08918459636270999,0.1149216796875,-0.03843362942114472
1633781445392849000,20.615848876953127,0.11712766529917716,0.09205810597240924,-0.009035393240302801
1633781445412727800,20.635727783203127,0.08338789278268814,-0.024508418312668798,-0.02961385169290006
1633781445432605700,20.655605712890626,0.007311784318089484,0.0018576105654239655,0.038710327470675106
1633781445452484900,20.67548486328125,-0.03962473890185356,-0.019758593437075613,0.06086012689322233
1633781445472364000,20.695364013671874,-0.07153554242551326,-0.06711947954893112,-0.0006111907009035348
1633781445492242700,20.71524267578125,0.055357730084657664,-0.0480319172412157,0.07200586335100233
1633781445512121900,20.735121826171873,0.12236147429943084,-0.028436989933252332,-0.03159099698476493
1633781445531999700,20.754999755859377,0.19330080439746378,-0.03926642698347568,-0.04100589106194675
1633781445551879000,20.77487890625,0.07246493223011494,-0.0975888520926237,-0.06232705764062702
1633781445571757800,20.7947578125,-0.13752631020545958,-0.03443009286820888,0.004403568721190095
1633781445591637000,20.814636962890624,-0.12404372829794882,0.128323597574234,0.0808439073882997
1633781445611515000,20.834514892578124,-0.05207797776162624,0.13440087166130543,0.07486702493578196
1633781445631393800,20.854393798828124,0.06496142473220824,0.040595045238733286,0.015002265755459666
1633781445651272700,20.874272705078123,0.14834288777410984,-0.03717383861839771,-0.014379165421053766
1633781445671151900,20.89415185546875,0.11359072334468365,0.0038753801286220547,-0.01964490392953157
1633781445691030800,20.91403076171875,0.2299170091331005,0.09101239631175995,0.012525354247912764
1633781445710909000,20.933908935546874,0.12850012318491935,0.03675765903294086,-0.054921165298298
1633781445730787800,20.953787841796874,-0.1579693787753582,-0.0005044423907995223,0.06402056368552148
1633781445750666800,20.973666748046874,-0.44575522403120993,0.0048012628018856045,0.13470219269543884
1633781445770546000,20.9935458984375,-0.3637959027469158,0.07361468678712844,0.1786506400153041
1633781445790424800,21.0134248046875,0.7625818703323602,-0.047052843075990676,-0.11234912578575312
1633781445810302700,21.033302734375,0.155489252397418,-0.12867138809859752,-0.31009025071822105
1633781445830182000,21.053181884765625,0.08549860132634639,0.1494943958967924,0.11257942741028965
1633781445850061000,21.07306103515625,-0.21084756700396537,-0.044637598627805704,-0.03162365714535117
1633781445869939700,21.092939697265624,-0.008089782953262329,0.042970542198419566,0.09758600254841149
1633781445889819000,21.11281884765625,0.11844342407286167,-0.20697160235345363,-0.14801855119056997
