 Acc_timestamp,Accx,Accy,Accz,Gyro_timestamp,Gyrox,Gyroy,Gyroz,Baro_timestamp,Pressure_Reading
 647553024.000000, 0.892523 , 1.667797, 9.540184, 0.000000, 0.000000,  0.000000,  0.000000, 0.000000,  0.000000
 16384.000000, 0.535992 , 0.509671, 9.284152, 0.000000, 0.000000,  0.000000,  0.000000, 0.000000,  0.000000
 40960.000000, 0.655633 , 0.363709, 9.547362, 0.000000, 0.000000,  0.000000,  0.000000, 0.000000,  0.000000 
 57344.000000, 0.782453 , 0.488136, 10.052249, 0.000000, 0.000000,  0.000000,  0.000000, 0.000000,  0.000000 
 81920.000000, 0.473779 , 0.583849, 10.559525, 88533065728.000000, 2.170000,  -29.469999,  -30.870001, 0.000000,  0.000000 
 98304.000000, 0.186640 , 0.279960, 10.482956, 88533090304.000000, 2.170000,  -29.469999,  -30.870001, 0.000000,  0.000000 
 114688.000000, -0.059821 , -0.002393, 10.097712, 88533106688.000000, -4.340000,  22.889999,  7.770000, 0.000000,  0.000000 
 139264.000000, 0.162712 , -0.102891, 9.903893, 88533123072.000000, -4.690000,  14.070000,  1.750000, 0.000000,  0.000000 
 155648.000000, 0.416351 , 0.358923, 9.683753, 0.000000, 0.000000,  0.000000,  0.000000, 0.000000,  0.000000 
 180224.000000, 0.492921 , 0.811167, 9.504292, 88533164032.000000, 17.850000,  -2.800000,  1.820000, 0.000000,  0.000000 
 196608.000000, 0.514457 , 1.062413, 9.461221, 88533188608.000000, 21.070000,  -4.340000,  0.840000, 0.000000,  0.000000 
 221184.000000, 0.579063 , 1.033699, 9.468399, 88533204992.000000, 14.700000,  -2.590000,  -0.770000, 0.000000,  0.000000 
 237568.000000, 0.696311 , 0.760918, 9.367901, 88533229568.000000, 4.830000,  -1.120000,  -2.800000, 88480186368.000000,  1009.535339 
 253952.000000, 0.581456 , 0.468993, 9.619147, 88533245952.000000, -3.430000,  -0.070000,  -3.150000, 0.000000,  0.000000 
 278528.000000, 0.782453 , 0.547956, 10.018748, 88533262336.000000, -3.290000,  1.050000,  -1.890000, 0.000000,  0.000000 
 294912.000000, 0.780060 , 0.667598, 9.688539, 88533286912.000000, 1.400000,  0.210000,  -2.100000, 0.000000,  0.000000 
 319488.000000, 0.921237 , 0.574277, 9.564112, 88533303296.000000, 5.040000,  -0.490000,  -0.140000, 0.000000,  0.000000 
 335872.000000, 1.033699 , 0.476172, 9.736395, 88533327872.000000, 3.430000,  -1.470000,  1.190000, 0.000000,  0.000000 
 360448.000000, 1.055235 , 0.428315, 9.535398, 88533344256.000000, 0.070000,  -2.730000,  0.560000, 0.000000,  0.000000 
 376832.000000, 0.995414 , 0.394816, 9.195618, 88533368832.000000, 1.260000,  -2.240000,  0.630000, 0.000000,  0.000000 
 401408.000000, 1.076770 , 0.531207, 9.157332, 88533385216.000000, 2.240000,  -2.100000,  1.470000, 0.000000,  0.000000 
 417792.000000, 0.954736 , 0.497707, 9.028119, 88533409792.000000, 0.140000,  -0.980000,  2.520000, 0.000000,  0.000000 
 434176.000000, 1.033699 , 0.354138, 9.279366, 88533426176.000000, -3.360000,  1.330000,  2.030000, 0.000000,  0.000000 
 458752.000000, 0.959522 , 0.368495, 9.793823, 88533442560.000000, -6.720000,  2.660000,  1.540000, 0.000000,  0.000000 
 475136.000000, 0.610170 , 0.344566, 9.961320, 88533467136.000000, -7.980000,  4.970000,  0.840000, 0.000000,  0.000000 
 499712.000000, 0.306281 , 0.430708, 9.772287, 88533483520.000000, -3.640000,  8.330000,  -1.050000, 0.000000,  0.000000 
 516096.000000, 0.212961 , 0.624527, 9.681360, 88533508096.000000, 1.470000,  8.890000,  -1.890000, 0.000000,  0.000000 
 540672.000000, 0.253639 , 0.574277, 9.863215, 88533524480.000000, 2.100000,  6.650000,  -3.360000, 0.000000,  0.000000 
 557056.000000, 0.413958 , 0.519243, 10.195816, 88533549056.000000, -1.470000,  3.430000,  -3.430000, 0.000000,  0.000000 
 581632.000000, 0.327817 , 0.598206, 10.076177, 88533565440.000000, -3.780000,  0.490000,  -3.360000, 0.000000,  0.000000 
 598016.000000, 0.253639 , 0.641276, 9.731609, 88533590016.000000, -0.070000,  -0.700000,  -4.060000, 0.000000,  0.000000 
 614400.000000, 0.488136 , 0.641276, 9.650253, 88533606400.000000, 3.780000,  -2.520000,  -4.970000, 0.000000,  0.000000 
 638976.000000, 0.500100 , 0.512064, 9.516255, 88533622784.000000, 2.170000,  -4.620000,  -3.850000, 0.000000,  0.000000 
 655360.000000, 0.449851 , 0.507278, 9.535398, 88533647360.000000, 2.100000,  -3.920000,  -2.100000, 0.000000,  0.000000 
 679936.000000, 0.428315 , 0.648455, 9.657433, 88533663744.000000, 4.410000,  -1.330000,  -3.010000, 0.000000,  0.000000 
 696320.000000, 0.315853 , 0.662812, 9.341579, 88533688320.000000, 3.990000,  0.280000,  -5.320000, 0.000000,  0.000000 
 720896.000000, 0.375673 , 0.684347, 9.296116, 88533704704.000000, 3.850000,  2.170000,  -7.420000, 0.000000,  0.000000 
 737280.000000, 0.739382 , 0.952343, 9.544970, 88533729280.000000, 3.990000,  1.400000,  -9.240000, 0.000000,  0.000000 
 753664.000000, 0.564706 , 1.107877, 9.509077, 88533745664.000000, 3.710000,  -0.070000,  -8.890000, 0.000000,  0.000000 
 778240.000000, 0.337388 , 1.036092, 9.513863, 88533762048.000000, 1.050000,  1.890000,  -9.030000, 0.000000,  0.000000 
 794624.000000, 0.373280 , 0.741775, 9.765109, 88533786624.000000, -4.270000,  3.010000,  -6.720000, 0.000000,  0.000000 
 819200.000000, 0.440279 , 0.521635, 9.810574, 88533803008.000000, -10.150000,  2.170000,  -3.990000, 0.000000,  0.000000 
 835584.000000, 0.669990 , 0.368495, 9.896714, 88533827584.000000, -10.780000,  1.260000,  -3.080000, 0.000000,  0.000000 
 860160.000000, 0.447458 , 0.480957, 9.817751, 88533843968.000000, -7.000000,  0.210000,  -2.730000, 0.000000,  0.000000 
 876544.000000, 0.531207 , 0.387637, 9.609575, 88533868544.000000, -2.520000,  0.770000,  -5.670000, 0.000000,  0.000000 
 901120.000000, 0.794417 , 0.263210, 9.640682, 88533884928.000000, -1.680000,  0.280000,  -7.490000, 0.000000,  0.000000 
 917504.000000, 0.545564 , 0.392423, 9.750752, 88533909504.000000, -4.900000,  -1.330000,  -9.730000, 0.000000,  0.000000 
 933888.000000, 0.251246 , 0.540778, 9.379865, 88533925888.000000, -4.200000,  -1.050000,  -12.740000, 0.000000,  0.000000 
 958464.000000, 0.349352 , 0.780060, 9.071191, 88533942272.000000, 2.310000,  0.210000,  -12.390000, 0.000000,  0.000000 
 974848.000000, 0.770489 , 0.854238, 9.262616, 88533966848.000000, 4.270000,  -0.420000,  -10.710000, 0.000000,  0.000000 
 999424.000000, 0.832702 , 0.897308, 9.645468, 88533983232.000000, 4.550000,  -1.960000,  -9.240000, 0.000000,  0.000000 
 1015808.000000, 0.641276 , 0.746561, 9.925428, 88534007808.000000, 0.980000,  0.140000,  -6.580000, 0.000000,  0.000000 
 1040384.000000, 0.552742 , 0.734596, 9.836893, 88534024192.000000, -4.620000,  4.900000,  -5.110000, 0.000000,  0.000000 
 1056768.000000, 0.720240 , 0.593420, 9.564112, 88534048768.000000, -6.300000,  7.840000,  -2.450000, 0.000000,  0.000000 
 1081344.000000, 0.942772 , 0.701097, 9.061620, 88534065152.000000, -6.370000,  7.210000,  -0.420000, 0.000000,  0.000000 
 1097728.000000, 0.734596 , 1.007378, 8.755339, 88534089728.000000, -6.580000,  7.140000,  1.050000, 0.000000,  0.000000 
 1122304.000000, 0.696311 , 0.504886, 8.599805, 88534106112.000000, -13.230000,  15.260000,  3.990000, 0.000000,  0.000000 
 1138688.000000, 0.552742 , 0.126820, 9.114261, 88534130688.000000, -23.730000,  19.950001,  9.380000, 0.000000,  0.000000 
 1155072.000000, -0.155533 , -0.301496, 9.824929, 88534147072.000000, -28.420000,  25.340000,  13.440001, 0.000000,  0.000000 
 1179648.000000, -0.569492 , -0.710668, 10.332209, 88534163456.000000, -24.570000,  32.340000,  10.360000, 0.000000,  0.000000 
 1196032.000000, -0.866202 , -1.024128, 10.753345, 88534188032.000000, -21.420000,  33.810001,  7.490000, 0.000000,  0.000000 
 1220608.000000, -1.280160 , -0.921237, 11.009377, 88534204416.000000, -16.309999,  32.689999,  6.230000, 0.000000,  0.000000 
 1236992.000000, -1.603191 , -0.535992, 10.581062, 88534228992.000000, -9.310000,  29.820000,  1.050000, 88481185792.000000,  1009.543335 
 1261568.000000, -1.552942 , -0.277567, 10.348958, 88534245376.000000, 3.360000,  24.500000,  -6.020000, 0.000000,  0.000000 
 1277952.000000, -1.134198 , 0.267996, 10.315458, 88534269952.000000, 18.969999,  14.280000,  -9.800000, 0.000000,  0.000000 
 1302528.000000, -1.036092 , 1.182054, 10.095319, 88534286336.000000, 27.510000,  4.620000,  -10.080000, 0.000000,  0.000000 
 1318912.000000, -0.964308 , 1.337588, 10.107283, 88534310912.000000, 30.100000,  0.910000,  -9.660000, 0.000000,  0.000000 
 1335296.000000, -0.423530 , 1.512264, 9.944571, 88534327296.000000, 33.459999,  -2.450000,  -8.400000, 0.000000,  0.000000 
 1359872.000000, 0.325424 , 1.586441, 9.578469, 88534343680.000000, 29.960001,  -8.540000,  -3.430000, 0.000000,  0.000000 
 1384448.000000, 0.780060 , 1.265803, 9.561719, 88534368256.000000, 15.820000,  -14.000000,  3.780000, 0.000000,  0.000000 
 1400832.000000, 0.909273 , 0.765703, 9.583255, 88534392832.000000, -0.910000,  -15.540000,  8.330000, 0.000000,  0.000000 
 1417216.000000, 0.914058 , 0.303888, 9.399008, 88534409216.000000, -11.200000,  -13.930000,  10.780000, 0.000000,  0.000000 
 1441792.000000, 0.909273 , 0.404387, 9.272188, 88534425600.000000, -9.170000,  -12.390000,  13.790000, 0.000000,  0.000000 
 1458176.000000, 0.588634 , 0.643669, 8.896514, 88534450176.000000, -1.330000,  -9.520000,  14.910000, 0.000000,  0.000000 
 1482752.000000, 0.370888 , 0.660419, 8.559127, 88534466560.000000, 5.530000,  -3.430000,  13.720000, 0.000000,  0.000000 
 1499136.000000, 0.248854 , 0.713061, 8.650054, 88534491136.000000, 9.030000,  2.030000,  13.580000, 0.000000,  0.000000 
 1515520.000000, 0.157926 , 0.758525, 8.800802, 88534507520.000000, 7.490000,  6.720000,  12.600000, 0.000000,  0.000000 
 1540096.000000, 0.071785 , 0.550349, 9.008978, 88534523904.000000, 2.520000,  13.230000,  12.810000, 0.000000,  0.000000 
 1556480.000000, 0.234497 , 0.279960, 10.009177, 88534548480.000000, -5.460000,  17.920000,  14.280000, 0.000000,  0.000000 
 1581056.000000, 0.234497 , -0.088534, 10.935200, 88534564864.000000, -14.280000,  19.250000,  13.440001, 0.000000,  0.000000 
 1597440.000000, 0.040678 , -0.332602, 11.330014, 88534589440.000000, -16.240000,  19.250000,  10.010000, 0.000000,  0.000000 
 1622016.000000, -0.193819 , -0.409173, 11.102697, 88534605824.000000, -9.800000,  15.820000,  6.230000, 0.000000,  0.000000 
 1638400.000000, -0.488136 , -0.227318, 10.504492, 88534630400.000000, 0.630000,  8.960000,  1.610000, 0.000000,  0.000000 
 1654784.000000, -0.466600 , 0.076570, 9.882358, 88534646784.000000, 6.370000,  -0.490000,  -3.360000, 0.000000,  0.000000 
 1679360.000000, -0.366102 , 0.193819, 8.925228, 88534663168.000000, 4.970000,  -11.060000,  -5.180000, 0.000000,  0.000000 
 1695744.000000, -0.267996 , 0.205783, 8.516055, 88534687744.000000, -1.680000,  -17.430000,  -5.180000, 0.000000,  0.000000 
 1720320.000000, -0.244068 , 0.277567, 8.595018, 88534704128.000000, -6.930000,  -18.059999,  -5.810000, 0.000000,  0.000000 
 1736704.000000, -0.251246 , 0.284746, 8.470592, 88534728704.000000, -12.390000,  -14.070000,  -7.840000, 0.000000,  0.000000 
 1761280.000000, -0.232104 , 0.210568, 8.989835, 88534745088.000000, -14.980000,  -5.390000,  -7.070000, 0.000000,  0.000000 
 1777664.000000, -0.131605 , 0.181855, 10.033106, 88534769664.000000, -12.810000,  4.060000,  -6.580000, 0.000000,  0.000000 
 1802240.000000, -0.031107 , 0.095713, 10.839487, 88534786048.000000, -9.870000,  10.780000,  -7.280000, 0.000000,  0.000000 
 1818624.000000, -0.189033 , -0.110070, 10.717452, 88534810624.000000, -9.030000,  13.930000,  -7.840000, 0.000000,  0.000000 
 1835008.000000, -0.500100 , -0.167498, 10.231709, 88534827008.000000, -9.590000,  14.420000,  -8.400000, 0.000000,  0.000000 
 1859584.000000, -0.545564 , -0.241675, 10.214959, 88534843392.000000, -5.040000,  10.920000,  -9.870000, 0.000000,  0.000000 
 1875968.000000, -0.409173 , 0.019143, 9.985250, 88534867968.000000, 1.190000,  3.220000,  -12.740000, 0.000000,  0.000000 
 1900544.000000, -0.459422 , 0.337388, 9.592826, 88534884352.000000, 5.040000,  -4.340000,  -12.740000, 0.000000,  0.000000 
 1916928.000000, -0.667598 , 0.732204, 9.312866, 88534908928.000000, 7.910000,  -6.720000,  -11.200000, 0.000000,  0.000000 
 1941504.000000, -0.579063 , 0.981057, 9.195618, 88534925312.000000, 11.200000,  -6.370000,  -11.900000, 0.000000,  0.000000 
 1957888.000000, -0.468993 , 1.033699, 9.080762, 88534949888.000000, 16.100000,  -5.530000,  -10.500000, 0.000000,  0.000000 
 1982464.000000, -0.323031 , 1.189233, 9.303294, 88534966272.000000, 16.450001,  -2.380000,  -9.590000, 0.000000,  0.000000 
 1998848.000000, -0.088534 , 1.227518, 9.729217, 88534990848.000000, 12.530000,  1.750000,  -8.190000, 0.000000,  0.000000 
 2015232.000000, -0.102891 , 1.062413, 9.865608, 88535007232.000000, 8.330000,  5.460000,  -6.020000, 0.000000,  0.000000 
 2039808.000000, -0.401994 , 0.815953, 9.982857, 88535023616.000000, 4.690000,  9.100000,  -2.520000, 0.000000,  0.000000 
 2056192.000000, -0.636491 , 0.622134, 10.021141, 88535048192.000000, 1.120000,  11.340000,  0.280000, 0.000000,  0.000000 
 2080768.000000, -0.748954 , 0.622134, 9.820145, 88535064576.000000, 0.560000,  9.520000,  2.800000, 0.000000,  0.000000 
 2097152.000000, -0.748954 , 0.507278, 9.544970, 88535089152.000000, 1.470000,  4.970000,  4.270000, 0.000000,  0.000000 
 2121728.000000, -0.760918 , 0.366102, 9.272188, 88535105536.000000, -0.630000,  0.770000,  5.460000, 0.000000,  0.000000 
 2138112.000000, -0.890130 , 0.473779, 9.080762, 88535130112.000000, -3.850000,  -1.120000,  5.950000, 0.000000,  0.000000 
 2154496.000000, -0.772882 , 0.643669, 9.097511, 88535146496.000000, -1.960000,  -1.190000,  4.200000, 0.000000,  0.000000 
 2179072.000000, -0.734596 , 0.787239, 9.499505, 88535162880.000000, 0.350000,  -0.280000,  2.730000, 0.000000,  0.000000 
 2195456.000000, -0.696311 , 0.679562, 9.824929, 88535187456.000000, 0.700000,  2.590000,  0.770000, 0.000000,  0.000000 
 2220032.000000, -0.784846 , 0.708275, 9.669396, 88535203840.000000, 0.490000,  4.900000,  -0.910000, 0.000000,  0.000000 
 2236416.000000, -0.849452 , 0.839881, 9.676575, 88535228416.000000, 2.730000,  5.180000,  -2.240000, 88482185216.000000,  1009.550049 
 2260992.000000, -0.851845 , 1.031307, 9.884750, 88535244800.000000, 6.370000,  3.920000,  -3.220000, 0.000000,  0.000000 
 2277376.000000, -0.784846 , 1.201197, 9.755538, 88535269376.000000, 7.210000,  2.100000,  -3.920000, 0.000000,  0.000000 
 2301952.000000, -0.725025 , 1.308874, 9.669396, 88535285760.000000, 7.980000,  -0.280000,  -0.560000, 0.000000,  0.000000 
 2318336.000000, -0.689133 , 1.277767, 9.966106, 88535310336.000000, 7.140000,  -1.540000,  3.010000, 0.000000,  0.000000 
 2334720.000000, -0.531207 , 1.148555, 9.963714, 88535326720.000000, 5.320000,  -0.840000,  4.760000, 0.000000,  0.000000 
 2359296.000000, -0.483350 , 1.136591, 9.877571, 88535343104.000000, 4.340000,  -0.210000,  7.000000, 0.000000,  0.000000 
 2383872.000000, -0.524028 , 1.217947, 9.650253, 88535367680.000000, 6.440000,  0.420000,  10.220000, 0.000000,  0.000000 
 2400256.000000, -0.394816 , 1.091127, 9.442079, 88535392256.000000, 8.470000,  2.380000,  12.390000, 0.000000,  0.000000 
 2416640.000000, -0.093320 , 0.856631, 9.336794, 88535408640.000000, 9.730000,  3.360000,  16.520000, 0.000000,  0.000000 
 2441216.000000, -0.023928 , 1.057628, 9.351151, 88535425024.000000, 10.850000,  4.200000,  20.510000, 0.000000,  0.000000 
 2457600.000000, 0.007178 , 1.117448, 9.645468, 88535449600.000000, 12.180000,  6.020000,  21.980000, 0.000000,  0.000000 
 2482176.000000, 0.016750 , 1.060020, 9.911072, 88535465984.000000, 12.670000,  7.280000,  26.460001, 0.000000,  0.000000 
 2498560.000000, -0.035892 , 0.882952, 10.068997, 88535490560.000000, 7.630000,  6.650000,  31.150000, 0.000000,  0.000000 
 2514944.000000, -0.007178 , 0.775275, 10.346564, 88535506944.000000, 9.590000,  5.110000,  34.509998, 0.000000,  0.000000 
 2539520.000000, -0.358923 , 0.952343, 10.157533, 88535547904.000000, 10.150000,  -0.420000,  30.730000, 0.000000,  0.000000 
 2555904.000000, -0.768096 , 0.847059, 9.662218, 0.000000, 0.000000,  0.000000,  0.000000, 0.000000,  0.000000 
 2580480.000000, -0.626920 , 0.461815, 9.272188, 88535564288.000000, 3.430000,  -3.010000,  27.230000, 0.000000,  0.000000 
 2596864.000000, -0.315853 , 0.220140, 8.841480, 88535588864.000000, -5.460000,  -8.190000,  23.170000, 0.000000,  0.000000 
 2621440.000000, -0.169890 , 0.430708, 8.817552, 88535605248.000000, -4.130000,  -9.870000,  19.389999, 0.000000,  0.000000 
 2637824.000000, -0.019143 , 0.713061, 8.642875, 88535629824.000000, 4.060000,  -6.930000,  15.190001, 0.000000,  0.000000 
 2654208.000000, 0.428315 , 0.751346, 8.860621, 88535646208.000000, 8.330000,  -1.890000,  12.180000, 0.000000,  0.000000 
 2678784.000000, 0.868595 , 0.547956, 9.580862, 88535662592.000000, 4.060000,  1.820000,  8.960000, 0.000000,  0.000000 
 2695168.000000, 0.794417 , 0.409173, 9.834501, 88535687168.000000, -7.140000,  4.620000,  4.970000, 0.000000,  0.000000 
 2719744.000000, 0.416351 , 0.241675, 10.336994, 88535728128.000000, -14.140000,  7.210000,  -5.180000, 0.000000,  0.000000 
 2736128.000000, 0.246461 , 0.267996, 11.033305, 0.000000, 0.000000,  0.000000,  0.000000, 0.000000,  0.000000 
 2760704.000000, -0.090927 , 0.557528, 10.913664, 88535744512.000000, -5.950000,  3.010000,  -10.500000, 0.000000,  0.000000 
 2777088.000000, -0.622134 , 0.586242, 10.344172, 88535769088.000000, -1.120000,  -2.240000,  -13.650000, 0.000000,  0.000000 
 2801664.000000, -0.863809 , 0.614955, 10.112068, 88535785472.000000, -2.730000,  -6.790000,  -14.140000, 0.000000,  0.000000 
 2818048.000000, -0.792024 , 0.710668, 9.853643, 88535810048.000000, -6.300000,  -12.530000,  -15.190001, 0.000000,  0.000000 
 2834432.000000, -0.653241 , 0.954736, 9.908678, 88535826432.000000, -6.370000,  -18.480000,  -15.680000, 0.000000,  0.000000 
 2859008.000000, -0.445065 , 0.770489, 9.676575, 88535842816.000000, -9.520000,  -21.420000,  -15.470000, 0.000000,  0.000000 
 2875392.000000, -0.263210 , 0.366102, 9.410972, 88535867392.000000, -19.950001,  -21.139999,  -14.910000, 0.000000,  0.000000 
 2899968.000000, -0.169890 , 0.059821, 9.209974, 88535883776.000000, -26.809999,  -20.090000,  -14.770000, 0.000000,  0.000000 
 2916352.000000, 0.019143 , 0.107677, 8.786445, 88535908352.000000, -22.820000,  -19.040001,  -16.870001, 0.000000,  0.000000 
 2940928.000000, 0.122034 , 0.488136, 8.630912, 88535924736.000000, -11.970000,  -16.450001,  -16.240000, 0.000000,  0.000000 
 2957312.000000, 0.162712 , 0.811167, 8.638089, 88535949312.000000, -0.140000,  -11.830000,  -16.379999, 0.000000,  0.000000 
 2981888.000000, 0.059821 , 0.835095, 8.506484, 88535965696.000000, 4.690000,  -4.900000,  -16.590000, 0.000000,  0.000000 
 2998272.000000, 0.131605 , 0.940379, 9.116654, 88535990272.000000, 2.940000,  2.870000,  -16.450001, 0.000000,  0.000000 
 3014656.000000, 0.229711 , 0.959522, 9.686146, 88536006656.000000, -1.540000,  8.680000,  -15.680000, 0.000000,  0.000000 
 3039232.000000, 0.212961 , 0.856631, 10.174281, 88536023040.000000, -5.670000,  12.250000,  -14.070000, 0.000000,  0.000000 
 3055616.000000, 0.153141 , 0.698704, 10.968699, 88536047616.000000, -7.560000,  14.210000,  -11.550000, 0.000000,  0.000000 
 3080192.000000, -0.239282 , 0.801596, 11.090734, 88536064000.000000, -6.650000,  14.420000,  -12.740000, 0.000000,  0.000000 
 3096576.000000, -0.557528 , 0.717847, 10.997414, 88536088576.000000, -5.320000,  11.690000,  -14.770000, 0.000000,  0.000000 
 3121152.000000, -0.473779 , 0.629312, 10.791630, 88536104960.000000, -4.200000,  9.170000,  -14.490000, 0.000000,  0.000000 
 3137536.000000, -0.148355 , 0.868595, 9.822537, 88536129536.000000, -1.400000,  0.980000,  -13.650000, 0.000000,  0.000000 
 3153920.000000, -0.078963 , 1.074377, 8.999406, 88536145920.000000, 3.990000,  -9.870000,  -13.020000, 0.000000,  0.000000 
 3178496.000000, -0.086142 , 1.253839, 8.784052, 88536162304.000000, 12.530000,  -16.170000,  -8.540000, 0.000000,  0.000000 
 3194880.000000, 0.107677 , 1.012164, 8.224132, 88536186880.000000, 15.610000,  -16.309999,  -3.780000, 0.000000,  0.000000 
 3219456.000000, 0.124427 , 0.849452, 8.367701, 88536203264.000000, 14.000000,  -12.320000,  3.080000, 0.000000,  0.000000 
 3235840.000000, 0.368495 , 0.995414, 8.848659, 88536227840.000000, 18.480000,  -5.390000,  9.520000, 88483184640.000000,  1009.552063 
 3260416.000000, 0.468993 , 1.225125, 9.174082, 88536244224.000000, 27.790001,  2.660000,  14.490000, 0.000000,  0.000000 
 3276800.000000, 0.220140 , 1.110270, 9.609575, 88536268800.000000, 31.500000,  11.480000,  14.980000, 0.000000,  0.000000 
 3301376.000000, 0.093320 , 1.009771, 9.932607, 88536285184.000000, 29.750000,  18.760000,  14.700000, 0.000000,  0.000000 
 3317760.000000, 0.179462 , 1.263410, 9.743573, 88536309760.000000, 28.700001,  20.580000,  13.020000, 0.000000,  0.000000 
 3334144.000000, 0.074178 , 1.708475, 9.777073, 88536326144.000000, 33.880001,  15.750000,  11.620000, 0.000000,  0.000000 
 3358720.000000, -0.083749 , 1.686940, 9.836893, 88536342528.000000, 33.180000,  11.550000,  9.450000, 0.000000,  0.000000 
 3383296.000000, -0.440279 , 1.567299, 9.329616, 88536367104.000000, 22.960001,  8.680000,  9.310000, 0.000000,  0.000000 
 3399680.000000, -0.559920 , 1.653440, 9.099905, 88536391680.000000, 13.020000,  5.950000,  10.360000, 0.000000,  0.000000 
 3416064.000000, -0.267996 , 1.959722, 9.262616, 88536408064.000000, 11.760000,  3.290000,  10.500000, 0.000000,  0.000000 
 3440640.000000, 0.002393 , 1.969293, 9.353544, 88536424448.000000, 3.990000,  0.070000,  8.750000, 0.000000,  0.000000 
 3457024.000000, -0.021535 , 1.715654, 9.985250, 88536449024.000000, -14.000000,  1.960000,  9.450000, 0.000000,  0.000000 
 3481600.000000, -0.107677 , 1.359123, 10.327423, 88536465408.000000, -32.830002,  5.950000,  6.020000, 0.000000,  0.000000 
 3497984.000000, -0.124427 , 0.873380, 10.176675, 88536489984.000000, -44.240002,  6.440000,  1.680000, 0.000000,  0.000000 
 3514368.000000, -0.212961 , 0.423530, 10.487741, 88536506368.000000, -46.830002,  4.410000,  0.560000, 0.000000,  0.000000 
 3538944.000000, 0.035892 , 0.655633, 10.042676, 88536522752.000000, -38.360001,  0.490000,  0.210000, 0.000000,  0.000000 
 3555328.000000, 0.275175 , 1.138984, 9.377472, 88536547328.000000, -25.270000,  -5.670000,  0.840000, 0.000000,  0.000000 
 3579904.000000, 0.380459 , 1.014557, 9.377472, 88536563712.000000, -22.190001,  -8.750000,  2.240000, 0.000000,  0.000000 
 3596288.000000, 0.308674 , -0.210568, 9.882358, 88536588288.000000, -37.590000,  -8.050000,  2.240000, 0.000000,  0.000000 
 3620864.000000, 0.303888 , -0.739382, 10.506885, 88536604672.000000, -50.820000,  -5.810000,  3.220000, 0.000000,  0.000000 
 3637248.000000, 0.102891 , -0.145962, 10.887343, 88536629248.000000, -40.180000,  -5.880000,  5.530000, 0.000000,  0.000000 
 3653632.000000, -0.064606 , 0.581456, 9.767502, 88536645632.000000, -9.940000,  -6.860000,  5.810000, 0.000000,  0.000000 
 3678208.000000, -0.138784 , 0.260818, 8.925228, 88536662016.000000, 10.850000,  -9.940000,  6.650000, 0.000000,  0.000000 
 3694592.000000, -0.291924 , -0.141177, 9.257831, 88536686592.000000, 0.210000,  -12.600000,  4.550000, 0.000000,  0.000000 
 3719168.000000, -0.272782 , 0.366102, 9.111869, 88536702976.000000, -10.150000,  -13.860000,  4.480000, 0.000000,  0.000000 
 3735552.000000, -0.212961 , 0.480957, 8.592626, 88536727552.000000, -0.070000,  -15.190001,  6.790000, 0.000000,  0.000000 
 3760128.000000, -0.162712 , 0.358923, 8.461020, 88536743936.000000, 6.160000,  -12.530000,  5.950000, 0.000000,  0.000000 
 3776512.000000, 0.294317 , 0.323031, 8.511270, 88536768512.000000, 1.400000,  -5.880000,  5.950000, 0.000000,  0.000000 
 3801088.000000, 0.813560 , 0.296710, 9.121440, 88536784896.000000, -1.540000,  -1.680000,  5.250000, 0.000000,  0.000000 
 3817472.000000, 0.861416 , 0.342174, 9.710074, 88536809472.000000, -8.400000,  3.080000,  3.710000, 0.000000,  0.000000 
 3833856.000000, 0.605384 , 0.296710, 9.975677, 88536825856.000000, -16.520000,  9.380000,  2.590000, 0.000000,  0.000000 
 3858432.000000, 0.459422 , 0.454636, 10.514063, 88536866816.000000, -6.020000,  13.790000,  2.800000, 0.000000,  0.000000 
 3874816.000000, -0.007178 , 0.995414, 11.085947, 0.000000, 0.000000,  0.000000,  0.000000, 0.000000,  0.000000 
 3899392.000000, -0.708275 , 1.323231, 11.167303, 88536883200.000000, 5.530000,  15.190001,  3.290000, 0.000000,  0.000000 
 3915776.000000, -0.928415 , 1.339981, 10.966305, 88536907776.000000, 8.330000,  13.300000,  -1.400000, 0.000000,  0.000000 
 3940352.000000, -0.741775 , 1.237089, 10.138390, 88536924160.000000, -3.220000,  4.340000,  -1.120000, 0.000000,  0.000000 
 3956736.000000, -0.973879 , 0.715454, 9.801002, 88536948736.000000, -25.129999,  -6.580000,  1.610000, 0.000000,  0.000000 
 3981312.000000, -1.186840 , 0.086142, 9.425328, 88536965120.000000, -49.279999,  -12.320000,  2.940000, 0.000000,  0.000000 
 3997696.000000, -0.466600 , 0.098106, 8.898908, 88536989696.000000, -44.660000,  -17.570000,  5.880000, 0.000000,  0.000000 
 4014080.000000, 0.354138 , 0.349352, 8.516055, 88537006080.000000, -20.790001,  -24.290001,  10.360000, 0.000000,  0.000000 
 4038656.000000, 0.514457 , 0.423530, 8.312666, 88537022464.000000, -7.000000,  -23.799999,  14.140000, 0.000000,  0.000000 
 4055040.000000, 0.344566 , 0.059821, 8.688338, 88537047040.000000, -5.740000,  -13.720000,  16.170000, 0.000000,  0.000000 
 4079616.000000, 0.459422 , -0.239282, 9.310472, 88537063424.000000, -9.380000,  -3.290000,  14.280000, 0.000000,  0.000000 
 4096000.000000, 0.543171 , -0.023928, 10.406385, 88537088000.000000, -3.360000,  2.940000,  16.520000, 0.000000,  0.000000 
 4120576.000000, 0.483350 , -0.313460, 11.196017, 88537104384.000000, 7.000000,  7.770000,  16.590000, 0.000000,  0.000000 
 4136960.000000, 0.504886 , -1.217947, 12.014362, 88537128960.000000, 3.220000,  10.150000,  12.740000, 0.000000,  0.000000 
 4153344.000000, 0.227318 , -1.878366, 12.112469, 88537145344.000000, -10.920000,  5.950000,  8.960000, 0.000000,  0.000000 
 4177920.000000, -0.617348 , -1.978864, 10.760524, 88537161728.000000, -14.420000,  -1.890000,  3.710000, 0.000000,  0.000000 
 4194304.000000, -1.115055 , -0.870987, 8.097312, 88537186304.000000, 14.420000,  -6.160000,  1.750000, 0.000000,  0.000000 
 4218880.000000, -0.564706 , 0.294317, 6.872187, 88537227264.000000, 61.459999,  -10.010000,  3.850000, 88484184064.000000,  1009.560913 
 4235264.000000, -0.366102 , 0.169890, 7.898707, 0.000000, 0.000000,  0.000000,  0.000000, 0.000000,  0.000000 
 4259840.000000, -0.289532 , -0.373280, 9.312866, 88537243648.000000, 33.040001,  0.210000,  4.270000, 0.000000,  0.000000 
 4276224.000000, 0.239282 , -0.299103, 10.054641, 88537268224.000000, 10.710000,  9.310000,  6.370000, 0.000000,  0.000000 
 4300800.000000, 0.746561 , -0.150748, 9.875179, 88537284608.000000, 10.780000,  10.990000,  4.200000, 0.000000,  0.000000 
 4317184.000000, 1.095913 , -0.354138, 10.083356, 88537309184.000000, 16.520000,  10.290000,  3.990000, 0.000000,  0.000000 
 4333568.000000, 0.885344 , -0.334995, 10.052249, 88537325568.000000, 13.230000,  9.520000,  4.340000, 0.000000,  0.000000 
 4358144.000000, -0.011964 , 0.327817, 9.489935, 88537341952.000000, 13.090000,  9.030000,  4.340000, 0.000000,  0.000000 
 4382720.000000, -0.373280 , 1.038485, 8.980263, 88537366528.000000, 31.710001,  9.100000,  -2.310000, 0.000000,  0.000000 
 4399104.000000, 0.011964 , 1.462015, 8.662018, 88537391104.000000, 42.910000,  4.200000,  -8.190000, 0.000000,  0.000000 
 4415488.000000, 0.325424 , 1.521835, 8.508877, 88537407488.000000, 34.860001,  -1.120000,  -4.480000, 0.000000,  0.000000 
 4440064.000000, 0.847059 , 1.507478, 9.061620, 88537448448.000000, 16.170000,  -0.280000,  -0.210000, 0.000000,  0.000000 
 4456448.000000, 1.069592 , 1.509871, 9.348758, 0.000000, 0.000000,  0.000000,  0.000000, 0.000000,  0.000000 
 4481024.000000, 0.935594 , 1.418944, 10.463813, 88537464832.000000, 7.980000,  2.940000,  0.980000, 0.000000,  0.000000 
 4497408.000000, 0.315853 , 1.220340, 10.975878, 88537489408.000000, -2.800000,  8.610000,  0.770000, 0.000000,  0.000000 
 4513792.000000, -0.270389 , 0.796810, 11.011770, 88537505792.000000, -12.460000,  12.460000,  -0.490000, 0.000000,  0.000000 
 4538368.000000, -0.619741 , 0.806381, 10.037891, 88537522176.000000, -10.500000,  13.160000,  -0.490000, 0.000000,  0.000000 
 4554752.000000, -0.586242 , 0.961915, 8.394022, 88537563136.000000, 7.000000,  1.610000,  3.920000, 0.000000,  0.000000 
 4579328.000000, -0.327817 , 0.758525, 8.121240, 0.000000, 0.000000,  0.000000,  0.000000, 0.000000,  0.000000 
 4595712.000000, 0.320638 , 0.602991, 8.243275, 88537587712.000000, 8.960000,  -2.450000,  8.400000, 0.000000,  0.000000 
 4620288.000000, 1.086342 , 0.746561, 8.236095, 88537604096.000000, 5.670000,  -3.920000,  10.780000, 0.000000,  0.000000 
 4636672.000000, 1.308874 , 0.794417, 8.513663, 88537628672.000000, 10.640000,  0.630000,  18.200001, 0.000000,  0.000000 
 4653056.000000, 1.244268 , 0.873380, 9.322437, 88537645056.000000, 16.520000,  12.740000,  17.920000, 0.000000,  0.000000 
 4677632.000000, 1.342373 , 1.060020, 10.674382, 88537661440.000000, 20.930000,  24.360001,  13.230000, 0.000000,  0.000000 
 4694016.000000, 1.143769 , 1.758725, 11.574083, 88537686016.000000, 28.490000,  28.210001,  7.350000, 0.000000,  0.000000 
 4718592.000000, 0.069392 , 2.026721, 11.380265, 88537702400.000000, 30.590000,  27.930000,  2.030000, 0.000000,  0.000000 
 4734976.000000, -1.043271 , 1.995614, 11.705689, 88537726976.000000, 23.170000,  29.400000,  -0.980000, 0.000000,  0.000000 
 4759552.000000, -1.536192 , 1.512264, 11.411370, 88537743360.000000, 5.880000,  24.570000,  -6.020000, 0.000000,  0.000000 
 4775936.000000, -1.663012 , 1.203590, 10.226924, 88537767936.000000, -5.810000,  9.100000,  -8.540000, 0.000000,  0.000000 
 4800512.000000, -1.397408 , 1.150948, 9.396614, 88537784320.000000, -1.400000,  -8.820000,  -7.210000, 0.000000,  0.000000 
 4816896.000000, -0.330210 , 0.981057, 8.676375, 88537808896.000000, 2.520000,  -24.780001,  -6.720000, 0.000000,  0.000000 
 4833280.000000, 0.291924 , 0.806381, 8.621340, 88537825280.000000, -2.170000,  -32.970001,  -1.050000, 0.000000,  0.000000 
 4857856.000000, 0.531207 , 0.725025, 8.819944, 88537841664.000000, -8.260000,  -28.910000,  1.330000, 0.000000,  0.000000 
 4874240.000000, 0.220140 , 0.780060, 8.882158, 88537866240.000000, -11.340000,  -18.129999,  -1.050000, 0.000000,  0.000000 
 4898816.000000, -0.689133 , 1.213161, 9.004191, 88537882624.000000, -2.240000,  -4.760000,  -2.450000, 0.000000,  0.000000 
 4915200.000000, -0.904487 , 1.842474, 8.664411, 88537907200.000000, 18.340000,  6.930000,  -8.540000, 0.000000,  0.000000 
 4939776.000000, -0.390030 , 1.995614, 8.324631, 88537923584.000000, 28.559999,  9.660000,  -10.570000, 0.000000,  0.000000 
 4956160.000000, 0.165105 , 2.036292, 8.812766, 88537948160.000000, 19.460001,  7.280000,  -7.630000, 0.000000,  0.000000 
 4980736.000000, 0.488136 , 2.014757, 9.501899, 88537964544.000000, 1.050000,  8.190000,  -6.370000, 0.000000,  0.000000 
 4997120.000000, 0.504886 , 1.825724, 10.595419, 88537989120.000000, -10.500000,  10.920000,  -5.110000, 0.000000,  0.000000 
 5013504.000000, 0.117248 , 1.811367, 11.696117, 88538005504.000000, -13.300000,  11.970000,  -4.830000, 0.000000,  0.000000 
 5038080.000000, -0.708275 , 1.708475, 11.131411, 88538021888.000000, -18.129999,  13.440001,  -5.180000, 0.000000,  0.000000 
 5054464.000000, -1.402194 , 1.627119, 10.762917, 88538046464.000000, -19.040001,  13.370000,  -5.740000, 0.000000,  0.000000 
 5079040.000000, -1.512264 , 1.686940, 10.604989, 88538062848.000000, -12.810000,  7.280000,  -7.000000, 0.000000,  0.000000 
 5095424.000000, -1.435694 , 1.892723, 9.762716, 88538087424.000000, -8.190000,  -4.620000,  -8.960000, 0.000000,  0.000000 
 5120000.000000, -1.296910 , 1.911865, 9.430114, 88538103808.000000, -0.630000,  -16.870001,  -6.160000, 0.000000,  0.000000 
 5136384.000000, -0.708275 , 1.837688, 8.740981, 88538128384.000000, 7.840000,  -25.690001,  -5.950000, 0.000000,  0.000000 
 5152768.000000, -0.145962 , 1.780260, 8.068598, 88538144768.000000, 10.080000,  -29.750000,  -0.490000, 0.000000,  0.000000 
 5177344.000000, 0.021535 , 1.765903, 8.015956, 88538161152.000000, 6.370000,  -25.830000,  5.600000, 0.000000,  0.000000 
 5193728.000000, 0.069392 , 1.301696, 8.260024, 88538185728.000000, -2.240000,  -16.100000,  6.860000, 0.000000,  0.000000 
 5218304.000000, 0.191426 , 0.926022, 8.403593, 88538202112.000000, -10.710000,  -5.880000,  9.450000, 0.000000,  0.000000 
 5234688.000000, 0.232104 , 0.825524, 8.973085, 88538226688.000000, -15.610000,  1.120000,  12.040000, 88485183488.000000,  1009.563049 
 5259264.000000, -0.133998 , 0.995414, 9.633504, 88538243072.000000, -14.070000,  9.520000,  13.860000, 0.000000,  0.000000 
 5275648.000000, -0.349352 , 1.249053, 10.025927, 88538267648.000000, -5.040000,  17.780001,  9.660000, 0.000000,  0.000000 
 5300224.000000, -0.107677 , 1.392623, 10.662418, 88538284032.000000, 3.570000,  19.250000,  5.880000, 0.000000,  0.000000 
 5316608.000000, 0.172283 , 1.263410, 10.911271, 88538308608.000000, 0.840000,  15.120000,  4.830000, 0.000000,  0.000000 
 5332992.000000, 0.095713 , 1.057628, 10.829915, 88538324992.000000, -8.470000,  9.310000,  4.410000, 0.000000,  0.000000 
 5357568.000000, -0.232104 , 0.906880, 10.782058, 88538341376.000000, -12.110000,  4.270000,  3.850000, 0.000000,  0.000000 
 5382144.000000, -0.480957 , 1.028914, 10.557133, 88538365952.000000, -6.720000,  -0.770000,  0.910000, 0.000000,  0.000000 
 5398528.000000, -0.617348 , 1.261017, 10.135997, 88538390528.000000, 1.750000,  -7.210000,  -1.050000, 0.000000,  0.000000 
 5414912.000000, -0.500100 , 1.299303, 9.458827, 88538406912.000000, 7.840000,  -12.040000,  -0.280000, 0.000000,  0.000000 
 5439488.000000, -0.258425 , 0.985843, 8.511270, 88538423296.000000, 5.040000,  -15.540000,  -0.630000, 0.000000,  0.000000 
 5455872.000000, -0.150748 , 0.646062, 8.044669, 88538447872.000000, -3.220000,  -16.030001,  0.350000, 0.000000,  0.000000 
 5480448.000000, 0.311067 , 0.461815, 8.047063, 88538464256.000000, -7.210000,  -12.320000,  1.610000, 0.000000,  0.000000 
 5496832.000000, 0.973879 , 0.375673, 8.159525, 88538488832.000000, -3.850000,  -6.580000,  2.520000, 0.000000,  0.000000 
 5513216.000000, 1.337588 , 0.437887, 9.430114, 88538505216.000000, -4.200000,  0.700000,  6.720000, 0.000000,  0.000000 
 5537792.000000, 0.756132 , 0.882952, 10.557133, 88538521600.000000, -6.090000,  13.090000,  8.050000, 0.000000,  0.000000 
 5554176.000000, -0.282353 , 1.433301, 10.772489, 88538546176.000000, -0.280000,  23.660000,  0.420000, 0.000000,  0.000000 
 5578752.000000, -0.713061 , 1.749153, 11.200804, 88538562560.000000, 14.840000,  29.400000,  -6.510000, 0.000000,  0.000000 
 5595136.000000, -0.428315 , 2.199004, 10.693524, 88538587136.000000, 24.150000,  22.820000,  -11.200000, 0.000000,  0.000000 
 5619712.000000, -0.614955 , 2.404787, 9.722038, 88538603520.000000, 14.490000,  8.400000,  -10.290000, 0.000000,  0.000000 
 5636096.000000, -0.533599 , 2.065006, 9.671788, 88538628096.000000, 1.190000,  -0.490000,  -7.840000, 0.000000,  0.000000 
 5652480.000000, -0.009571 , 1.469193, 9.265009, 88538644480.000000, -11.060000,  -12.390000,  -9.100000, 0.000000,  0.000000 
 5677056.000000, -0.081356 , 1.339981, 9.229117, 88538660864.000000, -14.280000,  -19.250000,  -3.430000, 0.000000,  0.000000 
 5693440.000000, 0.090927 , 1.497907, 8.726624, 88538685440.000000, -7.070000,  -18.059999,  -1.330000, 0.000000,  0.000000 
 5718016.000000, 0.196211 , 1.320838, 7.563712, 88538701824.000000, -6.230000,  -16.730000,  -1.330000, 0.000000,  0.000000 
 5734400.000000, -0.007178 , 1.337588, 7.288538, 88538726400.000000, -10.570000,  -12.950000,  2.730000, 0.000000,  0.000000 
 5758976.000000, 0.411566 , 1.138984, 7.664211, 88538742784.000000, -12.320000,  -7.490000,  1.260000, 0.000000,  0.000000 
 5775360.000000, 1.153341 , 0.839881, 8.848659, 88538767360.000000, -16.730000,  -2.940000,  2.590000, 0.000000,  0.000000 
 5799936.000000, 0.914058 , 0.528814, 9.985250, 88538783744.000000, -28.630001,  3.570000,  6.860000, 0.000000,  0.000000 
 5816320.000000, -0.181855 , 0.002393, 11.339586, 88538808320.000000, -39.060001,  15.750000,  7.210000, 0.000000,  0.000000 
 5832704.000000, -0.993021 , -0.069392, 12.591033, 88538824704.000000, -40.250000,  25.900000,  3.010000, 0.000000,  0.000000 
 5857280.000000, -1.301696 , 0.325424, 11.947363, 88538841088.000000, -27.090000,  23.030001,  -5.390000, 0.000000,  0.000000 
 5873664.000000, -1.313660 , -0.033500, 11.169697, 88538865664.000000, -10.640000,  10.850000,  -9.310000, 0.000000,  0.000000 
 5898240.000000, -0.971486 , -0.267996, 11.265409, 88538882048.000000, -11.970000,  -3.920000,  -7.700000, 0.000000,  0.000000 
 5914624.000000, -0.191426 , -0.442672, 10.293922, 88538906624.000000, -21.210001,  -20.930000,  -9.030000, 0.000000,  0.000000 
 5939200.000000, 0.378066 , -0.375673, 9.422935, 88538923008.000000, -13.790000,  -33.250000,  -8.680000, 0.000000,  0.000000 
 5955584.000000, 0.765703 , 0.114855, 8.769694, 88538947584.000000, 4.410000,  -37.029999,  -10.640000, 0.000000,  0.000000 
 5980160.000000, 0.803988 , 0.598206, 9.028119, 88538963968.000000, 12.740000,  -32.970001,  -13.020000, 0.000000,  0.000000 
 5996544.000000, 0.557528 , 0.866202, 9.186047, 88538988544.000000, 9.660000,  -22.120001,  -16.030001, 0.000000,  0.000000 
 6012928.000000, 0.442672 , 1.045663, 9.066404, 88539004928.000000, 5.670000,  -11.130000,  -22.889999, 0.000000,  0.000000 
 6037504.000000, 0.124427 , 1.253839, 9.013763, 88539021312.000000, 8.260000,  -3.780000,  -24.710001, 0.000000,  0.000000 
 6053888.000000, -0.124427 , 1.390230, 8.755339, 88539045888.000000, 8.750000,  0.980000,  -25.620001, 0.000000,  0.000000 
 6078464.000000, -0.141177 , 1.335195, 9.166903, 88539062272.000000, 8.050000,  4.270000,  -21.280001, 0.000000,  0.000000 
 6094848.000000, -0.141177 , 1.457229, 9.499505, 88539086848.000000, 10.360000,  4.760000,  -17.360001, 0.000000,  0.000000 
 6119424.000000, -0.244068 , 1.304088, 9.530612, 88539103232.000000, 10.430000,  3.990000,  -12.320000, 0.000000,  0.000000 
 6135808.000000, -0.313460 , 1.004985, 10.109675, 88539127808.000000, 10.150000,  5.810000,  -4.900000, 0.000000,  0.000000 
 6152192.000000, -0.174676 , 0.926022, 10.040283, 88539144192.000000, 5.460000,  5.530000,  0.420000, 0.000000,  0.000000 
 6176768.000000, -0.095713 , 0.614955, 10.114462, 88539160576.000000, 4.270000,  1.960000,  6.510000, 0.000000,  0.000000 
 6193152.000000, -0.110070 , 0.425922, 10.956735, 88539185152.000000, 4.970000,  -1.260000,  6.370000, 0.000000,  0.000000 
 6217728.000000, -0.583849 , 0.612563, 10.968699, 88539226112.000000, 8.610000,  -7.000000,  -4.690000, 88486182912.000000,  1009.565674 
 6234112.000000, -0.533599 , 0.650848, 10.432706, 0.000000, 0.000000,  0.000000,  0.000000, 0.000000,  0.000000 
 6258688.000000, -0.057428 , 0.602991, 9.200402, 88539242496.000000, 13.720000,  -14.840000,  -6.650000, 0.000000,  0.000000 
 6275072.000000, 0.681954 , 0.452243, 7.829315, 88539267072.000000, 10.990000,  -20.299999,  -6.510000, 0.000000,  0.000000 
 6299648.000000, 1.129412 , 0.904487, 7.259824, 88539283456.000000, 14.770000,  -21.980000,  -0.560000, 0.000000,  0.000000 
 6316032.000000, 1.591227 , 1.698904, 6.788438, 88539308032.000000, 22.190001,  -17.990000,  4.270000, 0.000000,  0.000000 
 6332416.000000, 2.012364 , 2.388037, 7.755138, 88539324416.000000, 28.139999,  -10.920000,  9.450000, 0.000000,  0.000000 
 6356992.000000, 1.406980 , 2.768496, 9.736395, 88539340800.000000, 15.190001,  0.630000,  11.690000, 0.000000,  0.000000 
 6381568.000000, 0.251246 , 2.818745, 10.183852, 88539365376.000000, -21.070000,  17.360001,  5.040000, 0.000000,  0.000000 
 6397952.000000, -0.043071 , 2.445465, 10.420743, 88539389952.000000, -59.080002,  29.120001,  0.560000, 0.000000,  0.000000 
 6414336.000000, 0.232104 , 1.021735, 11.045268, 88539406336.000000, -106.470001,  23.240000,  -1.400000, 0.000000,  0.000000 
 6438912.000000, 0.196211 , -0.246461, 10.930414, 88539422720.000000, -138.809998,  14.000000,  2.030000, 0.000000,  0.000000 
 6455296.000000, 0.447458 , -2.009971, 10.616954, 88539447296.000000, -141.119995,  5.180000,  6.580000, 0.000000,  0.000000 
 6479872.000000, 0.691526 , -2.287539, 10.368099, 88539463680.000000, -123.059998,  -8.330000,  9.730000, 0.000000,  0.000000 
 6496256.000000, 0.681954 , -1.828116, 9.363115, 88539488256.000000, -81.269997,  -18.059999,  20.790001, 0.000000,  0.000000 
 6512640.000000, 0.787239 , -2.069792, 9.480364, 88539504640.000000, -39.830002,  -20.090000,  23.100000, 0.000000,  0.000000 
 6537216.000000, 1.036092 , -3.036492, 10.308280, 88539521024.000000, -38.500000,  -24.150000,  17.850000, 0.000000,  0.000000 
 6553600.000000, 0.859023 , -2.830709, 10.439885, 88539545600.000000, -33.180000,  -24.920000,  18.200001, 0.000000,  0.000000 
 6578176.000000, 0.366102 , -2.603391, 9.422935, 88539561984.000000, -8.680000,  -22.469999,  10.290000, 0.000000,  0.000000 
 6594560.000000, 0.169890 , -3.247060, 9.379865, 88539586560.000000, 2.310000,  -17.080000,  -3.990000, 0.000000,  0.000000 
 6619136.000000, 0.337388 , -3.117848, 9.487542, 88539602944.000000, -2.800000,  -13.650000,  -13.020000, 0.000000,  0.000000 
 6635520.000000, 0.354138 , -1.481157, 9.480364, 88539627520.000000, 25.690001,  -15.470000,  -11.760000, 0.000000,  0.000000 
 6651904.000000, 0.179462 , -0.540778, 9.253045, 88539643904.000000, 66.639999,  -12.810000,  -13.720000, 0.000000,  0.000000 
 6676480.000000, 0.102891 , 0.203390, 8.606983, 88539660288.000000, 74.970001,  -7.630000,  -21.559999, 0.000000,  0.000000 
 6692864.000000, 0.043071 , 0.976272, 9.008978, 88539684864.000000, 50.400002,  -3.150000,  -20.090000, 0.000000,  0.000000 
 6717440.000000, -0.090927 , 0.547956, 10.030712, 88539701248.000000, 20.510000,  -0.350000,  -19.879999, 0.000000,  0.000000 
 6733824.000000, 0.346959 , 0.150748, 10.284351, 88539725824.000000, 1.120000,  0.490000,  -21.000000, 0.000000,  0.000000 
 6758400.000000, 0.993021 , 0.325424, 9.556933, 88539742208.000000, 11.200000,  -5.390000,  -12.880000, 0.000000,  0.000000 
 6774784.000000, 1.215554 , 0.859023, 8.647661, 88539766784.000000, 26.809999,  -12.740000,  -4.760000, 0.000000,  0.000000 
 6799360.000000, 1.351945 , 0.442672, 8.137990, 88539783168.000000, 16.730000,  -13.790000,  2.240000, 0.000000,  0.000000 
 6815744.000000, 1.859223 , -0.691526, 8.726624, 88539807744.000000, 5.880000,  -14.280000,  7.140000, 0.000000,  0.000000 
 6832128.000000, 1.806581 , -0.610170, 10.365707, 88539824128.000000, 13.510000,  -14.280000,  13.020000, 0.000000,  0.000000 
 6856704.000000, 1.083949 , -0.375673, 9.901501, 88539840512.000000, 17.360001,  -8.610000,  6.160000, 0.000000,  0.000000 
 6873088.000000, 0.598206 , -1.067199, 8.951550, 88539865088.000000, 42.700001,  3.150000,  0.700000, 0.000000,  0.000000 
 6897664.000000, 1.007378 , 0.172283, 8.044669, 88539881472.000000, 29.540001,  6.160000,  -14.350000, 0.000000,  0.000000 
 6914048.000000, 2.038685 , 1.246661, 8.736196, 88539906048.000000, 19.180000,  4.480000,  -5.740000, 0.000000,  0.000000 
 6938624.000000, 1.971686 , 1.658226, 9.434900, 88539922432.000000, 7.840000,  2.520000,  5.110000, 0.000000,  0.000000 
 6955008.000000, 2.656033 , 1.438086, 9.803394, 88539947008.000000, -16.520000,  2.590000,  3.010000, 0.000000,  0.000000 
 6979584.000000, 2.876173 , 0.758525, 10.887343, 88539963392.000000, -36.610001,  -5.460000,  11.130000, 0.000000,  0.000000 
 6995968.000000, 1.761117 , -0.160319, 11.394621, 88539987968.000000, -39.689999,  -10.640000,  18.340000, 0.000000,  0.000000 
 7012352.000000, 1.773082 , -0.366102, 10.475778, 88540004352.000000, -66.290001,  -9.310000,  4.690000, 0.000000,  0.000000 
 7036928.000000, 1.359123 , -2.299503, 10.305886, 88540020736.000000, -44.660000,  -4.270000,  8.960000, 0.000000,  0.000000 
 7053312.000000, 0.746561 , -4.007978, 10.968699, 88540045312.000000, -44.939999,  -4.410000,  -2.870000, 0.000000,  0.000000 
 7077888.000000, 1.395016 , -2.402394, 10.212566, 88540061696.000000, -76.860001,  -17.639999,  -20.299999, 0.000000,  0.000000 
 7094272.000000, 1.337588 , -2.720639, 8.066205, 88540086272.000000, -58.310001,  -27.020000,  5.390000, 0.000000,  0.000000 
 7118848.000000, 1.028914 , -2.416751, 8.858230, 88540102656.000000, -27.719999,  -26.320000,  -6.650000, 0.000000,  0.000000 
 7135232.000000, 1.581656 , -1.607977, 8.458629, 88540127232.000000, -25.200001,  -23.799999,  -18.549999, 0.000000,  0.000000 
 7151616.000000, 1.875973 , -1.296910, 7.750352, 88540143616.000000, -3.990000,  -21.490000,  -0.910000, 0.000000,  0.000000 
 7176192.000000, 1.698904 , -1.220340, 8.157133, 88540160000.000000, 16.030001,  -12.530000,  -2.030000, 0.000000,  0.000000 
 7192576.000000, 2.086541 , -2.395216, 8.252845, 88540184576.000000, 1.260000,  -6.160000,  -5.460000, 0.000000,  0.000000 
 7217152.000000, 2.359323 , -0.717847, 8.853443, 88540225536.000000, 22.960001,  2.170000,  1.890000, 88487182336.000000,  1009.567993 
 7233536.000000, 2.498107 , 1.079163, 8.898908, 0.000000, 0.000000,  0.000000,  0.000000, 0.000000,  0.000000 
 7258112.000000, 2.780460 , -0.667598, 7.747960, 88540241920.000000, -8.190000,  9.100000,  -1.050000, 0.000000,  0.000000 
 7274496.000000, 2.443072 , -1.990828, 8.604590, 88540266496.000000, -41.580002,  9.660000,  0.490000, 0.000000,  0.000000 
 7299072.000000, 1.868794 , -2.242075, 9.717253, 88540282880.000000, -40.110001,  12.810000,  -4.200000, 0.000000,  0.000000 
 7315456.000000, 0.433101 , 0.497707, 11.050055, 88540307456.000000, -21.420000,  20.090000,  -10.080000, 0.000000,  0.000000 
 7331840.000000, -0.069392 , -0.507278, 10.765309, 88540323840.000000, -15.540000,  29.120001,  -12.530000, 0.000000,  0.000000 
 7356416.000000, 0.933201 , -4.831109, 11.222338, 88540340224.000000, -56.490002,  26.250000,  -12.460000, 0.000000,  0.000000 
 7380992.000000, 2.763710 , -6.795617, 11.983256, 88540364800.000000, -140.839996,  -0.770000,  -31.150000, 0.000000,  0.000000 
 7397376.000000, 3.079563 , -5.941379, 10.588240, 88540389376.000000, -133.490005,  -21.840000,  -14.560000, 0.000000,  0.000000 
 7413760.000000, 1.428515 , -3.859623, 9.154939, 88540405760.000000, -42.840000,  -18.620001,  -12.040000, 0.000000,  0.000000 
 7438336.000000, 1.447658 , -2.115255, 7.826923, 88540422144.000000, 8.470000,  -5.320000,  -35.139999, 0.000000,  0.000000 
 7454720.000000, 1.543371 , -0.782453, 8.319844, 88540446720.000000, 38.430000,  -1.190000,  -10.500000, 0.000000,  0.000000 
 7479296.000000, 0.600598 , -1.323231, 8.664411, 88540463104.000000, 43.889999,  6.300000,  -4.130000, 0.000000,  0.000000 
 7495680.000000, 0.617348 , -2.244468, 8.788837, 88540487680.000000, 32.130001,  13.860000,  -8.610000, 0.000000,  0.000000 
 7512064.000000, 1.418944 , -2.414358, 8.848659, 88540504064.000000, 18.270000,  10.850000,  -5.670000, 0.000000,  0.000000 
 7536640.000000, 1.229911 , -2.821138, 9.154939, 88540520448.000000, -5.740000,  4.200000,  -6.510000, 0.000000,  0.000000 
 7553024.000000, 1.016950 , -2.184647, 8.673983, 88540545024.000000, -20.440001,  3.780000,  -9.660000, 0.000000,  0.000000 
 7577600.000000, 1.421337 , -1.529014, 7.910671, 88540561408.000000, -3.920000,  4.270000,  -10.010000, 0.000000,  0.000000 
 7593984.000000, 2.163112 , -1.914258, 8.193025, 88540585984.000000, 5.040000,  2.170000,  -4.200000, 0.000000,  0.000000 
 7618560.000000, 2.191825 , -1.356731, 8.676375, 88540602368.000000, -3.360000,  -5.110000,  0.560000, 0.000000,  0.000000 
 7634944.000000, 0.844666 , -0.847059, 8.934800, 88540626944.000000, -1.330000,  -1.400000,  4.410000, 0.000000,  0.000000 
 7651328.000000, 0.677169 , -1.387837, 9.626326, 88540643328.000000, 6.440000,  10.570000,  -0.350000, 0.000000,  0.000000 
 7675904.000000, 1.907080 , -2.275574, 10.549955, 88540659712.000000, 5.250000,  10.010000,  0.070000, 0.000000,  0.000000 
 7692288.000000, 2.428715 , -2.871387, 9.836893, 88540684288.000000, -8.960000,  1.400000,  9.310000, 0.000000,  0.000000 
 7716864.000000, 1.842474 , -3.613162, 10.301102, 88540700672.000000, -26.600000,  1.050000,  14.980000, 0.000000,  0.000000 
 7733248.000000, 0.528814 , -3.859623, 10.258030, 88540725248.000000, -37.029999,  2.240000,  9.100000, 0.000000,  0.000000 
 7757824.000000, 1.045663 , -3.730411, 9.152546, 88540741632.000000, -35.840000,  4.620000,  -0.210000, 0.000000,  0.000000 
 7774208.000000, 2.287539 , -3.644269, 9.071191, 88540766208.000000, -24.219999,  1.260000,  2.030000, 0.000000,  0.000000 
 7798784.000000, 1.450050 , -3.610770, 9.358330, 88540782592.000000, -29.120001,  -0.630000,  3.920000, 0.000000,  0.000000 
 7815168.000000, 0.880559 , -3.854837, 9.377472, 88540807168.000000, -32.970001,  5.600000,  -5.180000, 0.000000,  0.000000 
 7831552.000000, 0.966700 , -3.359523, 9.253045, 88540823552.000000, -28.280001,  3.360000,  -10.360000, 0.000000,  0.000000 
 7856128.000000, 1.268196 , -2.794817, 8.870193, 88540839936.000000, -9.940000,  1.750000,  -0.910000, 0.000000,  0.000000 
 7872512.000000, 1.852045 , -3.280560, 9.181261, 88540864512.000000, -1.470000,  1.120000,  0.700000, 0.000000,  0.000000 
 7897088.000000, 1.785046 , -3.213561, 8.719445, 88540880896.000000, -16.450001,  -1.890000,  0.770000, 0.000000,  0.000000 
 7913472.000000, 1.808974 , -3.089134, 8.819944, 88540905472.000000, -24.430000,  -0.210000,  0.910000, 0.000000,  0.000000 
 7938048.000000, 1.184447 , -3.558127, 9.052048, 88540921856.000000, -29.190001,  -1.330000,  -1.820000, 0.000000,  0.000000 
 7954432.000000, 0.770489 , -3.596412, 8.439486, 88540946432.000000, -41.160000,  -1.820000,  -8.890000, 0.000000,  0.000000 
 7979008.000000, 1.301696 , -3.495914, 8.420342, 88540962816.000000, -40.599998,  -2.310000,  -10.010000, 0.000000,  0.000000 
 7995392.000000, 1.227518 , -2.945565, 8.161918, 88540987392.000000, -24.570000,  -4.410000,  -3.850000, 0.000000,  0.000000 
 8011776.000000, 1.617548 , -2.749353, 7.869993, 88541003776.000000, -4.690000,  -3.990000,  -0.140000, 0.000000,  0.000000 
 8036352.000000, 2.062613 , -3.366701, 8.238488, 88541020160.000000, 1.960000,  -3.990000,  2.730000, 0.000000,  0.000000 
 8052736.000000, 1.856830 , -3.859623, 8.889337, 88541044736.000000, -11.130000,  -2.940000,  2.310000, 0.000000,  0.000000 
 8077312.000000, 1.320838 , -4.204189, 9.619147, 88541061120.000000, -21.210001,  -0.210000,  3.430000, 0.000000,  0.000000 
 8093696.000000, 1.363909 , -4.663611, 9.796216, 88541085696.000000, -23.660000,  3.570000,  3.290000, 0.000000,  0.000000 
 8118272.000000, 1.631905 , -4.914857, 9.631111, 88541102080.000000, -25.410000,  2.170000,  2.520000, 0.000000,  0.000000 
 8134656.000000, 1.359123 , -5.484349, 9.497113, 88541126656.000000, -27.650000,  -0.910000,  2.520000, 0.000000,  0.000000 
 8151040.000000, 1.579263 , -6.058627, 9.174082, 88541143040.000000, -37.799999,  -1.750000,  -5.040000, 0.000000,  0.000000 
 8175616.000000, 1.540978 , -5.943772, 8.736196, 88541159424.000000, -41.230000,  -5.390000,  -10.920000, 0.000000,  0.000000 
 8192000.000000, 1.313660 , -5.125426, 8.260024, 88541184000.000000, -29.469999,  -7.070000,  -13.720000, 0.000000,  0.000000 
 8216576.000000, 1.952543 , -4.718646, 7.791030, 88541224960.000000, -8.610000,  -6.650000,  -10.780000, 88488181760.000000,  1009.566833 
 8232960.000000, 2.041078 , -4.321437, 7.475177, 0.000000, 0.000000,  0.000000,  0.000000, 0.000000,  0.000000 
 8257536.000000, 2.007578 , -3.967300, 7.511070, 88541241344.000000, -3.780000,  -4.410000,  -10.920000, 0.000000,  0.000000 
 8273920.000000, 1.816152 , -3.952943, 8.023134, 88541265920.000000, -0.980000,  -1.470000,  -9.100000, 0.000000,  0.000000 
 8298496.000000, 1.679761 , -3.503092, 8.367701, 88541282304.000000, 2.800000,  1.680000,  -7.770000, 0.000000,  0.000000 
 8314880.000000, 1.280160 , -3.251846, 8.726624, 88541306880.000000, 9.590000,  4.200000,  -3.640000, 0.000000,  0.000000 
 8331264.000000, 1.194018 , -3.596412, 8.843873, 88541323264.000000, 7.560000,  5.740000,  -1.680000, 0.000000,  0.000000 
 8355840.000000, 1.466800 , -3.909872, 8.985049, 88541339648.000000, -6.370000,  2.800000,  -0.560000, 0.000000,  0.000000 
 8380416.000000, 1.342373 , -4.493721, 8.992228, 88541364224.000000, -18.270000,  0.210000,  1.820000, 0.000000,  0.000000 
 8396800.000000, 1.552942 , -4.996214, 9.518648, 88541388800.000000, -20.230000,  -0.910000,  0.280000, 0.000000,  0.000000 
 8413184.000000, 1.646262 , -5.156533, 9.482756, 88541405184.000000, -16.520000,  -3.080000,  1.330000, 0.000000,  0.000000 
 8437760.000000, 1.899901 , -5.259424, 8.918050, 88541421568.000000, -11.130000,  -3.360000,  2.380000, 0.000000,  0.000000 
 8454144.000000, 1.505085 , -5.254639, 8.740981, 88541446144.000000, -10.360000,  -5.530000,  1.190000, 0.000000,  0.000000 
 8478720.000000, 1.289732 , -5.221139, 8.169096, 88541462528.000000, -4.130000,  -6.020000,  -0.630000, 0.000000,  0.000000 
 8495104.000000, 1.942972 , -4.646862, 7.389036, 88541487104.000000, 16.520000,  -6.020000,  -3.640000, 0.000000,  0.000000 
 8511488.000000, 1.897508 , -4.101298, 7.219146, 88541503488.000000, 32.970001,  -6.510000,  3.850000, 0.000000,  0.000000 
 8536064.000000, 1.526621 , -3.048456, 7.140182, 88541519872.000000, 35.279999,  -3.010000,  4.550000, 0.000000,  0.000000 
 8552448.000000, 1.785046 , -2.868994, 7.415358, 88541544448.000000, 38.009998,  0.980000,  9.240000, 0.000000,  0.000000 
 8577024.000000, 1.921437 , -3.524628, 8.640482, 88541560832.000000, 23.170000,  3.920000,  10.290000, 0.000000,  0.000000 
 8593408.000000, 1.572084 , -4.036692, 9.016156, 88541585408.000000, -3.570000,  7.000000,  11.620000, 0.000000,  0.000000 
 8617984.000000, 1.785046 , -4.141976, 9.133404, 88541601792.000000, -13.090000,  7.700000,  9.450000, 0.000000,  0.000000 
 8634368.000000, 1.639083 , -4.369294, 9.162118, 88541626368.000000, -11.620000,  3.150000,  12.600000, 0.000000,  0.000000 
 8650752.000000, 1.385444 , -4.661219, 8.867801, 88541642752.000000, -13.930000,  -0.840000,  11.270000, 0.000000,  0.000000 
 8675328.000000, 1.763510 , -5.065606, 8.949157, 88541659136.000000, -16.309999,  -3.290000,  6.720000, 0.000000,  0.000000 
 8691712.000000, 1.966900 , -5.144568, 8.580662, 88541683712.000000, -13.580000,  -6.580000,  6.090000, 0.000000,  0.000000 
 8716288.000000, 2.086541 , -5.156533, 8.396415, 88541700096.000000, -9.870000,  -6.720000,  5.950000, 0.000000,  0.000000 
 8732672.000000, 2.189433 , -5.041678, 8.556733, 88541724672.000000, -6.160000,  -8.330000,  4.690000, 0.000000,  0.000000 
 8757248.000000, 1.916651 , -4.692325, 8.401200, 88541741056.000000, 3.850000,  -8.820000,  3.710000, 0.000000,  0.000000 
 8773632.000000, 2.079363 , -4.642076, 8.362915, 88541765632.000000, 10.500000,  -6.720000,  2.520000, 0.000000,  0.000000 
 8798208.000000, 2.313859 , -4.869394, 8.681160, 88541782016.000000, 7.350000,  -7.350000,  2.170000, 0.000000,  0.000000 
 8814592.000000, 1.916651 , -5.111069, 8.822337, 88541806592.000000, 1.050000,  -7.070000,  1.050000, 0.000000,  0.000000 
 8830976.000000, 1.878366 , -5.271388, 8.939585, 88541822976.000000, -9.240000,  -6.020000,  -1.190000, 0.000000,  0.000000 
 8855552.000000, 1.797010 , -5.252246, 8.669197, 88541839360.000000, -9.800000,  -5.040000,  -3.010000, 0.000000,  0.000000 
 8871936.000000, 1.804188 , -5.156533, 8.353344, 88541863936.000000, -5.530000,  -4.550000,  -6.020000, 0.000000,  0.000000 
 8896512.000000, 1.607977 , -4.687540, 8.037491, 88541880320.000000, -0.840000,  -4.130000,  -7.770000, 0.000000,  0.000000 
 8912896.000000, 1.476372 , -4.412365, 7.944171, 88541904896.000000, 2.730000,  -4.690000,  -8.750000, 0.000000,  0.000000 
 8937472.000000, 1.344766 , -3.704089, 7.714460, 88541921280.000000, 10.290000,  -3.150000,  -8.680000, 0.000000,  0.000000 
 8953856.000000, 1.395016 , -3.146562, 7.429714, 88541945856.000000, 21.980000,  -0.910000,  -7.420000, 0.000000,  0.000000 
 8978432.000000, 1.770689 , -3.069991, 7.434500, 88541962240.000000, 26.740000,  1.540000,  -3.780000, 0.000000,  0.000000 
 8994816.000000, 2.050649 , -3.232704, 7.506285, 88541986816.000000, 24.080000,  3.500000,  0.210000, 0.000000,  0.000000 
 9011200.000000, 2.005185 , -3.390630, 8.032705, 88542003200.000000, 16.660000,  5.880000,  4.200000, 0.000000,  0.000000 
 9035776.000000, 1.696511 , -3.527020, 8.819944, 88542019584.000000, 6.230000,  7.840000,  6.230000, 0.000000,  0.000000 
 9052160.000000, 1.895115 , -4.122833, 9.317651, 88542044160.000000, -2.520000,  10.360000,  6.860000, 0.000000,  0.000000 
 9076736.000000, 2.222932 , -4.661219, 9.485149, 88542060544.000000, -9.030000,  9.100000,  6.860000, 0.000000,  0.000000 
 9093120.000000, 2.297110 , -5.075177, 9.391829, 88542085120.000000, -13.580000,  5.460000,  9.520000, 0.000000,  0.000000 
 9117696.000000, 2.275574 , -5.460421, 9.238688, 88542101504.000000, -17.219999,  0.630000,  8.190000, 0.000000,  0.000000 
 9134080.000000, 2.151148 , -5.575277, 8.918050, 88542126080.000000, -12.670000,  -2.870000,  6.020000, 0.000000,  0.000000 
 9150464.000000, 2.007578 , -5.465207, 8.633304, 88542142464.000000, 1.610000,  -4.130000,  4.480000, 0.000000,  0.000000 
 9175040.000000, 1.868794 , -5.240282, 8.784052, 88542158848.000000, 7.280000,  -3.570000,  2.380000, 0.000000,  0.000000 
 9191424.000000, 1.552942 , -4.957928, 8.532805, 88542183424.000000, 6.510000,  -1.610000,  -0.980000, 0.000000,  0.000000 
 9216000.000000, 1.770689 , -4.756931, 8.355737, 88542199808.000000, 10.360000,  -1.400000,  -5.250000, 0.000000,  0.000000 
 9232384.000000, 2.110470 , -4.402793, 8.283953, 88542224384.000000, 16.309999,  -2.380000,  -5.670000, 88489181184.000000,  1009.565125 
 9256960.000000, 1.792224 , -3.917051, 8.286345, 88542240768.000000, 21.070000,  -3.220000,  -6.230000, 0.000000,  0.000000 
 9273344.000000, 1.347159 , -3.352344, 8.233703, 88542265344.000000, 19.809999,  -1.890000,  -9.100000, 0.000000,  0.000000 
 9297920.000000, 1.545763 , -3.103491, 8.157133, 88542281728.000000, 15.680000,  -1.890000,  -11.060000, 0.000000,  0.000000 
 9314304.000000, 1.562513 , -2.821138, 7.994420, 88542306304.000000, 16.309999,  -1.190000,  -9.940000, 0.000000,  0.000000 
 9330688.000000, 1.682154 , -3.065206, 8.164310, 88542322688.000000, 15.540000,  -0.140000,  -4.690000, 0.000000,  0.000000 
 9355264.000000, 1.890330 , -3.728018, 8.453842, 88542339072.000000, 8.680000,  0.840000,  -1.470000, 0.000000,  0.000000 
 9379840.000000, 1.777867 , -3.821337, 8.573483, 88542363648.000000, 2.590000,  2.170000,  0.210000, 0.000000,  0.000000 
 9396224.000000, 1.708475 , -3.708875, 8.781659, 88542388224.000000, 2.310000,  4.900000,  2.240000, 0.000000,  0.000000 
 9412608.000000, 1.462015 , -3.720839, 9.248260, 88542404608.000000, 3.080000,  5.670000,  3.570000, 0.000000,  0.000000 
 9437184.000000, 1.392623 , -3.802195, 9.360723, 88542420992.000000, 0.630000,  7.280000,  2.940000, 0.000000,  0.000000 
 9453568.000000, 1.993221 , -4.094120, 9.346365, 88542445568.000000, 1.470000,  6.860000,  3.010000, 0.000000,  0.000000 
 9478144.000000, 2.041078 , -4.304688, 9.195618, 88542461952.000000, 1.190000,  3.570000,  4.550000, 0.000000,  0.000000 
 9494528.000000, 1.964507 , -4.400401, 8.951550, 88542486528.000000, -3.360000,  2.030000,  3.430000, 0.000000,  0.000000 
 9510912.000000, 2.055435 , -4.086941, 8.520842, 88542502912.000000, -0.630000,  0.070000,  1.190000, 0.000000,  0.000000 
 9535488.000000, 2.060220 , -3.960121, 8.197811, 88542519296.000000, 5.390000,  -0.630000,  1.540000, 0.000000,  0.000000 
 9551872.000000, 2.232504 , -4.077370, 8.420342, 88542543872.000000, 4.060000,  1.050000,  0.840000, 0.000000,  0.000000 
 9576448.000000, 1.677369 , -4.003192, 9.054441, 88542560256.000000, -2.170000,  2.100000,  -0.070000, 0.000000,  0.000000 
 9592832.000000, 1.258625 , -3.718446, 9.116654, 88542584832.000000, -2.800000,  4.760000,  -2.240000, 0.000000,  0.000000 
 9617408.000000, 1.823331 , -3.742374, 9.066404, 88542601216.000000, 5.110000,  5.670000,  -2.870000, 0.000000,  0.000000 
 9633792.000000, 1.974079 , -3.962514, 9.341579, 88542625792.000000, 5.320000,  2.100000,  -1.330000, 0.000000,  0.000000 
 9650176.000000, 1.354338 , -3.866802, 9.420543, 88542642176.000000, -1.750000,  0.630000,  -1.190000, 0.000000,  0.000000 
 9674752.000000, 1.325624 , -3.515057, 8.824730, 88542658560.000000, 1.050000,  0.630000,  -3.850000, 0.000000,  0.000000 
 9691136.000000, 1.521835 , -3.431308, 8.288737, 88542683136.000000, 13.370000,  -1.540000,  -2.450000, 0.000000,  0.000000 
 9715712.000000, 1.524228 , -3.369094, 7.946564, 88542699520.000000, 18.690001,  -3.290000,  -0.350000, 0.000000,  0.000000 
 9732096.000000, 1.768296 , -3.385844, 7.707282, 88542724096.000000, 18.620001,  -2.450000,  2.590000, 0.000000,  0.000000 
 9756672.000000, 1.880759 , -3.261417, 8.068598, 88542740480.000000, 17.780001,  -1.330000,  4.690000, 0.000000,  0.000000 
 9773056.000000, 1.785046 , -3.081956, 8.499306, 88542765056.000000, 10.640000,  2.310000,  6.230000, 0.000000,  0.000000 
 9797632.000000, 2.158326 , -3.357130, 8.872586, 88542781440.000000, 1.400000,  6.650000,  7.000000, 0.000000,  0.000000 
 9814016.000000, 2.225325 , -3.656233, 9.346365, 88542806016.000000, -1.050000,  8.260000,  8.890000, 0.000000,  0.000000 
 9830400.000000, 1.715654 , -4.170690, 9.714860, 88542822400.000000, -2.940000,  11.410000,  8.330000, 0.000000,  0.000000 
 9854976.000000, 1.387837 , -4.295116, 10.169496, 88542838784.000000, -2.310000,  13.720000,  4.550000, 0.000000,  0.000000 
 9871360.000000, 0.952343 , -3.955336, 10.131211, 88542863360.000000, -0.070000,  12.390000,  1.820000, 0.000000,  0.000000 
 9895936.000000, 1.115055 , -4.139583, 9.858429, 88542879744.000000, 3.080000,  9.170000,  1.610000, 0.000000,  0.000000 
 9912320.000000, 1.557728 , -4.445865, 9.494720, 88542904320.000000, 6.790000,  2.030000,  0.770000, 0.000000,  0.000000 
 9936896.000000, 1.569692 , -3.708875, 8.453842, 88542920704.000000, 16.170000,  -5.530000,  2.730000, 0.000000,  0.000000 
 9953280.000000, 1.727618 , -2.940779, 7.676175, 88542945280.000000, 37.099998,  -8.470000,  3.920000, 0.000000,  0.000000 
 9977856.000000, 1.768296 , -2.596212, 7.666604, 88542961664.000000, 43.119999,  -8.050000,  3.360000, 0.000000,  0.000000 
 9994240.000000, 1.636691 , -2.536392, 8.080563, 88542986240.000000, 27.860001,  -3.850000,  1.890000, 0.000000,  0.000000 
 10010624.000000, 1.471586 , -2.428715, 8.484949, 88543002624.000000, 10.990000,  1.120000,  1.190000, 0.000000,  0.000000 
 10035200.000000, 1.521835 , -2.634498, 8.889337, 88543019008.000000, 1.540000,  4.690000,  2.520000, 0.000000,  0.000000 
 10051584.000000, 1.538585 , -2.912065, 9.480364, 88543043584.000000, -3.290000,  6.510000,  3.780000, 0.000000,  0.000000 
 10076160.000000, 1.239482 , -3.024528, 9.731609, 88543059968.000000, -5.390000,  7.210000,  4.200000, 0.000000,  0.000000 
 10092544.000000, 1.442872 , -3.306881, 9.748360, 88543084544.000000, -8.540000,  7.070000,  4.200000, 0.000000,  0.000000 
 10117120.000000, 1.481157 , -3.620341, 9.662218, 88543100928.000000, -13.440001,  3.710000,  4.970000, 0.000000,  0.000000 
 10133504.000000, 1.488336 , -3.735196, 9.303294, 88543125504.000000, -12.810000,  0.420000,  5.180000, 0.000000,  0.000000 
 10149888.000000, 1.462015 , -3.661019, 8.865408, 88543141888.000000, -2.380000,  -1.680000,  6.160000, 0.000000,  0.000000 
 10174464.000000, 1.519442 , -3.601198, 8.903693, 88543158272.000000, 7.490000,  -2.730000,  5.810000, 0.000000,  0.000000 
 10190848.000000, 1.378266 , -3.297310, 8.944371, 88543182848.000000, 9.520000,  -2.660000,  5.320000, 0.000000,  0.000000 
 10215424.000000, 1.418944 , -3.050849, 9.123833, 88543199232.000000, 5.880000,  -2.240000,  4.130000, 0.000000,  0.000000 
 10231808.000000, 1.658226 , -3.225525, 8.915657, 88543223808.000000, -1.120000,  -1.750000,  4.830000, 88490180608.000000,  1009.566528 
 10256384.000000, 2.103291 , -3.390630, 8.358130, 88543240192.000000, -5.110000,  -2.450000,  3.990000, 0.000000,  0.000000 
 10272768.000000, 2.299503 , -3.524628, 8.475377, 88543264768.000000, -5.110000,  -3.780000,  4.200000, 0.000000,  0.000000 
 10297344.000000, 1.507478 , -3.242275, 8.894121, 88543281152.000000, 2.310000,  -2.730000,  2.660000, 0.000000,  0.000000 
 10313728.000000, 0.914058 , -2.775674, 8.851050, 88543305728.000000, -2.940000,  2.660000,  0.490000, 0.000000,  0.000000 
 10330112.000000, 1.414158 , -2.988636, 9.391829, 88543322112.000000, -1.400000,  5.880000,  -1.680000, 0.000000,  0.000000 
 10354688.000000, 1.339981 , -3.304488, 9.973285, 88543338496.000000, -1.330000,  4.130000,  -0.350000, 0.000000,  0.000000 
 10379264.000000, 1.459622 , -3.653840, 9.930215, 88543363072.000000, -5.460000,  4.480000,  0.910000, 0.000000,  0.000000 
 10395648.000000, 1.557728 , -3.668197, 10.226924, 88543387648.000000, -4.970000,  1.610000,  1.680000, 0.000000,  0.000000 
 10412032.000000, 0.954736 , -3.270989, 9.918249, 88543404032.000000, -4.340000,  -1.680000,  0.910000, 0.000000,  0.000000 
 10436608.000000, 0.971486 , -3.182454, 9.468399, 88543420416.000000, 2.590000,  -0.910000,  -1.120000, 0.000000,  0.000000 
 10452992.000000, 1.306481 , -3.328416, 8.657232, 88543444992.000000, 10.220000,  -3.850000,  -1.540000, 0.000000,  0.000000 
 10477568.000000, 1.804188 , -3.416951, 7.479963, 88543461376.000000, 13.090000,  -7.560000,  0.350000, 0.000000,  0.000000 
 10493952.000000, 2.182254 , -3.280560, 6.958328, 88543485952.000000, 13.510000,  -10.780000,  3.710000, 0.000000,  0.000000 
 10510336.000000, 1.892723 , -2.945565, 7.030113, 88543502336.000000, 7.490000,  -9.940000,  5.740000, 0.000000,  0.000000 
 10534912.000000, 1.808974 , -2.749353, 7.862815, 88543518720.000000, 2.730000,  -3.430000,  3.570000, 0.000000,  0.000000 
 10551296.000000, 1.768296 , -2.732604, 9.107083, 88543543296.000000, -0.140000,  3.570000,  2.310000, 0.000000,  0.000000 
 10575872.000000, 1.533799 , -2.749353, 9.729217, 88543559680.000000, -8.330000,  9.240000,  2.870000, 0.000000,  0.000000 
 10592256.000000, 1.502693 , -3.299703, 10.131211, 88543584256.000000, -16.940001,  11.620000,  1.960000, 0.000000,  0.000000 
 10616832.000000, 1.292124 , -3.577270, 10.016356, 88543600640.000000, -19.250000,  7.770000,  0.420000, 0.000000,  0.000000 
 10633216.000000, 1.129412 , -3.436093, 9.580862, 88543625216.000000, -10.710000,  4.270000,  0.840000, 0.000000,  0.000000 
 10649600.000000, 1.337588 , -3.629912, 9.332008, 88543641600.000000, 1.190000,  1.400000,  1.540000, 0.000000,  0.000000 
 10674176.000000, 1.296910 , -3.728018, 9.064013, 88543657984.000000, -0.210000,  -1.890000,  1.470000, 0.000000,  0.000000 
 10690560.000000, 1.550549 , -3.723232, 8.602197, 88543682560.000000, -0.490000,  -3.430000,  1.120000, 0.000000,  0.000000 
 10715136.000000, 1.892723 , -3.706482, 8.776874, 88543698944.000000, 4.270000,  -4.900000,  1.050000, 0.000000,  0.000000 
 10731520.000000, 1.727618 , -3.840480, 9.119047, 88543723520.000000, 4.270000,  -4.760000,  1.680000, 0.000000,  0.000000 
 10756096.000000, 1.983650 , -3.957729, 9.420543, 88543739904.000000, -1.960000,  -1.400000,  -0.560000, 0.000000,  0.000000 
 10772480.000000, 1.804188 , -3.871587, 9.530612, 88543780864.000000, -5.880000,  -1.050000,  -4.340000, 0.000000,  0.000000 
 10797056.000000, 1.249053 , -3.503092, 9.243474, 0.000000, 0.000000,  0.000000,  0.000000, 0.000000,  0.000000 
 10813440.000000, 1.213161 , -3.326023, 9.186047, 88543805440.000000, -3.220000,  0.280000,  -7.980000, 0.000000,  0.000000 
 10829824.000000, 1.186840 , -3.237489, 8.977871, 88543821824.000000, 2.940000,  -0.280000,  -9.730000, 0.000000,  0.000000 
 10854400.000000, 1.220340 , -3.072384, 8.623734, 88543838208.000000, 2.520000,  -1.330000,  -9.520000, 0.000000,  0.000000 
 10870784.000000, 1.311267 , -3.000600, 8.487342, 88543862784.000000, -1.960000,  -2.100000,  -7.770000, 0.000000,  0.000000 
 10895360.000000, 1.162912 , -2.711068, 8.360522, 88543879168.000000, -5.250000,  -2.800000,  -6.300000, 0.000000,  0.000000 
 10911744.000000, 1.174876 , -2.213361, 8.365308, 88543903744.000000, -8.330000,  -0.560000,  -5.460000, 0.000000,  0.000000 
 10936320.000000, 1.320838 , -2.115255, 8.551948, 88543920128.000000, -16.170000,  0.420000,  -2.940000, 0.000000,  0.000000 
 10952704.000000, 1.462015 , -2.376073, 8.487342, 88543944704.000000, -38.290001,  -0.140000,  -0.490000, 0.000000,  0.000000 
 10977280.000000, 1.916651 , -3.072384, 8.231310, 88543961088.000000, -56.279999,  -1.890000,  4.270000, 0.000000,  0.000000 
 10993664.000000, 2.194218 , -4.110869, 8.903693, 88543985664.000000, -60.549999,  -5.320000,  7.630000, 0.000000,  0.000000 
 11010048.000000, 1.737189 , -4.620540, 9.561719, 88544002048.000000, -60.340000,  -5.320000,  10.570000, 0.000000,  0.000000 
 11034624.000000, 1.308874 , -4.850252, 9.827322, 88544018432.000000, -47.950001,  -3.080000,  11.900000, 0.000000,  0.000000 
 11051008.000000, 1.524228 , -5.510671, 9.918249, 88544043008.000000, -27.230000,  -2.940000,  11.760000, 0.000000,  0.000000 
 11075584.000000, 1.569692 , -5.450850, 9.279366, 88544059392.000000, -11.480000,  -6.230000,  9.870000, 0.000000,  0.000000 
 11091968.000000, 1.911865 , -5.170890, 8.260024, 88544083968.000000, -0.280000,  -9.660000,  7.840000, 0.000000,  0.000000 
 11116544.000000, 2.280360 , -5.264209, 7.326823, 88544100352.000000, -5.740000,  -14.140000,  3.780000, 0.000000,  0.000000 
 11132928.000000, 2.304288 , -5.460421, 7.262216, 88544124928.000000, -30.590000,  -15.190001,  -4.340000, 0.000000,  0.000000 
 11149312.000000, 2.081756 , -5.223531, 7.381857, 88544157696.000000, -43.119999,  -5.390000,  -10.990000, 0.000000,  0.000000 
 11173888.000000, 2.055435 , -4.594220, 7.355537, 0.000000, 0.000000,  0.000000,  0.000000, 0.000000,  0.000000 
 11190272.000000, 2.091327 , -4.527221, 7.793423, 88544182272.000000, -23.309999,  0.140000,  -7.770000, 0.000000,  0.000000 
 11214848.000000, 2.249253 , -4.934000, 8.458629, 88544198656.000000, -13.930000,  4.550000,  -6.230000, 0.000000,  0.000000 
 11231232.000000, 2.019542 , -4.744967, 8.652447, 88544223232.000000, -8.400000,  7.280000,  -5.880000, 88491180032.000000,  1009.569336 
 11255808.000000, 1.725225 , -4.701896, 8.810372, 88544239616.000000, 1.540000,  7.630000,  -3.920000, 0.000000,  0.000000 
 11272192.000000, 1.493121 , -4.721039, 9.116654, 88544264192.000000, 5.040000,  6.790000,  -5.810000, 0.000000,  0.000000 
 11296768.000000, 0.957129 , -4.587041, 9.028119, 88544280576.000000, 5.040000,  5.530000,  -5.600000, 0.000000,  0.000000 
 11313152.000000, 1.399801 , -4.689932, 8.642875, 88544305152.000000, 8.610000,  4.480000,  -6.020000, 0.000000,  0.000000 
 11329536.000000, 1.856830 , -4.953143, 8.544770, 88544321536.000000, 10.360000,  1.470000,  -3.010000, 0.000000,  0.000000 
 11354112.000000, 1.794617 , -5.197211, 8.420342, 88544337920.000000, 7.000000,  -1.260000,  -1.400000, 0.000000,  0.000000 
 11378688.000000, 2.151148 , -5.091926, 8.405986, 88544362496.000000, 5.460000,  -2.030000,  -2.660000, 0.000000,  0.000000 
 11395072.000000, 1.895115 , -4.682754, 8.370094, 88544387072.000000, 9.940000,  -4.130000,  -1.330000, 0.000000,  0.000000 
 11411456.000000, 1.213161 , -4.084548, 8.190632, 88544403456.000000, 14.280000,  -3.010000,  -3.290000, 0.000000,  0.000000 
 11436032.000000, 1.397408 , -3.869194, 7.936993, 88544419840.000000, 15.540000,  -0.770000,  -4.270000, 0.000000,  0.000000 
 11452416.000000, 1.751546 , -4.027121, 7.994420, 88544444416.000000, 11.410000,  -2.590000,  -3.570000, 0.000000,  0.000000 
 11476992.000000, 2.055435 , -4.350152, 7.891530, 88544460800.000000, 5.320000,  -3.360000,  -1.470000, 0.000000,  0.000000 
 11493376.000000, 2.251646 , -4.833502, 7.920243, 88544485376.000000, 1.610000,  -2.450000,  0.630000, 0.000000,  0.000000 
 11509760.000000, 2.043471 , -5.022535, 8.183454, 88544501760.000000, -2.520000,  -1.750000,  0.420000, 0.000000,  0.000000 
 11534336.000000, 1.921437 , -4.675575, 8.563912, 88544518144.000000, 2.170000,  -0.630000,  0.980000, 0.000000,  0.000000 
 11550720.000000, 1.722832 , -4.491328, 8.599805, 88544542720.000000, 12.460000,  1.960000,  2.310000, 0.000000,  0.000000 
 11575296.000000, 1.770689 , -4.733003, 8.736196, 88544559104.000000, 10.430000,  4.060000,  -0.140000, 0.000000,  0.000000 
 11591680.000000, 1.629512 , -4.929214, 8.705089, 88544583680.000000, -0.770000,  4.340000,  -3.220000, 0.000000,  0.000000 
 11616256.000000, 1.406980 , -4.467400, 8.547162, 88544600064.000000, -4.970000,  4.760000,  -6.720000, 0.000000,  0.000000 
 11632640.000000, 1.464408 , -4.041477, 8.389235, 88544624640.000000, 3.360000,  4.130000,  -6.300000, 0.000000,  0.000000 
 11649024.000000, 1.584049 , -4.096512, 8.429914, 88544641024.000000, 8.610000,  3.850000,  -3.570000, 0.000000,  0.000000 
 11673600.000000, 1.816152 , -4.019942, 8.214561, 88544657408.000000, 6.370000,  4.410000,  -1.750000, 0.000000,  0.000000 
 11689984.000000, 2.081756 , -4.106083, 8.300702, 88544681984.000000, 5.530000,  3.220000,  0.630000, 0.000000,  0.000000 
 11714560.000000, 2.000400 , -4.182654, 8.537591, 88544698368.000000, 0.350000,  1.680000,  2.240000, 0.000000,  0.000000 
 11730944.000000, 2.057827 , -4.622933, 8.872586, 88544722944.000000, -5.810000,  1.820000,  2.800000, 0.000000,  0.000000 
 11755520.000000, 2.120041 , -4.945964, 8.774480, 88544739328.000000, -8.120000,  1.470000,  3.010000, 0.000000,  0.000000 
 11771904.000000, 2.208575 , -4.886144, 8.446664, 88544763904.000000, -2.660000,  0.280000,  0.700000, 0.000000,  0.000000 
 11796480.000000, 2.227718 , -4.843073, 8.288737, 88544780288.000000, 4.480000,  -1.260000,  1.330000, 0.000000,  0.000000 
 11812864.000000, 2.129612 , -4.859823, 8.334201, 88544804864.000000, 3.710000,  -2.170000,  -0.980000, 0.000000,  0.000000 
 11829248.000000, 2.002793 , -4.570292, 8.365308, 88544821248.000000, 3.500000,  -1.750000,  -2.450000, 0.000000,  0.000000 
 11853824.000000, 1.986043 , -4.232903, 8.439486, 88544837632.000000, 5.950000,  -0.350000,  -2.380000, 0.000000,  0.000000 
 11870208.000000, 1.629512 , -3.859623, 8.446664, 88544862208.000000, 7.700000,  1.540000,  -2.940000, 0.000000,  0.000000 
 11894784.000000, 1.557728 , -4.108476, 8.659625, 88544878592.000000, 6.230000,  3.780000,  -2.030000, 0.000000,  0.000000 
 11911168.000000, 1.741975 , -4.398008, 8.843873, 88544903168.000000, 4.200000,  4.900000,  -2.730000, 0.000000,  0.000000 
 11935744.000000, 1.758725 , -4.378866, 8.951550, 88544919552.000000, 3.360000,  4.410000,  -1.260000, 0.000000,  0.000000 
 11952128.000000, 1.868794 , -4.366901, 8.733803, 88544944128.000000, 5.460000,  3.990000,  -0.420000, 0.000000,  0.000000 
 11976704.000000, 1.732404 , -4.165904, 8.360522, 88544960512.000000, 5.110000,  2.100000,  -1.330000, 0.000000,  0.000000 
 11993088.000000, 2.079363 , -4.321437, 8.274381, 88544985088.000000, 4.690000,  0.490000,  -2.030000, 0.000000,  0.000000 
 12009472.000000, 2.287539 , -4.280759, 8.444271, 88545001472.000000, 1.890000,  -0.910000,  -2.030000, 0.000000,  0.000000 
 12034048.000000, 1.591227 , -4.170690, 8.774480, 88545017856.000000, -1.750000,  -1.470000,  -1.400000, 0.000000,  0.000000 
 12050432.000000, 1.021735 , -3.816552, 9.207582, 88545042432.000000, 3.220000,  0.490000,  -2.870000, 0.000000,  0.000000 
 12075008.000000, 1.227518 , -3.857230, 9.430114, 88545058816.000000, 19.530001,  3.920000,  -1.330000, 0.000000,  0.000000 
 12091392.000000, 1.110270 , -3.799802, 9.958927, 88545083392.000000, 30.380001,  3.150000,  0.210000, 0.000000,  0.000000 
 12115968.000000, 0.284746 , -3.098706, 9.796216, 88545099776.000000, 31.080000,  2.170000,  0.490000, 0.000000,  0.000000 
 12132352.000000, 0.705883 , -3.086741, 8.953942, 88545124352.000000, 29.889999,  0.840000,  -0.910000, 0.000000,  0.000000 
 12148736.000000, 2.746960 , -4.132405, 7.965706, 88545140736.000000, 35.209999,  -5.600000,  -1.750000, 0.000000,  0.000000 
 12173312.000000, 3.981657 , -4.620540, 7.664211, 88545157120.000000, 43.049999,  -15.960000,  2.940000, 0.000000,  0.000000 
 12189696.000000, 2.395216 , -3.790231, 7.678568, 88545181696.000000, 38.849998,  -19.530001,  9.170000, 0.000000,  0.000000 
 12214272.000000, 1.093520 , -2.991028, 7.695317, 88545222656.000000, 33.320000,  4.830000,  -7.280000, 88492179456.000000,  1009.570740 
 12230656.000000, 1.330409 , -2.579463, 8.250452, 0.000000, 0.000000,  0.000000,  0.000000, 0.000000,  0.000000 
 12255232.000000, 1.593620 , -2.667997, 9.001799, 88545239040.000000, 22.889999,  10.850000,  -5.950000, 0.000000,  0.000000 
 12271616.000000, 1.651048 , -3.189633, 9.355937, 88545263616.000000, -2.590000,  15.820000,  -6.160000, 0.000000,  0.000000 
 12296192.000000, 1.978864 , -3.565305, 9.396614, 88545280000.000000, -21.420000,  15.960000,  -8.820000, 0.000000,  0.000000 
 12312576.000000, 2.366502 , -3.869194, 9.322437, 88545304576.000000, -23.590000,  12.390000,  -7.630000, 0.000000,  0.000000 
 12328960.000000, 2.342573 , -3.333202, 9.131011, 88545320960.000000, -14.490000,  6.720000,  -6.650000, 0.000000,  0.000000 
 12353536.000000, 2.227718 , -2.868994, 8.621340, 88545337344.000000, 3.990000,  5.670000,  -2.380000, 0.000000,  0.000000 
 12378112.000000, 2.218147 , -2.950350, 8.659625, 88545361920.000000, 12.320000,  4.060000,  -1.750000, 0.000000,  0.000000 
 12394496.000000, 2.254039 , -3.225525, 8.609376, 88545386496.000000, 7.700000,  2.030000,  -0.210000, 0.000000,  0.000000 
 12410880.000000, 2.414358 , -3.163311, 8.731410, 88545402880.000000, 5.670000,  0.630000,  1.610000, 0.000000,  0.000000 
 12435456.000000, 2.139183 , -3.582055, 9.119047, 88545419264.000000, 3.780000,  0.700000,  5.530000, 0.000000,  0.000000 
 12451840.000000, 1.758725 , -3.828516, 9.588040, 88545443840.000000, -5.320000,  3.850000,  1.960000, 0.000000,  0.000000 
 12476416.000000, 1.842474 , -3.850052, 9.504292, 88545460224.000000, -7.910000,  5.250000,  -1.610000, 0.000000,  0.000000 
 12492800.000000, 1.670190 , -3.974478, 9.111869, 88545484800.000000, -7.000000,  4.830000,  -1.680000, 0.000000,  0.000000 
 12509184.000000, 1.567299 , -3.984050, 9.183653, 88545501184.000000, -2.520000,  4.550000,  -4.480000, 0.000000,  0.000000 
 12533760.000000, 1.569692 , -3.787838, 9.379865, 88545517568.000000, -0.420000,  2.240000,  -6.090000, 0.000000,  0.000000 
 12550144.000000, 1.406980 , -3.428915, 8.793623, 88545542144.000000, 0.210000,  -0.910000,  -8.330000, 0.000000,  0.000000 
 12574720.000000, 1.459622 , -2.995814, 8.319844, 88545558528.000000, 0.070000,  -2.590000,  -9.660000, 0.000000,  0.000000 
 12591104.000000, 1.691726 , -2.696711, 7.903493, 88545583104.000000, -0.980000,  -3.920000,  -11.900000, 0.000000,  0.000000 
 12615680.000000, 1.797010 , -2.713461, 7.781459, 88545599488.000000, -7.280000,  -4.620000,  -9.870000, 0.000000,  0.000000 
 12632064.000000, 1.758725 , -2.873780, 8.209774, 88545624064.000000, -10.220000,  -3.710000,  -8.820000, 0.000000,  0.000000 
 12648448.000000, 1.698904 , -3.122634, 8.764909, 88545640448.000000, -14.490000,  0.350000,  -8.190000, 0.000000,  0.000000 
 12673024.000000, 1.708475 , -3.359523, 9.138189, 88545656832.000000, -17.710001,  5.880000,  -5.390000, 0.000000,  0.000000 
 12689408.000000, 1.686940 , -3.491128, 9.353544, 88545681408.000000, -16.940001,  9.310000,  -3.990000, 0.000000,  0.000000 
 12713984.000000, 1.698904 , -3.617948, 9.585647, 88545697792.000000, -14.000000,  9.940000,  -1.260000, 0.000000,  0.000000 
 12730368.000000, 1.517050 , -3.952943, 9.817751, 88545722368.000000, -15.540000,  9.870000,  -0.770000, 0.000000,  0.000000 
 12754944.000000, 1.421337 , -4.208975, 9.875179, 88545738752.000000, -19.040001,  8.750000,  -2.870000, 0.000000,  0.000000 
 12771328.000000, 1.797010 , -4.405186, 9.511470, 88545763328.000000, -14.770000,  6.510000,  -2.940000, 0.000000,  0.000000 
 12795904.000000, 1.993221 , -4.639683, 9.370294, 88545779712.000000, -14.840000,  0.770000,  -2.870000, 0.000000,  0.000000 
 12812288.000000, 1.586441 , -4.364508, 9.092726, 88545804288.000000, -15.050000,  -3.080000,  -3.920000, 0.000000,  0.000000 
 12828672.000000, 1.485943 , -4.455436, 8.901299, 88545820672.000000, -13.580000,  -1.960000,  -7.280000, 0.000000,  0.000000 
 12853248.000000, 1.785046 , -4.264010, 8.819944, 88545837056.000000, -9.520000,  -2.240000,  -10.430000, 0.000000,  0.000000 
 12869632.000000, 1.667797 , -3.749553, 8.403593, 88545861632.000000, -6.930000,  -3.500000,  -9.520000, 0.000000,  0.000000 
 12894208.000000, 1.718047 , -3.388237, 7.841280, 88545878016.000000, -2.170000,  -1.610000,  -9.380000, 0.000000,  0.000000 
 12910592.000000, 2.199004 , -3.060420, 7.585248, 88545902592.000000, 2.870000,  -2.030000,  -9.380000, 0.000000,  0.000000 
 12935168.000000, 2.076970 , -2.706282, 7.372287, 88545918976.000000, 3.220000,  -2.450000,  -4.130000, 0.000000,  0.000000 
 12951552.000000, 2.100898 , -2.792424, 7.513463, 88545943552.000000, 3.080000,  2.240000,  -1.680000, 0.000000,  0.000000 
 12976128.000000, 2.086541 , -3.163311, 8.516055, 88545959936.000000, -2.450000,  5.320000,  -0.210000, 0.000000,  0.000000 
 12992512.000000, 1.177269 , -3.457629, 9.377472, 88545984512.000000, -14.560000,  10.710000,  1.960000, 0.000000,  0.000000 
 13008896.000000, 0.780060 , -3.842873, 9.844072, 88546000896.000000, -21.139999,  17.920000,  -0.560000, 0.000000,  0.000000 
 13033472.000000, 1.450050 , -4.503292, 9.872787, 88546017280.000000, -20.440001,  15.400000,  -0.840000, 0.000000,  0.000000 
 13049856.000000, 1.811367 , -4.654040, 9.370294, 88546041856.000000, -19.389999,  4.060000,  1.750000, 0.000000,  0.000000 
 13074432.000000, 1.672583 , -4.687540, 8.987441, 88546058240.000000, -14.420000,  -2.520000,  5.250000, 0.000000,  0.000000 
 13090816.000000, 1.488336 , -4.596612, 8.659625, 88546082816.000000, -5.320000,  -6.300000,  2.940000, 0.000000,  0.000000 
 13115392.000000, 1.560120 , -4.496114, 8.609376, 88546099200.000000, 1.680000,  -5.670000,  1.330000, 0.000000,  0.000000 
 13131776.000000, 1.454836 , -4.393222, 9.044869, 88546123776.000000, 2.660000,  -3.430000,  0.910000, 0.000000,  0.000000 
 13148160.000000, 1.433301 , -4.587041, 9.193225, 88546140160.000000, -0.350000,  0.350000,  0.350000, 0.000000,  0.000000 
 13172736.000000, 1.710868 , -4.666004, 8.784052, 88546156544.000000, -2.800000,  1.400000,  -1.680000, 0.000000,  0.000000 
 13189120.000000, 2.132005 , -4.713861, 8.690732, 88546181120.000000, -0.700000,  -1.470000,  0.070000, 0.000000,  0.000000 
 13213696.000000, 2.112862 , -4.197011, 8.255238, 88546222080.000000, 27.719999,  -3.780000,  0.770000, 88493178880.000000,  1009.570435 
 13230080.000000, 2.012364 , -3.448057, 8.003991, 0.000000, 0.000000,  0.000000,  0.000000, 0.000000,  0.000000 
 13254656.000000, 1.859223 , -3.242275, 8.015956, 88546238464.000000, 26.950001,  -1.470000,  -0.910000, 0.000000,  0.000000 
 13271040.000000, 1.584049 , -3.110669, 8.250452, 88546263040.000000, 15.540000,  0.630000,  -3.010000, 0.000000,  0.000000 
 13295616.000000, 1.301696 , -3.177669, 8.487342, 88546279424.000000, 5.250000,  5.040000,  -4.130000, 0.000000,  0.000000 
 13312000.000000, 1.406980 , -3.101098, 8.767302, 88546304000.000000, 0.140000,  8.470000,  -3.500000, 0.000000,  0.000000 
 13328384.000000, 1.447658 , -2.988636, 8.913264, 88546320384.000000, 0.140000,  8.610000,  -0.070000, 0.000000,  0.000000 
 13352960.000000, 1.332802 , -3.270989, 9.408579, 88546336768.000000, -3.360000,  8.960000,  3.710000, 0.000000,  0.000000 
 13377536.000000, 1.517050 , -4.110869, 9.930215, 88546361344.000000, -14.140000,  7.910000,  4.900000, 0.000000,  0.000000 
 13393920.000000, 1.299303 , -4.694718, 10.109675, 88546385920.000000, -21.910000,  3.150000,  5.950000, 0.000000,  0.000000 
 13410304.000000, 1.390230 , -4.378866, 9.236296, 88546402304.000000, -11.340000,  -1.540000,  8.260000, 0.000000,  0.000000 
 13434880.000000, 1.773082 , -4.374080, 8.516055, 88546418688.000000, 9.730000,  -7.630000,  10.430000, 0.000000,  0.000000 
 13451264.000000, 1.557728 , -4.689932, 8.520842, 88546443264.000000, 7.910000,  -10.010000,  8.680000, 0.000000,  0.000000 
 13475840.000000, 1.524228 , -4.773681, 8.671589, 88546459648.000000, -1.890000,  -7.490000,  4.130000, 0.000000,  0.000000 
 13492224.000000, 1.658226 , -4.515256, 8.513663, 88546484224.000000, -0.980000,  -5.250000,  1.330000, 0.000000,  0.000000 
 13508608.000000, 1.631905 , -4.165904, 8.554340, 88546500608.000000, 2.170000,  -3.640000,  0.700000, 0.000000,  0.000000 
 13533184.000000, 1.672583 , -3.974478, 8.472985, 88546516992.000000, 1.470000,  -1.890000,  -0.980000, 0.000000,  0.000000 
 13549568.000000, 1.859223 , -3.775874, 8.568698, 88546541568.000000, -0.700000,  -2.310000,  -3.080000, 0.000000,  0.000000 
 13574144.000000, 1.627119 , -3.460021, 8.504091, 88546557952.000000, 1.820000,  -2.240000,  -2.520000, 0.000000,  0.000000 
 13590528.000000, 1.684547 , -3.134598, 8.219346, 88546582528.000000, 7.910000,  0.210000,  -2.870000, 0.000000,  0.000000 
 13615104.000000, 1.978864 , -3.065206, 8.216952, 88546598912.000000, 12.950000,  0.070000,  -1.540000, 0.000000,  0.000000 
 13631488.000000, 1.706082 , -3.318845, 8.355737, 88546623488.000000, 7.140000,  -0.630000,  1.330000, 0.000000,  0.000000 
 13647872.000000, 1.665405 , -3.742374, 8.647661, 88546639872.000000, 0.280000,  0.980000,  1.540000, 0.000000,  0.000000 
 13672448.000000, 2.053042 , -3.699304, 8.721838, 88546656256.000000, 5.880000,  0.140000,  4.060000, 0.000000,  0.000000 
 13688832.000000, 1.911865 , -3.582055, 8.506484, 88546680832.000000, 11.270000,  -0.210000,  7.980000, 0.000000,  0.000000 
 13713408.000000, 1.643869 , -3.763910, 9.099905, 88546697216.000000, 6.440000,  0.210000,  8.470000, 0.000000,  0.000000 
 13729792.000000, 1.270589 , -4.187439, 10.066606, 88546721792.000000, -4.270000,  1.820000,  5.880000, 0.000000,  0.000000 
 13754368.000000, 1.150948 , -4.620540, 10.147961, 88546738176.000000, -6.300000,  3.990000,  1.890000, 0.000000,  0.000000 
 13770752.000000, 1.636691 , -4.673182, 9.822537, 88546762752.000000, -2.450000,  2.520000,  -0.350000, 0.000000,  0.000000 
 13795328.000000, 1.579263 , -4.469792, 8.989835, 88546779136.000000, -1.470000,  -3.360000,  1.120000, 0.000000,  0.000000 
 13811712.000000, 1.718047 , -4.273581, 8.341379, 88546803712.000000, 5.600000,  -7.000000,  -1.050000, 0.000000,  0.000000 
 13828096.000000, 2.170290 , -3.998406, 8.047063, 88546820096.000000, 13.790000,  -9.660000,  -2.800000, 0.000000,  0.000000 
 13852672.000000, 2.225325 , -3.610770, 7.881958, 88546836480.000000, 14.560000,  -8.680000,  -3.150000, 0.000000,  0.000000 
 13869056.000000, 2.172683 , -2.902494, 7.824530, 88546861056.000000, 11.970000,  -4.900000,  -4.480000, 0.000000,  0.000000 
 13893632.000000, 2.014757 , -2.840281, 8.037491, 88546877440.000000, 3.850000,  -1.330000,  -4.830000, 0.000000,  0.000000 
 13910016.000000, 2.086541 , -3.419343, 8.410772, 88546902016.000000, -8.540000,  3.150000,  -3.710000, 0.000000,  0.000000 
 13934592.000000, 2.103291 , -3.668197, 8.657232, 88546918400.000000, -20.580000,  3.990000,  -4.340000, 0.000000,  0.000000 
 13950976.000000, 1.624727 , -3.567699, 8.930015, 88546942976.000000, -16.309999,  3.850000,  -1.540000, 0.000000,  0.000000 
 13975552.000000, 1.325624 , -3.613162, 9.157332, 88546959360.000000, -8.890000,  6.090000,  -1.750000, 0.000000,  0.000000 
 13991936.000000, 1.462015 , -3.895515, 9.332008, 88546983936.000000, -7.280000,  6.930000,  -1.890000, 0.000000,  0.000000 
 14008320.000000, 1.584049 , -3.988836, 9.154939, 88547000320.000000, -11.340000,  4.970000,  -2.170000, 0.000000,  0.000000 
 14032896.000000, 1.873580 , -4.089334, 8.779266, 88547016704.000000, -13.160000,  1.890000,  -1.120000, 0.000000,  0.000000 
 14049280.000000, 2.043471 , -4.488935, 8.683553, 88547041280.000000, -16.940001,  -1.050000,  -0.770000, 0.000000,  0.000000 
 14073856.000000, 1.737189 , -4.771288, 8.714661, 88547057664.000000, -24.150000,  -1.260000,  -2.380000, 0.000000,  0.000000 
 14090240.000000, 1.665405 , -4.187439, 8.757731, 88547082240.000000, -15.610000,  0.560000,  -5.110000, 0.000000,  0.000000 
 14114816.000000, 2.120041 , -4.019942, 8.693125, 88547098624.000000, 3.710000,  0.700000,  -2.170000, 0.000000,  0.000000 
 14131200.000000, 1.481157 , -4.194618, 8.891729, 88547123200.000000, 5.110000,  -0.560000,  -0.140000, 0.000000,  0.000000 
 14147584.000000, 1.354338 , -4.244867, 9.095119, 88547139584.000000, -2.870000,  1.120000,  -4.410000, 0.000000,  0.000000 
 14172160.000000, 1.808974 , -4.357330, 9.131011, 88547155968.000000, -4.270000,  0.980000,  -5.040000, 0.000000,  0.000000 
 14188544.000000, 1.835295 , -4.199404, 8.803195, 88547180544.000000, -2.100000,  -0.770000,  -4.690000, 0.000000,  0.000000 
 14213120.000000, 1.593620 , -4.041477, 8.585447, 88547221504.000000, -2.380000,  -1.820000,  -5.600000, 88494178304.000000,  1009.572876 
 14229504.000000, 1.354338 , -3.744767, 8.578269, 0.000000, 0.000000,  0.000000,  0.000000, 0.000000,  0.000000 
 14254080.000000, 1.368695 , -3.577270, 8.291130, 88547237888.000000, 2.520000,  -1.470000,  -5.880000, 0.000000,  0.000000 
 14270464.000000, 2.258825 , -3.876373, 8.516055, 88547262464.000000, 10.010000,  -1.190000,  -4.760000, 0.000000,  0.000000 
 14295040.000000, 1.902294 , -3.828516, 8.726624, 88547278848.000000, 6.300000,  -3.430000,  -0.770000, 0.000000,  0.000000 
 14311424.000000, 1.308874 , -3.651447, 8.362915, 88547303424.000000, 1.540000,  -0.770000,  -0.700000, 0.000000,  0.000000 
 14327808.000000, 1.780260 , -3.448057, 8.305488, 88547319808.000000, 5.180000,  0.420000,  -2.450000, 0.000000,  0.000000 
 14352384.000000, 1.674976 , -3.495914, 8.437093, 88547336192.000000, 9.100000,  -0.980000,  1.260000, 0.000000,  0.000000 
 14376960.000000, 1.574477 , -3.771089, 8.609376, 88547360768.000000, 8.890000,  1.680000,  1.960000, 0.000000,  0.000000 
 14393344.000000, 1.878366 , -3.979264, 8.941978, 88547385344.000000, 1.120000,  3.500000,  2.240000, 0.000000,  0.000000 
 14409728.000000, 1.832902 , -4.273581, 9.114261, 88547401728.000000, -5.810000,  3.290000,  4.130000, 0.000000,  0.000000 
 14434304.000000, 1.797010 , -4.342973, 9.023334, 88547418112.000000, -3.080000,  3.430000,  2.940000, 0.000000,  0.000000 
 14450688.000000, 1.909473 , -4.290331, 9.138189, 88547442688.000000, 2.100000,  2.940000,  2.870000, 0.000000,  0.000000 
 14475264.000000, 1.648655 , -4.058227, 9.044869, 88547459072.000000, 5.040000,  1.330000,  3.220000, 0.000000,  0.000000 
 14491648.000000, 1.890330 , -4.017549, 8.721838, 88547483648.000000, 7.560000,  2.030000,  1.400000, 0.000000,  0.000000 
 14508032.000000, 2.139183 , -4.034299, 8.693125, 88547500032.000000, 7.770000,  0.350000,  2.030000, 0.000000,  0.000000 
 14532608.000000, 1.825724 , -4.070191, 8.757731, 88547516416.000000, 6.090000,  -0.560000,  1.820000, 0.000000,  0.000000 
 14548992.000000, 1.861616 , -3.890730, 8.738588, 88547540992.000000, 1.960000,  0.070000,  0.350000, 0.000000,  0.000000 
 14573568.000000, 1.873580 , -3.723232, 8.791230, 88547557376.000000, 2.450000,  0.280000,  -1.890000, 0.000000,  0.000000 
 14589952.000000, 1.737189 , -3.763910, 8.958728, 88547581952.000000, 3.710000,  -0.980000,  -1.260000, 0.000000,  0.000000 
 14614528.000000, 1.883151 , -3.826123, 8.934800, 88547598336.000000, 4.340000,  -0.910000,  -2.030000, 0.000000,  0.000000 
 14630912.000000, 2.110470 , -3.797409, 8.740981, 88547622912.000000, 6.440000,  -2.310000,  -1.470000, 0.000000,  0.000000 
 14647296.000000, 1.938186 , -3.543770, 8.324631, 88547639296.000000, 10.570000,  -3.500000,  0.630000, 0.000000,  0.000000 
 14671872.000000, 1.871187 , -3.371487, 8.420342, 88547655680.000000, 13.230000,  -2.380000,  0.560000, 0.000000,  0.000000 
 14688256.000000, 1.844866 , -3.388237, 8.697910, 88547680256.000000, 12.390000,  -0.350000,  1.120000, 0.000000,  0.000000 
 14712832.000000, 1.773082 , -3.378666, 8.822337, 88547696640.000000, 15.470000,  1.120000,  3.360000, 0.000000,  0.000000 
 14729216.000000, 1.842474 , -3.359523, 9.013763, 88547721216.000000, 19.320000,  3.360000,  4.340000, 0.000000,  0.000000 
 14753792.000000, 1.701297 , -3.625126, 9.190832, 88547737600.000000, 18.760000,  4.970000,  4.410000, 0.000000,  0.000000 
 14770176.000000, 1.648655 , -3.783052, 9.363115, 88547762176.000000, 16.660000,  5.810000,  2.240000, 0.000000,  0.000000 
 14794752.000000, 1.753939 , -3.471986, 8.982656, 88547778560.000000, 19.809999,  5.110000,  1.820000, 0.000000,  0.000000 
 14811136.000000, 1.586441 , -2.995814, 9.035298, 88547803136.000000, 26.809999,  3.150000,  1.890000, 0.000000,  0.000000 
 14827520.000000, 1.160519 , -3.055635, 9.279366, 88547819520.000000, 22.610001,  2.870000,  2.170000, 0.000000,  0.000000 
 14852096.000000, 1.339981 , -3.053242, 9.439686, 88547835904.000000, 17.990000,  2.240000,  0.420000, 0.000000,  0.000000 
 14868480.000000, 1.691726 , -3.062813, 9.375079, 88547860480.000000, 25.270000,  0.070000,  0.980000, 0.000000,  0.000000 
 14893056.000000, 1.519442 , -2.897708, 9.083155, 88547876864.000000, 28.770000,  -0.910000,  2.310000, 0.000000,  0.000000 
 14909440.000000, 1.186840 , -3.060420, 9.221939, 88547901440.000000, 23.660000,  -0.630000,  0.630000, 0.000000,  0.000000 
 14934016.000000, 1.251446 , -3.144169, 9.087940, 88547917824.000000, 18.270000,  -1.190000,  -0.140000, 0.000000,  0.000000 
 14950400.000000, 1.830509 , -3.017349, 8.752945, 88547942400.000000, 24.290001,  -2.800000,  -0.350000, 0.000000,  0.000000 
 14974976.000000, 1.990828 , -2.514857, 8.537591, 88547958784.000000, 41.439999,  -3.990000,  5.180000, 0.000000,  0.000000 
 14991360.000000, 1.710868 , -2.206182, 8.877372, 88547983360.000000, 45.360001,  -1.400000,  3.990000, 0.000000,  0.000000 
 15007744.000000, 1.229911 , -2.036292, 9.308081, 88547999744.000000, 32.619999,  2.940000,  1.190000, 0.000000,  0.000000 
 15032320.000000, 1.328017 , -1.701297, 9.726824, 88548016128.000000, 22.049999,  5.670000,  -3.850000, 0.000000,  0.000000 
 15048704.000000, 1.672583 , -1.560120, 9.657433, 88548040704.000000, 17.850000,  5.740000,  -2.940000, 0.000000,  0.000000 
 15073280.000000, 2.103291 , -1.823331, 9.571291, 88548057088.000000, 11.270000,  3.990000,  -1.050000, 0.000000,  0.000000 
 15089664.000000, 2.227718 , -2.309074, 9.399008, 88548081664.000000, 0.210000,  1.400000,  -0.210000, 0.000000,  0.000000 
 15114240.000000, 2.215754 , -2.364109, 9.040084, 88548098048.000000, -3.150000,  -1.610000,  1.400000, 0.000000,  0.000000 
 15130624.000000, 2.282753 , -2.376073, 8.973085, 88548122624.000000, 4.690000,  -3.290000,  3.290000, 0.000000,  0.000000 
 15147008.000000, 2.072184 , -2.249253, 9.013763, 88548139008.000000, 12.600000,  -3.570000,  5.530000, 0.000000,  0.000000 
 15171584.000000, 2.280360 , -2.275574, 9.116654, 88548155392.000000, 14.420000,  -0.770000,  6.300000, 0.000000,  0.000000 
 15187968.000000, 2.012364 , -2.270789, 9.200402, 88548179968.000000, 12.320000,  0.840000,  5.530000, 0.000000,  0.000000 
 15212544.000000, 1.641476 , -2.117648, 9.427721, 88548220928.000000, 1.330000,  5.390000,  1.540000, 88495177728.000000,  1009.575500 
 15228928.000000, 1.653440 , -1.990828, 9.652647, 0.000000, 0.000000,  0.000000,  0.000000, 0.000000,  0.000000 
 15253504.000000, 1.591227 , -2.036292, 9.669396, 88548237312.000000, -2.590000,  4.620000,  0.980000, 0.000000,  0.000000 
 15269888.000000, 1.581656 , -2.249253, 9.506684, 88548261888.000000, -4.900000,  3.780000,  1.050000, 0.000000,  0.000000 
 15294464.000000, 1.813759 , -2.266003, 9.272188, 88548278272.000000, -4.760000,  1.190000,  -0.350000, 0.000000,  0.000000 
 15310848.000000, 1.615155 , -2.079363, 8.980263, 88548302848.000000, -5.110000,  -2.100000,  0.420000, 0.000000,  0.000000 
 15327232.000000, 1.555335 , -2.088934, 8.566305, 88548319232.000000, -4.270000,  -2.800000,  -0.420000, 0.000000,  0.000000 
 15351808.000000, 1.636691 , -2.086541, 8.602197, 88548335616.000000, -3.360000,  -3.150000,  -1.330000, 0.000000,  0.000000 
 15376384.000000, 1.550549 , -2.213361, 8.788837, 88548360192.000000, -6.090000,  -2.940000,  -1.820000, 0.000000,  0.000000 
 15392768.000000, 1.454836 , -2.088934, 9.037691, 88548384768.000000, -7.980000,  0.420000,  -1.960000, 0.000000,  0.000000 
 15409152.000000, 1.540978 , -1.837688, 9.769895, 88548401152.000000, -2.380000,  3.220000,  -0.910000, 0.000000,  0.000000 
 15433728.000000, 1.258625 , -1.866402, 10.162319, 88548417536.000000, -0.840000,  6.160000,  -0.070000, 0.000000,  0.000000 
 15450112.000000, 1.138984 , -1.959722, 10.064213, 88548442112.000000, -3.640000,  8.540000,  -1.680000, 0.000000,  0.000000 
 15474688.000000, 1.521835 , -2.153540, 9.722038, 88548458496.000000, -4.270000,  5.950000,  -2.030000, 0.000000,  0.000000 
 15491072.000000, 1.737189 , -2.467000, 9.461221, 88548483072.000000, -4.760000,  1.680000,  -0.560000, 0.000000,  0.000000 
 15507456.000000, 2.081756 , -2.919244, 9.525827, 88548499456.000000, -3.640000,  -0.770000,  0.770000, 0.000000,  0.000000 
 15532032.000000, 1.998007 , -2.861816, 9.274581, 88548515840.000000, -4.200000,  -3.220000,  0.700000, 0.000000,  0.000000 
 15548416.000000, 1.722832 , -2.541178, 9.114261, 88548540416.000000, 0.560000,  -2.730000,  1.680000, 0.000000,  0.000000 
 15572992.000000, 1.990828 , -2.620141, 9.293723, 88548556800.000000, 6.510000,  -0.210000,  -2.240000, 0.000000,  0.000000 
 15589376.000000, 1.715654 , -2.349752, 9.260223, 88548581376.000000, 2.940000,  -0.700000,  -4.340000, 0.000000,  0.000000 
 15613952.000000, 1.373480 , -2.033899, 9.073583, 88548597760.000000, 1.680000,  2.100000,  -5.810000, 0.000000,  0.000000 
 15630336.000000, 1.725225 , -1.916651, 9.226725, 88548622336.000000, 4.830000,  3.150000,  -8.540000, 0.000000,  0.000000 
 15646720.000000, 1.533799 , -1.706082, 9.339187, 88548638720.000000, 2.940000,  2.730000,  -7.000000, 0.000000,  0.000000 
 15671296.000000, 1.514657 , -1.627119, 9.382257, 88548655104.000000, 1.190000,  5.040000,  -6.580000, 0.000000,  0.000000 
 15687680.000000, 1.624727 , -1.631905, 9.750752, 88548679680.000000, -0.770000,  5.040000,  -4.830000, 0.000000,  0.000000 
 15712256.000000, 0.957129 , -1.581656, 9.549755, 88548696064.000000, -5.180000,  3.990000,  -2.520000, 0.000000,  0.000000 
 15728640.000000, 0.811167 , -1.758725, 9.348758, 88548720640.000000, -4.900000,  5.950000,  -3.010000, 0.000000,  0.000000 
 15753216.000000, 1.780260 , -2.043471, 9.169296, 88548737024.000000, 2.660000,  4.550000,  -0.910000, 0.000000,  0.000000 
 15769600.000000, 2.005185 , -2.165504, 8.977871, 88548761600.000000, 7.700000,  -1.190000,  4.970000, 0.000000,  0.000000 
 15794176.000000, 1.701297 , -2.392823, 8.980263, 88548777984.000000, 4.060000,  -1.820000,  9.380000, 0.000000,  0.000000 
 15810560.000000, 1.531406 , -2.493321, 9.238688, 88548802560.000000, 1.750000,  -0.910000,  7.070000, 0.000000,  0.000000 
 15826944.000000, 1.373480 , -2.227718, 9.454042, 88548818944.000000, 5.950000,  0.350000,  6.580000, 0.000000,  0.000000 
 15851520.000000, 1.457229 , -2.091327, 9.734003, 88548835328.000000, 12.530000,  2.870000,  5.250000, 0.000000,  0.000000 
 15867904.000000, 1.421337 , -2.060220, 9.769895, 88548859904.000000, 11.760000,  3.220000,  3.710000, 0.000000,  0.000000 
 15892480.000000, 1.622334 , -2.139183, 9.600004, 88548876288.000000, 7.700000,  1.400000,  1.400000, 0.000000,  0.000000 
 15908864.000000, 1.811367 , -2.134398, 9.296116, 88548900864.000000, 8.750000,  -1.680000,  0.630000, 0.000000,  0.000000 
 15933440.000000, 1.942972 , -1.940579, 8.941978, 88548917248.000000, 13.370000,  -3.220000,  1.960000, 0.000000,  0.000000 
 15949824.000000, 1.954936 , -1.691726, 8.870193, 88548941824.000000, 16.240000,  -3.220000,  2.380000, 0.000000,  0.000000 
 15974400.000000, 1.734797 , -1.392623, 8.796017, 88548958208.000000, 10.780000,  -1.960000,  1.400000, 0.000000,  0.000000 
 15990784.000000, 1.198804 , -1.787439, 9.348758, 88548982784.000000, -5.180000,  2.030000,  0.140000, 0.000000,  0.000000 
 16007168.000000, 1.308874 , -1.974079, 9.784252, 88548999168.000000, -16.730000,  5.740000,  -3.920000, 0.000000,  0.000000 
 16031744.000000, 1.514657 , -1.787439, 9.710074, 88549015552.000000, -15.680000,  4.550000,  -3.570000, 0.000000,  0.000000 
 16048128.000000, 1.416551 , -1.832902, 9.506684, 88549040128.000000, -13.790000,  2.590000,  -0.140000, 0.000000,  0.000000 
 16072704.000000, 1.552942 , -2.115255, 9.626326, 88549056512.000000, -20.160000,  1.400000,  -2.170000, 0.000000,  0.000000 
 16089088.000000, 1.555335 , -2.321038, 9.396614, 88549081088.000000, -31.780001,  -0.350000,  -2.030000, 0.000000,  0.000000 
 16113664.000000, 1.758725 , -2.648855, 9.214760, 88549097472.000000, -35.770000,  -0.700000,  -2.730000, 0.000000,  0.000000 
 16130048.000000, 1.820938 , -3.034099, 9.178867, 88549122048.000000, -37.029999,  -1.120000,  -2.520000, 0.000000,  0.000000 
 16146432.000000, 1.823331 , -3.093920, 9.032906, 88549138432.000000, -33.389999,  -1.680000,  -3.220000, 0.000000,  0.000000 
 16171008.000000, 1.947758 , -2.962314, 8.920443, 88549154816.000000, -23.170000,  -1.540000,  -3.290000, 0.000000,  0.000000 
 16187392.000000, 2.069792 , -2.974278, 9.006584, 88549179392.000000, -14.700000,  -1.610000,  -3.080000, 0.000000,  0.000000 
 16211968.000000, 1.983650 , -2.775674, 8.860621, 88549220352.000000, -10.640000,  0.770000,  -3.430000, 88496177152.000000,  1009.576477 
 16228352.000000, 1.730011 , -2.517249, 8.709875, 0.000000, 0.000000,  0.000000,  0.000000, 0.000000,  0.000000 
 16252928.000000, 1.648655 , -2.567499, 8.855836, 88549236736.000000, -9.100000,  3.850000,  -4.200000, 0.000000,  0.000000 
 16269312.000000, 1.447658 , -2.471786, 9.195618, 88549261312.000000, -8.750000,  5.880000,  -6.020000, 0.000000,  0.000000 
 16293888.000000, 1.115055 , -2.524428, 9.513863, 88549277696.000000, -10.850000,  8.470000,  -4.760000, 0.000000,  0.000000 
 16310272.000000, 1.368695 , -2.746960, 9.568897, 88549302272.000000, -14.700000,  10.780000,  -5.600000, 0.000000,  0.000000 
 16326656.000000, 1.710868 , -2.940779, 9.308081, 88549318656.000000, -18.480000,  7.210000,  -4.340000, 0.000000,  0.000000 
 16351232.000000, 1.667797 , -3.206382, 9.131011, 88549335040.000000, -20.090000,  3.150000,  -0.910000, 0.000000,  0.000000 
 16375808.000000, 1.567299 , -3.323631, 9.181261, 88549359616.000000, -17.430000,  1.330000,  -0.560000, 0.000000,  0.000000 
 16392192.000000, 1.222732 , -3.029313, 9.186047, 88549384192.000000, -12.740000,  0.420000,  -0.140000, 0.000000,  0.000000 
 16408576.000000, 1.225125 , -3.122634, 9.353544, 88549400576.000000, -7.140000,  2.590000,  -0.770000, 0.000000,  0.000000 
 16433152.000000, 1.572084 , -3.337988, 9.966106, 88549416960.000000, -5.600000,  2.730000,  -2.660000, 0.000000,  0.000000 
 16449536.000000, 0.930808 , -3.115455, 9.712467, 88549441536.000000, -8.820000,  1.120000,  -2.730000, 0.000000,  0.000000 
 16474112.000000, 0.981057 , -3.306881, 9.377472, 88549457920.000000, -11.900000,  1.330000,  -2.520000, 0.000000,  0.000000 
 16490496.000000, 1.263410 , -3.235096, 9.226725, 88549482496.000000, -8.750000,  1.050000,  -6.020000, 0.000000,  0.000000 
 16506880.000000, 0.964308 , -2.914458, 9.008978, 88549498880.000000, -7.350000,  -4.270000,  -4.690000, 0.000000,  0.000000 
 16531456.000000, 0.952343 , -2.691926, 8.427521, 88549515264.000000, 1.120000,  -2.240000,  -2.310000, 0.000000,  0.000000 
 16547840.000000, 1.873580 , -2.818745, 8.240881, 88549539840.000000, 8.610000,  -1.890000,  -1.820000, 0.000000,  0.000000 
 16572416.000000, 2.072184 , -3.026921, 8.343772, 88549556224.000000, 2.450000,  -4.480000,  3.010000, 0.000000,  0.000000 
 16588800.000000, 1.777867 , -3.180061, 8.745767, 88549580800.000000, -5.460000,  -1.750000,  4.900000, 0.000000,  0.000000 
 16613376.000000, 1.251446 , -2.967100, 9.004191, 88549597184.000000, -8.120000,  2.100000,  3.500000, 0.000000,  0.000000 
 16629760.000000, 0.918844 , -2.835495, 9.243474, 88549621760.000000, -6.860000,  5.600000,  1.470000, 0.000000,  0.000000 
 16646144.000000, 1.174876 , -3.067599, 9.741181, 88549638144.000000, -5.110000,  7.770000,  1.680000, 0.000000,  0.000000 
 16670720.000000, 1.258625 , -3.144169, 9.774680, 88549654528.000000, -7.490000,  6.090000,  2.520000, 0.000000,  0.000000 
 16687104.000000, 1.344766 , -3.275774, 9.552148, 88549679104.000000, -8.400000,  4.550000,  3.570000, 0.000000,  0.000000 
 16711680.000000, 1.684547 , -3.366701, 9.336794, 88549695488.000000, -8.680000,  0.420000,  3.780000, 0.000000,  0.000000 
 16728064.000000, 1.624727 , -3.469593, 9.030513, 88549720064.000000, -9.520000,  -4.130000,  5.600000, 0.000000,  0.000000 
 16752640.000000, 1.720440 , -3.488736, 8.908479, 88549736448.000000, -6.860000,  -4.480000,  4.900000, 0.000000,  0.000000 
 16769024.000000, 1.852045 , -3.594020, 8.855836, 88549761024.000000, -5.250000,  -4.830000,  5.040000, 0.000000,  0.000000 
 16793600.000000, 1.816152 , -3.524628, 8.623734, 88549777408.000000, -5.110000,  -4.900000,  4.970000, 0.000000,  0.000000 
 16809984.000000, 1.871187 , -3.751946, 9.042477, 88549801984.000000, -4.760000,  -4.200000,  5.670000, 0.000000,  0.000000 
 16826368.000000, 1.591227 , -3.845266, 9.781858, 88549818368.000000, -7.350000,  -3.290000,  3.570000, 0.000000,  0.000000 
 16850944.000000, 1.026521 , -3.780660, 9.999605, 88549834752.000000, -7.630000,  -3.290000,  1.820000, 0.000000,  0.000000 
 16867328.000000, 1.349552 , -3.921836, 9.719646, 88549859328.000000, -4.900000,  2.450000,  -2.030000, 0.000000,  0.000000 
 16891904.000000, 1.430908 , -4.067799, 9.272188, 88549875712.000000, -6.930000,  -3.850000,  -2.240000, 0.000000,  0.000000 
 16908288.000000, 1.045663 , -3.751946, 8.188239, 88549900288.000000, -6.160000,  -9.520000,  -0.980000, 0.000000,  0.000000 
 16932864.000000, 1.543371 , -3.141776, 7.338787, 88549916672.000000, 9.800000,  -9.730000,  -1.610000, 0.000000,  0.000000 
 16949248.000000, 1.950150 , -2.840281, 7.704889, 88549941248.000000, 17.639999,  -10.570000,  0.770000, 0.000000,  0.000000 
 16973824.000000, 1.426122 , -2.727818, 8.166703, 88549957632.000000, 8.120000,  -7.490000,  1.750000, 0.000000,  0.000000 
 16990208.000000, 1.342373 , -2.481357, 8.403593, 88549982208.000000, 4.130000,  -0.140000,  0.560000, 0.000000,  0.000000 
 17006592.000000, 1.856830 , -2.565106, 8.836694, 88549998592.000000, 8.960000,  1.470000,  3.080000, 0.000000,  0.000000 
 17031168.000000, 1.942972 , -3.096312, 8.975478, 88550014976.000000, 3.920000,  0.980000,  8.330000, 0.000000,  0.000000 
 17047552.000000, 2.000400 , -4.074977, 9.250652, 88550039552.000000, -4.830000,  1.190000,  9.380000, 0.000000,  0.000000 
 17072128.000000, 1.703690 , -3.239882, 9.042477, 88550055936.000000, 6.230000,  -1.680000,  12.040000, 0.000000,  0.000000 
 17088512.000000, 1.076770 , -2.218147, 8.855836, 88550080512.000000, 41.230000,  -1.470000,  17.710001, 0.000000,  0.000000 
 17113088.000000, 1.246661 , -2.995814, 9.686146, 88550096896.000000, 46.970001,  3.710000,  14.070000, 0.000000,  0.000000 
 17129472.000000, 1.529014 , -3.895515, 10.348958, 88550121472.000000, 19.180000,  3.290000,  8.890000, 0.000000,  0.000000 
 17145856.000000, 1.686940 , -4.601398, 10.875379, 88550137856.000000, -5.600000,  2.310000,  6.370000, 0.000000,  0.000000 
 17170432.000000, 1.478764 , -4.201797, 10.281959, 88550154240.000000, -12.530000,  -1.680000,  2.660000, 0.000000,  0.000000 
 17186816.000000, 1.342373 , -4.067799, 9.293723, 88550178816.000000, -3.990000,  -3.290000,  1.330000, 0.000000,  0.000000 
 17211392.000000, 1.770689 , -3.632305, 8.262416, 88550195200.000000, 15.820000,  -7.770000,  -2.870000, 0.000000,  0.000000 
 17227776.000000, 2.268396 , -3.029313, 7.683353, 88550219776.000000, 22.960001,  -11.550000,  -3.010000, 88497176576.000000,  1009.578674 
 17252352.000000, 2.199004 , -2.584249, 7.439285, 88550236160.000000, 16.730000,  -9.170000,  -1.330000, 0.000000,  0.000000 
 17268736.000000, 2.031506 , -2.215754, 7.671390, 88550260736.000000, 10.570000,  -4.200000,  -6.020000, 0.000000,  0.000000 
 17293312.000000, 1.792224 , -2.033899, 8.090133, 88550277120.000000, 4.060000,  2.100000,  -8.610000, 0.000000,  0.000000 
 17309696.000000, 1.773082 , -1.825724, 8.566305, 88550301696.000000, -4.690000,  6.860000,  -10.010000, 0.000000,  0.000000 
 17326080.000000, 1.655833 , -1.871187, 8.930015, 88550318080.000000, -13.160000,  9.380000,  -7.420000, 0.000000,  0.000000 
 17350656.000000, 1.655833 , -2.469393, 9.145369, 88550334464.000000, -22.049999,  10.220000,  -5.670000, 0.000000,  0.000000 
 17375232.000000, 2.165504 , -3.151347, 9.102298, 88550359040.000000, -28.630001,  6.860000,  -4.060000, 0.000000,  0.000000 
 17391616.000000, 2.395216 , -3.412165, 9.109475, 88550383616.000000, -30.730000,  -0.070000,  1.750000, 0.000000,  0.000000 
 17408000.000000, 1.722832 , -3.400201, 9.279366, 88550400000.000000, -29.190001,  0.210000,  5.670000, 0.000000,  0.000000 
 17432576.000000, 1.064806 , -3.663411, 9.722038, 88550416384.000000, -21.910000,  5.530000,  0.140000, 0.000000,  0.000000 
 17448960.000000, 0.906880 , -3.737589, 10.126426, 88550440960.000000, -16.940001,  9.240000,  -5.460000, 0.000000,  0.000000 
 17473536.000000, 1.136591 , -4.307081, 9.875179, 88550457344.000000, -16.520000,  9.170000,  -4.690000, 0.000000,  0.000000 
 17489920.000000, 1.519442 , -4.677969, 9.832108, 88550481920.000000, -12.040000,  5.460000,  -4.760000, 0.000000,  0.000000 
 17506304.000000, 1.718047 , -4.374080, 9.367901, 88550498304.000000, -3.990000,  0.210000,  -4.410000, 0.000000,  0.000000 
 17530880.000000, 1.682154 , -4.084548, 8.980263, 88550514688.000000, 3.850000,  -1.330000,  -2.870000, 0.000000,  0.000000 
 17547264.000000, 1.847259 , -3.720839, 8.827123, 88550539264.000000, 12.670000,  -2.380000,  -7.280000, 0.000000,  0.000000 
 17571840.000000, 1.789831 , -3.445665, 8.642875, 88550555648.000000, 11.410000,  -1.680000,  -8.120000, 0.000000,  0.000000 
 17588224.000000, 1.651048 , -3.069991, 8.621340, 88550580224.000000, 4.970000,  0.840000,  -10.500000, 0.000000,  0.000000 
 17612800.000000, 1.612763 , -2.979064, 8.427521, 88550596608.000000, -0.070000,  1.120000,  -12.670000, 0.000000,  0.000000 
 17629184.000000, 1.452443 , -2.478964, 8.102098, 88550621184.000000, -1.260000,  1.960000,  -11.970000, 0.000000,  0.000000 
 17645568.000000, 1.610370 , -2.354537, 8.224132, 88550637568.000000, 2.030000,  2.520000,  -11.620000, 0.000000,  0.000000 
 17670144.000000, 1.375873 , -2.419144, 8.944371, 88550653952.000000, -1.960000,  2.660000,  -8.260000, 0.000000,  0.000000 
 17686528.000000, 0.827917 , -2.411965, 9.233903, 88550678528.000000, -10.990000,  5.110000,  -6.300000, 0.000000,  0.000000 
 17711104.000000, 1.129412 , -2.670390, 9.300901, 88550694912.000000, -13.580000,  8.680000,  -6.090000, 0.000000,  0.000000 
 17727488.000000, 1.780260 , -3.330809, 9.207582, 88550719488.000000, -19.250000,  5.180000,  -3.850000, 0.000000,  0.000000 
 17752064.000000, 1.959722 , -2.914458, 8.630912, 88550735872.000000, -37.099998,  -0.350000,  0.420000, 0.000000,  0.000000 
 17768448.000000, 1.471586 , -3.086741, 8.599805, 88550760448.000000, -55.720001,  -3.710000,  0.560000, 0.000000,  0.000000 
 17793024.000000, 1.134198 , -5.096712, 10.322637, 88550776832.000000, -108.779999,  -3.220000,  -8.540000, 0.000000,  0.000000 
 17809408.000000, 0.406780 , -6.412765, 10.621738, 88550801408.000000, -160.580002,  -4.690000,  -14.700000, 0.000000,  0.000000 
 17825792.000000, 0.835095 , -6.233303, 9.198010, 88550817792.000000, -139.160004,  -5.390000,  -15.190001, 0.000000,  0.000000 
 17850368.000000, 2.105684 , -5.994020, 7.477571, 88550834176.000000, -87.709999,  -13.440001,  -7.910000, 0.000000,  0.000000 
 17866752.000000, 2.096112 , -6.453443, 6.967900, 88550858752.000000, -68.320000,  -21.629999,  2.170000, 0.000000,  0.000000 
 17891328.000000, 1.914258 , -6.503692, 6.692725, 88550875136.000000, -57.889999,  -21.700001,  -2.310000, 0.000000,  0.000000 
 17907712.000000, 2.388037 , -5.558527, 6.242875, 88550899712.000000, -25.969999,  -18.900000,  -1.820000, 0.000000,  0.000000 
 17932288.000000, 2.457429 , -4.764110, 6.080163, 88550916096.000000, 17.430000,  -15.260000,  6.650000, 0.000000,  0.000000 
 17948672.000000, 1.971686 , -4.402793, 6.415157, 88550940672.000000, 44.240002,  -8.190000,  10.150000, 0.000000,  0.000000 
 17973248.000000, 2.340181 , -4.551149, 7.511070, 88550957056.000000, 47.810001,  -0.140000,  9.100000, 0.000000,  0.000000 
 17989632.000000, 1.899901 , -5.003392, 8.626125, 88550981632.000000, 30.799999,  3.500000,  12.740000, 0.000000,  0.000000 
 18006016.000000, 1.021735 , -5.180461, 8.930015, 88550998016.000000, 9.170000,  9.170000,  7.910000, 0.000000,  0.000000 
 18030592.000000, 1.497907 , -5.860023, 9.410972, 88551014400.000000, -3.290000,  13.580000,  1.260000, 0.000000,  0.000000 
 18046976.000000, 1.438086 , -5.776274, 9.554541, 88551038976.000000, -9.520000,  8.190000,  1.190000, 0.000000,  0.000000 
 18071552.000000, 1.548156 , -5.685347, 8.662018, 88551055360.000000, 3.430000,  1.260000,  3.710000, 0.000000,  0.000000 
 18087936.000000, 2.103291 , -5.359922, 8.116454, 88551079936.000000, 26.040001,  -6.300000,  4.900000, 0.000000,  0.000000 
 18112512.000000, 2.120041 , -5.120641, 7.805387, 88551096320.000000, 36.470001,  -11.620000,  7.700000, 0.000000,  0.000000 
 18128896.000000, 2.282753 , -5.027320, 7.578069, 88551120896.000000, 36.540001,  -10.220000,  7.350000, 0.000000,  0.000000 
 18145280.000000, 2.471786 , -4.955536, 7.673782, 88551137280.000000, 28.559999,  -8.960000,  6.510000, 0.000000,  0.000000 
 18169856.000000, 2.208575 , -4.828716, 7.652246, 88551153664.000000, 16.799999,  -7.070000,  6.300000, 0.000000,  0.000000 
 18186240.000000, 2.079363 , -4.869394, 7.855636, 88551178240.000000, 6.930000,  -3.360000,  3.290000, 0.000000,  0.000000 
 18210816.000000, 1.940579 , -4.984250, 8.228917, 88551219200.000000, -12.250000,  1.610000,  1.470000, 88498176000.000000,  1009.579285 
 18227200.000000, 1.988436 , -5.175675, 8.164310, 0.000000, 0.000000,  0.000000,  0.000000, 0.000000,  0.000000 
 18251776.000000, 2.268396 , -5.328816, 8.233703, 88551235584.000000, -9.380000,  2.660000,  0.140000, 0.000000,  0.000000 
 18268160.000000, 2.167897 , -5.101498, 8.123632, 88551260160.000000, -6.370000,  1.260000,  0.840000, 0.000000,  0.000000 
 18292736.000000, 1.832902 , -5.103891, 8.315059, 88551276544.000000, 0.700000,  1.820000,  -0.630000, 0.000000,  0.000000 
 18309120.000000, 1.741975 , -4.811966, 8.362915, 88551301120.000000, 8.820000,  2.030000,  -2.730000, 0.000000,  0.000000 
 18325504.000000, 1.890330 , -4.469792, 8.248059, 88551333888.000000, 29.960001,  2.940000,  -0.280000, 0.000000,  0.000000 
 18350080.000000, 1.801795 , -4.618148, 8.403593, 0.000000, 0.000000,  0.000000,  0.000000, 0.000000,  0.000000 
 18374656.000000, 1.787439 , -4.469792, 8.408379, 88551358464.000000, 25.270000,  2.170000,  -0.490000, 0.000000,  0.000000 
 18391040.000000, 2.024328 , -4.096512, 8.032705, 88551383040.000000, 17.570000,  1.470000,  -1.890000, 0.000000,  0.000000 
 18407424.000000, 2.067399 , -3.907479, 8.006385, 88551399424.000000, 16.799999,  -0.840000,  0.350000, 0.000000,  0.000000 
 18432000.000000, 2.021935 , -4.201797, 8.276773, 88551415808.000000, 10.990000,  -1.960000,  0.700000, 0.000000,  0.000000 
 18448384.000000, 1.887937 , -4.543970, 8.815158, 88551440384.000000, -2.940000,  -1.050000,  -0.070000, 0.000000,  0.000000 
 18472960.000000, 1.280160 , -4.601398, 9.044869, 88551456768.000000, -11.690000,  1.190000,  0.420000, 0.000000,  0.000000 
 18489344.000000, 1.354338 , -4.826324, 8.865408, 88551481344.000000, -5.460000,  3.570000,  0.490000, 0.000000,  0.000000 
 18505728.000000, 1.907080 , -5.027320, 8.662018, 88551497728.000000, 0.980000,  1.400000,  0.700000, 0.000000,  0.000000 
 18530304.000000, 1.313660 , -5.020142, 8.279166, 88551514112.000000, -2.730000,  -4.410000,  3.430000, 0.000000,  0.000000 
 18546688.000000, 1.462015 , -5.142176, 7.953743, 88551538688.000000, -3.080000,  -4.690000,  0.420000, 0.000000,  0.000000 
 18571264.000000, 2.060220 , -4.823930, 8.011170, 88551555072.000000, 4.620000,  -5.950000,  -1.890000, 0.000000,  0.000000 
 18587648.000000, 1.555335 , -4.290331, 7.872386, 88551579648.000000, 12.110000,  -5.180000,  1.400000, 0.000000,  0.000000 
 18612224.000000, 1.569692 , -4.027121, 8.193025, 88551596032.000000, 13.580000,  0.630000,  -1.750000, 0.000000,  0.000000 
 18628608.000000, 1.643869 , -3.931407, 8.475377, 88551620608.000000, 6.930000,  2.170000,  -3.220000, 0.000000,  0.000000 
 18644992.000000, 1.514657 , -4.070191, 8.537591, 88551636992.000000, 1.330000,  3.570000,  -2.590000, 0.000000,  0.000000 
 18669568.000000, 1.966900 , -4.419543, 8.836694, 88551653376.000000, 0.770000,  3.920000,  -1.610000, 0.000000,  0.000000 
 18685952.000000, 2.141576 , -4.642076, 8.867801, 88551677952.000000, -1.960000,  2.310000,  1.890000, 0.000000,  0.000000 
 18710528.000000, 2.318645 , -4.709075, 8.501699, 88551694336.000000, -1.610000,  0.840000,  2.240000, 0.000000,  0.000000 
 18726912.000000, 2.725425 , -4.811966, 8.279166, 88551718912.000000, 0.490000,  -1.050000,  2.030000, 0.000000,  0.000000 
 18751488.000000, 2.431108 , -4.689932, 8.243275, 88551735296.000000, -2.240000,  -3.640000,  2.170000, 0.000000,  0.000000 
 18767872.000000, 2.179861 , -4.555934, 8.300702, 88551759872.000000, -2.660000,  -2.800000,  1.190000, 0.000000,  0.000000 
 18792448.000000, 2.069792 , -4.242475, 8.477771, 88551776256.000000, 1.540000,  -1.400000,  0.910000, 0.000000,  0.000000 
 18808832.000000, 1.667797 , -4.077370, 8.528020, 88551800832.000000, 5.950000,  -0.140000,  3.150000, 0.000000,  0.000000 
 18825216.000000, 1.847259 , -4.091727, 8.736196, 88551817216.000000, 7.560000,  2.310000,  4.060000, 0.000000,  0.000000 
 18849792.000000, 2.282753 , -4.402793, 8.740981, 88551833600.000000, 6.090000,  1.330000,  6.510000, 0.000000,  0.000000 
 18866176.000000, 2.155933 , -4.637290, 8.776874, 88551858176.000000, 3.500000,  -1.680000,  8.540000, 0.000000,  0.000000 
 18890752.000000, 2.084148 , -4.747360, 8.597411, 88551874560.000000, 3.850000,  -3.080000,  8.610000, 0.000000,  0.000000 
 18907136.000000, 2.031506 , -4.670790, 8.269595, 88551899136.000000, 7.280000,  -5.040000,  6.860000, 0.000000,  0.000000 
 18931712.000000, 1.430908 , -4.484150, 8.236095, 88551915520.000000, 9.170000,  -6.230000,  5.740000, 0.000000,  0.000000 
 18948096.000000, 1.232304 , -4.364508, 8.082954, 88551940096.000000, 6.650000,  -4.830000,  2.170000, 0.000000,  0.000000 
 18972672.000000, 1.624727 , -4.158726, 8.092526, 88551956480.000000, 3.710000,  -4.060000,  -0.490000, 0.000000,  0.000000 
 18989056.000000, 1.409373 , -3.945765, 8.039884, 88551981056.000000, 1.680000,  -4.900000,  0.840000, 0.000000,  0.000000 
 19005440.000000, 1.493121 , -4.139583, 8.465806, 88551997440.000000, -0.560000,  -3.080000,  0.840000, 0.000000,  0.000000 
 19030016.000000, 1.619941 , -4.218546, 9.119047, 88552013824.000000, -0.770000,  -1.820000,  -0.140000, 0.000000,  0.000000 
 19046400.000000, 0.988236 , -4.058227, 9.011370, 88552038400.000000, 1.120000,  0.910000,  1.540000, 0.000000,  0.000000 
 19070976.000000, 1.794617 , -4.591826, 8.925228, 88552054784.000000, 2.800000,  4.760000,  -1.470000, 0.000000,  0.000000 
 19087360.000000, 2.431108 , -5.233103, 8.987441, 88552079360.000000, -0.840000,  0.560000,  -0.420000, 0.000000,  0.000000 
 19111936.000000, 2.031506 , -4.991428, 8.554340, 88552095744.000000, -8.820000,  -2.730000,  -0.350000, 0.000000,  0.000000 
 19128320.000000, 1.902294 , -4.338188, 7.934600, 88552120320.000000, -2.590000,  -1.400000,  -0.630000, 0.000000,  0.000000 
 19144704.000000, 2.110470 , -4.036692, 7.829315, 88552136704.000000, 11.200000,  -1.330000,  -0.840000, 0.000000,  0.000000 
 19169280.000000, 2.589034 , -3.931407, 7.951349, 88552153088.000000, 14.840000,  1.050000,  -0.490000, 0.000000,  0.000000 
 19185664.000000, 2.723032 , -3.869194, 8.063812, 88552177664.000000, 9.590000,  3.430000,  1.820000, 0.000000,  0.000000 
