 Acc_timestamp,Accx,Accy,Accz,Gyro_timestamp,Gyrox,Gyroy,Gyroz,Baro_timestamp,Pressure_Reading
 20850112.000000, -1.835295 , -4.027121, 9.293723, 1075394816.000000, 12.740000,  4.830000,  19.809999, 0.000000,  0.000000 
 20870080.000000, -1.873580 , -4.323831, 9.066404, 1075414784.000000, 8.820000,  -1.750000,  17.920000, 0.000000,  0.000000 
 20890432.000000, -1.660619 , -4.022335, 8.738588, 1075434752.000000, 6.300000,  -2.450000,  14.980000, 0.000000,  0.000000 
 20910016.000000, -1.409373 , -3.907479, 8.444271, 1075455104.000000, 6.930000,  -4.760000,  14.840000, 0.000000,  0.000000 
 20929984.000000, -1.368695 , -4.043870, 8.528020, 1075474816.000000, 7.420000,  -6.160000,  14.980000, 0.000000,  0.000000 
 20950080.000000, -1.177269 , -4.225725, 8.693125, 1075494784.000000, 3.640000,  -6.370000,  14.140000, 0.000000,  0.000000 
 20970048.000000, -1.095913 , -4.170690, 8.788837, 1075514752.000000, 0.070000,  -7.350000,  13.020000, 0.000000,  0.000000 
 20990272.000000, -1.210768 , -4.115655, 8.204988, 1075534720.000000, -3.360000,  -6.650000,  10.290000, 0.000000,  0.000000 
 21009984.000000, -1.074377 , -3.802195, 7.975278, 1075555072.000000, -1.820000,  -6.720000,  7.840000, 0.000000,  0.000000 
 21029952.000000, -0.990629 , -3.907479, 8.389235, 1075574656.000000, -0.910000,  -7.210000,  6.300000, 0.000000,  0.000000 
 21049920.000000, -1.205983 , -3.840480, 8.647661, 1075594752.000000, -1.890000,  -4.760000,  5.180000, 0.000000,  0.000000 
 21070016.000000, -1.689333 , -3.938586, 9.099905, 1075614720.000000, 2.310000,  5.250000,  4.060000, 0.000000,  0.000000 
 21090240.000000, -2.380858 , -4.208975, 9.248260, 1075634688.000000, 3.290000,  21.350000,  5.180000, 0.000000,  0.000000 
 21109952.000000, -3.170490 , -3.854837, 9.049655, 1075654912.000000, 2.170000,  33.320000,  4.620000, 0.000000,  0.000000 
 21129920.000000, -3.187240 , -3.438486, 9.078369, 1075674624.000000, 3.080000,  35.700001,  1.680000, 0.000000,  0.000000 
 21149888.000000, -2.926422 , -2.940779, 8.748159, 1075694592.000000, 9.380000,  28.980000,  0.770000, 0.000000,  0.000000 
 21169856.000000, -2.462214 , -2.617748, 8.396415, 1075714688.000000, 11.130000,  19.879999,  -3.640000, 1135713664.000000,  1009.659668 
 21190208.000000, -2.050649 , -2.158326, 8.566305, 1075734656.000000, 12.880000,  13.650000,  -2.520000, 0.000000,  0.000000 
 21209920.000000, -1.811367 , -1.789831, 8.776874, 1075754880.000000, 16.030001,  15.890000,  2.240000, 0.000000,  0.000000 
 21229888.000000, -1.677369 , -2.299503, 9.363115, 1075774592.000000, 15.610000,  18.620001,  11.480000, 0.000000,  0.000000 
 21249856.000000, -1.562513 , -3.443272, 10.100104, 1075794560.000000, 8.120000,  22.120001,  20.860001, 0.000000,  0.000000 
 21269824.000000, -1.500300 , -3.617948, 9.927821, 1075814528.000000, 1.330000,  20.020000,  28.490000, 0.000000,  0.000000 
 21290176.000000, -1.150948 , -3.735196, 10.021141, 1075834624.000000, 2.800000,  11.410000,  31.710001, 0.000000,  0.000000 
 21309888.000000, -0.964308 , -3.838088, 10.033106, 1075854848.000000, 12.950000,  0.280000,  35.070000, 0.000000,  0.000000 
 21329856.000000, -0.818345 , -4.079762, 9.997212, 1075874560.000000, 12.320000,  -9.730000,  33.880001, 0.000000,  0.000000 
 21349824.000000, -1.009771 , -4.072584, 9.489935, 1075894528.000000, 13.510000,  -16.379999,  29.750000, 0.000000,  0.000000 
 21369792.000000, -1.098306 , -3.675375, 8.717053, 1075914496.000000, 17.990000,  -18.969999,  24.920000, 0.000000,  0.000000 
 21390144.000000, -1.287339 , -3.409772, 8.255238, 1075934464.000000, 22.680000,  -21.420000,  22.260000, 0.000000,  0.000000 
 21409728.000000, -1.335195 , -3.160919, 8.250452, 1075954816.000000, 29.540001,  -23.660000,  19.320000, 0.000000,  0.000000 
 21429824.000000, -1.287339 , -2.603391, 7.633104, 1075974528.000000, 30.170000,  -23.730000,  16.730000, 0.000000,  0.000000 
 21449792.000000, -1.414158 , -2.392823, 7.609176, 1075994496.000000, 24.290001,  -20.440001,  16.940001, 0.000000,  0.000000 
 21469760.000000, -1.954936 , -2.679961, 7.800602, 1076014464.000000, 22.469999,  -5.250000,  14.980000, 0.000000,  0.000000 
 21490112.000000, -2.402394 , -2.811567, 8.714661, 1076054784.000000, 14.980000,  33.599998,  14.910000, 0.000000,  0.000000 
 21509696.000000, -2.842674 , -2.792424, 9.166903, 0.000000, 0.000000,  0.000000,  0.000000, 0.000000,  0.000000 
 21529664.000000, -3.148954 , -2.806781, 9.410972, 1076074368.000000, 7.840000,  43.540001,  13.510000, 0.000000,  0.000000 
 21549632.000000, -3.479164 , -3.014957, 9.705289, 1076094464.000000, -1.820000,  47.529999,  10.150000, 0.000000,  0.000000 
 21569728.000000, -4.024727 , -3.144169, 9.810574, 1076114432.000000, 0.560000,  47.880001,  0.140000, 0.000000,  0.000000 
 21589952.000000, -4.508078 , -2.952743, 9.360723, 1076134400.000000, 8.470000,  48.369999,  -8.050000, 0.000000,  0.000000 
 21609664.000000, -4.713861 , -3.359523, 9.245867, 1076154752.000000, 9.800000,  43.470001,  -13.020000, 0.000000,  0.000000 
 21629632.000000, -4.713861 , -2.780460, 8.769694, 1076174336.000000, 15.470000,  32.130001,  -19.600000, 0.000000,  0.000000 
 21649600.000000, -4.366901 , -2.416751, 8.906086, 1076194304.000000, 17.500000,  15.260000,  -25.200001, 0.000000,  0.000000 
 21669568.000000, -4.218546 , -2.199004, 9.882358, 1076214400.000000, 25.200001,  -3.570000,  -28.980000, 0.000000,  0.000000 
 21689920.000000, -4.457829 , -2.136791, 9.671788, 1076234368.000000, 23.799999,  -8.960000,  -32.830002, 0.000000,  0.000000 
 21709632.000000, -4.788038 , -1.820938, 8.922836, 1076254592.000000, 7.630000,  -4.270000,  -32.410000, 0.000000,  0.000000 
 21729600.000000, -4.587041 , -1.447658, 8.032705, 1076274304.000000, 2.590000,  -6.790000,  -38.639999, 0.000000,  0.000000 
 21749568.000000, -3.912265 , -1.141376, 7.707282, 1076294272.000000, 4.340000,  -19.460001,  -42.630001, 0.000000,  0.000000 
 21769536.000000, -3.069991 , -0.973879, 7.551748, 1076314240.000000, 1.120000,  -35.279999,  -48.299999, 0.000000,  0.000000 
 21789888.000000, -2.596212 , -0.997807, 7.063612, 1076334336.000000, -4.480000,  -39.130001,  -46.130001, 0.000000,  0.000000 
 21809600.000000, -2.383251 , -1.002593, 7.389036, 1076354560.000000, -4.060000,  -27.580000,  -40.740002, 0.000000,  0.000000 
 21829568.000000, -2.148755 , -1.380659, 7.625926, 1076374272.000000, -3.430000,  -17.990000,  -36.470001, 0.000000,  0.000000 
 21849536.000000, -2.103291 , -1.526621, 8.896514, 1076394240.000000, 1.120000,  0.700000,  -26.809999, 0.000000,  0.000000 
 21869504.000000, -2.062613 , -1.708475, 11.002198, 1076414208.000000, 0.770000,  14.630000,  -18.830000, 0.000000,  0.000000 
 21889856.000000, -2.912065 , -2.311467, 10.899307, 1076434176.000000, -0.840000,  25.969999,  -7.420000, 0.000000,  0.000000 
 21909440.000000, -3.321238 , -2.428715, 10.777272, 1076454528.000000, -11.410000,  39.340000,  -1.050000, 0.000000,  0.000000 
 21929536.000000, -3.572484 , -2.739782, 11.621940, 1076474240.000000, -11.340000,  45.849998,  -0.350000, 0.000000,  0.000000 
 21949504.000000, -3.235096 , -2.450250, 11.636297, 1076494208.000000, 4.060000,  31.290001,  -0.140000, 0.000000,  0.000000 
 21969472.000000, -2.857030 , -1.957329, 10.210175, 1076514176.000000, 7.280000,  7.980000,  0.420000, 0.000000,  0.000000 
 21989824.000000, -2.574677 , -1.976472, 9.951750, 1076534144.000000, 3.010000,  -14.420000,  -2.520000, 0.000000,  0.000000 
 22009408.000000, -2.522035 , -2.208575, 9.032906, 1076554496.000000, -4.620000,  -31.010000,  -3.290000, 0.000000,  0.000000 
 22029376.000000, -2.921637 , -2.079363, 7.776673, 1076574208.000000, -15.190001,  -36.959999,  -1.330000, 0.000000,  0.000000 
 22049472.000000, -2.998207 , -2.507678, 8.006385, 1076594176.000000, -20.580000,  -42.000000,  -1.820000, 0.000000,  0.000000 
 22069440.000000, -2.897708 , -2.720639, 8.157133, 1076614144.000000, -29.610001,  -47.250000,  3.150000, 0.000000,  0.000000 
 22089664.000000, -2.502892 , -3.457629, 8.561519, 1076634112.000000, -42.770000,  -48.369999,  3.710000, 0.000000,  0.000000 
 22109376.000000, -2.533999 , -3.771089, 8.537591, 1076654464.000000, -42.840000,  -47.040001,  2.240000, 0.000000,  0.000000 
 22129600.000000, -2.687140 , -3.739982, 8.346166, 1076674048.000000, -34.930000,  -34.860001,  1.190000, 0.000000,  0.000000 
 22149312.000000, -2.502892 , -4.082155, 9.157332, 1076694272.000000, -29.610001,  -23.170000,  -2.660000, 0.000000,  0.000000 
 22169408.000000, -2.522035 , -4.077370, 8.614161, 1076714112.000000, -28.490000,  -15.890000,  -5.460000, 1136713088.000000,  1009.655029 
 22189632.000000, -2.175076 , -3.125026, 8.047063, 1076734080.000000, -28.630001,  -8.680000,  -12.040000, 0.000000,  0.000000 
 22209344.000000, -1.277767 , -2.761317, 8.717053, 1076754304.000000, -14.980000,  -10.710000,  -17.990000, 0.000000,  0.000000 
 22229312.000000, -0.964308 , -3.215954, 9.085547, 1076774016.000000, -13.230000,  -16.100000,  -20.160000, 0.000000,  0.000000 
 22249280.000000, -1.270589 , -3.737589, 9.547362, 1076793984.000000, -28.420000,  -12.320000,  -22.400000, 0.000000,  0.000000 
 22269248.000000, -1.739582 , -3.668197, 8.968300, 1076814080.000000, -30.450001,  -1.400000,  -20.370001, 0.000000,  0.000000 
 22289600.000000, -1.464408 , -3.845266, 8.652447, 1076834048.000000, -31.850000,  0.840000,  -19.530001, 0.000000,  0.000000 
 22309312.000000, -1.294517 , -4.412365, 8.865408, 1076854272.000000, -33.529999,  -10.150000,  -23.590000, 0.000000,  0.000000 
 22329280.000000, -1.806581 , -4.579862, 8.504091, 1076873984.000000, -30.940001,  -11.480000,  -22.889999, 0.000000,  0.000000 
 22349248.000000, -1.780260 , -3.881158, 8.116454, 1076893952.000000, -23.520000,  -11.480000,  -20.790001, 0.000000,  0.000000 
 22369216.000000, -0.830309 , -3.426522, 8.559127, 1076913920.000000, -10.500000,  -1.470000,  -19.670000, 0.000000,  0.000000 
 22389568.000000, -0.581456 , -4.074977, 9.243474, 1076933888.000000, -3.710000,  -10.360000,  -18.129999, 0.000000,  0.000000 
 22409280.000000, -1.287339 , -4.740182, 9.367901, 1076954240.000000, -11.760000,  -2.240000,  -12.530000, 0.000000,  0.000000 
 22429248.000000, -1.287339 , -4.599005, 8.855836, 1076973952.000000, -16.940001,  11.200000,  -8.260000, 0.000000,  0.000000 
 22449216.000000, -0.993021 , -4.285545, 8.635696, 1076993920.000000, -9.380000,  7.560000,  -4.970000, 0.000000,  0.000000 
 22469184.000000, -0.586242 , -4.259224, 8.298308, 1077013888.000000, -3.640000,  -2.590000,  -7.140000, 0.000000,  0.000000 
 22489536.000000, -0.531207 , -4.302295, 8.039884, 1077033856.000000, -4.130000,  -5.320000,  -6.300000, 0.000000,  0.000000 
 22509120.000000, -0.468993 , -4.010371, 8.317451, 1077054208.000000, -3.080000,  -2.940000,  -5.250000, 0.000000,  0.000000 
 22529216.000000, -0.669990 , -3.550949, 8.300702, 1077073920.000000, -1.470000,  -3.640000,  -5.810000, 0.000000,  0.000000 
 22549184.000000, -1.306481 , -3.617948, 8.262416, 1077093888.000000, 0.560000,  0.770000,  -2.660000, 0.000000,  0.000000 
 22569152.000000, -1.730011 , -4.120440, 8.700303, 1077113856.000000, -3.010000,  9.730000,  -0.770000, 0.000000,  0.000000 
 22589376.000000, -1.555335 , -4.689932, 9.056834, 1077133824.000000, -8.610000,  10.920000,  2.030000, 0.000000,  0.000000 
 22609088.000000, -1.536192 , -4.943572, 9.267403, 1077154176.000000, -7.490000,  6.090000,  4.760000, 0.000000,  0.000000 
 22629056.000000, -1.476372 , -5.015356, 9.427721, 1077173760.000000, -3.150000,  3.850000,  4.270000, 0.000000,  0.000000 
 22649152.000000, -1.509871 , -4.749753, 8.975478, 1077193856.000000, -0.770000,  2.170000,  3.570000, 0.000000,  0.000000 
 22669120.000000, -1.500300 , -4.697111, 8.573483, 1077213824.000000, 2.030000,  0.910000,  0.350000, 0.000000,  0.000000 
 22689344.000000, -1.244268 , -4.893322, 8.645268, 1077233792.000000, 0.140000,  -3.570000,  -4.270000, 0.000000,  0.000000 
 22709056.000000, -1.222732 , -4.555934, 8.013563, 1077254144.000000, -2.800000,  -6.650000,  -6.790000, 0.000000,  0.000000 
 22729024.000000, -1.033699 , -4.156333, 8.047063, 1077273728.000000, 0.560000,  -5.950000,  -7.980000, 0.000000,  0.000000 
 22748992.000000, -1.107877 , -4.386044, 8.685946, 1077293824.000000, 4.270000,  -6.930000,  -7.910000, 0.000000,  0.000000 
 22769088.000000, -1.682154 , -3.952943, 8.520842, 1077313792.000000, 3.570000,  -0.280000,  -5.250000, 0.000000,  0.000000 
 22789312.000000, -1.696511 , -4.005585, 8.664411, 1077333760.000000, 3.570000,  8.190000,  -4.270000, 0.000000,  0.000000 
 22809280.000000, -1.564906 , -4.335794, 8.633304, 1077353984.000000, 2.870000,  6.230000,  -2.380000, 0.000000,  0.000000 
 22828992.000000, -1.452443 , -4.347759, 8.652447, 1077373952.000000, -1.120000,  3.010000,  -2.800000, 0.000000,  0.000000 
 22848960.000000, -1.289732 , -4.206582, 8.831908, 1077393664.000000, 1.190000,  0.770000,  -2.940000, 0.000000,  0.000000 
 22868928.000000, -1.335195 , -4.283153, 8.863015, 1077413632.000000, 1.470000,  -0.980000,  -2.100000, 0.000000,  0.000000 
 22889280.000000, -1.713261 , -4.500899, 8.860621, 1077433728.000000, 2.030000,  0.910000,  -2.450000, 0.000000,  0.000000 
 22908992.000000, -1.624727 , -4.809574, 9.083155, 1077453952.000000, 1.050000,  2.310000,  -2.870000, 0.000000,  0.000000 
 22928960.000000, -2.050649 , -4.792823, 8.700303, 1077473664.000000, -2.940000,  -1.610000,  -3.990000, 0.000000,  0.000000 
 22948928.000000, -2.036292 , -4.230510, 8.250452, 1077493632.000000, -3.290000,  1.540000,  -6.650000, 0.000000,  0.000000 
 22968896.000000, -1.665405 , -4.067799, 8.281559, 1077513600.000000, 0.350000,  -1.470000,  -7.560000, 0.000000,  0.000000 
 22989248.000000, -1.270589 , -4.003192, 8.288737, 1077533568.000000, -1.330000,  -7.630000,  -8.680000, 0.000000,  0.000000 
 23008960.000000, -1.423729 , -4.146761, 8.580662, 1077553920.000000, -4.760000,  -5.110000,  -6.510000, 0.000000,  0.000000 
 23028928.000000, -1.517050 , -4.132405, 8.702696, 1077573632.000000, -2.870000,  3.150000,  -2.170000, 0.000000,  0.000000 
 23048896.000000, -1.440479 , -4.063013, 8.769694, 1077593600.000000, 1.120000,  7.420000,  1.330000, 0.000000,  0.000000 
 23068864.000000, -1.287339 , -3.876373, 8.851050, 1077613568.000000, 6.720000,  5.950000,  4.130000, 0.000000,  0.000000 
 23089216.000000, -1.275374 , -3.981657, 9.042477, 1077633536.000000, 7.630000,  4.060000,  6.930000, 0.000000,  0.000000 
 23108800.000000, -1.533799 , -4.271189, 8.793623, 1077653888.000000, 5.390000,  3.220000,  8.680000, 0.000000,  0.000000 
 23128896.000000, -1.454836 , -4.295116, 8.745767, 1077673600.000000, 0.840000,  2.030000,  8.120000, 0.000000,  0.000000 
 23148864.000000, -1.222732 , -4.299902, 8.738588, 1077693568.000000, 0.840000,  -3.080000,  7.630000, 0.000000,  0.000000 
 23168832.000000, -1.272982 , -4.280759, 8.633304, 1077713536.000000, 1.890000,  -7.210000,  6.580000, 1137712512.000000,  1009.655396 
 23189056.000000, -1.540978 , -4.283153, 8.635696, 1077733504.000000, 0.490000,  -3.780000,  7.700000, 0.000000,  0.000000 
 23208768.000000, -1.509871 , -4.393222, 8.623734, 1077753856.000000, 0.350000,  -1.260000,  7.560000, 0.000000,  0.000000 
 23228736.000000, -1.500300 , -4.331009, 8.788837, 1077773440.000000, -2.730000,  -2.940000,  5.600000, 0.000000,  0.000000 
 23248704.000000, -1.409373 , -4.465007, 8.748159, 1077793536.000000, -3.080000,  -1.820000,  5.110000, 0.000000,  0.000000 
 23268800.000000, -1.466800 , -4.347759, 8.614161, 1077813504.000000, -1.330000,  -0.770000,  4.690000, 0.000000,  0.000000 
 23289024.000000, -1.215554 , -4.086941, 8.295916, 1077833472.000000, 1.330000,  -0.770000,  5.250000, 0.000000,  0.000000 
 23308736.000000, -1.069592 , -3.768696, 8.032705, 1077853824.000000, 3.990000,  0.420000,  4.830000, 0.000000,  0.000000 
 23328704.000000, -0.899701 , -3.783052, 8.252845, 1077873408.000000, 7.560000,  3.360000,  4.270000, 0.000000,  0.000000 
 23348672.000000, -0.868595 , -3.756732, 8.097312, 1077893376.000000, 8.400000,  6.440000,  5.110000, 0.000000,  0.000000 
 23368640.000000, -1.002593 , -3.838088, 8.937192, 1077913472.000000, 8.750000,  13.370000,  8.960000, 0.000000,  0.000000 
 23388992.000000, -1.234696 , -3.948158, 9.712467, 1077933440.000000, 13.370000,  17.780001,  12.040000, 0.000000,  0.000000 
 23408704.000000, -1.576870 , -3.960121, 9.544970, 1077953664.000000, 13.370000,  20.860001,  13.510000, 0.000000,  0.000000 
 23428672.000000, -1.873580 , -4.192225, 9.698111, 1077973376.000000, 11.970000,  24.360001,  15.470000, 0.000000,  0.000000 
 23448640.000000, -1.634298 , -4.443472, 9.879964, 1077993344.000000, 8.120000,  17.010000,  13.580000, 0.000000,  0.000000 
 23468608.000000, -1.304088 , -4.149154, 9.042477, 1078013312.000000, 0.910000,  1.260000,  11.480000, 0.000000,  0.000000 
 23488960.000000, -1.339981 , -4.386044, 9.083155, 1078033408.000000, -3.780000,  -10.640000,  9.030000, 0.000000,  0.000000 
 23508672.000000, -1.660619 , -4.560720, 8.475377, 1078053632.000000, -6.230000,  -13.440001,  6.300000, 0.000000,  0.000000 
 23528640.000000, -1.818545 , -4.163511, 7.834101, 1078073344.000000, -9.520000,  -10.570000,  5.390000, 0.000000,  0.000000 
 23548608.000000, -1.691726 , -3.984050, 7.623533, 1078093312.000000, -5.460000,  -12.040000,  3.290000, 0.000000,  0.000000 
 23568576.000000, -1.588834 , -3.955336, 7.812566, 1078113280.000000, -5.110000,  -14.490000,  -2.240000, 0.000000,  0.000000 
 23588928.000000, -1.426122 , -3.742374, 7.989635, 1078133248.000000, -6.860000,  -7.560000,  -1.260000, 0.000000,  0.000000 
 23608512.000000, -1.430908 , -4.228118, 8.606983, 1078153600.000000, -4.550000,  0.910000,  -1.750000, 0.000000,  0.000000 
 23628608.000000, -1.653440 , -4.390830, 8.604590, 1078173312.000000, -7.280000,  8.330000,  -1.750000, 0.000000,  0.000000 
 23648576.000000, -1.610370 , -3.866802, 8.659625, 1078193280.000000, -1.050000,  17.290001,  0.140000, 0.000000,  0.000000 
 23668544.000000, -1.335195 , -3.598805, 8.721838, 1078213248.000000, 10.430000,  15.470000,  0.140000, 0.000000,  0.000000 
 23688896.000000, -1.452443 , -3.400201, 9.071191, 1078233216.000000, 13.230000,  10.080000,  2.940000, 0.000000,  0.000000 
 23708480.000000, -1.878366 , -3.450450, 9.600004, 1078253568.000000, 12.600000,  11.130000,  4.620000, 0.000000,  0.000000 
 23728448.000000, -2.746960 , -3.086741, 9.547362, 1078293248.000000, 13.230000,  17.920000,  9.940000, 0.000000,  0.000000 
 23748544.000000, -3.594020 , -3.029313, 9.233903, 0.000000, 0.000000,  0.000000,  0.000000, 0.000000,  0.000000 
 23768512.000000, -3.775874 , -2.644069, 9.556933, 1078313216.000000, 14.280000,  20.580000,  19.180000, 0.000000,  0.000000 
 23788736.000000, -2.868994 , -2.672783, 8.386844, 1078333184.000000, 17.850000,  22.190001,  32.270000, 0.000000,  0.000000 
 23808448.000000, -2.366502 , -3.567699, 8.475377, 1078353536.000000, 19.879999,  19.180000,  41.090000, 0.000000,  0.000000 
 23828416.000000, -2.146362 , -5.125426, 9.308081, 1078373248.000000, -2.170000,  5.250000,  30.660000, 0.000000,  0.000000 
 23848384.000000, -2.261217 , -5.809773, 9.006584, 1078393088.000000, -35.980000,  3.430000,  22.680000, 0.000000,  0.000000 
 23868480.000000, -1.811367 , -5.589634, 9.092726, 1078413184.000000, -33.599998,  1.890000,  16.940001, 0.000000,  0.000000 
 23888704.000000, -1.689333 , -5.211568, 8.915657, 1078433152.000000, -13.090000,  -16.240000,  6.090000, 0.000000,  0.000000 
 23908416.000000, -2.404787 , -3.775874, 8.477771, 1078453376.000000, 0.770000,  -18.830000,  -4.480000, 0.000000,  0.000000 
 23928384.000000, -2.715853 , -2.366502, 7.793423, 1078473088.000000, 18.059999,  -6.860000,  -6.510000, 0.000000,  0.000000 
 23948352.000000, -1.820938 , -1.801795, 7.477571, 1078493056.000000, 21.280001,  -8.260000,  -8.890000, 0.000000,  0.000000 
 23968320.000000, -1.450050 , -2.476572, 8.114061, 1078513024.000000, 10.010000,  -17.850000,  -8.260000, 0.000000,  0.000000 
 23988672.000000, -1.761117 , -3.455236, 8.559127, 1078533120.000000, -3.500000,  -14.980000,  -6.510000, 0.000000,  0.000000 
 24008384.000000, -2.321038 , -4.161119, 8.700303, 1078553344.000000, -14.770000,  -1.120000,  0.560000, 0.000000,  0.000000 
 24028352.000000, -2.165504 , -4.345366, 8.961121, 1078573056.000000, -12.180000,  5.040000,  4.480000, 0.000000,  0.000000 
 24048320.000000, -1.837688 , -4.331009, 9.291330, 1078593024.000000, -6.090000,  -2.870000,  6.790000, 0.000000,  0.000000 
 24068288.000000, -1.770689 , -4.331009, 9.315259, 1078612992.000000, -4.340000,  -8.680000,  8.470000, 0.000000,  0.000000 
 24088640.000000, -1.835295 , -4.165904, 9.303294, 1078632960.000000, -1.890000,  -8.750000,  7.840000, 0.000000,  0.000000 
 24108352.000000, -1.952543 , -4.565506, 9.176475, 1078653312.000000, -6.020000,  -8.610000,  5.180000, 0.000000,  0.000000 
 24128320.000000, -1.995614 , -4.517649, 8.700303, 1078673024.000000, -11.970000,  -9.100000,  -1.470000, 0.000000,  0.000000 
 24148288.000000, -1.672583 , -3.785445, 8.370094, 1078692992.000000, -9.660000,  -10.080000,  -5.950000, 0.000000,  0.000000 
 24168256.000000, -1.263410 , -3.541377, 8.291130, 1078712960.000000, -6.440000,  -14.210000,  -11.690000, 1138711936.000000,  1009.653320 
 24188736.000000, -1.261017 , -3.912265, 8.702696, 1078732928.000000, -5.460000,  -12.810000,  -13.580000, 0.000000,  0.000000 
 24208192.000000, -1.615155 , -4.476971, 8.922836, 1078753408.000000, -7.420000,  -4.130000,  -12.390000, 0.000000,  0.000000 
 24228160.000000, -1.797010 , -3.976871, 8.793623, 1078772992.000000, -5.180000,  5.460000,  -11.900000, 0.000000,  0.000000 
 24248256.000000, -1.629512 , -3.866802, 8.982656, 1078792960.000000, 1.470000,  8.050000,  -9.380000, 0.000000,  0.000000 
 24268224.000000, -1.789831 , -4.218546, 9.265009, 1078812928.000000, 4.480000,  3.920000,  -9.380000, 0.000000,  0.000000 
 24288448.000000, -2.244468 , -3.744767, 8.824730, 1078832896.000000, 1.260000,  7.840000,  -8.120000, 0.000000,  0.000000 
 24308160.000000, -1.981257 , -3.699304, 8.461020, 1078853248.000000, 2.940000,  10.150000,  -7.210000, 0.000000,  0.000000 
 24328128.000000, -1.612763 , -3.988836, 8.583055, 1078872832.000000, -0.140000,  -0.980000,  -8.540000, 0.000000,  0.000000 
 24348096.000000, -1.947758 , -3.725625, 8.372486, 1078892928.000000, -3.710000,  -2.870000,  -8.400000, 0.000000,  0.000000 
 24368192.000000, -1.789831 , -3.507878, 8.338986, 1078912896.000000, -0.140000,  1.050000,  -7.490000, 0.000000,  0.000000 
 24388416.000000, -1.749153 , -3.419343, 8.568698, 1078932864.000000, 0.350000,  -0.980000,  -5.530000, 0.000000,  0.000000 
 24408128.000000, -1.782653 , -3.424129, 8.590233, 1078953216.000000, 0.490000,  0.910000,  -3.220000, 0.000000,  0.000000 
 24428096.000000, -1.832902 , -4.070191, 8.788837, 1078972800.000000, -2.730000,  2.660000,  0.140000, 0.000000,  0.000000 
 24448064.000000, -1.945365 , -4.321437, 9.049655, 1078992768.000000, -7.770000,  1.890000,  1.960000, 0.000000,  0.000000 
 24468032.000000, -1.840081 , -4.307081, 8.884550, 1079012864.000000, -6.160000,  3.360000,  3.010000, 0.000000,  0.000000 
 24488384.000000, -1.909473 , -4.608576, 9.052048, 1079032832.000000, -5.250000,  0.070000,  2.870000, 0.000000,  0.000000 
 24508096.000000, -2.074577 , -4.603791, 8.843873, 1079053056.000000, -6.370000,  -0.280000,  0.490000, 0.000000,  0.000000 
 24528064.000000, -1.622334 , -4.211368, 8.597411, 1079072768.000000, -2.590000,  0.630000,  -1.680000, 0.000000,  0.000000 
 24548032.000000, -1.347159 , -4.115655, 8.994620, 1079092736.000000, 0.420000,  -6.090000,  -3.150000, 0.000000,  0.000000 
 24568000.000000, -1.878366 , -3.802195, 8.676375, 1079112704.000000, 3.360000,  -5.320000,  -3.220000, 0.000000,  0.000000 
 24588352.000000, -1.990828 , -3.632305, 8.338986, 1079132800.000000, 0.350000,  3.290000,  -1.960000, 0.000000,  0.000000 
 24608064.000000, -1.576870 , -3.926622, 8.463413, 1079153024.000000, -1.890000,  1.260000,  -2.100000, 0.000000,  0.000000 
 24628032.000000, -1.663012 , -3.969693, 8.470592, 1079172736.000000, -4.200000,  -2.940000,  -1.750000, 0.000000,  0.000000 
 24648000.000000, -1.643869 , -3.905087, 8.633304, 1079192704.000000, -2.450000,  0.140000,  -0.350000, 0.000000,  0.000000 
 24667968.000000, -1.816152 , -3.864408, 8.796017, 1079212672.000000, -1.050000,  1.610000,  1.050000, 0.000000,  0.000000 
 24688320.000000, -1.988436 , -4.106083, 9.217153, 1079232640.000000, -1.330000,  4.620000,  2.800000, 0.000000,  0.000000 
 24707904.000000, -2.134398 , -4.153940, 8.946764, 1079252992.000000, -3.850000,  4.620000,  1.260000, 0.000000,  0.000000 
 24728000.000000, -2.019542 , -4.137190, 8.583055, 1079272704.000000, -4.830000,  3.850000,  2.030000, 0.000000,  0.000000 
 24747968.000000, -1.426122 , -4.534399, 8.762517, 1079292672.000000, -6.230000,  -2.730000,  1.680000, 0.000000,  0.000000 
 24767936.000000, -1.524228 , -4.278367, 8.439486, 1079312640.000000, -7.070000,  -10.430000,  0.840000, 0.000000,  0.000000 
 24788288.000000, -1.538585 , -3.739982, 7.984849, 1079332608.000000, -0.630000,  -6.300000,  2.590000, 0.000000,  0.000000 
 24808000.000000, -1.342373 , -3.716053, 8.147561, 1079352960.000000, 2.170000,  -7.000000,  3.500000, 0.000000,  0.000000 
 24827840.000000, -1.509871 , -3.929015, 8.274381, 1079372672.000000, -0.070000,  -8.120000,  4.130000, 0.000000,  0.000000 
 24847936.000000, -1.648655 , -4.340580, 8.329416, 1079392640.000000, -5.320000,  -0.140000,  5.810000, 0.000000,  0.000000 
 24867904.000000, -1.265803 , -4.259224, 8.355737, 1079412608.000000, -7.210000,  1.820000,  5.040000, 0.000000,  0.000000 
 24888256.000000, -1.234696 , -4.321437, 8.623734, 1079432576.000000, -2.660000,  -0.140000,  5.180000, 0.000000,  0.000000 
 24907840.000000, -1.651048 , -4.465007, 9.221939, 1079453056.000000, 0.910000,  1.540000,  3.570000, 0.000000,  0.000000 
 24927808.000000, -2.328217 , -4.082155, 8.898908, 1079472512.000000, 1.400000,  7.210000,  2.450000, 0.000000,  0.000000 
 24947776.000000, -2.110470 , -4.197011, 8.662018, 1079492608.000000, 1.120000,  10.990000,  0.140000, 0.000000,  0.000000 
 24967872.000000, -1.485943 , -4.493721, 9.040084, 1079512576.000000, -3.360000,  0.070000,  -3.500000, 0.000000,  0.000000 
 24988096.000000, -1.332802 , -4.285545, 8.867801, 1079532544.000000, -5.320000,  -8.120000,  -5.180000, 0.000000,  0.000000 
 25007808.000000, -1.440479 , -4.283153, 8.652447, 1079552768.000000, -3.220000,  -5.880000,  -2.870000, 0.000000,  0.000000 
 25027136.000000, -1.466800 , -4.232903, 8.705089, 1079572480.000000, -4.760000,  -5.390000,  -2.590000, 0.000000,  0.000000 
 25047744.000000, -1.524228 , -4.175476, 8.606983, 1079591808.000000, -3.640000,  -4.830000,  -4.270000, 0.000000,  0.000000 
 25067712.000000, -1.210768 , -4.481757, 8.688338, 1079612544.000000, -2.590000,  -5.110000,  -3.640000, 0.000000,  0.000000 
 25088064.000000, -1.402194 , -4.759324, 8.611769, 1079632512.000000, -5.740000,  -6.930000,  -3.500000, 0.000000,  0.000000 
 25107776.000000, -1.617548 , -4.599005, 8.525627, 1079652736.000000, -5.250000,  -0.980000,  -3.710000, 0.000000,  0.000000 
 25127744.000000, -1.284946 , -4.579862, 8.391629, 1079672448.000000, -1.960000,  0.280000,  -5.600000, 0.000000,  0.000000 
 25147712.000000, -1.335195 , -4.685147, 8.669197, 1079712384.000000, -0.910000,  0.840000,  -9.590000, 1139711360.000000,  1009.655457 
 25167680.000000, -1.507478 , -4.271189, 8.413164, 0.000000, 0.000000,  0.000000,  0.000000, 0.000000,  0.000000 
 25188032.000000, -1.430908 , -4.005585, 8.518449, 1079732352.000000, 1.050000,  4.340000,  -10.710000, 0.000000,  0.000000 
 25207744.000000, -1.639083 , -4.074977, 8.611769, 1079752704.000000, 1.260000,  2.520000,  -11.200000, 0.000000,  0.000000 
 25227712.000000, -1.773082 , -3.864408, 8.563912, 1079772416.000000, 0.420000,  3.500000,  -9.660000, 0.000000,  0.000000 
 25247680.000000, -1.792224 , -3.912265, 8.690732, 1079792384.000000, 0.910000,  3.710000,  -9.660000, 0.000000,  0.000000 
 25267648.000000, -1.837688 , -3.754339, 8.702696, 1079812352.000000, 0.490000,  2.870000,  -7.280000, 0.000000,  0.000000 
 25288000.000000, -1.782653 , -3.653840, 8.590233, 1079832320.000000, 0.420000,  2.590000,  -5.600000, 0.000000,  0.000000 
 25307584.000000, -1.509871 , -4.070191, 8.504091, 1079852672.000000, -1.260000,  1.890000,  -2.310000, 0.000000,  0.000000 
 25327680.000000, -1.497907 , -4.328616, 8.685946, 1079872384.000000, -2.520000,  0.770000,  0.490000, 0.000000,  0.000000 
 25347648.000000, -1.450050 , -4.113262, 8.738588, 1079892352.000000, -2.240000,  1.820000,  2.310000, 0.000000,  0.000000 
 25367616.000000, -1.272982 , -4.173083, 8.556733, 1079912320.000000, 0.700000,  2.170000,  4.130000, 0.000000,  0.000000 
 25387968.000000, -1.337588 , -4.713861, 8.729016, 1079932288.000000, -2.520000,  1.330000,  3.570000, 0.000000,  0.000000 
 25407552.000000, -1.399801 , -4.981857, 9.102298, 1079952640.000000, -7.280000,  0.770000,  2.240000, 0.000000,  0.000000 
 25427520.000000, -1.830509 , -4.867002, 8.946764, 1079972224.000000, -7.280000,  3.640000,  1.470000, 0.000000,  0.000000 
 25447488.000000, -1.890330 , -5.120641, 8.870193, 1079992320.000000, -6.860000,  5.180000,  -0.350000, 0.000000,  0.000000 
 25467584.000000, -1.643869 , -5.012963, 8.714661, 1080012288.000000, -4.410000,  2.030000,  -2.870000, 0.000000,  0.000000 
 25487808.000000, -1.383051 , -4.522435, 8.480164, 1080032256.000000, -0.280000,  -2.100000,  -4.900000, 0.000000,  0.000000 
 25507520.000000, -1.328017 , -3.921836, 8.171489, 1080052608.000000, 4.060000,  -5.110000,  -6.020000, 0.000000,  0.000000 
 25527488.000000, -1.636691 , -3.735196, 8.114061, 1080072192.000000, 4.970000,  -1.120000,  -5.740000, 0.000000,  0.000000 
 25547456.000000, -1.648655 , -3.792624, 8.195417, 1080092160.000000, 0.910000,  4.130000,  -2.660000, 0.000000,  0.000000 
 25567424.000000, -1.548156 , -4.165904, 8.647661, 1080112256.000000, -2.940000,  3.080000,  -0.840000, 0.000000,  0.000000 
 25587776.000000, -2.019542 , -4.354938, 9.260223, 1080132224.000000, -3.500000,  3.010000,  3.570000, 0.000000,  0.000000 
 25607488.000000, -2.385644 , -4.206582, 8.819944, 1080152448.000000, -1.120000,  7.350000,  4.900000, 0.000000,  0.000000 
 25627456.000000, -2.002793 , -4.228118, 8.659625, 1080172160.000000, -0.350000,  8.820000,  6.370000, 0.000000,  0.000000 
 25647424.000000, -1.785046 , -4.644469, 8.815158, 1080192128.000000, -2.450000,  4.060000,  4.480000, 0.000000,  0.000000 
 25667392.000000, -1.304088 , -5.099105, 8.829515, 1080212096.000000, -4.550000,  -5.670000,  2.800000, 0.000000,  0.000000 
 25687744.000000, -1.378266 , -4.378866, 8.279166, 1080232192.000000, -5.180000,  -6.160000,  2.590000, 0.000000,  0.000000 
 25707456.000000, -1.457229 , -4.031906, 8.090133, 1080252416.000000, 2.030000,  -1.680000,  1.750000, 0.000000,  0.000000 
 25727424.000000, -1.572084 , -3.646662, 8.300702, 1080272128.000000, 5.950000,  -1.260000,  1.610000, 0.000000,  0.000000 
 25747392.000000, -1.808974 , -3.964907, 8.504091, 1080292096.000000, 4.550000,  0.980000,  1.680000, 0.000000,  0.000000 
 25767360.000000, -1.761117 , -4.302295, 8.408379, 1080312064.000000, -1.890000,  4.620000,  3.290000, 0.000000,  0.000000 
 25787712.000000, -1.576870 , -4.484150, 8.544770, 1080332032.000000, -4.830000,  3.430000,  6.160000, 0.000000,  0.000000 
 25807424.000000, -1.538585 , -4.508078, 8.645268, 1080352384.000000, -1.120000,  1.820000,  7.350000, 0.000000,  0.000000 
 25827392.000000, -1.478764 , -4.797609, 8.772088, 1080372096.000000, -0.560000,  2.940000,  7.350000, 0.000000,  0.000000 
 25847360.000000, -1.619941 , -4.704289, 8.671589, 1080392064.000000, -2.660000,  1.260000,  5.250000, 0.000000,  0.000000 
 25867328.000000, -1.574477 , -4.481757, 8.621340, 1080412032.000000, -1.750000,  1.330000,  3.920000, 0.000000,  0.000000 
 25887680.000000, -1.696511 , -4.431508, 8.604590, 1080432000.000000, 0.350000,  -1.120000,  1.260000, 0.000000,  0.000000 
 25907264.000000, -1.622334 , -4.409972, 8.575876, 1080452352.000000, -0.840000,  -0.770000,  0.420000, 0.000000,  0.000000 
 25927232.000000, -1.674976 , -4.290331, 8.324631, 1080472064.000000, -0.770000,  0.630000,  0.350000, 0.000000,  0.000000 
 25947328.000000, -1.538585 , -4.474578, 8.697910, 1080492032.000000, -0.420000,  0.630000,  0.910000, 0.000000,  0.000000 
 25967296.000000, -1.911865 , -4.697111, 9.236296, 1080512000.000000, 1.330000,  -0.560000,  1.330000, 0.000000,  0.000000 
 25987520.000000, -2.232504 , -4.486543, 9.190832, 1080531968.000000, 0.560000,  5.880000,  1.330000, 0.000000,  0.000000 
 26007232.000000, -2.277967 , -4.498507, 8.946764, 1080552320.000000, 0.140000,  6.230000,  -0.350000, 0.000000,  0.000000 
 26027200.000000, -1.895115 , -4.512863, 8.963513, 1080571904.000000, 1.050000,  0.420000,  -2.380000, 0.000000,  0.000000 
 26047168.000000, -1.964507 , -3.976871, 8.288737, 1080592000.000000, -0.210000,  -5.460000,  -3.920000, 0.000000,  0.000000 
 26067264.000000, -1.792224 , -3.641876, 7.838887, 1080611968.000000, 0.980000,  -3.920000,  -4.060000, 0.000000,  0.000000 
 26087488.000000, -1.301696 , -3.785445, 7.774280, 1080631936.000000, 2.030000,  -5.320000,  -0.700000, 0.000000,  0.000000 
 26107200.000000, -1.117448 , -3.981657, 7.915457, 1080652160.000000, 0.490000,  -6.720000,  3.640000, 0.000000,  0.000000 
 26127296.000000, -1.361516 , -4.034299, 8.159525, 1080671872.000000, 1.260000,  -1.400000,  8.680000, 0.000000,  0.000000 
 26147136.000000, -1.399801 , -4.043870, 8.427521, 1080711936.000000, -1.610000,  5.110000,  13.020000, 1140710912.000000,  1009.653137 
 26167104.000000, -1.708475 , -4.587041, 8.678767, 0.000000, 0.000000,  0.000000,  0.000000, 0.000000,  0.000000 
 26187456.000000, -1.911865 , -4.639683, 8.585447, 1080731904.000000, -7.560000,  5.810000,  10.220000, 0.000000,  0.000000 
 26207168.000000, -1.538585 , -4.319045, 8.185846, 1080752128.000000, -7.560000,  4.690000,  8.820000, 0.000000,  0.000000 
 26227136.000000, -1.016950 , -4.094120, 7.783852, 1080771840.000000, -3.710000,  -0.280000,  6.790000, 0.000000,  0.000000 
 26247104.000000, -0.961915 , -4.304688, 8.233703, 1080791808.000000, -1.540000,  -0.910000,  8.050000, 0.000000,  0.000000 
 26267072.000000, -1.509871 , -3.711268, 8.346166, 1080811776.000000, 2.590000,  6.370000,  11.200000, 0.000000,  0.000000 
 26287424.000000, -1.897508 , -3.926622, 9.260223, 1080852096.000000, 5.740000,  20.370001,  16.590000, 0.000000,  0.000000 
 26307136.000000, -2.610569 , -4.240082, 9.626326, 0.000000, 0.000000,  0.000000,  0.000000, 0.000000,  0.000000 
 26327104.000000, -2.737389 , -4.388437, 9.214760, 1080871808.000000, -0.630000,  21.559999,  15.610000, 0.000000,  0.000000 
 26347072.000000, -2.445465 , -5.319244, 9.667004, 1080891776.000000, -5.530000,  13.370000,  14.350000, 0.000000,  0.000000 
 26367040.000000, -2.488536 , -5.309673, 9.147761, 1080911744.000000, -7.420000,  2.170000,  11.200000, 0.000000,  0.000000 
 26387392.000000, -2.227718 , -5.161318, 8.776874, 1080931712.000000, -4.130000,  2.170000,  7.140000, 0.000000,  0.000000 
 26406976.000000, -2.194218 , -4.677969, 8.315059, 1080952064.000000, 2.940000,  -5.040000,  2.170000, 0.000000,  0.000000 
 26427072.000000, -1.966900 , -3.866802, 7.623533, 1080971776.000000, 4.480000,  -4.480000,  -2.240000, 0.000000,  0.000000 
 26447040.000000, -1.562513 , -3.984050, 7.848458, 1080991744.000000, 5.810000,  -4.830000,  -5.040000, 0.000000,  0.000000 
 26467008.000000, -1.730011 , -3.680161, 7.826923, 1081011712.000000, 4.270000,  -3.080000,  -5.740000, 0.000000,  0.000000 
 26487360.000000, -1.856830 , -3.821337, 8.056634, 1081031680.000000, 3.290000,  7.420000,  -1.680000, 0.000000,  0.000000 
 26506944.000000, -2.098505 , -4.120440, 8.441878, 1081052032.000000, 0.910000,  10.010000,  0.630000, 0.000000,  0.000000 
 26526912.000000, -2.266003 , -4.091727, 8.504091, 1081071744.000000, 1.330000,  11.760000,  2.800000, 0.000000,  0.000000 
 26547008.000000, -2.160719 , -4.180261, 8.561519, 1081091712.000000, 3.780000,  9.240000,  3.080000, 0.000000,  0.000000 
 26566976.000000, -2.043471 , -4.472186, 8.831908, 1081111680.000000, 2.870000,  4.970000,  2.800000, 0.000000,  0.000000 
 26587200.000000, -2.203789 , -4.670790, 8.803195, 1081131648.000000, 0.980000,  1.890000,  1.400000, 0.000000,  0.000000 
 26606912.000000, -2.175076 , -4.460221, 8.511270, 1081152000.000000, -1.400000,  0.770000,  -1.610000, 0.000000,  0.000000 
 26626880.000000, -2.091327 , -4.299902, 8.618947, 1081171584.000000, -0.980000,  -2.590000,  -4.970000, 0.000000,  0.000000 
 26646848.000000, -2.024328 , -4.307081, 8.606983, 1081191680.000000, -1.050000,  -5.250000,  -7.630000, 0.000000,  0.000000 
 26666944.000000, -1.907080 , -4.498507, 8.633304, 1081211648.000000, -2.450000,  -3.080000,  -8.190000, 0.000000,  0.000000 
 26687168.000000, -1.895115 , -4.881358, 8.764909, 1081231616.000000, -4.760000,  -3.220000,  -7.140000, 0.000000,  0.000000 
 26706880.000000, -1.916651 , -4.833502, 8.477771, 1081251840.000000, -6.160000,  -1.750000,  -8.190000, 0.000000,  0.000000 
 26726848.000000, -1.567299 , -4.570292, 8.293523, 1081271552.000000, -4.480000,  0.350000,  -10.500000, 0.000000,  0.000000 
 26746816.000000, -1.414158 , -4.828716, 9.133404, 1081291520.000000, -0.840000,  -3.080000,  -11.340000, 0.000000,  0.000000 
 26766784.000000, -2.500499 , -4.488935, 9.049655, 1081311616.000000, 0.350000,  -0.070000,  -12.600000, 0.000000,  0.000000 
 26787136.000000, -2.799603 , -3.766303, 8.465806, 1081331584.000000, 2.520000,  12.040000,  -14.840000, 0.000000,  0.000000 
 26806848.000000, -1.993221 , -4.070191, 8.678767, 1081351808.000000, 1.680000,  6.510000,  -16.590000, 0.000000,  0.000000 
 26826816.000000, -1.830509 , -4.103691, 8.652447, 1081371520.000000, -4.340000,  -7.000000,  -17.850000, 0.000000,  0.000000 
 26846784.000000, -2.493321 , -3.806981, 8.305488, 1081391488.000000, -0.490000,  -3.220000,  -13.230000, 0.000000,  0.000000 
 26866752.000000, -2.450250 , -3.955336, 8.516055, 1081411456.000000, 0.140000,  3.780000,  -8.820000, 0.000000,  0.000000 
 26887104.000000, -2.462214 , -3.598805, 8.082954, 1081431424.000000, 0.140000,  0.420000,  -6.510000, 0.000000,  0.000000 
 26906688.000000, -2.160719 , -3.639483, 8.085347, 1081451776.000000, 1.050000,  0.350000,  -4.060000, 0.000000,  0.000000 
 26926784.000000, -2.258825 , -4.467400, 8.451449, 1081471488.000000, -0.980000,  -2.380000,  -0.630000, 0.000000,  0.000000 
 26946752.000000, -2.373680 , -4.661219, 8.231310, 1081491456.000000, -5.180000,  3.500000,  2.520000, 0.000000,  0.000000 
 26966720.000000, -1.952543 , -4.733003, 8.831908, 1081511424.000000, -2.520000,  6.020000,  4.130000, 0.000000,  0.000000 
 26987072.000000, -2.478964 , -4.673182, 8.774480, 1081531392.000000, 1.960000,  1.050000,  3.990000, 0.000000,  0.000000 
 27006656.000000, -2.608176 , -4.508078, 8.365308, 1081551744.000000, 1.190000,  7.840000,  2.800000, 0.000000,  0.000000 
 27026624.000000, -1.950150 , -4.704289, 8.925228, 1081571456.000000, 0.910000,  3.990000,  1.470000, 0.000000,  0.000000 
 27046720.000000, -2.306681 , -3.902694, 8.353344, 1081591424.000000, 2.590000,  -5.530000,  -0.630000, 0.000000,  0.000000 
 27066688.000000, -2.120041 , -3.960121, 8.403593, 1081611392.000000, 5.320000,  0.770000,  0.630000, 0.000000,  0.000000 
 27086912.000000, -1.983650 , -4.622933, 8.836694, 1081631360.000000, 1.750000,  -2.940000,  2.660000, 0.000000,  0.000000 
 27106624.000000, -2.191825 , -4.644469, 8.549555, 1081651712.000000, -3.430000,  -2.800000,  2.310000, 0.000000,  0.000000 
 27126592.000000, -1.981257 , -4.800002, 8.618947, 1081671296.000000, -0.140000,  -1.260000,  3.850000, 0.000000,  0.000000 
 27146560.000000, -1.871187 , -4.883751, 8.874979, 1081711360.000000, 3.010000,  -4.620000,  1.470000, 1141710336.000000,  1009.653198 
 27166656.000000, -2.122434 , -4.029513, 8.355737, 0.000000, 0.000000,  0.000000,  0.000000, 0.000000,  0.000000 
 27186880.000000, -1.981257 , -3.268596, 8.087741, 1081731328.000000, 7.560000,  -3.150000,  0.070000, 0.000000,  0.000000 
 27206592.000000, -1.868794 , -3.345166, 8.257630, 1081751680.000000, 8.890000,  -5.810000,  0.700000, 0.000000,  0.000000 
 27226560.000000, -1.852045 , -3.452843, 8.111670, 1081771264.000000, 4.550000,  -3.640000,  2.590000, 0.000000,  0.000000 
 27246528.000000, -1.631905 , -3.720839, 8.092526, 1081791232.000000, 0.210000,  1.470000,  6.720000, 0.000000,  0.000000 
 27266496.000000, -1.648655 , -4.256832, 8.707481, 1081811328.000000, -1.050000,  2.590000,  10.850000, 0.000000,  0.000000 
 27286848.000000, -1.746760 , -4.048656, 8.611769, 1081831296.000000, -0.490000,  2.730000,  13.160000, 0.000000,  0.000000 
 27306560.000000, -1.777867 , -3.893122, 8.626125, 1081851520.000000, 1.400000,  2.730000,  15.890000, 0.000000,  0.000000 
 27326528.000000, -1.696511 , -4.673182, 9.566505, 1081871232.000000, 2.100000,  -2.730000,  16.660000, 0.000000,  0.000000 
 27346496.000000, -2.187040 , -5.288138, 9.432507, 1081891200.000000, -3.150000,  -7.350000,  15.820000, 0.000000,  0.000000 
 27366464.000000, -2.280360 , -5.352744, 8.547162, 1081911168.000000, -8.750000,  -5.740000,  11.900000, 0.000000,  0.000000 
 27386816.000000, -1.797010 , -5.355137, 8.169096, 1081931264.000000, -9.870000,  -11.480000,  6.580000, 0.000000,  0.000000 
 27406528.000000, -1.622334 , -5.132604, 7.946564, 1081951488.000000, -5.600000,  -19.110001,  -2.170000, 0.000000,  0.000000 
 27426496.000000, -1.722832 , -4.800002, 8.461020, 1081971200.000000, 1.120000,  -14.070000,  -7.980000, 0.000000,  0.000000 
 27446464.000000, -2.019542 , -3.778267, 8.216952, 1081991168.000000, 5.950000,  -4.830000,  -10.640000, 0.000000,  0.000000 
 27466432.000000, -1.603191 , -4.027121, 8.796017, 1082011136.000000, 6.720000,  1.960000,  -12.460000, 0.000000,  0.000000 
 27486784.000000, -2.050649 , -4.666004, 9.425328, 1082031104.000000, 4.270000,  0.770000,  -12.180000, 0.000000,  0.000000 
 27506368.000000, -2.488536 , -4.407579, 8.977871, 1082051456.000000, -1.260000,  3.850000,  -11.060000, 0.000000,  0.000000 
 27526464.000000, -2.167897 , -4.345366, 8.571091, 1082071168.000000, 0.210000,  13.160000,  -9.940000, 0.000000,  0.000000 
 27546432.000000, -1.897508 , -4.027121, 8.638089, 1082091136.000000, 3.430000,  3.220000,  -9.870000, 0.000000,  0.000000 
 27566400.000000, -2.232504 , -3.369094, 7.941778, 1082111104.000000, 7.630000,  -3.710000,  -9.590000, 0.000000,  0.000000 
 27586752.000000, -2.199004 , -2.852244, 8.082954, 1082131072.000000, 12.600000,  2.520000,  -7.350000, 0.000000,  0.000000 
 27606336.000000, -1.957329 , -2.694318, 8.248059, 1082151424.000000, 14.630000,  1.050000,  -4.200000, 0.000000,  0.000000 
 27626304.000000, -1.954936 , -3.299703, 8.303094, 1082171008.000000, 9.380000,  -0.140000,  -0.350000, 0.000000,  0.000000 
 27646400.000000, -1.844866 , -3.900301, 8.080563, 1082191104.000000, -1.750000,  3.850000,  2.870000, 0.000000,  0.000000 
 27666368.000000, -1.217947 , -3.775874, 8.195417, 1082211072.000000, -6.370000,  1.470000,  5.250000, 0.000000,  0.000000 
 27686592.000000, -1.234696 , -3.682554, 8.769694, 1082231040.000000, -0.490000,  -4.410000,  7.770000, 0.000000,  0.000000 
 27706304.000000, -1.679761 , -3.400201, 9.052048, 1082251392.000000, 3.990000,  -1.400000,  7.560000, 0.000000,  0.000000 
 27726272.000000, -1.976472 , -3.522235, 8.934800, 1082270976.000000, 6.230000,  5.600000,  9.450000, 0.000000,  0.000000 
 27746240.000000, -1.801795 , -4.328616, 9.111869, 1082290944.000000, 0.700000,  3.920000,  8.050000, 0.000000,  0.000000 
 27766336.000000, -1.651048 , -4.675575, 9.339187, 1082311040.000000, -6.020000,  -1.680000,  7.560000, 0.000000,  0.000000 
 27786560.000000, -1.842474 , -4.957928, 9.128618, 1082331008.000000, -7.280000,  -3.710000,  8.820000, 0.000000,  0.000000 
 27806272.000000, -1.689333 , -4.725825, 8.973085, 1082351232.000000, -5.810000,  -3.990000,  8.190000, 0.000000,  0.000000 
 27826240.000000, -1.344766 , -4.687540, 8.841480, 1082370944.000000, -4.060000,  -8.750000,  9.590000, 0.000000,  0.000000 
 27846208.000000, -1.409373 , -5.067998, 8.927622, 1082390912.000000, -4.130000,  -14.000000,  8.540000, 0.000000,  0.000000 
 27866176.000000, -1.485943 , -4.721039, 8.855836, 1082410880.000000, -7.000000,  -10.920000,  7.490000, 0.000000,  0.000000 
 27886528.000000, -1.560120 , -5.063213, 9.669396, 1082430976.000000, -3.500000,  -9.450000,  6.090000, 0.000000,  0.000000 
 27906240.000000, -2.210968 , -4.706682, 8.927622, 1082451200.000000, -3.640000,  -9.730000,  2.380000, 0.000000,  0.000000 
 27926208.000000, -2.316252 , -4.541577, 8.063812, 1082470912.000000, -5.600000,  -1.610000,  -4.060000, 0.000000,  0.000000 
 27946176.000000, -1.622334 , -5.355137, 8.583055, 1082490880.000000, -5.880000,  -7.560000,  -8.400000, 0.000000,  0.000000 
 27966144.000000, -1.919044 , -4.180261, 7.700103, 1082510848.000000, -3.220000,  -16.309999,  -14.840000, 0.000000,  0.000000 
 27986496.000000, -1.761117 , -2.847459, 7.300502, 1082530816.000000, 9.100000,  -4.970000,  -17.639999, 0.000000,  0.000000 
 28006208.000000, -1.584049 , -3.187240, 7.678568, 1082551168.000000, 16.940001,  -3.360000,  -17.360001, 0.000000,  0.000000 
 28026176.000000, -1.852045 , -2.883351, 7.944171, 1082570880.000000, 5.040000,  1.120000,  -17.570000, 0.000000,  0.000000 
 28046144.000000, -1.957329 , -2.739782, 8.496914, 1082590848.000000, 2.170000,  10.780000,  -11.620000, 0.000000,  0.000000 
 28066112.000000, -2.292324 , -2.804388, 8.846266, 1082610816.000000, 2.590000,  14.350000,  -5.320000, 0.000000,  0.000000 
 28086464.000000, -2.385644 , -2.785245, 8.863015, 1082630784.000000, 2.030000,  20.580000,  1.260000, 0.000000,  0.000000 
 28106048.000000, -1.995614 , -3.440879, 9.523434, 1082651136.000000, 2.310000,  17.430000,  7.700000, 0.000000,  0.000000 
 28126144.000000, -2.012364 , -4.201797, 9.669396, 1082670848.000000, -4.060000,  8.890000,  13.090000, 0.000000,  0.000000 
 28146112.000000, -1.964507 , -4.474578, 9.214760, 1082690816.000000, -4.620000,  8.540000,  16.940001, 0.000000,  0.000000 
 28166080.000000, -1.581656 , -4.785645, 9.128618, 1082710784.000000, -4.060000,  3.780000,  18.969999, 1142709760.000000,  1009.648071 
 28186304.000000, -1.438086 , -5.020142, 8.788837, 1082730752.000000, -3.920000,  -6.440000,  19.040001, 0.000000,  0.000000 
 28206016.000000, -1.354338 , -5.118248, 8.219346, 1082751104.000000, -5.110000,  -8.750000,  16.030001, 0.000000,  0.000000 
 28225984.000000, -1.028914 , -4.905287, 8.183454, 1082770688.000000, -5.600000,  -10.990000,  11.760000, 0.000000,  0.000000 
 28246080.000000, -1.160519 , -4.462614, 8.248059, 1082790784.000000, -0.350000,  -13.160000,  7.000000, 0.000000,  0.000000 
 28266048.000000, -1.531406 , -4.512863, 8.135597, 1082810752.000000, 0.280000,  -5.320000,  2.870000, 0.000000,  0.000000 
 28286272.000000, -1.691726 , -4.622933, 8.712267, 1082830720.000000, -3.220000,  1.260000,  -3.220000, 0.000000,  0.000000 
 28305984.000000, -2.124826 , -4.120440, 8.760124, 1082851072.000000, -2.380000,  5.320000,  -5.040000, 0.000000,  0.000000 
 28325952.000000, -2.280360 , -3.890730, 8.597411, 1082870656.000000, 0.840000,  11.620000,  -8.190000, 0.000000,  0.000000 
 28345920.000000, -1.887937 , -3.809374, 8.779266, 1082890624.000000, 1.820000,  8.330000,  -10.920000, 0.000000,  0.000000 
 28366016.000000, -1.883151 , -3.680161, 8.633304, 1082910720.000000, 0.210000,  -0.280000,  -11.690000, 0.000000,  0.000000 
 28386240.000000, -1.813759 , -3.687340, 8.662018, 1082930688.000000, -0.420000,  -0.210000,  -10.150000, 0.000000,  0.000000 
 28405952.000000, -1.864009 , -4.015156, 8.908479, 1082950912.000000, -0.630000,  -0.490000,  -7.910000, 0.000000,  0.000000 
 28425920.000000, -1.993221 , -4.007978, 8.908479, 1082970624.000000, -2.590000,  -1.260000,  -7.280000, 0.000000,  0.000000 
 28445888.000000, -1.871187 , -4.077370, 8.702696, 1082990592.000000, -2.240000,  0.210000,  -6.020000, 0.000000,  0.000000 
 28465856.000000, -1.684547 , -4.457829, 8.829515, 1083010560.000000, -4.900000,  -1.960000,  -5.180000, 0.000000,  0.000000 
 28486208.000000, -1.548156 , -4.465007, 8.616554, 1083030656.000000, -7.000000,  -5.390000,  -5.810000, 0.000000,  0.000000 
 28505920.000000, -1.493121 , -4.378866, 8.697910, 1083050880.000000, -4.130000,  -4.410000,  -5.040000, 0.000000,  0.000000 
 28525888.000000, -1.593620 , -4.443472, 8.597411, 1083070592.000000, -0.210000,  -2.100000,  -5.740000, 0.000000,  0.000000 
 28545856.000000, -1.596013 , -4.555934, 8.504091, 1083090560.000000, -1.540000,  0.350000,  -5.880000, 0.000000,  0.000000 
 28565824.000000, -1.701297 , -4.180261, 8.461020, 1083110528.000000, -1.260000,  2.170000,  -7.210000, 0.000000,  0.000000 
 28586176.000000, -1.562513 , -3.763910, 8.432307, 1083130496.000000, 2.170000,  3.430000,  -7.000000, 0.000000,  0.000000 
 28605760.000000, -1.655833 , -3.897908, 8.573483, 1083150848.000000, 3.570000,  1.750000,  -6.790000, 0.000000,  0.000000 
 28625856.000000, -1.806581 , -3.862016, 8.489735, 1083170560.000000, 0.770000,  4.690000,  -6.440000, 0.000000,  0.000000 
 28645824.000000, -1.835295 , -4.094120, 8.719445, 1083190528.000000, -1.260000,  5.110000,  -4.970000, 0.000000,  0.000000 
 28665792.000000, -1.976472 , -4.098906, 8.779266, 1083210496.000000, -2.240000,  3.290000,  -3.990000, 0.000000,  0.000000 
 28686144.000000, -1.895115 , -3.850052, 8.463413, 1083230464.000000, -0.840000,  3.640000,  -1.330000, 0.000000,  0.000000 
 28705728.000000, -1.713261 , -3.993621, 8.597411, 1083250816.000000, 1.190000,  -0.280000,  -0.980000, 0.000000,  0.000000 
 28725696.000000, -1.816152 , -4.015156, 8.599805, 1083270528.000000, 0.560000,  -2.590000,  0.140000, 0.000000,  0.000000 
 28745792.000000, -1.840081 , -4.304688, 8.786445, 1083290496.000000, -1.890000,  0.070000,  1.050000, 0.000000,  0.000000 
 28765760.000000, -1.840081 , -4.579862, 8.678767, 1083310464.000000, -5.390000,  -0.700000,  0.700000, 0.000000,  0.000000 
 28785984.000000, -1.892723 , -4.220939, 8.618947, 1083330432.000000, -3.640000,  -0.280000,  0.070000, 0.000000,  0.000000 
 28805696.000000, -1.663012 , -4.476971, 8.786445, 1083350784.000000, -0.420000,  -0.490000,  0.070000, 0.000000,  0.000000 
 28825664.000000, -1.734797 , -4.718646, 8.788837, 1083370496.000000, -2.660000,  -1.540000,  -0.210000, 0.000000,  0.000000 
 28845632.000000, -1.509871 , -4.395615, 8.824730, 1083390464.000000, -3.080000,  0.560000,  -0.630000, 0.000000,  0.000000 
 28865728.000000, -1.466800 , -4.520042, 8.760124, 1083410432.000000, -0.350000,  -1.610000,  -1.680000, 0.000000,  0.000000 
 28885952.000000, -1.435694 , -4.852644, 8.805587, 1083430400.000000, -1.820000,  -1.190000,  -2.870000, 0.000000,  0.000000 
 28905664.000000, -1.392623 , -4.457829, 8.554340, 1083450752.000000, -1.540000,  -1.190000,  -2.940000, 0.000000,  0.000000 
 28925632.000000, -1.328017 , -3.950550, 8.384450, 1083470336.000000, 1.400000,  -1.120000,  -2.590000, 0.000000,  0.000000 
 28945600.000000, -1.524228 , -4.012764, 8.731410, 1083490304.000000, 4.760000,  -2.940000,  -2.730000, 0.000000,  0.000000 
 28965568.000000, -1.799403 , -4.156333, 8.678767, 1083510272.000000, 1.680000,  -0.560000,  -1.470000, 0.000000,  0.000000 
 28985920.000000, -1.880759 , -3.917051, 8.439486, 1083530368.000000, 0.630000,  2.730000,  -1.540000, 0.000000,  0.000000 
 29005632.000000, -1.720440 , -4.029513, 8.511270, 1083550592.000000, 1.330000,  2.030000,  -1.120000, 0.000000,  0.000000 
 29025600.000000, -1.651048 , -4.613362, 9.320045, 1083570304.000000, -1.330000,  0.210000,  -0.350000, 0.000000,  0.000000 
 29045568.000000, -2.323431 , -4.515256, 9.186047, 1083590272.000000, -0.210000,  2.590000,  0.420000, 0.000000,  0.000000 
 29065536.000000, -2.292324 , -4.366901, 8.827123, 1083610240.000000, 1.680000,  8.260000,  0.420000, 0.000000,  0.000000 
 29085888.000000, -1.653440 , -4.326223, 8.537591, 1083630208.000000, 3.570000,  -0.210000,  -2.520000, 0.000000,  0.000000 
 29105600.000000, -1.445265 , -3.964907, 8.252845, 1083650560.000000, 3.710000,  -8.120000,  -4.900000, 0.000000,  0.000000 
 29125568.000000, -1.215554 , -3.864408, 8.102098, 1083670272.000000, 4.760000,  -7.840000,  -5.880000, 0.000000,  0.000000 
 29145536.000000, -1.342373 , -3.869194, 8.233703, 1083690240.000000, 3.010000,  -6.580000,  -4.760000, 0.000000,  0.000000 
 29165504.000000, -1.749153 , -3.761517, 8.190632, 1083710208.000000, 4.480000,  -0.350000,  -2.380000, 1143709184.000000,  1009.647949 
 29185856.000000, -1.473979 , -4.063013, 8.618947, 1083730176.000000, 2.800000,  3.360000,  -0.980000, 0.000000,  0.000000 
 29205440.000000, -1.593620 , -4.237689, 8.812766, 1083750528.000000, 0.910000,  2.940000,  0.210000, 0.000000,  0.000000 
 29225536.000000, -1.686940 , -4.496114, 8.745767, 1083770240.000000, 0.070000,  5.810000,  1.750000, 0.000000,  0.000000 
 29245504.000000, -1.368695 , -4.419543, 8.740981, 1083790208.000000, -0.070000,  3.010000,  0.490000, 0.000000,  0.000000 
 29265472.000000, -1.368695 , -4.089334, 8.662018, 1083810176.000000, 1.260000,  -0.070000,  -0.770000, 0.000000,  0.000000 
 29285696.000000, -1.268196 , -4.118048, 8.549555, 1083830144.000000, 3.290000,  -1.540000,  -1.540000, 0.000000,  0.000000 
 29305408.000000, -1.421337 , -4.383651, 8.834301, 1083850496.000000, -0.630000,  -3.710000,  -1.120000, 0.000000,  0.000000 
 29325376.000000, -1.555335 , -4.094120, 8.695518, 1083870080.000000, 0.350000,  -3.500000,  -2.030000, 0.000000,  0.000000 
 29345472.000000, -1.526621 , -4.208975, 8.676375, 1083890176.000000, 1.750000,  -2.170000,  -0.350000, 0.000000,  0.000000 
 29365440.000000, -1.686940 , -4.149154, 8.824730, 1083910144.000000, 1.190000,  -2.170000,  -0.840000, 0.000000,  0.000000 
 29385664.000000, -1.524228 , -3.969693, 8.695518, 1083930112.000000, 0.070000,  -0.630000,  -1.260000, 0.000000,  0.000000 
 29405376.000000, -1.306481 , -4.101298, 9.174082, 1083950464.000000, 0.980000,  0.980000,  -0.770000, 0.000000,  0.000000 
 29425344.000000, -1.485943 , -4.811966, 9.336794, 1083970048.000000, -1.680000,  -3.640000,  -0.910000, 0.000000,  0.000000 
 29445312.000000, -1.861616 , -4.218546, 9.178867, 1083990016.000000, -3.220000,  1.610000,  -1.330000, 0.000000,  0.000000 
 29465408.000000, -1.787439 , -3.883551, 8.889337, 1084010112.000000, 3.920000,  5.600000,  0.210000, 0.000000,  0.000000 
 29485632.000000, -1.572084 , -3.873980, 8.910872, 1084030080.000000, 5.530000,  -3.010000,  -1.050000, 0.000000,  0.000000 
 29505344.000000, -1.488336 , -4.046263, 8.628519, 1084050304.000000, 3.360000,  -8.260000,  0.280000, 0.000000,  0.000000 
 29525312.000000, -1.272982 , -4.333402, 8.341379, 1084070016.000000, -1.330000,  -8.400000,  3.150000, 0.000000,  0.000000 
 29545280.000000, -1.124627 , -4.247260, 8.135597, 1084089984.000000, -4.760000,  -10.500000,  3.010000, 0.000000,  0.000000 
 29565248.000000, -0.969093 , -4.601398, 8.738588, 1084109952.000000, -2.520000,  -11.340000,  3.360000, 0.000000,  0.000000 
 29585600.000000, -1.588834 , -4.438686, 9.085547, 1084130048.000000, -3.640000,  -9.310000,  1.120000, 0.000000,  0.000000 
 29605312.000000, -1.935793 , -3.615555, 8.310273, 1084150272.000000, -4.340000,  2.660000,  -2.170000, 0.000000,  0.000000 
 29625280.000000, -1.308874 , -4.180261, 8.554340, 1084169984.000000, -2.380000,  3.430000,  -4.270000, 0.000000,  0.000000 
 29645248.000000, -1.213161 , -4.424329, 8.662018, 1084189952.000000, -8.190000,  -5.530000,  -8.610000, 0.000000,  0.000000 
 29665216.000000, -1.366302 , -3.933800, 8.461020, 1084209920.000000, -6.370000,  -0.140000,  -6.370000, 0.000000,  0.000000 
 29685568.000000, -1.634298 , -3.536592, 8.559127, 1084229888.000000, 1.960000,  4.060000,  -3.570000, 0.000000,  0.000000 
 29705152.000000, -1.887937 , -3.220739, 8.573483, 1084250240.000000, 6.020000,  6.440000,  -1.820000, 0.000000,  0.000000 
 29725248.000000, -1.619941 , -3.395415, 8.707481, 1084269952.000000, 5.950000,  6.720000,  0.840000, 0.000000,  0.000000 
 29745216.000000, -1.603191 , -3.969693, 8.848659, 1084289920.000000, -2.870000,  1.890000,  4.130000, 0.000000,  0.000000 
 29765184.000000, -1.686940 , -3.859623, 8.472985, 1084309888.000000, -4.480000,  2.380000,  6.650000, 0.000000,  0.000000 
 29785536.000000, -1.344766 , -4.352544, 8.681160, 1084329856.000000, -0.490000,  3.710000,  10.430000, 0.000000,  0.000000 
 29805248.000000, -1.337588 , -4.383651, 8.831908, 1084350208.000000, -1.120000,  -1.260000,  9.870000, 0.000000,  0.000000 
 29825088.000000, -1.287339 , -4.039084, 8.755339, 1084369920.000000, -1.050000,  0.210000,  9.730000, 0.000000,  0.000000 
 29845184.000000, -1.165305 , -4.352544, 9.090333, 1084389888.000000, 0.980000,  -1.260000,  7.700000, 0.000000,  0.000000 
 29865152.000000, -1.524228 , -4.421937, 9.188439, 1084409856.000000, 0.840000,  -1.330000,  6.440000, 0.000000,  0.000000 
 29885504.000000, -1.581656 , -4.563113, 9.226725, 1084429824.000000, 0.490000,  3.570000,  6.720000, 0.000000,  0.000000 
 29905088.000000, -1.646262 , -4.326223, 9.032906, 1084450304.000000, -0.350000,  -0.070000,  4.130000, 0.000000,  0.000000 
 29925056.000000, -1.418944 , -4.350152, 8.740981, 1084469760.000000, 0.560000,  -0.280000,  2.030000, 0.000000,  0.000000 
 29945024.000000, -1.170090 , -4.634897, 8.786445, 1084489856.000000, 0.210000,  -4.200000,  1.610000, 0.000000,  0.000000 
 29965120.000000, -1.198804 , -4.153940, 8.477771, 1084509824.000000, -2.730000,  -5.950000,  1.050000, 0.000000,  0.000000 
 29985344.000000, -1.213161 , -3.632305, 8.236095, 1084529792.000000, 3.780000,  -3.220000,  2.030000, 0.000000,  0.000000 
 30005056.000000, -1.093520 , -3.598805, 8.336594, 1084550144.000000, 5.810000,  -3.640000,  3.430000, 0.000000,  0.000000 
 30025024.000000, -1.263410 , -4.031906, 8.726624, 1084569728.000000, 0.280000,  -3.640000,  3.570000, 0.000000,  0.000000 
 30044992.000000, -1.567299 , -4.577469, 8.736196, 1084589696.000000, -4.620000,  -0.210000,  4.900000, 0.000000,  0.000000 
 30064960.000000, -1.732404 , -4.599005, 8.669197, 1084609792.000000, -7.420000,  4.060000,  3.990000, 0.000000,  0.000000 
 30085312.000000, -1.543371 , -4.328616, 8.621340, 1084629760.000000, -5.180000,  3.710000,  2.450000, 0.000000,  0.000000 
 30105024.000000, -1.397408 , -3.981657, 8.760124, 1084649984.000000, 0.980000,  -0.140000,  -0.070000, 0.000000,  0.000000 
 30125120.000000, -1.452443 , -4.012764, 8.891729, 1084669696.000000, 1.470000,  0.140000,  -2.310000, 0.000000,  0.000000 
 30144960.000000, -1.462015 , -4.280759, 8.867801, 1084709632.000000, -5.810000,  1.470000,  -1.960000, 1144708736.000000,  1009.647766 
 30164928.000000, -1.402194 , -4.414758, 8.755339, 0.000000, 0.000000,  0.000000,  0.000000, 0.000000,  0.000000 
 30185280.000000, -1.308874 , -4.039084, 8.504091, 1084729728.000000, -5.460000,  1.120000,  -2.030000, 0.000000,  0.000000 
 30204992.000000, -1.213161 , -3.948158, 8.496914, 1084749952.000000, -1.050000,  0.420000,  -0.700000, 0.000000,  0.000000 
 30224960.000000, -1.483550 , -4.137190, 8.846266, 1084769664.000000, 0.140000,  -0.980000,  -0.980000, 0.000000,  0.000000 
 30244928.000000, -1.758725 , -4.158726, 8.695518, 1084789632.000000, -2.800000,  1.750000,  -1.050000, 0.000000,  0.000000 
 30264896.000000, -1.497907 , -4.378866, 8.635696, 1084809600.000000, -3.360000,  3.080000,  0.420000, 0.000000,  0.000000 
 30285248.000000, -1.495514 , -4.646862, 8.877372, 1084829568.000000, -6.860000,  -0.490000,  -1.820000, 0.000000,  0.000000 
 30304832.000000, -1.655833 , -4.323831, 8.846266, 1084849920.000000, -3.990000,  -0.630000,  -3.920000, 0.000000,  0.000000 
 30324928.000000, -1.560120 , -4.280759, 8.918050, 1084869632.000000, -0.350000,  0.350000,  -4.620000, 0.000000,  0.000000 
 30344896.000000, -1.517050 , -4.271189, 8.812766, 1084889600.000000, -2.380000,  -1.260000,  -6.720000, 0.000000,  0.000000 
 30364864.000000, -1.490728 , -4.431508, 8.348558, 1084909568.000000, -6.860000,  -1.050000,  -7.000000, 0.000000,  0.000000 
 30385216.000000, -0.995414 , -4.271189, 8.075776, 1084929536.000000, -6.790000,  -3.570000,  -9.450000, 0.000000,  0.000000 
 30404800.000000, -1.021735 , -3.893122, 8.104490, 1084949888.000000, -1.470000,  -6.930000,  -6.370000, 0.000000,  0.000000 
 30424768.000000, -1.131805 , -3.984050, 8.307880, 1084969600.000000, 1.960000,  -3.430000,  -3.010000, 0.000000,  0.000000 
 30444864.000000, -1.612763 , -4.204189, 8.595018, 1084989568.000000, -2.800000,  1.680000,  -2.100000, 0.000000,  0.000000 
 30464832.000000, -1.756332 , -4.194618, 8.937192, 1085009536.000000, -3.500000,  6.300000,  -1.610000, 0.000000,  0.000000 
 30485056.000000, -1.648655 , -4.280759, 8.906086, 1085029504.000000, -4.410000,  5.180000,  -2.240000, 0.000000,  0.000000 
 30504768.000000, -1.533799 , -4.582255, 8.863015, 1085049856.000000, -6.860000,  2.660000,  -1.960000, 0.000000,  0.000000 
 30524736.000000, -1.440479 , -4.323831, 8.547162, 1085069440.000000, -4.200000,  1.610000,  -1.120000, 0.000000,  0.000000 
 30544704.000000, -1.263410 , -4.139583, 8.539984, 1085089408.000000, -1.050000,  -0.140000,  -0.980000, 0.000000,  0.000000 
 30564800.000000, -1.292124 , -4.115655, 8.389235, 1085109504.000000, 0.980000,  -1.120000,  0.280000, 0.000000,  0.000000 
 30585024.000000, -1.277767 , -4.376472, 8.580662, 1085129472.000000, 0.420000,  -0.700000,  2.310000, 0.000000,  0.000000 
 30604736.000000, -1.476372 , -4.271189, 8.379664, 1085149696.000000, -4.550000,  -0.770000,  2.170000, 0.000000,  0.000000 
 30624704.000000, -1.280160 , -4.285545, 8.413164, 1085169408.000000, -4.200000,  3.080000,  4.690000, 0.000000,  0.000000 
 30644672.000000, -1.131805 , -4.828716, 9.107083, 1085189376.000000, -2.660000,  3.080000,  3.920000, 0.000000,  0.000000 
 30664640.000000, -1.902294 , -5.163712, 9.671788, 1085209344.000000, -4.480000,  1.610000,  3.430000, 0.000000,  0.000000 
 30684992.000000, -2.277967 , -4.725825, 9.016156, 1085249664.000000, -0.840000,  8.190000,  -1.960000, 0.000000,  0.000000 
 30704704.000000, -1.825724 , -4.773681, 8.784052, 0.000000, 0.000000,  0.000000,  0.000000, 0.000000,  0.000000 
 30724672.000000, -1.249053 , -4.993821, 8.757731, 1085269376.000000, -3.920000,  -2.590000,  -7.000000, 0.000000,  0.000000 
 30744640.000000, -1.153341 , -4.106083, 8.178668, 1085289344.000000, -2.800000,  -6.720000,  -8.260000, 0.000000,  0.000000 
 30764608.000000, -1.124627 , -3.483950, 7.932207, 1085309312.000000, 2.100000,  -3.360000,  -7.490000, 0.000000,  0.000000 
 30784960.000000, -1.270589 , -3.699304, 8.111670, 1085329280.000000, 2.730000,  -1.400000,  -5.530000, 0.000000,  0.000000 
 30804672.000000, -1.342373 , -4.074977, 8.274381, 1085349632.000000, -1.890000,  2.170000,  -0.910000, 0.000000,  0.000000 
 30824640.000000, -1.519442 , -4.199404, 8.274381, 1085369344.000000, -4.130000,  4.830000,  2.940000, 0.000000,  0.000000 
 30844608.000000, -1.591227 , -4.034299, 8.475377, 1085389312.000000, -0.910000,  5.880000,  5.880000, 0.000000,  0.000000 
 30864576.000000, -1.674976 , -4.089334, 8.705089, 1085409280.000000, 5.250000,  6.370000,  7.420000, 0.000000,  0.000000 
 30884928.000000, -1.811367 , -4.591826, 9.020942, 1085429248.000000, 1.750000,  6.650000,  8.120000, 0.000000,  0.000000 
 30904512.000000, -1.782653 , -4.503292, 8.874979, 1085449600.000000, -1.120000,  6.230000,  5.810000, 0.000000,  0.000000 
 30924480.000000, -1.531406 , -4.510471, 8.590233, 1085469312.000000, -1.820000,  4.340000,  4.970000, 0.000000,  0.000000 
 30944576.000000, -1.392623 , -4.713861, 8.724231, 1085489280.000000, -4.060000,  -0.140000,  1.960000, 0.000000,  0.000000 
 30964544.000000, -1.289732 , -4.752146, 8.645268, 1085509248.000000, -4.130000,  -3.150000,  2.730000, 0.000000,  0.000000 
 30984896.000000, -1.210768 , -4.654040, 8.307880, 1085529216.000000, -2.940000,  -3.780000,  2.310000, 0.000000,  0.000000 
 31004480.000000, -1.134198 , -4.469792, 8.403593, 1085549568.000000, -3.430000,  -3.290000,  1.820000, 0.000000,  0.000000 
 31024448.000000, -1.136591 , -4.677969, 8.784052, 1085569152.000000, -2.380000,  -4.760000,  0.630000, 0.000000,  0.000000 
 31044416.000000, -1.452443 , -5.044070, 8.618947, 1085589248.000000, -5.390000,  -2.450000,  -0.700000, 0.000000,  0.000000 
 31064512.000000, -1.445265 , -4.783253, 8.578269, 1085609216.000000, -7.210000,  2.240000,  -2.800000, 0.000000,  0.000000 
 31084736.000000, -1.308874 , -4.936393, 8.779266, 1085629184.000000, -5.320000,  1.680000,  -4.970000, 0.000000,  0.000000 
 31104448.000000, -1.533799 , -4.785645, 8.662018, 1085649536.000000, -2.870000,  1.050000,  -8.260000, 0.000000,  0.000000 
 31124416.000000, -1.435694 , -4.670790, 8.417950, 1085669120.000000, -1.120000,  5.320000,  -9.940000, 0.000000,  0.000000 
 31144384.000000, -1.483550 , -4.857430, 8.793623, 1085689088.000000, -0.560000,  3.150000,  -11.970000, 0.000000,  0.000000 
 31164352.000000, -1.703690 , -4.070191, 8.173882, 1085709184.000000, -2.100000,  4.830000,  -12.880000, 1145708160.000000,  1009.652161 
 31184704.000000, -1.296910 , -4.051049, 8.135597, 1085729152.000000, 1.960000,  6.160000,  -13.440001, 0.000000,  0.000000 
 31204416.000000, -1.418944 , -4.512863, 8.336594, 1085749376.000000, -2.590000,  1.960000,  -12.460000, 0.000000,  0.000000 
 31224384.000000, -1.299303 , -4.515256, 8.264810, 1085769088.000000, -6.020000,  4.410000,  -9.030000, 0.000000,  0.000000 
 31244352.000000, -1.411765 , -4.656433, 8.604590, 1085789056.000000, -4.690000,  4.620000,  -5.670000, 0.000000,  0.000000 
 31264320.000000, -1.531406 , -4.917251, 8.595018, 1085809024.000000, -1.610000,  2.660000,  -5.250000, 0.000000,  0.000000 
 31284672.000000, -1.507478 , -4.742575, 8.865408, 1085829120.000000, -1.610000,  4.060000,  -4.830000, 0.000000,  0.000000 
 31304384.000000, -1.557728 , -4.766503, 8.829515, 1085849344.000000, -1.190000,  1.330000,  -6.230000, 0.000000,  0.000000 
 31324352.000000, -1.660619 , -4.649254, 8.748159, 1085869056.000000, -1.050000,  0.560000,  -7.980000, 0.000000,  0.000000 
 31344320.000000, -1.536192 , -4.587041, 8.291130, 1085889024.000000, -3.290000,  1.120000,  -9.660000, 0.000000,  0.000000 
 31364288.000000, -1.287339 , -4.591826, 8.360522, 1085908992.000000, -4.130000,  -1.470000,  -10.360000, 0.000000,  0.000000 
 31384640.000000, -1.380659 , -4.414758, 8.398808, 1085928960.000000, -1.960000,  -3.010000,  -8.680000, 0.000000,  0.000000 
 31404224.000000, -1.371087 , -4.074977, 8.434700, 1085949312.000000, 0.420000,  -0.070000,  -7.070000, 0.000000,  0.000000 
 31424320.000000, -1.387837 , -4.285545, 8.537591, 1085969024.000000, 1.890000,  1.260000,  -4.480000, 0.000000,  0.000000 
 31444288.000000, -1.588834 , -4.560720, 8.537591, 1085988992.000000, -0.700000,  1.120000,  -2.380000, 0.000000,  0.000000 
 31464256.000000, -1.438086 , -4.740182, 8.420342, 1086008960.000000, -3.780000,  1.820000,  0.630000, 0.000000,  0.000000 
 31484608.000000, -1.251446 , -4.455436, 8.176274, 1086028928.000000, -0.490000,  -0.770000,  1.610000, 0.000000,  0.000000 
 31504192.000000, -0.827917 , -4.122833, 8.209774, 1086049280.000000, 3.920000,  -4.340000,  2.100000, 0.000000,  0.000000 
 31524160.000000, -1.234696 , -4.969893, 8.664411, 1086068992.000000, 1.890000,  -5.320000,  2.940000, 0.000000,  0.000000 
 31544256.000000, -1.579263 , -4.998606, 8.796017, 1086088960.000000, -4.550000,  0.070000,  2.730000, 0.000000,  0.000000 
 31564224.000000, -1.667797 , -5.221139, 9.073583, 1086108928.000000, -3.220000,  3.850000,  3.920000, 0.000000,  0.000000 
 31584448.000000, -1.600798 , -5.170890, 9.339187, 1086128896.000000, -0.210000,  0.770000,  1.050000, 0.000000,  0.000000 
 31604160.000000, -1.596013 , -4.563113, 8.863015, 1086149248.000000, 2.380000,  -2.030000,  -0.490000, 0.000000,  0.000000 
 31624128.000000, -1.454836 , -4.522435, 8.482556, 1086168832.000000, 5.740000,  -4.970000,  -1.400000, 0.000000,  0.000000 
 31644096.000000, -1.438086 , -4.431508, 8.025528, 1086188928.000000, 0.840000,  -7.630000,  -2.730000, 0.000000,  0.000000 
 31664192.000000, -1.383051 , -4.108476, 7.917850, 1086208896.000000, -2.310000,  -7.560000,  -2.730000, 0.000000,  0.000000 
 31684416.000000, -1.170090 , -4.342973, 8.061419, 1086228864.000000, -2.870000,  -8.610000,  -1.260000, 0.000000,  0.000000 
 31704128.000000, -1.275374 , -4.390830, 8.336594, 1086249088.000000, -2.240000,  -8.050000,  -0.210000, 0.000000,  0.000000 
 31724096.000000, -1.507478 , -4.503292, 8.561519, 1086268800.000000, -4.270000,  -1.050000,  4.200000, 0.000000,  0.000000 
 31744064.000000, -1.538585 , -5.094319, 9.008978, 1086288768.000000, -6.790000,  1.610000,  6.370000, 0.000000,  0.000000 
 31764032.000000, -1.354338 , -5.005785, 8.798409, 1086308864.000000, -8.190000,  1.610000,  7.490000, 0.000000,  0.000000 
 31784384.000000, -1.055235 , -4.953143, 8.891729, 1086328832.000000, -3.990000,  -2.450000,  6.440000, 0.000000,  0.000000 
 31804096.000000, -1.239482 , -4.960321, 9.092726, 1086349056.000000, 1.890000,  -7.140000,  3.080000, 0.000000,  0.000000 
 31824064.000000, -1.296910 , -4.615755, 8.810372, 1086368768.000000, 2.030000,  -4.970000,  2.870000, 0.000000,  0.000000 
 31844032.000000, -1.373480 , -4.271189, 8.298308, 1086388736.000000, 2.450000,  -6.790000,  0.350000, 0.000000,  0.000000 
 31864000.000000, -1.050449 , -4.182654, 7.896315, 1086408704.000000, 0.280000,  -6.580000,  -1.050000, 0.000000,  0.000000 
 31884352.000000, -0.820738 , -4.663611, 8.068598, 1086428800.000000, -2.240000,  -8.540000,  0.630000, 0.000000,  0.000000 
 31904064.000000, -0.796810 , -4.608576, 8.092526, 1086449024.000000, -4.690000,  -7.420000,  3.990000, 0.000000,  0.000000 
 31924032.000000, -0.952343 , -4.084548, 8.025528, 1086468736.000000, 1.120000,  -2.450000,  7.770000, 0.000000,  0.000000 
 31944000.000000, -1.098306 , -4.163511, 8.614161, 1086488704.000000, 6.300000,  3.150000,  9.380000, 0.000000,  0.000000 
 31963968.000000, -1.395016 , -4.723432, 8.958728, 1086508672.000000, 4.410000,  5.250000,  9.520000, 0.000000,  0.000000 
 31984320.000000, -1.354338 , -5.094319, 8.762517, 1086528640.000000, -2.520000,  7.910000,  9.520000, 0.000000,  0.000000 
 32003904.000000, -1.134198 , -5.008178, 8.595018, 1086548992.000000, -2.870000,  4.970000,  6.860000, 0.000000,  0.000000 
 32024000.000000, -0.832702 , -4.594220, 8.370094, 1086568704.000000, 0.980000,  0.630000,  5.810000, 0.000000,  0.000000 
 32043968.000000, -0.775275 , -4.402793, 8.405986, 1086588672.000000, 4.060000,  -2.240000,  4.270000, 0.000000,  0.000000 
 32063936.000000, -0.973879 , -4.369294, 8.480164, 1086608640.000000, 3.780000,  -0.210000,  3.990000, 0.000000,  0.000000 
 32084160.000000, -1.122234 , -4.395615, 8.458629, 1086628608.000000, 1.330000,  3.920000,  4.200000, 0.000000,  0.000000 
 32103872.000000, -1.194018 , -4.816752, 9.121440, 1086648960.000000, -0.140000,  3.500000,  4.130000, 0.000000,  0.000000 
 32123840.000000, -1.773082 , -5.197211, 9.609575, 1086668672.000000, -1.050000,  1.960000,  4.690000, 0.000000,  0.000000 
 32143936.000000, -2.105684 , -4.890929, 8.714661, 1086708608.000000, 1.050000,  3.220000,  0.560000, 1146707584.000000,  1009.655640 
 32163904.000000, -1.246661 , -5.115855, 8.394022, 0.000000, 0.000000,  0.000000,  0.000000, 0.000000,  0.000000 
 32184128.000000, -0.792024 , -4.788038, 8.092526, 1086728576.000000, -0.280000,  -10.080000,  -2.030000, 0.000000,  0.000000 
 32203840.000000, -0.729811 , -4.144369, 7.590034, 1086748928.000000, 1.540000,  -10.640000,  -3.920000, 0.000000,  0.000000 
 32223808.000000, -0.727418 , -4.311867, 8.082954, 1086768512.000000, 5.670000,  -5.320000,  -3.640000, 0.000000,  0.000000 
 32243776.000000, -1.009771 , -4.378866, 8.102098, 1086788480.000000, 0.630000,  0.140000,  -2.940000, 0.000000,  0.000000 
 32263744.000000, -1.189233 , -4.350152, 8.288737, 1086808576.000000, -2.450000,  7.280000,  -1.120000, 0.000000,  0.000000 
 32284096.000000, -1.383051 , -4.448257, 8.422735, 1086828544.000000, -1.750000,  9.660000,  -1.540000, 0.000000,  0.000000 
 32303808.000000, -1.533799 , -4.366901, 8.729016, 1086848768.000000, -0.420000,  11.130000,  -0.560000, 0.000000,  0.000000 
 32323776.000000, -1.596013 , -4.445865, 8.894121, 1086868480.000000, 2.800000,  9.590000,  0.210000, 0.000000,  0.000000 
 32343744.000000, -1.619941 , -4.266403, 8.855836, 1086888448.000000, 5.040000,  8.330000,  -0.420000, 0.000000,  0.000000 
 32363712.000000, -1.452443 , -4.237689, 8.367701, 1086908416.000000, 5.040000,  5.600000,  1.750000, 0.000000,  0.000000 
 32384064.000000, -1.119841 , -4.587041, 8.116454, 1086928512.000000, 0.770000,  1.610000,  1.610000, 0.000000,  0.000000 
 32403776.000000, -0.976272 , -4.797609, 8.551948, 1086948736.000000, -0.070000,  -1.680000,  2.590000, 0.000000,  0.000000 
 32423744.000000, -1.483550 , -4.766503, 8.611769, 1086968448.000000, 2.310000,  -2.730000,  5.320000, 0.000000,  0.000000 
 32443712.000000, -1.646262 , -4.591826, 8.264810, 1086988416.000000, 0.420000,  3.990000,  5.320000, 0.000000,  0.000000 
 32463680.000000, -1.268196 , -4.711468, 8.640482, 1087008384.000000, -1.750000,  2.870000,  3.220000, 0.000000,  0.000000 
 32484032.000000, -1.414158 , -5.175675, 8.934800, 1087028352.000000, -3.290000,  -4.200000,  -0.490000, 0.000000,  0.000000 
 32503616.000000, -1.727618 , -5.101498, 8.879765, 1087048704.000000, -4.830000,  2.590000,  -3.080000, 0.000000,  0.000000 
 32523712.000000, -1.667797 , -4.582255, 8.585447, 1087068416.000000, -1.960000,  7.350000,  -4.480000, 0.000000,  0.000000 
 32543680.000000, -1.428515 , -4.015156, 8.453842, 1087088384.000000, 3.850000,  5.740000,  -6.370000, 0.000000,  0.000000 
 32563648.000000, -1.320838 , -3.850052, 8.528020, 1087108352.000000, 6.370000,  3.430000,  -5.040000, 0.000000,  0.000000 
 32584000.000000, -1.404587 , -4.338188, 8.408379, 1087128320.000000, 2.380000,  3.290000,  -1.820000, 0.000000,  0.000000 
 32603584.000000, -1.538585 , -4.450650, 8.248059, 1087148672.000000, -2.170000,  4.620000,  0.770000, 0.000000,  0.000000 
 32623552.000000, -1.473979 , -4.256832, 8.257630, 1087168384.000000, -1.400000,  4.340000,  4.130000, 0.000000,  0.000000 
 32643648.000000, -1.488336 , -4.177868, 8.367701, 1087188352.000000, 2.030000,  0.840000,  4.760000, 0.000000,  0.000000 
 32663616.000000, -1.701297 , -4.280759, 8.712267, 1087208320.000000, 2.450000,  1.540000,  4.130000, 0.000000,  0.000000 
 32683840.000000, -1.875973 , -4.493721, 8.824730, 1087228288.000000, 1.400000,  4.480000,  4.340000, 0.000000,  0.000000 
 32703552.000000, -2.074577 , -4.543970, 8.796017, 1087248640.000000, -0.700000,  7.140000,  3.290000, 0.000000,  0.000000 
 32723520.000000, -1.758725 , -4.197011, 8.506484, 1087268224.000000, -0.910000,  7.000000,  1.890000, 0.000000,  0.000000 
 32743488.000000, -1.438086 , -4.041477, 8.449057, 1087288320.000000, 2.450000,  0.700000,  3.570000, 0.000000,  0.000000 
 32763584.000000, -1.507478 , -4.149154, 8.394022, 1087308288.000000, 3.920000,  -2.100000,  6.160000, 0.000000,  0.000000 
 32783808.000000, -1.459622 , -4.235296, 8.329416, 1087328256.000000, 2.590000,  0.770000,  9.030000, 0.000000,  0.000000 
 32803520.000000, -1.426122 , -4.536791, 8.865408, 1087348608.000000, 1.050000,  -0.070000,  12.110000, 0.000000,  0.000000 
 32823488.000000, -1.823331 , -4.924429, 8.941978, 1087368192.000000, -0.560000,  0.210000,  12.740000, 0.000000,  0.000000 
 32843456.000000, -1.768296 , -5.137390, 8.805587, 1087388160.000000, -2.870000,  3.290000,  11.900000, 0.000000,  0.000000 
 32863424.000000, -1.744368 , -5.010571, 8.611769, 1087408256.000000, -1.680000,  0.280000,  8.680000, 0.000000,  0.000000 
 32883776.000000, -1.603191 , -5.005785, 8.595018, 1087428224.000000, -0.840000,  -1.190000,  3.640000, 0.000000,  0.000000 
 32903488.000000, -1.361516 , -4.692325, 8.494520, 1087448448.000000, -1.260000,  -2.590000,  -2.380000, 0.000000,  0.000000 
 32923456.000000, -1.253839 , -4.627719, 8.444271, 1087468160.000000, -0.910000,  -2.940000,  -4.480000, 0.000000,  0.000000 
 32943424.000000, -1.311267 , -4.474578, 8.566305, 1087488128.000000, -0.280000,  -1.680000,  -7.630000, 0.000000,  0.000000 
 32963392.000000, -1.529014 , -4.003192, 8.372486, 1087508096.000000, -0.210000,  1.330000,  -8.750000, 0.000000,  0.000000 
 32983744.000000, -1.639083 , -4.192225, 8.659625, 1087528192.000000, 1.400000,  3.850000,  -7.140000, 0.000000,  0.000000 
 33003456.000000, -1.799403 , -4.369294, 8.736196, 1087548416.000000, -2.240000,  2.940000,  -6.720000, 0.000000,  0.000000 
 33023424.000000, -1.813759 , -3.967300, 8.472985, 1087568128.000000, -3.570000,  1.890000,  -5.040000, 0.000000,  0.000000 
 33043392.000000, -1.514657 , -4.462614, 8.551948, 1087588096.000000, -1.330000,  -0.700000,  -2.520000, 0.000000,  0.000000 
 33063360.000000, -1.677369 , -4.800002, 9.104690, 1087608064.000000, -0.350000,  -5.040000,  -2.170000, 0.000000,  0.000000 
 33083712.000000, -2.012364 , -4.297509, 8.659625, 1087628032.000000, -0.350000,  -1.470000,  -3.010000, 0.000000,  0.000000 
 33103296.000000, -1.653440 , -4.070191, 8.171489, 1087648384.000000, 0.420000,  0.840000,  -2.590000, 0.000000,  0.000000 
 33123392.000000, -1.390230 , -4.575077, 8.324631, 1087668096.000000, -0.140000,  -5.180000,  -5.670000, 0.000000,  0.000000 
 33143360.000000, -1.241875 , -4.457829, 8.300702, 1087688064.000000, -6.020000,  -6.790000,  -5.460000, 0.000000,  0.000000 
 33163328.000000, -1.244268 , -4.208975, 8.535198, 1087708032.000000, -4.480000,  -3.500000,  -4.970000, 1147707008.000000,  1009.658508 
 33183552.000000, -1.617548 , -4.199404, 8.451449, 1087728000.000000, 1.120000,  -1.960000,  -1.330000, 0.000000,  0.000000 
 33203264.000000, -1.564906 , -4.390830, 8.513663, 1087748352.000000, 3.150000,  3.990000,  1.470000, 0.000000,  0.000000 
 33223232.000000, -1.445265 , -4.773681, 8.614161, 1087767936.000000, -0.420000,  4.340000,  2.310000, 0.000000,  0.000000 
 33243328.000000, -1.256232 , -4.529613, 8.463413, 1087788032.000000, -1.820000,  1.400000,  1.960000, 0.000000,  0.000000 
 33263296.000000, -1.076770 , -4.441079, 8.513663, 1087808000.000000, 0.700000,  -0.420000,  2.310000, 0.000000,  0.000000 
 33283520.000000, -1.093520 , -4.228118, 8.578269, 1087827968.000000, 0.350000,  -3.710000,  2.520000, 0.000000,  0.000000 
 33303232.000000, -1.241875 , -4.517649, 8.480164, 1087848320.000000, -2.310000,  -3.360000,  1.120000, 0.000000,  0.000000 
 33323200.000000, -1.450050 , -4.639683, 8.451449, 1087867904.000000, -5.740000,  -2.240000,  0.070000, 0.000000,  0.000000 
 33343168.000000, -1.289732 , -4.314260, 8.542377, 1087887872.000000, -7.490000,  -3.010000,  -1.050000, 0.000000,  0.000000 
 33363264.000000, -1.471586 , -4.508078, 8.994620, 1087907968.000000, -4.830000,  -4.900000,  -0.630000, 0.000000,  0.000000 
 33383488.000000, -1.818545 , -4.788038, 8.920443, 1087927936.000000, -3.990000,  -2.800000,  -0.560000, 0.000000,  0.000000 
 33403200.000000, -1.959722 , -4.864608, 8.614161, 1087948160.000000, -5.950000,  0.070000,  -1.610000, 0.000000,  0.000000 
 33423168.000000, -1.715654 , -4.673182, 8.606983, 1087967872.000000, -5.460000,  -1.330000,  -1.960000, 0.000000,  0.000000 
 33443136.000000, -1.481157 , -4.579862, 8.405986, 1087987840.000000, -2.730000,  -5.250000,  -3.220000, 0.000000,  0.000000 
 33463104.000000, -1.500300 , -4.977071, 8.379664, 1088007808.000000, -3.920000,  -3.920000,  -4.130000, 0.000000,  0.000000 
 33483456.000000, -1.519442 , -5.180461, 8.087741, 1088027904.000000, -6.720000,  0.210000,  -4.130000, 0.000000,  0.000000 
 33503168.000000, -1.227518 , -5.443672, 8.149954, 1088048128.000000, -6.230000,  3.220000,  -5.530000, 0.000000,  0.000000 
 33523136.000000, -1.091127 , -5.115855, 8.738588, 1088067840.000000, -2.450000,  4.410000,  -8.050000, 0.000000,  0.000000 
 33543104.000000, -1.361516 , -4.354938, 8.688338, 1088087808.000000, 5.180000,  9.800000,  -11.760000, 0.000000,  0.000000 
 33563072.000000, -1.435694 , -4.235296, 8.597411, 1088107776.000000, 5.950000,  15.260000,  -17.010000, 0.000000,  0.000000 
 33583424.000000, -1.488336 , -4.419543, 8.736196, 1088127744.000000, -2.380000,  14.140000,  -20.790001, 0.000000,  0.000000 
 33603136.000000, -1.588834 , -4.089334, 8.444271, 1088148096.000000, -4.760000,  11.410000,  -19.040001, 0.000000,  0.000000 
 33623104.000000, -1.402194 , -3.768696, 8.269595, 1088167808.000000, 1.960000,  8.260000,  -15.330000, 0.000000,  0.000000 
 33643072.000000, -1.282553 , -3.598805, 8.312666, 1088187776.000000, 6.580000,  1.680000,  -8.540000, 0.000000,  0.000000 
 33663040.000000, -1.301696 , -3.900301, 8.434700, 1088207744.000000, 4.760000,  -3.710000,  -0.770000, 0.000000,  0.000000 
 33683392.000000, -1.488336 , -4.740182, 8.415558, 1088227712.000000, -0.910000,  -5.180000,  6.370000, 0.000000,  0.000000 
 33702976.000000, -1.670190 , -5.505885, 8.760124, 1088248064.000000, -7.490000,  -4.060000,  10.360000, 0.000000,  0.000000 
 33723072.000000, -1.533799 , -5.675776, 8.886944, 1088267776.000000, -6.580000,  -6.440000,  9.450000, 0.000000,  0.000000 
 33743040.000000, -1.399801 , -5.522634, 8.434700, 1088287744.000000, -3.430000,  -8.050000,  6.860000, 0.000000,  0.000000 
 33763008.000000, -1.222732 , -5.170890, 8.353344, 1088307712.000000, 0.420000,  -7.770000,  1.050000, 0.000000,  0.000000 
 33783232.000000, -1.179662 , -4.833502, 8.044669, 1088327680.000000, 0.910000,  -7.490000,  -3.570000, 0.000000,  0.000000 
 33802944.000000, -1.086342 , -4.622933, 8.173882, 1088348032.000000, -1.750000,  -3.780000,  -8.680000, 0.000000,  0.000000 
 33822912.000000, -1.292124 , -4.649254, 8.539984, 1088367744.000000, -4.480000,  -1.890000,  -10.010000, 0.000000,  0.000000 
 33843008.000000, -1.418944 , -4.512863, 8.573483, 1088387712.000000, -3.080000,  3.010000,  -10.500000, 0.000000,  0.000000 
 33862976.000000, -1.263410 , -4.637290, 8.932407, 1088407680.000000, -2.310000,  6.370000,  -9.170000, 0.000000,  0.000000 
 33883200.000000, -1.380659 , -4.608576, 9.006584, 1088427648.000000, -3.080000,  2.240000,  -7.700000, 0.000000,  0.000000 
 33902912.000000, -1.643869 , -4.692325, 8.752945, 1088448000.000000, 0.420000,  1.960000,  -4.760000, 0.000000,  0.000000 
 33922880.000000, -1.433301 , -4.606184, 8.568698, 1088467584.000000, 1.400000,  0.210000,  -4.270000, 0.000000,  0.000000 
 33942848.000000, -1.088734 , -4.271189, 8.185846, 1088487552.000000, 1.400000,  -8.400000,  -5.950000, 0.000000,  0.000000 
 33962944.000000, -1.100698 , -4.493721, 8.018349, 1088507648.000000, -1.890000,  -12.250000,  -4.550000, 0.000000,  0.000000 
 33983168.000000, -1.208375 , -4.776074, 7.771888, 1088527616.000000, -7.980000,  -9.240000,  -4.130000, 0.000000,  0.000000 
 34002880.000000, -1.048056 , -4.986642, 7.963314, 1088547840.000000, -7.840000,  -6.230000,  -1.680000, 0.000000,  0.000000 
 34022848.000000, -0.981057 , -4.800002, 8.097312, 1088567552.000000, -3.850000,  -3.220000,  1.540000, 0.000000,  0.000000 
 34042816.000000, -1.045663 , -4.496114, 8.386844, 1088587520.000000, 2.730000,  -0.350000,  2.940000, 0.000000,  0.000000 
 34062784.000000, -1.205983 , -4.500899, 8.417950, 1088607488.000000, 5.670000,  2.660000,  4.760000, 0.000000,  0.000000 
 34083136.000000, -1.060020 , -4.847858, 8.377272, 1088627584.000000, 0.700000,  3.710000,  4.690000, 0.000000,  0.000000 
 34102848.000000, -0.782453 , -4.996214, 8.362915, 1088647808.000000, -4.130000,  -0.140000,  3.500000, 0.000000,  0.000000 
 34122944.000000, -0.684347 , -5.170890, 8.764909, 1088667520.000000, -2.310000,  -1.260000,  5.320000, 0.000000,  0.000000 
 34142784.000000, -0.961915 , -5.132604, 9.434900, 1088687616.000000, 0.280000,  -1.470000,  3.430000, 0.000000,  0.000000 
 34162752.000000, -1.380659 , -4.890929, 8.937192, 1088707456.000000, 2.100000,  1.260000,  3.010000, 1148706432.000000,  1009.656616 
 34183104.000000, -0.914058 , -5.424529, 8.444271, 1088727424.000000, 0.980000,  5.810000,  2.030000, 0.000000,  0.000000 
 34202688.000000, -0.366102 , -5.027320, 8.042276, 1088747776.000000, -3.080000,  -5.110000,  -3.220000, 0.000000,  0.000000 
 34222784.000000, -0.689133 , -4.357330, 7.733603, 1088767488.000000, 3.570000,  -8.960000,  -4.130000, 0.000000,  0.000000 
 34242752.000000, -0.899701 , -4.015156, 7.743174, 1088787456.000000, 9.100000,  -0.070000,  -1.750000, 0.000000,  0.000000 
 34262720.000000, -0.997807 , -4.158726, 7.944171, 1088807424.000000, 7.350000,  4.270000,  -1.330000, 0.000000,  0.000000 
 34283072.000000, -1.263410 , -4.407579, 8.571091, 1088827392.000000, 2.730000,  8.960000,  0.210000, 0.000000,  0.000000 
 34302656.000000, -1.615155 , -4.517649, 8.853443, 1088847744.000000, -0.490000,  13.580000,  0.910000, 0.000000,  0.000000 
 34322624.000000, -1.878366 , -4.950750, 8.941978, 1088867328.000000, -2.310000,  17.500000,  2.590000, 0.000000,  0.000000 
 34342720.000000, -1.777867 , -4.881358, 8.743374, 1088887424.000000, -2.660000,  17.639999,  3.290000, 0.000000,  0.000000 
 34362688.000000, -1.294517 , -4.555934, 8.731410, 1088907392.000000, 2.310000,  11.900000,  3.570000, 0.000000,  0.000000 
 34382912.000000, -1.100698 , -4.508078, 8.934800, 1088927360.000000, 8.610000,  3.570000,  4.410000, 0.000000,  0.000000 
 34402624.000000, -1.469193 , -4.634897, 8.750552, 1088947712.000000, 8.750000,  -0.420000,  6.440000, 0.000000,  0.000000 
 34422592.000000, -1.505085 , -4.711468, 8.193025, 1088967296.000000, 3.220000,  1.120000,  6.930000, 0.000000,  0.000000 
 34442560.000000, -1.115055 , -4.900501, 8.202596, 1088987264.000000, -0.420000,  -1.680000,  7.280000, 0.000000,  0.000000 
 34462656.000000, -1.100698 , -5.111069, 8.243275, 1089007360.000000, -1.750000,  -8.960000,  4.970000, 0.000000,  0.000000 
 34482880.000000, -1.452443 , -4.898108, 8.262416, 1089027328.000000, -0.770000,  -4.620000,  3.290000, 0.000000,  0.000000 
 34502592.000000, -1.564906 , -4.867002, 8.733803, 1089047680.000000, 1.470000,  3.780000,  1.260000, 0.000000,  0.000000 
 34522560.000000, -1.629512 , -5.077570, 8.944371, 1089067264.000000, -0.560000,  3.710000,  -2.100000, 0.000000,  0.000000 
 34542528.000000, -2.093720 , -4.922036, 8.671589, 1089087232.000000, -3.570000,  7.840000,  -5.600000, 0.000000,  0.000000 
 34562496.000000, -1.629512 , -4.378866, 8.449057, 1089107200.000000, -4.270000,  12.110000,  -7.910000, 0.000000,  0.000000 
 34582848.000000, -1.237089 , -4.125226, 8.164310, 1089127296.000000, -0.280000,  2.030000,  -9.730000, 0.000000,  0.000000 
 34602560.000000, -1.172483 , -3.974478, 8.271988, 1089147520.000000, 1.960000,  -0.560000,  -7.420000, 0.000000,  0.000000 
 34622528.000000, -1.342373 , -3.972085, 8.463413, 1089167232.000000, 1.540000,  0.910000,  -3.430000, 0.000000,  0.000000 
 34642496.000000, -1.342373 , -4.194618, 8.303094, 1089187200.000000, 1.960000,  1.050000,  0.980000, 0.000000,  0.000000 
 34662464.000000, -1.473979 , -4.654040, 8.434700, 1089207168.000000, -1.400000,  2.450000,  5.950000, 0.000000,  0.000000 
 34682816.000000, -1.268196 , -4.773681, 8.571091, 1089227136.000000, -4.340000,  0.490000,  6.230000, 0.000000,  0.000000 
 34702528.000000, -1.416551 , -4.594220, 8.628519, 1089247488.000000, -1.680000,  -1.890000,  7.490000, 0.000000,  0.000000 
 34722496.000000, -1.533799 , -5.056034, 8.965906, 1089267200.000000, -0.840000,  -1.890000,  5.670000, 0.000000,  0.000000 
 34742464.000000, -1.615155 , -5.376673, 9.049655, 1089287168.000000, -4.480000,  -2.590000,  2.590000, 0.000000,  0.000000 
 34762432.000000, -1.605584 , -5.345565, 8.621340, 1089307136.000000, -4.690000,  -0.700000,  0.910000, 0.000000,  0.000000 
 34782784.000000, -1.229911 , -4.498507, 8.295916, 1089327104.000000, -2.380000,  -2.520000,  -2.800000, 0.000000,  0.000000 
 34802496.000000, -0.897308 , -4.278367, 8.236095, 1089347456.000000, 2.730000,  -9.240000,  -3.850000, 0.000000,  0.000000 
 34822336.000000, -1.071985 , -4.833502, 8.147561, 1089367168.000000, 0.280000,  -8.960000,  -2.380000, 0.000000,  0.000000 
 34842432.000000, -1.244268 , -5.199604, 8.291130, 1089387136.000000, -6.090000,  -2.450000,  0.210000, 0.000000,  0.000000 
 34862400.000000, -1.067199 , -4.795217, 8.257630, 1089407104.000000, -2.800000,  1.330000,  1.610000, 0.000000,  0.000000 
 34882752.000000, -1.033699 , -4.601398, 8.475377, 1089427072.000000, 3.920000,  3.430000,  1.470000, 0.000000,  0.000000 
 34902336.000000, -1.229911 , -4.639683, 8.652447, 1089447552.000000, 4.970000,  5.250000,  1.470000, 0.000000,  0.000000 
 34922304.000000, -1.538585 , -4.850252, 8.683553, 1089467008.000000, 2.800000,  9.240000,  -0.840000, 0.000000,  0.000000 
 34942272.000000, -1.569692 , -4.666004, 8.508877, 1089487104.000000, 0.910000,  9.240000,  -2.170000, 0.000000,  0.000000 
 34962368.000000, -1.631905 , -4.331009, 8.468199, 1089507072.000000, 3.150000,  5.040000,  -5.600000, 0.000000,  0.000000 
 34982592.000000, -1.564906 , -4.319045, 8.496914, 1089527040.000000, 4.690000,  2.940000,  -3.570000, 0.000000,  0.000000 
 35002304.000000, -1.428515 , -4.204189, 8.413164, 1089547392.000000, 2.730000,  -0.630000,  -2.310000, 0.000000,  0.000000 
 35022272.000000, -1.378266 , -4.637290, 8.566305, 1089566976.000000, 1.120000,  -0.770000,  -0.420000, 0.000000,  0.000000 
 35042240.000000, -1.215554 , -5.041678, 8.815158, 1089586944.000000, -0.770000,  -0.490000,  0.700000, 0.000000,  0.000000 
 35062208.000000, -1.215554 , -5.223531, 8.626125, 1089607040.000000, -2.520000,  -0.770000,  1.330000, 0.000000,  0.000000 
 35082560.000000, -1.083949 , -4.953143, 8.492127, 1089627008.000000, -0.560000,  -0.560000,  1.050000, 0.000000,  0.000000 
 35102272.000000, -1.112662 , -4.924429, 8.350951, 1089647232.000000, 1.960000,  -0.700000,  -2.660000, 0.000000,  0.000000 
 35122240.000000, -1.129412 , -4.689932, 8.154739, 1089666944.000000, 3.920000,  -1.470000,  -5.040000, 0.000000,  0.000000 
 35142208.000000, -1.256232 , -4.570292, 8.054241, 1089686912.000000, 4.410000,  1.540000,  -5.810000, 0.000000,  0.000000 
 35162176.000000, -1.299303 , -4.357330, 8.118847, 1089706880.000000, 4.060000,  3.850000,  -7.000000, 1149705856.000000,  1009.656555 
 35182528.000000, -1.117448 , -3.960121, 8.228917, 1089726976.000000, 3.990000,  3.360000,  -6.650000, 0.000000,  0.000000 
 35202240.000000, -1.538585 , -4.398008, 8.420342, 1089747200.000000, 5.180000,  3.710000,  -2.450000, 0.000000,  0.000000 
 35222208.000000, -1.665405 , -4.256832, 8.137990, 1089766912.000000, -0.070000,  11.060000,  0.280000, 0.000000,  0.000000 
 35242176.000000, -1.459622 , -3.759124, 7.805387, 1089786880.000000, 3.640000,  11.550000,  3.640000, 0.000000,  0.000000 
 35262144.000000, -1.296910 , -3.617948, 7.975278, 1089806848.000000, 11.130000,  7.840000,  6.510000, 0.000000,  0.000000 
 35282496.000000, -1.488336 , -4.089334, 8.714661, 1089826816.000000, 10.990000,  7.350000,  7.840000, 0.000000,  0.000000 
 35302080.000000, -1.887937 , -4.790431, 9.190832, 1089847168.000000, 5.530000,  10.080000,  12.740000, 0.000000,  0.000000 
 35322176.000000, -2.002793 , -5.065606, 8.930015, 1089866880.000000, -0.280000,  14.210000,  14.070000, 0.000000,  0.000000 
 35342144.000000, -1.646262 , -4.910072, 8.697910, 1089886848.000000, -3.500000,  9.380000,  13.650000, 0.000000,  0.000000 
 35362112.000000, -1.438086 , -4.587041, 8.214561, 1089906816.000000, -3.990000,  -2.310000,  11.270000, 0.000000,  0.000000 
 35382464.000000, -1.222732 , -3.981657, 7.908278, 1089926784.000000, -2.730000,  -8.050000,  9.940000, 0.000000,  0.000000 
 35402048.000000, -1.387837 , -3.955336, 7.941778, 1089947136.000000, 0.350000,  -9.590000,  9.800000, 0.000000,  0.000000 
 35422016.000000, -1.935793 , -4.237689, 8.714661, 1089966848.000000, -0.280000,  -3.150000,  9.730000, 0.000000,  0.000000 
 35442112.000000, -2.624927 , -4.713861, 9.958927, 1089986816.000000, 0.070000,  6.790000,  10.220000, 0.000000,  0.000000 
 35462080.000000, -3.369094 , -4.984250, 10.226924, 1090006784.000000, -0.490000,  16.379999,  10.150000, 0.000000,  0.000000 
 35482304.000000, -3.534199 , -5.094319, 10.475778, 1090026880.000000, -2.100000,  21.000000,  8.050000, 0.000000,  0.000000 
 35502016.000000, -3.151347 , -5.544170, 10.724631, 1090047104.000000, -1.960000,  11.830000,  4.060000, 0.000000,  0.000000 
 35521984.000000, -2.998207 , -4.996214, 9.501899, 1090066688.000000, -4.270000,  -4.130000,  -2.730000, 0.000000,  0.000000 
 35541952.000000, -2.175076 , -3.806981, 7.731210, 1090086784.000000, -2.870000,  -13.160000,  -7.280000, 0.000000,  0.000000 
 35562048.000000, -0.524028 , -3.665804, 7.202396, 1090106752.000000, 1.610000,  -30.309999,  -9.100000, 0.000000,  0.000000 
 35582272.000000, 0.047856 , -3.632305, 6.671190, 1090126720.000000, -3.360000,  -49.980000,  -9.380000, 0.000000,  0.000000 
 35601984.000000, -0.330210 , -3.376273, 6.879365, 1090146944.000000, -6.930000,  -40.040001,  -2.730000, 0.000000,  0.000000 
 35621952.000000, -0.959522 , -3.732803, 7.369894, 1090166656.000000, -1.470000,  -17.639999,  8.470000, 0.000000,  0.000000 
 35641920.000000, -1.610370 , -4.302295, 7.898707, 1090186624.000000, -1.540000,  0.840000,  15.890000, 0.000000,  0.000000 
 35661888.000000, -1.670190 , -4.299902, 8.578269, 1090206720.000000, -4.270000,  10.920000,  17.780001, 0.000000,  0.000000 
 35682240.000000, -1.792224 , -4.599005, 9.489935, 1090226688.000000, 0.980000,  11.760000,  18.549999, 0.000000,  0.000000 
 35701952.000000, -2.167897 , -5.209175, 9.659825, 1090246912.000000, 2.170000,  15.120000,  18.690001, 0.000000,  0.000000 
 35721920.000000, -2.218147 , -5.295317, 9.095119, 1090266624.000000, -4.060000,  17.010000,  14.140000, 0.000000,  0.000000 
 35741888.000000, -1.564906 , -4.838287, 8.425128, 1090286592.000000, -4.620000,  8.820000,  9.170000, 0.000000,  0.000000 
 35761856.000000, -0.952343 , -4.051049, 8.236095, 1090306560.000000, 1.680000,  -8.190000,  0.700000, 0.000000,  0.000000 
 35782208.000000, -1.036092 , -4.055835, 8.295916, 1090326656.000000, 3.990000,  -18.129999,  -3.710000, 0.000000,  0.000000 
 35801920.000000, -1.356731 , -4.539185, 8.240881, 1090346880.000000, -2.520000,  -12.320000,  -1.260000, 0.000000,  0.000000 
 35821888.000000, -1.643869 , -4.948357, 8.425128, 1090366592.000000, -8.890000,  -5.950000,  0.560000, 0.000000,  0.000000 
 35841856.000000, -1.598405 , -4.761717, 8.384450, 1090406528.000000, -7.070000,  0.210000,  4.200000, 0.000000,  0.000000 
 35861824.000000, -1.816152 , -4.658825, 8.271988, 0.000000, 0.000000,  0.000000,  0.000000, 0.000000,  0.000000 
 35882176.000000, -1.710868 , -4.682754, 8.372486, 1090426496.000000, -3.640000,  3.850000,  4.620000, 0.000000,  0.000000 
 35901760.000000, -1.799403 , -4.936393, 8.417950, 1090446848.000000, -1.890000,  5.180000,  2.730000, 0.000000,  0.000000 
 35921856.000000, -1.749153 , -4.426722, 8.003991, 1090466560.000000, -1.400000,  7.770000,  -1.470000, 0.000000,  0.000000 
 35941824.000000, -1.734797 , -4.017549, 7.546963, 1090486528.000000, 1.050000,  9.730000,  -4.620000, 0.000000,  0.000000 
 35961792.000000, -1.399801 , -3.744767, 7.243074, 1090506496.000000, 1.750000,  7.910000,  -6.300000, 0.000000,  0.000000 
 35982016.000000, -1.418944 , -3.622734, 7.408179, 1090526464.000000, 3.570000,  9.730000,  -5.250000, 0.000000,  0.000000 
 36001728.000000, -1.569692 , -3.950550, 8.183454, 1090546816.000000, 5.040000,  16.450001,  -2.730000, 0.000000,  0.000000 
 36021696.000000, -1.808974 , -4.225725, 8.839087, 1090566400.000000, 3.850000,  24.500000,  2.450000, 0.000000,  0.000000 
 36041792.000000, -2.199004 , -4.419543, 9.183653, 1090586496.000000, 1.960000,  33.459999,  7.700000, 0.000000,  0.000000 
 36061760.000000, -1.990828 , -5.166104, 9.789038, 1090606464.000000, -1.050000,  38.849998,  10.150000, 0.000000,  0.000000 
 36081984.000000, -1.897508 , -5.599205, 9.930215, 1090626432.000000, -4.200000,  31.150000,  11.900000, 0.000000,  0.000000 
 36101696.000000, -1.971686 , -5.099105, 9.475577, 1090646784.000000, -0.350000,  25.969999,  10.640000, 0.000000,  0.000000 
 36121664.000000, -2.165504 , -4.816752, 9.073583, 1090666368.000000, 7.840000,  23.379999,  11.270000, 0.000000,  0.000000 
 36141632.000000, -2.026721 , -4.546363, 8.592626, 1090706432.000000, 10.220000,  0.140000,  4.620000, 1150705408.000000,  1009.651978 
 36161600.000000, -1.708475 , -4.338188, 8.398808, 0.000000, 0.000000,  0.000000,  0.000000, 0.000000,  0.000000 
 36181952.000000, -1.806581 , -4.414758, 8.293523, 1090726400.000000, 8.120000,  -9.730000,  1.190000, 0.000000,  0.000000 
 36201664.000000, -2.206182 , -4.431508, 8.161918, 1090746624.000000, 4.830000,  -8.540000,  0.770000, 0.000000,  0.000000 
 36221632.000000, -2.428715 , -4.292724, 7.956135, 1090766336.000000, 1.960000,  -4.060000,  -0.490000, 0.000000,  0.000000 
 36241600.000000, -2.545963 , -4.091727, 7.948956, 1090786304.000000, -0.980000,  -0.770000,  -0.840000, 0.000000,  0.000000 
 36261568.000000, -2.603391 , -4.146761, 8.015956, 1090806272.000000, -4.130000,  2.730000,  -2.590000, 0.000000,  0.000000 
 36281920.000000, -2.761317 , -4.302295, 8.097312, 1090826368.000000, -7.000000,  8.050000,  -3.710000, 0.000000,  0.000000 
 36301632.000000, -2.775674 , -4.383651, 8.147561, 1090846592.000000, -9.240000,  12.950000,  -2.240000, 0.000000,  0.000000 
 36321600.000000, -2.935993 , -4.292724, 8.269595, 1090866304.000000, -5.880000,  16.590000,  -1.190000, 0.000000,  0.000000 
 36341568.000000, -3.175276 , -4.323831, 8.322237, 1090886272.000000, -1.960000,  21.840000,  0.840000, 0.000000,  0.000000 
 36361536.000000, -3.235096 , -4.237689, 8.513663, 1090906240.000000, 1.400000,  24.710001,  2.310000, 0.000000,  0.000000 
 36381888.000000, -3.105884 , -3.988836, 8.228917, 1090926208.000000, 0.560000,  22.820000,  4.340000, 0.000000,  0.000000 
 36401472.000000, -2.641676 , -3.828516, 8.458629, 1090946560.000000, -0.420000,  16.240000,  4.340000, 0.000000,  0.000000 
 36421568.000000, -2.426322 , -4.180261, 8.781659, 1090966272.000000, -3.500000,  7.770000,  7.980000, 0.000000,  0.000000 
 36441536.000000, -2.402394 , -4.761717, 8.824730, 1090986240.000000, -13.090000,  6.020000,  9.100000, 0.000000,  0.000000 
 36461504.000000, -2.263610 , -4.965107, 8.829515, 1091006208.000000, -16.520000,  6.580000,  12.040000, 0.000000,  0.000000 
 36481856.000000, -2.208575 , -4.883751, 8.611769, 1091026176.000000, -10.220000,  3.360000,  11.970000, 0.000000,  0.000000 
 36501440.000000, -2.069792 , -4.455436, 8.173882, 1091046528.000000, -2.450000,  0.980000,  11.200000, 0.000000,  0.000000 
 36521408.000000, -2.129612 , -4.208975, 7.920243, 1091066240.000000, 2.450000,  -2.730000,  9.870000, 0.000000,  0.000000 
 36541504.000000, -2.356930 , -4.321437, 7.896315, 1091086208.000000, 3.220000,  -3.080000,  6.370000, 0.000000,  0.000000 
 36561472.000000, -2.603391 , -4.436293, 8.288737, 1091106176.000000, 0.210000,  -0.560000,  3.850000, 0.000000,  0.000000 
 36581696.000000, -2.971886 , -4.536791, 8.559127, 1091126144.000000, 1.680000,  1.470000,  1.190000, 0.000000,  0.000000 
 36601408.000000, -3.323631 , -4.553542, 8.489735, 1091146496.000000, 2.800000,  6.510000,  1.120000, 0.000000,  0.000000 
 36621376.000000, -3.464807 , -4.216154, 8.310273, 1091166080.000000, 3.640000,  10.570000,  0.210000, 0.000000,  0.000000 
 36641344.000000, -3.393023 , -4.197011, 8.085347, 1091186176.000000, 2.660000,  8.890000,  -1.260000, 0.000000,  0.000000 
 36661440.000000, -3.203990 , -4.232903, 7.925028, 1091206144.000000, 0.420000,  3.640000,  -1.540000, 0.000000,  0.000000 
 36681664.000000, -2.952743 , -4.275974, 7.814958, 1091226112.000000, -3.010000,  -0.700000,  -0.700000, 0.000000,  0.000000 
 36701376.000000, -2.993421 , -4.462614, 8.082954, 1091246336.000000, -0.070000,  -0.910000,  1.610000, 0.000000,  0.000000 
 36721344.000000, -3.046063 , -4.474578, 8.142776, 1091266048.000000, 4.340000,  2.730000,  3.850000, 0.000000,  0.000000 
 36741312.000000, -3.012564 , -4.244867, 8.348558, 1091286016.000000, 6.440000,  6.440000,  6.230000, 0.000000,  0.000000 
 36761280.000000, -3.005385 , -4.115655, 8.341379, 1091306112.000000, 5.880000,  7.630000,  5.040000, 0.000000,  0.000000 
 36781632.000000, -2.924029 , -4.019942, 8.319844, 1091326080.000000, 3.850000,  6.580000,  4.410000, 0.000000,  0.000000 
 36801344.000000, -2.892922 , -4.103691, 8.219346, 1091346304.000000, 1.610000,  4.970000,  2.310000, 0.000000,  0.000000 
 36821312.000000, -2.816352 , -4.094120, 8.085347, 1091366016.000000, -2.170000,  5.110000,  1.190000, 0.000000,  0.000000 
 36841280.000000, -2.718246 , -4.326223, 8.240881, 1091385984.000000, -4.340000,  3.990000,  1.400000, 0.000000,  0.000000 
 36861248.000000, -2.823531 , -4.405186, 8.420342, 1091405952.000000, -1.960000,  3.780000,  1.960000, 0.000000,  0.000000 
 36881600.000000, -3.012564 , -4.216154, 8.516055, 1091426048.000000, -0.210000,  6.160000,  3.990000, 0.000000,  0.000000 
 36901312.000000, -3.134598 , -4.261617, 8.169096, 1091446272.000000, 0.840000,  7.000000,  5.320000, 0.000000,  0.000000 
 36921280.000000, -3.192025 , -4.230510, 8.283953, 1091465984.000000, 1.820000,  6.230000,  6.090000, 0.000000,  0.000000 
 36941248.000000, -3.125026 , -4.362115, 8.441878, 1091485952.000000, 0.140000,  4.550000,  5.810000, 0.000000,  0.000000 
 36961216.000000, -2.993421 , -4.266403, 8.410772, 1091505920.000000, 0.420000,  0.490000,  5.600000, 0.000000,  0.000000 
 36981568.000000, -3.072384 , -4.242475, 8.204988, 1091525888.000000, -1.890000,  -1.470000,  5.600000, 0.000000,  0.000000 
 37001152.000000, -3.096312 , -4.359723, 8.145168, 1091546240.000000, -3.080000,  -0.490000,  4.340000, 0.000000,  0.000000 
 37021248.000000, -3.172883 , -4.429115, 8.044669, 1091565952.000000, -4.760000,  -1.260000,  4.760000, 0.000000,  0.000000 
 37041216.000000, -3.163311 , -4.493721, 8.121240, 1091585920.000000, -4.480000,  -0.210000,  2.940000, 0.000000,  0.000000 
 37061184.000000, -2.926422 , -4.541577, 8.152347, 1091605888.000000, -2.100000,  -1.050000,  2.660000, 0.000000,  0.000000 
 37081408.000000, -2.943172 , -4.965107, 8.688338, 1091625856.000000, -1.540000,  -2.660000,  0.910000, 0.000000,  0.000000 
 37101120.000000, -3.163311 , -5.410172, 9.643075, 1091646208.000000, -0.070000,  -1.400000,  -0.350000, 0.000000,  0.000000 
 37121088.000000, -3.799802 , -5.304887, 9.214760, 1091665920.000000, 1.610000,  2.870000,  -1.260000, 0.000000,  0.000000 
 37141184.000000, -3.857230 , -4.800002, 8.796017, 1091685888.000000, 5.670000,  7.840000,  -6.020000, 0.000000,  0.000000 
 37161152.000000, -3.450450 , -4.582255, 8.212167, 1091705856.000000, 9.380000,  -0.700000,  -10.430000, 1151704832.000000,  1009.648560 
 37181376.000000, -2.857030 , -3.467200, 7.580462, 1091725824.000000, 16.240000,  -16.730000,  -15.820000, 0.000000,  0.000000 
 37201088.000000, -2.581856 , -3.055635, 7.494320, 1091746176.000000, 20.650000,  -24.920000,  -16.520000, 0.000000,  0.000000 
 37221056.000000, -2.536392 , -3.105884, 7.692925, 1091765760.000000, 20.860001,  -25.900000,  -15.330000, 0.000000,  0.000000 
 37241024.000000, -2.701497 , -3.136991, 7.755138, 1091785856.000000, 8.820000,  -17.920000,  -11.340000, 0.000000,  0.000000 
 37261120.000000, -2.845066 , -3.519842, 7.573284, 1091805824.000000, -2.800000,  -7.910000,  -7.700000, 0.000000,  0.000000 
 37281344.000000, -2.452643 , -3.821337, 7.798209, 1091825792.000000, -13.230000,  -5.740000,  -5.180000, 0.000000,  0.000000 
 37301056.000000, -2.440679 , -4.189832, 8.204988, 1091846016.000000, -21.490000,  -5.600000,  -2.940000, 0.000000,  0.000000 
 37321024.000000, -2.727818 , -4.543970, 8.427521, 1091865728.000000, -19.670000,  0.630000,  0.560000, 0.000000,  0.000000 
 37340992.000000, -2.916851 , -4.685147, 8.451449, 1091885696.000000, -13.720000,  8.190000,  2.450000, 0.000000,  0.000000 
 37360960.000000, -2.935993 , -4.225725, 8.429914, 1091905792.000000, -8.330000,  10.220000,  0.980000, 0.000000,  0.000000 
 37381312.000000, -2.694318 , -4.546363, 9.006584, 1091925760.000000, -1.890000,  3.780000,  -0.770000, 0.000000,  0.000000 
 37401024.000000, -2.612962 , -4.965107, 9.226725, 1091945984.000000, -3.150000,  -4.690000,  -6.440000, 0.000000,  0.000000 
 37420992.000000, -2.469393 , -4.558327, 8.609376, 1091965696.000000, -8.050000,  -6.370000,  -9.170000, 0.000000,  0.000000 
 37440960.000000, -2.232504 , -4.354938, 8.176274, 1091985664.000000, -6.720000,  -10.850000,  -9.870000, 0.000000,  0.000000 
 37460928.000000, -2.263610 , -4.725825, 8.200203, 1092005632.000000, -5.880000,  -14.840000,  -11.270000, 0.000000,  0.000000 
 37481280.000000, -2.321038 , -4.840680, 8.556733, 1092025728.000000, -6.090000,  -14.700000,  -9.940000, 0.000000,  0.000000 
 37500992.000000, -2.428715 , -4.929214, 8.604590, 1092045952.000000, -3.570000,  -14.280000,  -7.700000, 0.000000,  0.000000 
 37520960.000000, -2.804388 , -4.955536, 8.504091, 1092065664.000000, -3.570000,  -8.680000,  -6.160000, 0.000000,  0.000000 
 37540928.000000, -2.629712 , -4.991428, 8.535198, 1092085632.000000, 3.080000,  -4.830000,  -5.390000, 0.000000,  0.000000 
 37560896.000000, -2.538785 , -4.424329, 8.216952, 1092105600.000000, 7.000000,  -8.260000,  -8.400000, 0.000000,  0.000000 
 37581248.000000, -2.148755 , -3.830909, 7.822137, 1092125568.000000, 9.380000,  -10.920000,  -8.680000, 0.000000,  0.000000 
 37600832.000000, -2.038685 , -3.902694, 7.645068, 1092145920.000000, 10.710000,  -13.790000,  -7.840000, 0.000000,  0.000000 
 37620928.000000, -1.971686 , -4.230510, 7.858029, 1092165632.000000, 6.580000,  -11.340000,  -7.770000, 0.000000,  0.000000 
 37640896.000000, -1.957329 , -4.472186, 8.628519, 1092185600.000000, 4.830000,  -7.770000,  -5.810000, 0.000000,  0.000000 
 37660864.000000, -2.428715 , -4.697111, 9.178867, 1092205568.000000, 5.740000,  -2.660000,  -4.480000, 0.000000,  0.000000 
 37681088.000000, -2.713461 , -4.692325, 9.111869, 1092225536.000000, 3.850000,  8.050000,  -3.290000, 0.000000,  0.000000 
 37700800.000000, -2.778067 , -4.613362, 8.961121, 1092245888.000000, 2.590000,  10.010000,  -3.010000, 0.000000,  0.000000 
 37720768.000000, -2.560320 , -4.316652, 8.520842, 1092265472.000000, 2.800000,  2.940000,  -6.370000, 0.000000,  0.000000 
 37740736.000000, -2.378466 , -3.854837, 8.298308, 1092285568.000000, 5.670000,  -2.520000,  -7.140000, 0.000000,  0.000000 
 37760832.000000, -2.093720 , -4.113262, 8.865408, 1092305536.000000, 11.550000,  -6.440000,  -6.720000, 0.000000,  0.000000 
 37781056.000000, -2.474179 , -4.575077, 9.102298, 1092325504.000000, 9.590000,  -10.640000,  -6.650000, 0.000000,  0.000000 
 37800768.000000, -2.725425 , -4.366901, 8.937192, 1092345856.000000, 5.040000,  -4.900000,  -7.000000, 0.000000,  0.000000 
 37820736.000000, -2.488536 , -4.220939, 8.530413, 1092365568.000000, 3.010000,  -6.720000,  -6.580000, 0.000000,  0.000000 
 37840704.000000, -2.225325 , -4.070191, 7.733603, 1092385408.000000, -0.840000,  -16.240000,  -7.770000, 0.000000,  0.000000 
 37860672.000000, -1.765903 , -4.536791, 7.843673, 1092405504.000000, -7.490000,  -22.750000,  -9.030000, 0.000000,  0.000000 
 37881024.000000, -1.756332 , -4.768896, 8.068598, 1092425472.000000, -10.780000,  -25.270000,  -9.450000, 0.000000,  0.000000 
 37900736.000000, -1.569692 , -4.505685, 7.932207, 1092445696.000000, -11.970000,  -17.780001,  -9.310000, 0.000000,  0.000000 
 37920704.000000, -1.375873 , -4.610970, 7.980063, 1092465408.000000, -7.350000,  -14.910000,  -6.650000, 0.000000,  0.000000 
 37940672.000000, -1.756332 , -4.644469, 7.891530, 1092485376.000000, -6.510000,  -9.870000,  -5.180000, 0.000000,  0.000000 
 37960640.000000, -1.655833 , -4.244867, 8.195417, 1092505344.000000, -5.320000,  2.870000,  -4.690000, 0.000000,  0.000000 
 37980992.000000, -1.514657 , -4.046263, 9.061620, 1092525440.000000, 3.080000,  4.060000,  -5.320000, 0.000000,  0.000000 
 38000704.000000, -1.799403 , -4.053442, 8.822337, 1092545664.000000, 5.110000,  4.270000,  -4.410000, 0.000000,  0.000000 
 38020672.000000, -1.703690 , -4.524827, 8.788837, 1092565376.000000, -2.380000,  8.050000,  -2.100000, 0.000000,  0.000000 
 38040640.000000, -2.009971 , -4.811966, 8.836694, 1092585344.000000, -7.000000,  2.170000,  -2.170000, 0.000000,  0.000000 
 38060608.000000, -2.170290 , -4.022335, 8.298308, 1092605312.000000, -3.220000,  1.330000,  -1.680000, 0.000000,  0.000000 
 38080960.000000, -1.555335 , -3.637090, 7.932207, 1092625280.000000, 3.990000,  -1.260000,  -2.240000, 0.000000,  0.000000 
 38100544.000000, -1.060020 , -3.972085, 7.724032, 1092645632.000000, 3.360000,  -10.850000,  -3.080000, 0.000000,  0.000000 
 38120768.000000, -0.868595 , -4.532006, 7.848458, 1092665344.000000, -7.910000,  -10.220000,  -3.080000, 0.000000,  0.000000 
 38140608.000000, -0.820738 , -4.747360, 8.087741, 1092685440.000000, -10.150000,  -6.860000,  2.520000, 0.000000,  0.000000 
 38160576.000000, -1.021735 , -4.886144, 8.492127, 1092705280.000000, -7.700000,  -1.120000,  6.230000, 1152704256.000000,  1009.646912 
 38180928.000000, -1.275374 , -5.218746, 9.348758, 1092725248.000000, -5.110000,  3.850000,  6.020000, 0.000000,  0.000000 
 38200512.000000, -1.966900 , -5.467600, 10.155140, 1092745600.000000, -1.680000,  6.300000,  3.990000, 0.000000,  0.000000 
 38220480.000000, -2.596212 , -4.919643, 9.327222, 1092765312.000000, 1.190000,  8.610000,  3.990000, 0.000000,  0.000000 
 38240576.000000, -1.823331 , -4.776074, 8.707481, 1092785280.000000, 1.610000,  5.180000,  -6.020000, 0.000000,  0.000000 
 38260544.000000, -1.339981 , -4.386044, 8.616554, 1092805248.000000, -3.500000,  -14.140000,  -13.370000, 0.000000,  0.000000 
 38280768.000000, -1.720440 , -3.620341, 8.030313, 1092825216.000000, -0.840000,  -19.460001,  -16.100000, 0.000000,  0.000000 
 38300480.000000, -1.612763 , -3.749553, 7.503892, 1092845568.000000, 5.110000,  -9.520000,  -13.090000, 0.000000,  0.000000 
 38320448.000000, -1.067199 , -3.775874, 7.357929, 1092865152.000000, -1.400000,  -10.500000,  -10.290000, 0.000000,  0.000000 
 38340416.000000, -1.028914 , -4.328616, 7.941778, 1092885248.000000, -5.390000,  -13.020000,  -4.410000, 0.000000,  0.000000 
 38360512.000000, -1.545763 , -4.783253, 8.379664, 1092905216.000000, -5.460000,  -3.150000,  4.620000, 0.000000,  0.000000 
 38380736.000000, -1.820938 , -4.948357, 8.609376, 1092925184.000000, -3.360000,  8.540000,  11.130000, 0.000000,  0.000000 
 38400448.000000, -1.674976 , -4.960321, 8.956335, 1092945408.000000, 0.280000,  11.130000,  11.900000, 0.000000,  0.000000 
 38420416.000000, -1.856830 , -5.276174, 9.561719, 1092965120.000000, 3.920000,  8.820000,  9.520000, 0.000000,  0.000000 
 38440384.000000, -2.053042 , -5.467600, 9.602397, 1092985088.000000, 2.310000,  10.920000,  5.880000, 0.000000,  0.000000 
 38460352.000000, -1.730011 , -4.864608, 8.762517, 1093005056.000000, -1.470000,  10.010000,  -0.910000, 0.000000,  0.000000 
 38480704.000000, -1.131805 , -4.010371, 8.212167, 1093025152.000000, 0.700000,  0.280000,  -8.120000, 0.000000,  0.000000 
 38500416.000000, -0.844666 , -3.467200, 7.642675, 1093045376.000000, 2.800000,  -9.870000,  -12.110000, 0.000000,  0.000000 
 38520384.000000, -0.703490 , -3.273381, 7.322037, 1093065088.000000, -0.140000,  -11.270000,  -11.340000, 0.000000,  0.000000 
 38540352.000000, -0.684347 , -3.404987, 7.441679, 1093085056.000000, -1.330000,  -11.830000,  -6.230000, 0.000000,  0.000000 
 38560320.000000, -0.921237 , -4.012764, 7.920243, 1093105024.000000, -4.340000,  -7.770000,  0.630000, 0.000000,  0.000000 
 38580672.000000, -1.423729 , -4.936393, 8.748159, 1093124992.000000, -6.580000,  0.840000,  7.560000, 0.000000,  0.000000 
 38600384.000000, -1.916651 , -5.682954, 9.509077, 1093145344.000000, -6.090000,  6.930000,  12.600000, 0.000000,  0.000000 
 38620352.000000, -2.127219 , -5.883951, 9.375079, 1093165056.000000, -2.590000,  11.690000,  14.000000, 0.000000,  0.000000 
 38640320.000000, -1.926222 , -5.541777, 9.109475, 1093185024.000000, -0.980000,  12.810000,  10.360000, 0.000000,  0.000000 
 38660288.000000, -1.588834 , -5.058427, 9.004191, 1093204992.000000, 2.100000,  3.080000,  1.400000, 0.000000,  0.000000 
 38680640.000000, -1.663012 , -5.039285, 8.685946, 1093224960.000000, 2.310000,  -2.660000,  -6.370000, 0.000000,  0.000000 
 38700224.000000, -1.392623 , -4.366901, 8.109276, 1093245312.000000, -3.430000,  -2.380000,  -14.000000, 0.000000,  0.000000 
 38720320.000000, -1.215554 , -3.809374, 7.735995, 1093265024.000000, -3.640000,  -8.820000,  -17.080000, 0.000000,  0.000000 
 38740288.000000, -1.131805 , -4.031906, 7.831708, 1093284992.000000, -3.850000,  -11.480000,  -17.710001, 0.000000,  0.000000 
 38760256.000000, -1.217947 , -4.508078, 8.099705, 1093304960.000000, -7.980000,  -7.770000,  -13.090000, 0.000000,  0.000000 
 38780480.000000, -1.383051 , -4.508078, 8.248059, 1093324928.000000, -9.380000,  -1.610000,  -8.260000, 0.000000,  0.000000 
 38800192.000000, -1.780260 , -4.553542, 8.506484, 1093345280.000000, -7.700000,  1.610000,  -5.740000, 0.000000,  0.000000 
 38820160.000000, -1.983650 , -5.130211, 8.882158, 1093364992.000000, -0.140000,  7.630000,  -0.840000, 0.000000,  0.000000 
 38840256.000000, -1.883151 , -5.144568, 8.748159, 1093384960.000000, 1.470000,  11.200000,  1.120000, 0.000000,  0.000000 
 38860224.000000, -1.832902 , -4.831109, 8.520842, 1093404928.000000, 2.240000,  10.920000,  0.630000, 0.000000,  0.000000 
 38880448.000000, -1.205983 , -4.436293, 8.611769, 1093424896.000000, 4.830000,  6.930000,  -2.170000, 0.000000,  0.000000 
 38900160.000000, -1.280160 , -4.476971, 8.805587, 1093445248.000000, 2.310000,  1.680000,  -3.710000, 0.000000,  0.000000 
 38920128.000000, -1.466800 , -4.718646, 8.513663, 1093464832.000000, 0.700000,  2.030000,  -4.900000, 0.000000,  0.000000 
 38940096.000000, -1.481157 , -4.979464, 8.549555, 1093484800.000000, -4.340000,  3.150000,  -4.340000, 0.000000,  0.000000 
 38960064.000000, -1.557728 , -4.867002, 8.712267, 1093504896.000000, -5.600000,  -0.700000,  -4.760000, 0.000000,  0.000000 
 38980416.000000, -1.794617 , -4.651647, 8.626125, 1093545088.000000, 2.030000,  0.490000,  -3.850000, 0.000000,  0.000000 
 39000128.000000, -1.773082 , -4.742575, 8.216952, 0.000000, 0.000000,  0.000000,  0.000000, 0.000000,  0.000000 
 39020096.000000, -1.605584 , -4.453043, 7.893922, 1093564800.000000, -1.610000,  -0.980000,  -2.730000, 0.000000,  0.000000 
 39040064.000000, -1.466800 , -4.141976, 7.702496, 1093584768.000000, 0.140000,  -1.470000,  -2.100000, 0.000000,  0.000000 
 39060032.000000, -1.170090 , -4.225725, 7.977671, 1093604736.000000, 1.400000,  0.070000,  -1.190000, 0.000000,  0.000000 
 39080384.000000, -1.229911 , -4.407579, 8.240881, 1093624832.000000, -2.450000,  1.470000,  1.750000, 0.000000,  0.000000 
 39100096.000000, -1.526621 , -4.945964, 8.575876, 1093645056.000000, -3.990000,  7.070000,  5.950000, 0.000000,  0.000000 
 39120064.000000, -1.737189 , -5.343173, 9.154939, 1093664768.000000, -6.930000,  12.950000,  8.120000, 0.000000,  0.000000 
 39140032.000000, -1.629512 , -4.962714, 9.171689, 1093704704.000000, -4.620000,  4.340000,  5.110000, 1153703680.000000,  1009.647095 
 39160000.000000, -1.591227 , -4.867002, 9.028119, 0.000000, 0.000000,  0.000000,  0.000000, 0.000000,  0.000000 
 39180352.000000, -1.469193 , -5.017749, 8.611769, 1093745024.000000, -4.200000,  -6.720000,  -1.330000, 0.000000,  0.000000 
 39200064.000000, -1.198804 , -4.606184, 8.248059, 0.000000, 0.000000,  0.000000,  0.000000, 0.000000,  0.000000 
 39220032.000000, -0.997807 , -4.118048, 7.898707, 1093764736.000000, 1.330000,  -11.480000,  -2.240000, 0.000000,  0.000000 
 39240000.000000, -1.062413 , -4.199404, 8.018349, 1093784704.000000, 3.080000,  -11.340000,  -1.540000, 0.000000,  0.000000 
 39259968.000000, -1.153341 , -4.441079, 7.951349, 1093804672.000000, -1.890000,  -8.890000,  -0.280000, 0.000000,  0.000000 
 39280320.000000, -1.502693 , -4.594220, 8.099705, 1093824640.000000, -4.900000,  -1.960000,  3.990000, 0.000000,  0.000000 
 39299904.000000, -1.502693 , -5.233103, 8.721838, 1093844992.000000, -5.740000,  1.820000,  5.950000, 0.000000,  0.000000 
 39319872.000000, -1.962115 , -5.422136, 9.061620, 1093864704.000000, -3.290000,  3.710000,  7.980000, 0.000000,  0.000000 
 39339968.000000, -1.966900 , -5.084748, 8.539984, 1093884672.000000, -0.840000,  10.990000,  6.370000, 0.000000,  0.000000 
 39359936.000000, -1.378266 , -4.962714, 8.628519, 1093904640.000000, 2.030000,  8.470000,  3.080000, 0.000000,  0.000000 
 39380160.000000, -1.471586 , -4.756931, 8.348558, 1093924608.000000, 3.080000,  8.470000,  -0.490000, 0.000000,  0.000000 
 39399872.000000, -1.442872 , -4.575077, 8.140383, 1093944960.000000, 1.680000,  3.780000,  -1.540000, 0.000000,  0.000000 
 39419840.000000, -1.239482 , -4.254438, 7.951349, 1093964544.000000, -0.280000,  1.190000,  -3.010000, 0.000000,  0.000000 
 39439808.000000, -1.371087 , -4.247260, 7.877172, 1093984640.000000, -0.700000,  -1.610000,  -2.030000, 0.000000,  0.000000 
 39459904.000000, -1.268196 , -4.512863, 8.051848, 1094004608.000000, -1.610000,  0.980000,  -0.070000, 0.000000,  0.000000 
 39480128.000000, -1.450050 , -4.596612, 8.106883, 1094024576.000000, -2.030000,  1.890000,  2.240000, 0.000000,  0.000000 
 39499840.000000, -1.545763 , -4.673182, 8.394022, 1094044928.000000, 0.840000,  4.830000,  3.220000, 0.000000,  0.000000 
 39519808.000000, -1.629512 , -4.677969, 8.520842, 1094064512.000000, 2.660000,  6.020000,  5.040000, 0.000000,  0.000000 
 39539776.000000, -1.823331 , -4.692325, 8.695518, 1094084480.000000, 1.260000,  8.120000,  4.200000, 0.000000,  0.000000 
 39559744.000000, -1.835295 , -5.257031, 9.186047, 1094104576.000000, -0.700000,  6.790000,  1.960000, 0.000000,  0.000000 
 39580096.000000, -2.079363 , -5.230711, 8.836694, 1094124544.000000, -3.640000,  4.620000,  1.960000, 0.000000,  0.000000 
 39599808.000000, -1.624727 , -5.072784, 8.769694, 1094144768.000000, -3.080000,  5.180000,  -2.100000, 0.000000,  0.000000 
 39619776.000000, -1.232304 , -5.273781, 8.819944, 1094164480.000000, -2.450000,  -2.590000,  -3.640000, 0.000000,  0.000000 
 39639744.000000, -1.339981 , -5.185246, 8.755339, 1094184448.000000, -4.550000,  -6.230000,  -5.810000, 0.000000,  0.000000 
 39659712.000000, -1.383051 , -5.199604, 8.432307, 1094204416.000000, -2.870000,  -3.780000,  -5.530000, 0.000000,  0.000000 
 39680064.000000, -1.289732 , -5.079963, 8.413164, 1094224384.000000, -2.380000,  -6.020000,  -7.770000, 0.000000,  0.000000 
 39699776.000000, -1.368695 , -4.529613, 8.293523, 1094244736.000000, -0.350000,  -7.630000,  -9.380000, 0.000000,  0.000000 
 39719744.000000, -1.526621 , -4.945964, 8.748159, 1094264448.000000, -0.910000,  -5.460000,  -10.850000, 0.000000,  0.000000 
 39739712.000000, -1.988436 , -4.883751, 8.702696, 1094284416.000000, -2.450000,  -4.200000,  -13.090000, 0.000000,  0.000000 
 39759680.000000, -2.182254 , -4.625326, 8.044669, 1094304384.000000, -2.870000,  4.200000,  -11.900000, 0.000000,  0.000000 
 39780032.000000, -1.643869 , -5.044070, 8.214561, 1094324352.000000, -2.030000,  2.450000,  -13.580000, 0.000000,  0.000000 
 39799744.000000, -1.442872 , -4.431508, 8.008778, 1094344704.000000, -4.060000,  -4.620000,  -14.070000, 0.000000,  0.000000 
 39819712.000000, -1.473979 , -4.118048, 7.850852, 1094364416.000000, 2.380000,  -4.620000,  -9.520000, 0.000000,  0.000000 
 39839680.000000, -1.349552 , -3.967300, 7.783852, 1094384384.000000, 4.550000,  0.560000,  -6.860000, 0.000000,  0.000000 
 39859648.000000, -1.421337 , -4.220939, 7.992027, 1094404352.000000, 1.190000,  2.310000,  -1.470000, 0.000000,  0.000000 
 39880000.000000, -1.320838 , -4.792823, 8.484949, 1094424320.000000, -1.890000,  3.780000,  2.030000, 0.000000,  0.000000 
 39899584.000000, -1.560120 , -4.874180, 8.484949, 1094444800.000000, -3.010000,  3.500000,  6.720000, 0.000000,  0.000000 
 39919552.000000, -1.550549 , -5.079963, 8.377272, 1094464256.000000, -1.260000,  4.480000,  9.100000, 0.000000,  0.000000 
 39939648.000000, -1.442872 , -5.376673, 8.623734, 1094484352.000000, -1.050000,  0.210000,  7.630000, 0.000000,  0.000000 
 39959616.000000, -1.399801 , -5.381458, 8.784052, 1094504320.000000, 0.070000,  -3.640000,  4.270000, 0.000000,  0.000000 
 39979840.000000, -1.502693 , -5.417351, 8.472985, 1094524288.000000, -0.560000,  -3.780000,  2.100000, 0.000000,  0.000000 
