Acc_timestamp,Accx,Accy,Accz,Gyro_timestamp,Gyrox,Gyroy,Gyroz,Baro_timestamp,Pressure_Reading
41710336.000000,-0.382852,-25.710878,-11.330014,41710848.000000,-58.520000,-218.190002,240.800003,0.000000,0.000000
41730304.000000,4.721039,-24.418755,-4.747360,41730816.000000,-57.260002,-199.009995,262.220001,0.000000,0.000000
41751040.000000,5.757132,-19.468006,-3.646662,41750784.000000,-91.980003,-175.910004,246.680008,0.000000,0.000000
41770240.000000,5.527420,-13.969299,-4.082155,41771520.000000,5.810000,-155.539993,166.180008,0.000000,0.000000
41790208.000000,5.517848,-9.865608,-3.424129,41790720.000000,74.129997,-127.750000,117.879997,0.000000,0.000000
41810176.000000,7.307681,-9.061620,-0.066999,41810688.000000,40.110001,-144.550003,73.360001,0.000000,0.000000
41830144.000000,9.743573,-10.399208,4.297509,41830656.000000,-26.110001,-181.580002,53.270000,0.000000,0.000000
41851136.000000,14.280365,-9.906286,8.288737,41850624.000000,-61.389999,-187.949997,45.009998,0.000000,0.000000
41870080.000000,17.034504,-10.681561,9.734003,41871616.000000,1.610000,-191.589996,14.420000,0.000000,0.000000
41890304.000000,13.232309,-9.573684,5.630312,41890560.000000,144.410004,-181.580002,-61.880001,0.000000,0.000000
41910272.000000,14.057834,-3.211168,-2.029114,41910784.000000,243.809998,-157.990005,-142.520004,0.000000,0.000000
41930240.000000,13.964513,-1.237089,-4.398008,41930752.000000,250.740005,-170.309998,-184.029999,0.000000,0.000000
41950976.000000,12.241680,-12.949955,-2.902494,41950720.000000,84.279999,-133.910004,-208.250000,0.000000,0.000000
41970176.000000,11.815758,-37.651062,-7.465607,41971456.000000,-209.720001,-27.299999,-210.979996,0.000000,0.000000
41990144.000000,2.416751,-43.097130,-15.948163,41990656.000000,-244.649994,76.650002,-273.559998,0.000000,0.000000
42010112.000000,1.521835,-33.568909,-21.777079,42010624.000000,31.080000,136.919998,-439.670013,0.000000,0.000000
42030080.000000,-0.098106,-28.790443,-16.555939,42030592.000000,120.750000,172.970001,-451.640015,0.000000,0.000000
42051072.000000,-1.756332,-21.566511,-9.521042,42050560.000000,-8.400000,165.339996,-471.100006,0.000000,0.000000
42070016.000000,-4.311867,-16.615761,-6.427122,42071552.000000,-110.250000,212.309998,-442.540009,0.000000,0.000000
42089984.000000,-6.802795,-12.861421,-3.625126,42090496.000000,-105.349998,251.160004,-420.000000,0.000000,0.000000
42109952.000000,-7.915457,-9.217153,-1.600798,42110464.000000,-91.840004,254.869995,-357.070007,0.000000,0.000000
42130176.000000,-8.626125,-6.924829,0.729811,42130432.000000,-76.090004,243.180008,-241.080002,0.000000,0.000000
42150912.000000,-8.149954,-4.986642,3.818945,42171392.000000,-112.489998,229.740005,-61.320000,3895260416.000000,1010.029175
42170112.000000,-9.351151,-5.082355,5.826523,0.000000,0.000000,0.000000,0.000000,0.000000,0.000000
42190080.000000,-11.105090,-3.658626,6.195018,42190592.000000,-94.500000,225.399994,-26.670000,0.000000,0.000000
42210048.000000,-10.679168,-1.177269,6.400801,42210560.000000,-42.700001,202.720001,7.840000,0.000000,0.000000
42230016.000000,-11.380265,0.966700,6.027520,42230528.000000,-10.220000,160.160004,54.810001,0.000000,0.000000
42251008.000000,-11.337193,2.402394,2.656033,42250496.000000,-10.430000,99.680000,73.430000,0.000000,0.000000
42269952.000000,-9.891929,3.816552,0.356531,42271488.000000,-22.190001,37.310001,87.639999,0.000000,0.000000
42289920.000000,-7.920243,2.512464,2.883351,42290432.000000,-104.650002,-26.670000,108.430000,0.000000,0.000000
42309888.000000,-8.257630,-3.744767,5.237889,42310400.000000,-246.750000,-90.650002,137.899994,0.000000,0.000000
42329856.000000,-13.493127,-15.165710,-2.931208,42330368.000000,-350.630005,-138.250000,143.850006,0.000000,0.000000
42352896.000000,-12.232110,-23.011776,-14.490934,42350336.000000,-282.100006,-195.720001,161.490005,0.000000,0.000000
42370048.000000,-5.558527,-30.396025,-20.867805,42373376.000000,-138.880005,-297.500000,216.720001,0.000000,0.000000
42390016.000000,-1.646262,-34.408787,-19.389042,42390528.000000,-95.690002,-356.019989,209.930008,0.000000,0.000000
42409984.000000,-0.480957,-30.362526,-12.303895,42410496.000000,-205.940002,-323.399994,229.389999,0.000000,0.000000
42429952.000000,1.706082,-22.944775,-10.487741,42430464.000000,-130.899994,-294.000000,207.270004,0.000000,0.000000
42450688.000000,5.848059,-18.063417,-9.178867,42450432.000000,84.139999,-272.579987,218.680008,0.000000,0.000000
42469888.000000,7.594819,-13.667803,-7.800602,42471168.000000,138.740005,-235.059998,248.990005,0.000000,0.000000
42489856.000000,8.614161,-10.107283,-7.214360,42490368.000000,112.980003,-192.919998,222.320007,0.000000,0.000000
42509824.000000,11.026128,-8.348558,-4.074977,42510336.000000,68.110001,-168.000000,211.119995,0.000000,0.000000
42529792.000000,15.266209,-10.406385,-1.330409,42530304.000000,-28.139999,-166.039993,198.869995,0.000000,0.000000
42550784.000000,19.192829,-11.574083,0.993021,42550272.000000,-82.879997,-169.119995,162.680008,0.000000,0.000000
42569728.000000,19.606789,-8.970692,2.347359,42571264.000000,-58.240002,-152.460007,114.870003,0.000000,0.000000
42589696.000000,17.560926,-8.082954,0.813560,42590208.000000,13.790000,-132.789993,23.940001,0.000000,0.000000
42609920.000000,15.924235,-5.450850,-2.608176,42610176.000000,62.720001,-109.480003,-58.099998,0.000000,0.000000
42629888.000000,12.976277,-6.491727,-4.019942,42630400.000000,29.680000,-83.650002,-104.580002,0.000000,0.000000
42650624.000000,10.585848,-16.907684,-4.031906,42650368.000000,-100.940002,-7.560000,-120.540001,0.000000,0.000000
42669824.000000,5.570491,-34.600216,-9.767502,42671104.000000,-270.130005,92.610001,-133.279999,0.000000,0.000000
42689792.000000,0.691526,-38.237305,-18.719051,42690304.000000,-214.270004,189.979996,-212.520004,0.000000,0.000000
42709760.000000,0.892523,-40.529629,-25.617558,42710272.000000,5.460000,264.040009,-309.890015,0.000000,0.000000
42729728.000000,-2.902494,-37.055252,-22.892136,42730240.000000,76.580002,309.119995,-323.820007,0.000000,0.000000
42750720.000000,-6.156733,-26.440689,-17.532209,42750208.000000,45.920002,345.100006,-397.040009,0.000000,0.000000
42769664.000000,-11.619547,-19.324436,-13.196418,42771200.000000,39.480000,421.959991,-393.119995,0.000000,0.000000
42789632.000000,-20.516060,-11.385050,-4.943572,42790144.000000,42.560001,468.790009,-383.040009,0.000000,0.000000
42809600.000000,-12.978670,-3.347559,1.196411,42810112.000000,32.619999,407.890015,-339.079987,0.000000,0.000000
42829568.000000,-8.709875,1.239482,5.345565,42830080.000000,63.000000,335.440002,-175.770004,0.000000,0.000000
42850560.000000,-9.834501,6.151947,9.738789,42850048.000000,123.340004,262.010010,-93.730003,0.000000,0.000000
42869760.000000,-14.902499,12.437892,7.956135,42871040.000000,141.190002,199.990005,-35.139999,0.000000,0.000000
42889728.000000,-20.248066,15.680167,0.179462,42890240.000000,163.240005,138.250000,102.129997,0.000000,0.000000
42909696.000000,-16.316658,14.991035,-4.137190,42910208.000000,128.520004,5.670000,228.690002,0.000000,0.000000
42929664.000000,-17.998812,9.037691,-2.507678,42930176.000000,-95.269997,-96.529999,336.489990,0.000000,0.000000
42950400.000000,-20.331816,-3.230310,4.208975,42950144.000000,-345.730011,-144.759995,329.839996,0.000000,0.000000
42969600.000000,-19.030117,-16.170694,-1.552942,42970880.000000,-373.239990,-226.940002,252.419998,0.000000,0.000000
42989568.000000,-13.548162,-16.666008,-11.164910,42990080.000000,-98.349998,-234.779999,301.630005,0.000000,0.000000
43009536.000000,-15.251851,-26.782864,-14.050655,43010048.000000,185.570007,-249.479996,398.720001,0.000000,0.000000
43029504.000000,-12.914064,-38.550766,-14.957534,43030016.000000,138.250000,-200.970001,346.920013,0.000000,0.000000
43050496.000000,-6.419943,-32.379677,-15.046068,43049984.000000,-13.790000,-151.690002,291.970001,0.000000,0.000000
43069440.000000,-7.077969,-29.005795,-12.201002,43070976.000000,-43.049999,-155.050003,269.640015,0.000000,0.000000
43089408.000000,-8.425128,-28.512875,-3.981657,43089920.000000,-150.430008,-131.809998,205.869995,0.000000,0.000000
43109632.000000,-4.931608,-22.284357,0.358923,43109888.000000,-260.470001,-70.980003,182.490005,0.000000,0.000000
43129600.000000,-0.997807,-18.537197,0.890130,43130112.000000,-185.919998,-26.040001,210.070007,0.000000,0.000000
43150336.000000,0.349352,-17.271393,1.241875,43150080.000000,-104.720001,1.820000,240.240005,0.000000,0.000000
43169536.000000,0.143569,-14.809179,1.024128,43170816.000000,-96.879997,12.880000,226.240005,3896259840.000000,1010.033081
43189504.000000,1.806581,-12.134004,0.413958,43190016.000000,-101.639999,8.960000,179.899994,0.000000,0.000000
43209472.000000,5.108676,-9.908678,-0.344566,43209984.000000,-104.860001,-24.850000,155.960007,0.000000,0.000000
43229440.000000,9.741181,-8.221739,0.461815,43229952.000000,-131.740005,-99.680000,106.330002,0.000000,0.000000
43250432.000000,16.845470,-8.190632,4.517649,43249920.000000,-171.149994,-171.639999,60.270000,0.000000,0.000000
43269376.000000,19.496719,-9.171689,5.824130,43270912.000000,-199.430008,-205.660004,16.030001,0.000000,0.000000
43289344.000000,16.862221,-11.133803,5.596812,43289856.000000,-177.029999,-159.669998,-21.420000,0.000000,0.000000
43309312.000000,17.324036,-11.492726,2.519642,43309824.000000,-116.900002,-87.010002,-73.639999,0.000000,0.000000
43329280.000000,16.967505,-12.787244,0.531207,43329792.000000,-60.689999,-70.489998,-141.889999,0.000000,0.000000
43352320.000000,13.356737,-18.819551,-3.716053,43349760.000000,-42.420002,-21.139999,-192.500000,0.000000,0.000000
43369472.000000,8.317451,-24.787249,-14.124832,43372800.000000,-7.280000,62.720001,-247.240005,0.000000,0.000000
43389440.000000,4.275974,-32.013573,-22.231714,43389952.000000,88.269997,163.169998,-316.890015,0.000000,0.000000
43409408.000000,0.976272,-44.690746,-22.686352,43409920.000000,110.669998,270.619995,-385.140015,0.000000,0.000000
43429376.000000,-1.057628,-43.637909,-22.490139,43429888.000000,39.480000,321.720001,-414.470001,0.000000,0.000000
43450368.000000,-4.677969,-35.136208,-21.348764,43449856.000000,139.369995,364.140015,-437.500000,0.000000,0.000000
43469312.000000,-8.944371,-28.632517,-18.161524,43470848.000000,204.330002,410.130005,-438.899994,0.000000,0.000000
43489280.000000,-17.702101,-23.172094,-14.490934,43489792.000000,171.360001,411.880005,-426.299988,0.000000,0.000000
43509248.000000,-19.616360,-12.861421,-9.339187,43509760.000000,117.949997,367.640015,-400.470001,0.000000,0.000000
43529216.000000,-16.252050,-4.390830,-3.306881,43529728.000000,56.000000,315.140015,-309.470001,0.000000,0.000000
43550208.000000,-17.711672,0.291924,0.189033,43549696.000000,7.700000,292.880005,-215.809998,0.000000,0.000000
43569152.000000,-18.709480,5.312066,0.614955,43570688.000000,5.460000,274.610016,-161.350006,0.000000,0.000000
43589376.000000,-14.385650,9.102298,0.284746,43589632.000000,35.349998,215.250000,-69.510002,0.000000,0.000000
43609344.000000,-11.495120,8.382057,0.289532,43609856.000000,-10.010000,126.070000,20.299999,0.000000,0.000000
43629312.000000,-12.624532,5.307281,0.811167,43629824.000000,-117.739998,37.170002,43.610001,0.000000,0.000000
43650048.000000,-11.361122,2.859423,1.014557,43649792.000000,-200.479996,-36.680000,60.060001,0.000000,0.000000
43669248.000000,-9.336794,1.545763,0.110070,43670528.000000,-188.509995,-96.669998,125.090004,0.000000,0.000000
43689216.000000,-10.583455,0.569492,-2.658426,43689728.000000,-140.699997,-140.770004,197.889999,0.000000,0.000000
43709184.000000,-14.182260,-5.491528,-4.991428,43709696.000000,-86.730003,-173.180008,254.800003,0.000000,0.000000
43729152.000000,-17.438890,-19.989641,-8.944371,43729664.000000,-72.239998,-215.320007,281.329987,0.000000,0.000000
43750144.000000,-15.969698,-38.098522,-14.160725,43749632.000000,-119.629997,-264.040009,260.119995,0.000000,0.000000
43769088.000000,-10.303494,-41.900719,-16.934006,43770624.000000,-134.539993,-286.440002,267.959991,0.000000,0.000000
43789056.000000,-14.029119,-40.520058,-17.611174,43789568.000000,-114.379997,-270.200012,300.019989,0.000000,0.000000
43809024.000000,-3.105884,-28.474590,-11.583653,43809536.000000,-162.119995,-252.210007,244.160004,0.000000,0.000000
43828992.000000,3.251846,-23.315664,-4.694718,43829504.000000,-218.259995,-243.529999,237.300003,0.000000,0.000000
43849984.000000,6.022735,-23.703300,-2.371287,43849472.000000,-237.860001,-244.160004,224.139999,0.000000,0.000000
43869184.000000,6.228518,-17.826529,-4.469792,43870464.000000,-139.020004,-261.380005,184.309998,0.000000,0.000000
43889152.000000,4.878965,-11.992826,-6.312266,43889664.000000,30.100000,-200.130005,160.789993,0.000000,0.000000
43909120.000000,6.733403,-9.233903,-5.075177,43909632.000000,80.989998,-165.130005,128.589996,0.000000,0.000000
43929088.000000,10.487741,-8.262416,-2.280360,43929600.000000,28.559999,-196.979996,101.570000,0.000000,0.000000
43950080.000000,15.141781,-7.532606,-0.904487,43949568.000000,-25.760000,-224.559998,71.050003,0.000000,0.000000
43969024.000000,18.884157,-5.405386,-1.691726,43970560.000000,-24.500000,-205.660004,33.880001,0.000000,0.000000
43988992.000000,18.807585,-3.364309,-1.328017,43989504.000000,9.030000,-158.759995,-20.650000,0.000000,0.000000
44008960.000000,17.766708,-2.610569,-1.313660,44009472.000000,6.580000,-89.809998,-73.570000,0.000000,0.000000
44028928.000000,15.627523,-1.981257,-1.887937,44029440.000000,-13.790000,-22.260000,-100.590004,0.000000,0.000000
44049920.000000,12.870994,-2.868994,-2.021935,44049408.000000,-19.740000,40.950001,-123.480003,0.000000,0.000000
44068864.000000,8.451449,-11.136196,-7.362715,44070400.000000,-23.309999,110.809998,-122.919998,0.000000,0.000000
44089088.000000,4.701896,-38.220554,-16.421942,44089344.000000,4.970000,176.190002,-120.540001,0.000000,0.000000
44109056.000000,-4.192225,-66.336220,-23.454447,44109568.000000,45.150002,271.809998,-130.130005,0.000000,0.000000
44129024.000000,-5.113462,-52.122856,-26.143980,44129536.000000,65.940002,334.880005,-246.750000,0.000000,0.000000
44149760.000000,-13.287343,-35.717663,-19.659430,44149504.000000,197.259995,328.299988,-341.529999,0.000000,0.000000
44168960.000000,-15.129817,-23.234308,-9.865608,44170240.000000,105.629997,282.029999,-461.790009,3897259520.000000,1010.032166
44188928.000000,-12.057433,-18.867407,-5.137390,44189440.000000,-11.060000,246.610001,-452.269989,0.000000,0.000000
44208896.000000,-16.546368,-12.794422,-4.465007,44209408.000000,-20.090000,237.089996,-401.380005,0.000000,0.000000
44228864.000000,-18.506090,-4.924429,-3.239882,44229376.000000,13.650000,245.139999,-312.760010,0.000000,0.000000
44249856.000000,-12.323036,-0.169890,0.830309,44249344.000000,26.460001,224.559998,-222.600006,0.000000,0.000000
44268800.000000,-10.315458,1.469193,5.460421,44270336.000000,-42.349998,237.160004,-104.580002,0.000000,0.000000
44288768.000000,-10.064213,2.907279,7.063612,44289280.000000,-97.650002,253.820007,-62.930000,0.000000,0.000000
44308736.000000,-11.136196,3.993621,4.855037,44309248.000000,-68.739998,249.199997,-17.150000,0.000000,0.000000
44328960.000000,-11.169697,6.817152,1.598405,44329216.000000,-12.880000,202.720001,40.950001,0.000000,0.000000
44351744.000000,-8.779266,7.381857,1.191626,44349440.000000,-41.650002,154.210007,99.050003,0.000000,0.000000
44368896.000000,-8.671589,4.759324,0.454636,44372224.000000,-125.790001,115.290001,115.639999,0.000000,0.000000
44388864.000000,-10.825130,0.681954,-0.954736,44389376.000000,-177.589996,56.560001,77.209999,0.000000,0.000000
44408832.000000,-10.461421,2.108077,-1.148555,44409344.000000,-157.710007,-35.840000,94.779999,0.000000,0.000000
44428800.000000,-8.946764,0.643669,-5.888737,44429312.000000,-69.650002,-164.779999,181.020004,0.000000,0.000000
44449792.000000,-15.029318,-10.382458,-15.919449,44449280.000000,11.340000,-246.960007,223.160004,0.000000,0.000000
44468736.000000,-23.743979,-34.896923,-23.985653,44470272.000000,-48.509998,-295.399994,215.880005,0.000000,0.000000
44488704.000000,-14.282759,-48.933228,-28.893333,44489216.000000,-101.849998,-380.869995,211.119995,0.000000,0.000000
44508672.000000,-7.496714,-41.022556,-22.494925,44509184.000000,-203.699997,-378.350006,234.710007,0.000000,0.000000
44528640.000000,-2.450250,-30.032318,-12.981063,44529152.000000,-200.199997,-317.309998,201.320007,0.000000,0.000000
44549632.000000,0.351745,-27.110680,-4.326223,44549120.000000,-216.930008,-232.050003,194.600006,0.000000,0.000000
44568832.000000,3.735196,-21.899113,-3.354738,44570112.000000,-211.470001,-214.339996,189.419998,0.000000,0.000000
44588800.000000,8.671589,-13.634303,-3.670590,44589312.000000,-67.129997,-226.449997,166.460007,0.000000,0.000000
44608768.000000,7.695317,-8.047063,-3.371487,44609280.000000,18.620001,-217.490005,149.940002,0.000000,0.000000
44628736.000000,5.544170,-5.977271,-3.148954,44629248.000000,-13.510000,-183.680008,101.849998,0.000000,0.000000
44649472.000000,6.750153,-5.680561,-1.529014,44649216.000000,-93.309998,-165.270004,86.239998,0.000000,0.000000
44668672.000000,12.067005,-6.745367,0.684347,44669952.000000,-154.419998,-203.279999,72.800003,0.000000,0.000000
44688640.000000,19.451256,-7.432107,2.313859,44689152.000000,-153.720001,-233.869995,47.180000,0.000000,0.000000
44708608.000000,17.474783,-5.960521,0.368495,44709120.000000,-52.990002,-195.440002,26.950001,0.000000,0.000000
44728576.000000,16.340586,-5.419744,-1.483550,44729088.000000,80.010002,-118.580002,-25.270000,0.000000,0.000000
44749568.000000,16.223339,-9.456435,-1.945365,44749056.000000,72.379997,-60.549999,-78.470001,0.000000,0.000000
44768512.000000,13.993226,-16.340586,-5.807381,44770048.000000,-32.410000,10.850000,-107.449997,0.000000,0.000000
44788736.000000,10.549955,-20.506491,-13.189239,44788992.000000,-38.150002,94.290001,-167.229996,0.000000,0.000000
44808704.000000,7.479963,-30.195030,-20.149961,44809216.000000,37.450001,189.490005,-236.949997,0.000000,0.000000
44828672.000000,3.026921,-43.980083,-23.461624,44829184.000000,61.250000,270.130005,-327.320007,0.000000,0.000000
44849408.000000,-0.935594,-43.372307,-24.040689,44849152.000000,-12.950000,316.119995,-348.809998,0.000000,0.000000
44868608.000000,-2.383251,-34.822750,-23.866013,44869888.000000,75.739998,355.390015,-380.799988,0.000000,0.000000
44888576.000000,-6.058627,-31.814970,-19.200008,44889088.000000,162.259995,369.739990,-417.899994,0.000000,0.000000
44908544.000000,-12.153147,-29.800215,-13.840086,44909056.000000,116.129997,393.679993,-430.080017,0.000000,0.000000
44928512.000000,-13.234701,-22.337000,-14.900107,44929024.000000,78.050003,417.480011,-395.779999,0.000000,0.000000
44949504.000000,-27.438496,-5.084748,-11.942577,44969984.000000,241.919998,361.130005,-167.789993,0.000000,0.000000
44968448.000000,-12.425928,4.634897,-4.517649,0.000000,0.000000,0.000000,0.000000,0.000000,0.000000
44988416.000000,-12.210573,4.912465,-0.476172,44988928.000000,123.480003,202.930008,-144.830002,0.000000,0.000000
45008384.000000,-18.671194,5.333601,1.536192,45008896.000000,-69.370003,208.880005,-160.440002,0.000000,0.000000
45028352.000000,-15.261423,7.109076,3.041277,45028864.000000,-108.150002,229.460007,-64.959999,0.000000,0.000000
45049344.000000,-12.789637,8.822337,2.890530,45048832.000000,-108.080002,116.480003,-18.620001,0.000000,0.000000
45068544.000000,-12.705888,8.611769,3.261417,45069824.000000,-96.459999,25.270000,17.920000,0.000000,0.000000
45088512.000000,-10.432706,5.599205,2.086541,45089024.000000,-133.770004,-22.400000,80.570000,0.000000,0.000000
45108480.000000,-8.271988,3.259024,-0.074178,45108992.000000,-165.690002,-97.790001,128.449997,0.000000,0.000000
45128448.000000,-8.853443,2.589034,-2.155933,45128960.000000,-149.869995,-144.130005,158.479996,0.000000,0.000000
45149184.000000,-11.318050,0.765703,-4.299902,45169664.000000,-61.599998,-241.919998,306.459991,3898258944.000000,1010.035889
45168384.000000,-12.370893,-3.919443,-12.799208,0.000000,0.000000,0.000000,0.000000,0.000000,0.000000
45188352.000000,-21.786650,-27.955349,-18.350555,45188864.000000,-113.540001,-246.119995,340.549988,0.000000,0.000000
45208320.000000,-11.337193,-45.712482,-23.253452,45208832.000000,-125.440002,-306.670013,278.670013,0.000000,0.000000
45228288.000000,-5.383851,-43.657051,-27.912277,45228800.000000,-89.320000,-332.290009,290.290009,0.000000,0.000000
45249280.000000,-7.992027,-38.244484,-18.068203,45248768.000000,-80.989998,-277.200012,282.519989,0.000000,0.000000
45268224.000000,-2.127219,-26.601009,-8.224132,45269760.000000,-238.070007,-173.600006,170.449997,0.000000,0.000000
45288192.000000,0.890130,-24.579073,-1.636691,45288704.000000,-244.720001,-159.529999,159.600006,0.000000,0.000000
45308416.000000,4.800002,-19.980068,-0.940379,45308672.000000,-212.589996,-181.649994,162.820007,0.000000,0.000000
45328384.000000,8.987441,-12.698709,-1.136591,45328896.000000,-32.900002,-204.750000,128.380005,0.000000,0.000000
45351168.000000,7.539784,-8.233703,-2.031506,45348864.000000,51.730000,-183.680008,94.639999,0.000000,0.000000
45368320.000000,8.310273,-5.362316,-1.993221,45371648.000000,23.170000,-139.580002,47.040001,0.000000,0.000000
45388288.000000,14.773287,-5.067998,-1.670190,45388800.000000,-49.490002,-152.600006,39.759998,0.000000,0.000000
45408256.000000,25.397417,-7.994420,0.282353,45408768.000000,-121.870003,-235.619995,13.440001,0.000000,0.000000
45428224.000000,20.633310,-6.872187,2.330609,45428736.000000,-135.100006,-226.940002,-15.610000,0.000000,0.000000
45449216.000000,18.008383,-6.948757,-0.784846,45448704.000000,-72.660004,-88.760002,-51.660000,0.000000,0.000000
45468160.000000,14.955141,-9.920642,-2.356930,45469696.000000,-13.580000,-29.750000,-121.449997,0.000000,0.000000
45488128.000000,12.878171,-21.980469,-6.005985,45488640.000000,-105.910004,42.490002,-149.240005,0.000000,0.000000
45508096.000000,9.561719,-40.828732,-12.461821,45508608.000000,-115.080002,124.389999,-148.470001,0.000000,0.000000
45528064.000000,1.397408,-39.371506,-23.042881,45528576.000000,101.570000,217.559998,-215.880005,0.000000,0.000000
45549056.000000,-1.153341,-43.858044,-24.885355,45548544.000000,248.639999,310.100006,-391.440002,0.000000,0.000000
45568256.000000,-3.256632,-33.695728,-22.640886,45569536.000000,209.789993,333.269989,-430.989990,0.000000,0.000000
45588224.000000,-7.008578,-24.512075,-16.027126,45588736.000000,184.729996,324.380005,-475.720001,0.000000,0.000000
45608192.000000,-14.782858,-20.073389,-11.325230,45608704.000000,81.480003,369.390015,-473.339996,0.000000,0.000000
45628160.000000,-19.750359,-11.531013,-5.369494,45628672.000000,30.240000,394.239990,-434.839996,0.000000,0.000000
45649152.000000,-8.523234,-4.417150,-2.191825,45669632.000000,104.230003,242.199997,-188.720001,0.000000,0.000000
45668096.000000,-4.278367,-0.863809,-1.782653,0.000000,0.000000,0.000000,0.000000,0.000000,0.000000
45688064.000000,-4.735396,2.490928,-0.672383,45688576.000000,98.910004,181.440002,-118.790001,0.000000,0.000000
45708032.000000,-7.657032,3.641876,1.081556,45708544.000000,38.920002,168.210007,-63.840000,0.000000,0.000000
45728000.000000,-10.080962,1.887937,1.895115,45728512.000000,-56.840000,197.050003,3.150000,0.000000,0.000000
45748992.000000,-8.374879,0.739382,1.548156,45748480.000000,-117.040001,158.270004,18.760000,0.000000,0.000000
45767936.000000,-9.305687,2.751746,3.366701,45769472.000000,-117.320000,103.949997,57.330002,0.000000,0.000000
45788160.000000,-9.387043,3.385844,4.522435,45788416.000000,-103.529999,67.340004,125.510002,0.000000,0.000000
45808128.000000,-7.365108,1.696511,2.952743,45808640.000000,-115.779999,19.110001,149.800003,0.000000,0.000000
45828096.000000,-8.032705,1.720440,0.495314,45828608.000000,-123.270004,-32.619999,143.779999,0.000000,0.000000
45848832.000000,-10.956735,2.624927,-1.830509,45848576.000000,-105.559998,-97.370003,164.430008,0.000000,0.000000
45868032.000000,-12.660425,2.163112,-3.644269,45869312.000000,-68.040001,-143.779999,198.029999,0.000000,0.000000
45888000.000000,-15.381063,-0.937986,-7.302894,45888512.000000,-93.169998,-248.360001,246.190002,0.000000,0.000000
45908224.000000,-26.493334,-15.273388,-18.879372,45908480.000000,-163.800003,-310.380005,252.910004,0.000000,0.000000
45927936.000000,-27.706493,-48.871010,-28.608587,45928704.000000,-211.680008,-413.700012,210.770004,0.000000,0.000000
45948928.000000,-17.924635,-49.531429,-33.571301,45948416.000000,-226.729996,-503.790009,180.529999,0.000000,0.000000
45967872.000000,-9.056834,-44.566319,-22.337000,45969408.000000,-238.839996,-437.290009,286.089996,0.000000,0.000000
45987840.000000,-1.055235,-41.745182,-8.197811,45988352.000000,-282.869995,-316.679993,295.049988,0.000000,0.000000
46007808.000000,0.997807,-36.583866,-10.222138,46008320.000000,-279.510010,-208.529999,348.179993,0.000000,0.000000
46028032.000000,4.316652,-22.853849,-14.289936,46028288.000000,70.070000,-270.829987,287.700012,0.000000,0.000000
46048768.000000,15.280564,-13.363914,-12.665211,46048512.000000,284.130005,-318.500000,198.660004,0.000000,0.000000
46067968.000000,19.243080,-6.125626,-8.882158,46069248.000000,174.160004,-335.649994,173.180008,0.000000,0.000000
46087936.000000,17.857635,-5.182854,-6.716653,46088448.000000,-25.690001,-283.290009,64.680000,0.000000,0.000000
46107904.000000,20.946770,-7.913064,-4.228118,46108416.000000,-178.289993,-171.149994,51.939999,0.000000,0.000000
46127872.000000,22.016361,-6.984650,-2.261217,46128384.000000,-263.690002,-185.779999,8.190000,0.000000,0.000000
46148864.000000,20.135603,-2.445465,-3.055635,46169344.000000,-38.990002,-114.660004,-150.009995,3899258368.000000,1010.035767
46167808.000000,17.867207,-0.200997,-6.317052,0.000000,0.000000,0.000000,0.000000,0.000000,0.000000
46187776.000000,13.981262,-1.969293,-8.525627,46188288.000000,12.390000,-61.670002,-202.229996,0.000000,0.000000
46207744.000000,12.763316,-9.422935,-9.676575,46208256.000000,-23.520000,35.910000,-203.279999,0.000000,0.000000
46227712.000000,9.949356,-20.204992,-15.390635,46228224.000000,-30.309999,136.289993,-192.570007,0.000000,0.000000
46248704.000000,3.335595,-33.205200,-22.052256,46248192.000000,7.350000,265.369995,-212.380005,0.000000,0.000000
46267904.000000,-1.119841,-47.629131,-20.233707,46269184.000000,-49.490002,390.179993,-288.190002,0.000000,0.000000
46287872.000000,-1.883151,-44.269611,-22.411177,46288384.000000,-53.340000,416.779999,-310.940002,0.000000,0.000000
46307840.000000,-4.634897,-34.765320,-17.383856,46308352.000000,100.730003,441.279999,-350.070007,0.000000,0.000000
46327808.000000,-7.549356,-28.328627,-12.691531,46328320.000000,75.949997,455.630005,-377.230011,0.000000,0.000000
46350592.000000,-17.479570,-24.411577,-8.702696,46348288.000000,34.720001,462.839996,-358.190002,0.000000,0.000000
46367744.000000,-20.116461,-14.778071,-3.110669,46371072.000000,43.889999,497.209991,-309.890015,0.000000,0.000000
46387712.000000,-7.805387,-6.446264,-1.730011,46388224.000000,85.050003,354.059998,-197.259995,0.000000,0.000000
46407680.000000,-8.733803,-1.600798,-0.404387,46408192.000000,108.080002,265.929993,-102.269997,0.000000,0.000000
46427648.000000,-14.325829,3.560520,1.074377,46428160.000000,101.360001,210.839996,-114.870003,0.000000,0.000000
46448640.000000,-13.660624,5.134997,0.064606,46448128.000000,44.660000,184.100006,-57.750000,0.000000,0.000000
46467584.000000,-11.428121,5.749953,-0.782453,46469120.000000,-12.880000,119.910004,4.200000,0.000000,0.000000
46487552.000000,-10.609775,6.850651,0.069392,46488064.000000,-63.560001,44.029999,18.059999,0.000000,0.000000
46507776.000000,-10.578669,6.704689,1.902294,46508032.000000,-108.570000,-2.800000,69.300003,0.000000,0.000000
46527744.000000,-9.930215,4.634897,1.371087,46528256.000000,-146.229996,-34.720001,99.260002,0.000000,0.000000
46548480.000000,-8.379664,3.440879,-0.691526,46548224.000000,-153.860001,-72.169998,134.889999,0.000000,0.000000
46567680.000000,-7.829315,2.158326,-2.627320,46568960.000000,-112.770004,-144.550003,183.960007,0.000000,0.000000
46587648.000000,-10.657632,-4.086941,-6.101698,46588160.000000,-87.150002,-203.070007,249.270004,0.000000,0.000000
46607616.000000,-18.934404,-22.473389,-12.191431,46608128.000000,-121.449997,-223.440002,265.649994,0.000000,0.000000
46627584.000000,-11.009377,-42.049072,-17.601604,46628096.000000,-139.369995,-296.869995,218.889999,0.000000,0.000000
46648576.000000,-3.802195,-39.079578,-23.239094,46648064.000000,-34.160000,-349.019989,249.550003,0.000000,0.000000
46667520.000000,-5.989235,-33.767513,-19.901108,46669056.000000,33.250000,-318.010010,295.750000,0.000000,0.000000
46687488.000000,-3.816552,-24.720249,-14.096118,46688000.000000,-133.699997,-226.449997,221.970001,0.000000,0.000000
46707456.000000,1.737189,-21.978077,-6.161518,46707968.000000,-274.190002,-189.839996,178.570007,0.000000,0.000000
46727424.000000,3.632305,-23.904299,-1.801795,46727936.000000,-400.260010,-186.059998,220.779999,0.000000,0.000000
46748416.000000,6.831509,-19.987249,0.985843,46747904.000000,-312.130005,-217.419998,181.720001,0.000000,0.000000
46767616.000000,5.637490,-14.584253,-0.983450,46768896.000000,-45.570000,-184.449997,162.119995,0.000000,0.000000
46787584.000000,5.809773,-10.727024,-2.036292,46788096.000000,149.100006,-133.770004,110.739998,0.000000,0.000000
46807552.000000,8.276773,-7.453642,-1.763510,46808064.000000,212.940002,-136.149994,89.809998,0.000000,0.000000
46827520.000000,13.141381,-5.551349,-0.732204,46828032.000000,187.669998,-170.029999,78.470001,0.000000,0.000000
46848256.000000,15.931413,-5.599205,-0.090927,46848000.000000,128.520004,-206.009995,48.230000,0.000000,0.000000
46867456.000000,14.419148,-3.972085,-1.289732,46868736.000000,62.580002,-177.940002,2.800000,0.000000,0.000000
46887424.000000,16.017555,-1.909473,-3.548556,46887936.000000,5.810000,-110.320000,-30.730000,0.000000,0.000000
46907392.000000,15.381063,-1.631905,-3.438486,46907904.000000,-49.349998,-83.370003,-66.290001,0.000000,0.000000
46927360.000000,10.092925,-6.415157,-6.180661,46927872.000000,-137.619995,-16.660000,-84.070000,0.000000,0.000000
46948352.000000,6.264410,-19.862822,-13.122239,46947840.000000,-209.720001,88.830002,-89.389999,0.000000,0.000000
46967296.000000,1.119841,-39.302113,-10.798808,46968832.000000,-199.080002,171.220001,-114.029999,0.000000,0.000000
46987264.000000,0.227318,-42.051468,-22.052256,46987776.000000,-70.980003,205.520004,-178.500000,0.000000,0.000000
47007488.000000,-2.313859,-40.910088,-25.162924,47007744.000000,246.680008,262.079987,-260.959991,0.000000,0.000000
47027456.000000,-8.961121,-35.777485,-20.755344,47027968.000000,288.890015,321.299988,-316.329987,0.000000,0.000000
47048192.000000,-13.210773,-27.424143,-14.481362,47047936.000000,240.449997,373.170013,-395.500000,0.000000,0.000000
47067392.000000,-17.235500,-23.648266,-8.303094,47068672.000000,97.090004,391.720001,-391.929993,0.000000,0.000000
47087360.000000,-18.912870,-18.075382,-3.261417,47087872.000000,10.080000,325.290009,-374.360016,0.000000,0.000000
47107328.000000,-17.596817,-12.818351,-2.976671,47107840.000000,-18.690001,303.029999,-326.480011,0.000000,0.000000
47127296.000000,-13.083955,-3.538985,-1.878366,47127808.000000,61.950001,298.339996,-205.940002,0.000000,0.000000
47148288.000000,-8.274381,4.383651,4.376472,47147776.000000,95.340004,249.270004,-138.880005,0.000000,0.000000
47167232.000000,-9.052048,4.639683,5.137390,47168768.000000,36.189999,210.350006,-89.879997,3900257792.000000,1010.037964
47187200.000000,-13.428520,4.122833,4.302295,47187712.000000,-40.389999,191.309998,-34.860001,0.000000,0.000000
47207168.000000,-12.801601,6.209375,0.969093,47207680.000000,-22.049999,142.240005,1.050000,0.000000,0.000000
47227136.000000,-11.322837,7.843673,-0.882952,47227648.000000,-11.830000,67.129997,87.570000,0.000000,0.000000
47248128.000000,-10.229317,6.788438,-0.923629,47247616.000000,-46.200001,1.050000,129.779999,0.000000,0.000000
47267328.000000,-9.396614,5.005785,-0.117248,47268608.000000,-111.650002,-43.820000,131.180008,0.000000,0.000000
47287296.000000,-8.425128,3.081956,-0.612563,47287808.000000,-150.009995,-101.010002,137.479996,0.000000,0.000000
47307264.000000,-9.602397,1.107877,-2.794817,47307776.000000,-107.660004,-173.389999,182.979996,0.000000,0.000000
47327232.000000,-10.171888,-3.282953,-6.458229,47327744.000000,-38.990002,-216.369995,237.580002,0.000000,0.000000
47350016.000000,-16.721045,-17.252251,-11.990433,47347712.000000,-17.639999,-215.389999,288.329987,0.000000,0.000000
47367168.000000,-12.921242,-39.225540,-17.979670,47370496.000000,-61.320000,-244.930008,238.210007,0.000000,0.000000
47387136.000000,-4.436293,-41.283367,-18.178272,47387648.000000,-126.559998,-285.110016,207.270004,0.000000,0.000000
47407104.000000,-6.360123,-37.775490,-15.168103,47407616.000000,-148.330002,-259.000000,251.160004,0.000000,0.000000
47427072.000000,-3.505485,-26.510082,-10.095319,47427584.000000,-156.800003,-181.649994,177.029999,0.000000,0.000000
47448064.000000,1.409373,-21.511477,-3.460021,47447552.000000,-152.389999,-118.370003,135.589996,0.000000,0.000000
47467008.000000,4.764110,-20.977875,0.337388,47468544.000000,-201.039993,-113.540001,150.919998,0.000000,0.000000
47487232.000000,7.836494,-15.201601,1.416551,47487488.000000,-148.050003,-127.120003,117.669998,0.000000,0.000000
47507200.000000,5.371887,-9.875179,1.584049,47507712.000000,0.700000,-77.840004,90.300003,0.000000,0.000000
47527168.000000,4.017549,-7.446464,1.189233,47527680.000000,77.840004,-59.849998,12.390000,0.000000,0.000000
47547904.000000,5.970093,-5.020142,1.155733,47547648.000000,96.040001,-91.279999,-15.190001,0.000000,0.000000
47567104.000000,10.284351,-3.981657,4.012764,47568384.000000,68.669998,-150.570007,-5.460000,0.000000,0.000000
47587072.000000,15.984055,-4.871787,3.696911,47587584.000000,11.200000,-194.039993,-19.879999,0.000000,0.000000
47607040.000000,15.067604,-3.536592,1.462015,47607552.000000,10.850000,-158.690002,-41.160000,0.000000,0.000000
47627008.000000,13.670196,-1.794617,1.048056,47627520.000000,59.570000,-94.849998,-93.099998,0.000000,0.000000
47648000.000000,11.779866,-5.809773,-1.294517,47647488.000000,27.020000,-30.940001,-133.490005,0.000000,0.000000
47666944.000000,12.401999,-16.649261,-7.604390,47668480.000000,-51.660000,35.490002,-124.389999,0.000000,0.000000
47686912.000000,7.527820,-41.202011,-13.852050,47687424.000000,-112.000000,113.470001,-131.180008,0.000000,0.000000
47706880.000000,0.595813,-43.673801,-18.843477,47707392.000000,-75.809998,238.839996,-192.850006,0.000000,0.000000
47726848.000000,1.828116,-38.041092,-19.384256,47727360.000000,106.820000,290.149994,-350.420013,0.000000,0.000000
47747840.000000,-1.883151,-33.616764,-18.587446,47747328.000000,196.000000,284.970001,-371.000000,0.000000,0.000000
47767040.000000,-5.860023,-23.691336,-14.041083,47768320.000000,185.919998,297.220001,-447.720001,0.000000,0.000000
47787008.000000,-10.667203,-18.336199,-9.829715,47787520.000000,130.410004,323.470001,-454.649994,0.000000,0.000000
47806976.000000,-14.012369,-12.622139,-4.539185,47807488.000000,59.920002,302.679993,-436.100006,0.000000,0.000000
47826944.000000,-10.755738,-7.491928,-3.421736,47827456.000000,21.910000,215.250000,-394.589996,0.000000,0.000000
47847936.000000,-7.927422,-2.165504,-1.725225,47847424.000000,24.500000,183.610001,-245.770004,0.000000,0.000000
47866880.000000,-5.276174,-0.136391,0.698704,47868416.000000,-9.940000,170.309998,-152.320007,0.000000,0.000000
47886848.000000,-6.297909,-0.392423,3.294917,47887360.000000,-63.910000,173.529999,-74.199997,0.000000,0.000000
47906816.000000,-8.702696,-0.215354,3.996014,47907328.000000,-115.639999,175.279999,-27.719999,0.000000,0.000000
47926784.000000,-8.456236,1.170090,4.398008,47927296.000000,-95.129997,175.630005,30.240000,0.000000,0.000000
47947776.000000,-8.477771,1.770689,3.792624,47947264.000000,-69.300003,155.610001,104.720001,0.000000,0.000000
47966976.000000,-10.657632,1.191626,1.342373,47968256.000000,-72.519997,115.779999,132.509995,0.000000,0.000000
47986944.000000,-11.542977,1.148555,1.337588,47987456.000000,-84.489998,74.620003,140.000000,0.000000,0.000000
48006912.000000,-9.602397,0.679562,1.311267,48007424.000000,-116.270004,24.150000,161.210007,0.000000,0.000000
48026880.000000,-8.504091,0.181855,0.385244,48027392.000000,-128.869995,-34.020000,174.440002,0.000000,0.000000
48047616.000000,-10.018748,-0.373280,-1.179662,48047360.000000,-112.139999,-105.139999,183.960007,0.000000,0.000000
48066816.000000,-10.851451,-3.364309,-3.969693,48068096.000000,-96.879997,-159.949997,208.809998,0.000000,0.000000
48086784.000000,-14.880964,-14.579469,-13.249060,48087296.000000,-88.269997,-230.440002,233.240005,0.000000,0.000000
48106752.000000,-18.111275,-37.421352,-18.269201,48107264.000000,-94.709999,-287.350006,226.660004,0.000000,0.000000
48126720.000000,-9.332008,-43.061237,-20.327030,48127232.000000,-153.160004,-332.220001,205.729996,0.000000,0.000000
48147712.000000,-5.280960,-35.112278,-17.723637,48168192.000000,-137.130005,-271.529999,232.050003,3901257216.000000,1010.039856
48166656.000000,-1.081556,-28.570303,-10.727024,0.000000,0.000000,0.000000,0.000000,0.000000,0.000000
48186624.000000,2.677568,-26.196623,-3.103491,48187136.000000,-194.110001,-210.910004,219.660004,0.000000,0.000000
48206848.000000,5.608776,-23.341984,-2.632105,48207104.000000,-207.410004,-197.119995,222.809998,0.000000,0.000000
48226816.000000,8.264810,-16.359728,-3.881158,48227328.000000,-94.779999,-193.690002,188.930008,0.000000,0.000000
48247552.000000,7.489535,-12.055040,-3.333202,48247296.000000,2.800000,-161.910004,158.830002,0.000000,0.000000
48266752.000000,8.769694,-11.004591,-0.856631,48268032.000000,-12.040000,-142.940002,100.660004,0.000000,0.000000
48286720.000000,13.234701,-10.985448,2.249253,48287232.000000,-89.809998,-161.699997,77.209999,0.000000,0.000000
48306688.000000,18.843477,-7.798209,4.256832,48307200.000000,-122.080002,-194.320007,39.130001,0.000000,0.000000
48326656.000000,16.144375,-8.049455,3.558127,48327168.000000,-71.120003,-170.309998,-5.040000,0.000000,0.000000
48349440.000000,14.847464,-7.446464,0.323031,48347136.000000,32.549999,-129.009995,-92.470001,0.000000,0.000000
48366592.000000,15.613168,-4.783253,-2.033899,48369920.000000,85.050003,-101.639999,-154.770004,0.000000,0.000000
48386560.000000,13.081561,-10.016356,-3.785445,48387072.000000,47.250000,-56.630001,-187.250000,0.000000,0.000000
48406528.000000,10.983055,-22.296322,-8.420342,48407040.000000,-58.799999,38.639999,-218.330002,0.000000,0.000000
48426496.000000,7.456036,-33.102310,-15.802199,48427008.000000,-95.129997,119.349998,-272.160004,0.000000,0.000000
48447488.000000,2.993421,-39.632324,-20.975483,48446976.000000,21.350000,201.600006,-350.489990,0.000000,0.000000
48466688.000000,3.383451,-37.481174,-21.523441,48467968.000000,81.340004,247.309998,-417.059998,0.000000,0.000000
48486656.000000,0.473779,-35.514275,-16.936398,48487168.000000,79.099998,275.170013,-444.989990,0.000000,0.000000
48506624.000000,-2.737389,-28.220951,-13.832907,48507136.000000,66.779999,294.070007,-472.149994,0.000000,0.000000
48526592.000000,-6.929615,-21.305693,-9.753145,48527104.000000,51.099998,346.640015,-456.260010,0.000000,0.000000
48547328.000000,-11.432907,-15.263817,-3.890730,48547072.000000,28.210001,397.670013,-440.929993,0.000000,0.000000
48566528.000000,-11.014162,-7.824530,-0.937986,48567808.000000,-27.790001,407.260010,-363.790009,0.000000,0.000000
48586496.000000,-6.396015,-1.636691,0.538385,48587008.000000,-6.790000,294.140015,-283.149994,0.000000,0.000000
48606464.000000,-7.592427,2.543570,2.371287,48606976.000000,0.070000,234.990005,-196.699997,0.000000,0.000000
48626432.000000,-12.191431,3.000600,3.098706,48626944.000000,-22.680000,249.619995,-129.779999,0.000000,0.000000
48647424.000000,-13.842479,3.577270,1.311267,48646912.000000,-45.220001,237.649994,-69.930000,0.000000,0.000000
48666368.000000,-14.943177,5.603990,-1.390230,48667904.000000,-46.130001,145.880005,-15.050000,0.000000,0.000000
48686336.000000,-15.349957,6.618547,-3.677768,48686848.000000,-11.830000,52.570000,49.840000,0.000000,0.000000
48706560.000000,-11.306087,6.838687,-1.830509,48706816.000000,-43.889999,-24.219999,91.279999,0.000000,0.000000
48726528.000000,-8.427521,4.139583,-2.244468,48727040.000000,-163.100006,-85.050003,118.020004,0.000000,0.000000
48747264.000000,-8.688338,1.021735,-3.402594,48747008.000000,-234.360001,-112.070000,127.540001,0.000000,0.000000
48766464.000000,-8.736196,-1.009771,-4.199404,48767744.000000,-248.500000,-143.220001,146.930008,0.000000,0.000000
48786432.000000,-8.999406,-7.197611,-2.419144,48786944.000000,-246.050003,-178.919998,221.199997,0.000000,0.000000
48806400.000000,-12.026326,-23.004595,-11.298907,48806912.000000,-195.509995,-223.020004,281.119995,0.000000,0.000000
48826368.000000,-11.059627,-37.923847,-20.798416,48826880.000000,-112.699997,-261.519989,315.839996,0.000000,0.000000
48847360.000000,-7.977671,-46.975891,-23.940191,48846848.000000,-35.279999,-265.579987,374.850006,0.000000,0.000000
48866304.000000,-5.309673,-43.147377,-15.902699,48867840.000000,-81.970001,-263.200012,351.470001,0.000000,0.000000
48886272.000000,-2.550749,-33.530624,-7.802995,48886784.000000,-265.230011,-206.009995,299.529999,0.000000,0.000000
48906240.000000,2.187040,-27.613173,-5.170890,48906752.000000,-208.389999,-229.669998,215.809998,0.000000,0.000000
48926208.000000,6.015556,-22.313070,-4.553542,48926720.000000,-132.440002,-235.270004,234.080002,0.000000,0.000000
48947200.000000,6.139983,-15.144175,-3.979264,48946688.000000,-41.230000,-231.839996,187.389999,0.000000,0.000000
48966400.000000,5.108676,-10.382458,-3.156133,48967680.000000,-10.360000,-183.889999,127.610001,0.000000,0.000000
48986368.000000,6.532406,-8.188239,-2.653640,48986880.000000,-6.090000,-169.050003,91.840004,0.000000,0.000000
49006336.000000,10.913664,-7.061220,-0.468993,49006848.000000,-14.350000,-188.020004,80.849998,0.000000,0.000000
49026304.000000,17.139788,-6.668797,-0.368495,49026816.000000,-25.969999,-233.240005,70.279999,0.000000,0.000000
49047040.000000,18.300308,-5.630312,-1.782653,49046784.000000,-17.639999,-248.149994,54.670002,0.000000,0.000000
49066240.000000,18.989441,-5.414958,-2.273181,49067520.000000,16.520000,-208.809998,17.219999,0.000000,0.000000
49086208.000000,19.862822,-8.305488,-1.555335,49086720.000000,7.280000,-155.050003,-38.500000,0.000000,0.000000
49106176.000000,16.015162,-15.744773,-5.891129,49106688.000000,-36.889999,-94.150002,-75.389999,0.000000,0.000000
49126144.000000,14.191832,-31.276583,-15.467206,49126656.000000,-72.870003,-0.420000,-111.510002,0.000000,0.000000
49147136.000000,10.274779,-42.967915,-12.768101,49167616.000000,-200.270004,201.880005,-307.860016,3902256640.000000,1010.038757
49166080.000000,2.373680,-39.893139,-17.276178,0.000000,0.000000,0.000000,0.000000,0.000000,0.000000
49186048.000000,-1.246661,-35.404202,-23.028526,49186560.000000,40.110001,305.059998,-448.350006,0.000000,0.000000
49206272.000000,-2.770889,-29.692535,-21.547369,49206528.000000,152.669998,374.360016,-487.690002,0.000000,0.000000
49226240.000000,-6.223732,-24.581467,-15.565310,49226752.000000,152.039993,369.040009,-502.739990,0.000000,0.000000
49246976.000000,-12.528819,-19.563717,-11.995219,49246720.000000,93.590004,389.760010,-476.140015,0.000000,0.000000
49266176.000000,-28.850262,-10.585848,-8.176274,49267456.000000,99.750000,476.070007,-405.790009,0.000000,0.000000
49286144.000000,-9.377472,-1.658226,-4.235296,49286656.000000,180.110001,381.290009,-345.660004,0.000000,0.000000
49306112.000000,-3.739982,1.698904,-1.576870,49306624.000000,196.559998,256.480011,-160.720001,0.000000,0.000000
49326080.000000,-3.550949,3.840480,0.839881,49326592.000000,132.440002,203.839996,-99.750000,0.000000,0.000000
49348864.000000,-8.662018,3.890730,2.567499,49346560.000000,55.160000,189.839996,-84.489998,0.000000,0.000000
49366016.000000,-12.940384,3.139383,0.667598,49369344.000000,-27.020000,202.789993,-24.710001,0.000000,0.000000
49385984.000000,-9.004191,4.479364,-1.866402,49386496.000000,-43.889999,109.480003,29.400000,0.000000,0.000000
49405952.000000,-8.944371,6.415157,-2.928815,49406464.000000,-62.650002,27.860001,94.080002,0.000000,0.000000
49425920.000000,-11.298907,4.888536,-1.040878,49426432.000000,-150.639999,-20.020000,131.740005,0.000000,0.000000
49446912.000000,-10.695917,1.165305,2.065006,49446400.000000,-284.690002,-41.090000,139.440002,0.000000,0.000000
49466112.000000,-9.446864,-1.995614,1.672583,49467392.000000,-328.019989,-94.080002,135.520004,0.000000,0.000000
49486080.000000,-12.021541,-1.505085,-1.170090,49486592.000000,-207.199997,-140.490005,180.320007,0.000000,0.000000
49506048.000000,-12.801601,-0.655633,-4.476971,49506560.000000,-59.220001,-176.750000,257.110016,0.000000,0.000000
49526016.000000,-14.490934,-11.540584,-8.772088,49526528.000000,2.870000,-206.149994,323.959991,0.000000,0.000000
49547008.000000,-22.188644,-41.960541,-15.806986,49546496.000000,-24.570000,-259.630005,293.160004,0.000000,0.000000
49565952.000000,-10.779665,-45.257847,-19.228724,49567488.000000,-93.169998,-265.230011,262.010010,0.000000,0.000000
49585920.000000,-10.664811,-43.824543,-17.453247,49586432.000000,-136.779999,-237.649994,348.670013,0.000000,0.000000
49605888.000000,-4.620540,-35.540596,-11.018949,49606400.000000,-158.130005,-217.699997,275.519989,0.000000,0.000000
49625856.000000,0.928415,-29.974890,-3.594020,49626368.000000,-217.419998,-194.669998,248.290009,0.000000,0.000000
49646848.000000,3.929015,-26.009983,-1.785046,49646336.000000,-188.509995,-190.960007,252.000000,0.000000,0.000000
49665792.000000,6.821937,-19.456039,-3.852444,49667328.000000,-81.410004,-194.320007,211.119995,0.000000,0.000000
49686016.000000,6.252446,-12.768101,-5.077570,49686272.000000,35.700001,-174.580002,159.320007,0.000000,0.000000
49705984.000000,6.563512,-8.980263,-4.682754,49706496.000000,39.060001,-157.500000,97.930000,0.000000,0.000000
49725952.000000,8.472985,-8.236095,-3.558127,49726464.000000,-48.299999,-170.169998,78.959999,0.000000,0.000000
49746688.000000,12.555140,-8.204988,-1.107877,49746432.000000,-136.080002,-202.860001,66.779999,0.000000,0.000000
49765888.000000,16.407585,-8.200203,1.813759,49767168.000000,-177.589996,-216.089996,49.980000,0.000000,0.000000
49785856.000000,12.973885,-7.192825,2.756532,49786368.000000,-146.789993,-178.570007,17.430000,0.000000,0.000000
49805824.000000,12.026326,-4.823930,1.928615,49806336.000000,-69.370003,-117.250000,-46.900002,0.000000,0.000000
49825792.000000,11.679367,-3.376273,0.602991,49826304.000000,4.270000,-82.040001,-90.720001,0.000000,0.000000
49846784.000000,11.085947,-4.019942,-1.572084,49846272.000000,43.259998,-44.380001,-124.739998,0.000000,0.000000
49865728.000000,11.109876,-7.740781,-4.491328,49867264.000000,36.119999,5.390000,-144.479996,0.000000,0.000000
49885696.000000,8.587841,-17.654245,-9.884750,49886208.000000,18.200001,48.580002,-156.520004,0.000000,0.000000
49905920.000000,4.816752,-34.432720,-18.159132,49906176.000000,43.049999,129.919998,-179.270004,0.000000,0.000000
49925888.000000,3.591627,-44.293541,-22.102503,49926400.000000,55.720001,225.540009,-230.860001,0.000000,0.000000
49946624.000000,1.234696,-44.329433,-18.886549,49946368.000000,13.300000,268.239990,-295.470001,0.000000,0.000000
49965824.000000,-4.125226,-32.927631,-15.632310,49967104.000000,30.520000,285.459991,-360.149994,0.000000,0.000000
49985792.000000,-7.168896,-24.574289,-13.653446,49986304.000000,64.820000,363.230011,-408.309998,0.000000,0.000000
50005760.000000,-13.658232,-22.092930,-8.640482,50006272.000000,68.459999,381.779999,-386.890015,0.000000,0.000000
50025728.000000,-20.525631,-16.989040,-4.357330,50026240.000000,27.090000,344.190002,-352.450012,0.000000,0.000000
50046720.000000,-14.026726,-5.864808,-2.270789,50046208.000000,66.290001,267.540009,-272.929993,0.000000,0.000000
50065664.000000,-10.459028,0.602991,2.108077,50086144.000000,41.790001,190.050003,-69.790001,0.000000,0.000000
50085632.000000,-12.246466,4.201797,4.003192,0.000000,0.000000,0.000000,0.000000,0.000000,0.000000
50105600.000000,-14.979070,5.053641,6.350551,50106112.000000,-35.490002,193.479996,-13.510000,0.000000,0.000000
50125568.000000,-12.363714,4.694718,4.764110,50126080.000000,-65.519997,171.149994,59.220001,0.000000,0.000000
50146560.000000,-11.420943,6.573084,2.275574,50167040.000000,-25.549999,60.549999,120.050003,0.000000,0.000000
50165760.000000,-11.164910,6.139983,2.478964,0.000000,0.000000,0.000000,0.000000,3903256064.000000,1010.038391
50185728.000000,-10.588240,3.572484,1.351945,50186240.000000,-77.349998,4.620000,143.710007,0.000000,0.000000
50205696.000000,-10.248460,2.543570,-0.861416,50206208.000000,-78.610001,-66.010002,136.990005,0.000000,0.000000
50225664.000000,-8.757731,3.340380,-3.335595,50226176.000000,-20.370001,-144.619995,188.369995,0.000000,0.000000
50246656.000000,-13.493127,-2.770889,-3.888337,50246144.000000,-3.920000,-194.600006,273.769989,0.000000,0.000000
50265600.000000,-23.758337,-20.463419,-12.854243,50267136.000000,-49.139999,-223.089996,276.079987,0.000000,0.000000
50285568.000000,-18.183060,-39.632324,-18.675982,50286080.000000,-98.980003,-268.519989,243.600006,0.000000,0.000000
50305536.000000,-13.954943,-45.480381,-16.744972,50306048.000000,-157.360001,-271.179993,284.059998,0.000000,0.000000
50325504.000000,-9.597611,-35.760735,-12.598210,50326016.000000,-214.199997,-228.479996,266.630005,0.000000,0.000000
50348288.000000,-4.558327,-28.405197,-4.567898,50345984.000000,-168.279999,-150.360001,291.619995,0.000000,0.000000
50365440.000000,-0.610170,-24.406792,-0.595813,50368768.000000,-126.279999,-53.970001,304.640015,0.000000,0.000000
50385408.000000,2.203789,-19.841284,-0.327817,50385920.000000,-46.619999,10.570000,315.769989,0.000000,0.000000
50405376.000000,4.481757,-15.156138,-1.344766,50405888.000000,30.170000,14.840000,265.299988,0.000000,0.000000
50425600.000000,6.393622,-12.449856,0.607777,50425856.000000,19.530001,-2.380000,208.529999,0.000000,0.000000
50446336.000000,9.391829,-12.538391,3.565305,50446080.000000,-62.020000,-33.459999,152.320007,0.000000,0.000000
50465536.000000,12.698709,-11.844472,4.362115,50466816.000000,-105.419998,-66.779999,103.040001,0.000000,0.000000
50485504.000000,14.888142,-9.705289,4.000800,50486016.000000,-77.209999,-100.660004,49.139999,0.000000,0.000000
50505472.000000,14.538791,-8.032705,4.290331,50505984.000000,-34.369999,-112.209999,-17.080000,0.000000,0.000000
50525440.000000,13.904692,-7.305287,4.335794,50525952.000000,-24.639999,-96.110001,-92.260002,0.000000,0.000000
50546432.000000,14.641682,-7.133004,2.648855,50545920.000000,-21.350000,-70.070000,-151.759995,0.000000,0.000000
50565376.000000,13.311273,-9.875179,0.691526,50566912.000000,-31.990000,-38.920002,-201.529999,0.000000,0.000000
50585344.000000,10.911271,-18.295523,-0.385244,50585856.000000,-77.699997,29.610001,-243.040009,0.000000,0.000000
50605312.000000,5.723632,-27.237501,-8.762517,50605824.000000,-59.080002,113.750000,-267.470001,0.000000,0.000000
50625280.000000,3.448057,-37.019360,-15.804593,50625792.000000,84.070000,185.710007,-367.850006,0.000000,0.000000
50646272.000000,0.253639,-46.526043,-19.898712,50645760.000000,189.210007,213.430008,-400.329987,0.000000,0.000000
50665472.000000,-1.385444,-37.172501,-18.738194,50666752.000000,156.029999,234.990005,-391.019989,0.000000,0.000000
50685440.000000,-6.068198,-29.938995,-12.583855,50685952.000000,167.580002,243.110001,-426.649994,0.000000,0.000000
50705408.000000,-11.607583,-22.810778,-9.621540,50705920.000000,70.559998,249.619995,-427.769989,0.000000,0.000000
50725376.000000,-13.332808,-16.579868,-5.716454,50725888.000000,77.349998,250.460007,-410.200012,0.000000,0.000000
50746112.000000,-11.138590,-10.413565,-4.103691,50745856.000000,48.580002,226.729996,-324.869995,0.000000,0.000000
50765312.000000,-10.631311,-5.173282,-2.639283,50766592.000000,24.430000,217.139999,-231.070007,0.000000,0.000000
50785280.000000,-10.652846,-0.808774,0.153141,50785792.000000,24.990000,204.190002,-177.100006,0.000000,0.000000
50805248.000000,-13.785051,0.624527,3.144169,50805760.000000,-13.300000,204.960007,-107.099998,0.000000,0.000000
50825216.000000,-14.378471,2.189433,3.639483,50825728.000000,-46.619999,199.149994,-52.080002,0.000000,0.000000
50846208.000000,-11.990433,4.737789,1.208375,50845696.000000,-25.270000,159.460007,-13.160000,0.000000,0.000000
50865152.000000,-10.413565,6.422336,0.619741,50866688.000000,14.560000,107.660004,38.779999,0.000000,0.000000
50885120.000000,-9.497113,7.271788,1.490728,50885632.000000,4.060000,35.139999,60.340000,0.000000,0.000000
50905344.000000,-9.135797,6.070591,0.069392,50905600.000000,-76.860001,-26.040001,111.160004,0.000000,0.000000
50925312.000000,-11.093125,3.175276,2.584249,50925824.000000,-121.309998,-68.599998,137.199997,0.000000,0.000000
50946048.000000,-10.648061,-0.107677,-3.318845,50945792.000000,-212.729996,-162.399994,195.860001,0.000000,0.000000
50965248.000000,-10.454242,-1.593620,-5.259424,50966528.000000,-86.940002,-160.580002,181.509995,0.000000,0.000000
50985216.000000,-20.975483,-12.701102,-14.148761,50985728.000000,-87.360001,-284.480011,284.760010,0.000000,0.000000
51005184.000000,-18.317057,-42.106499,-19.640289,51005696.000000,-186.199997,-275.239990,376.880005,0.000000,0.000000
51025152.000000,-10.301102,-54.216576,-20.781666,51025664.000000,-175.559998,-374.850006,318.709991,0.000000,0.000000
51046144.000000,-5.331209,-44.176289,-18.563519,51045632.000000,-155.889999,-314.860016,366.519989,0.000000,0.000000
51065088.000000,-0.363709,-33.911083,-10.616954,51066624.000000,-80.709999,-222.949997,317.239990,0.000000,0.000000
51085056.000000,3.804588,-25.478777,-3.337988,51085568.000000,-83.230003,-143.570007,268.309998,0.000000,0.000000
51105024.000000,6.080163,-19.673786,-2.347359,51105536.000000,-102.480003,-122.989998,236.460007,0.000000,0.000000
51124992.000000,7.188039,-12.588640,-2.038685,51125504.000000,-44.380001,-128.589996,167.089996,0.000000,0.000000
51145984.000000,7.188039,-8.671589,-1.184447,51145472.000000,-25.410000,-113.959999,122.010002,0.000000,0.000000
51165184.000000,9.566505,-6.879365,0.055035,51166464.000000,-63.000000,-117.669998,75.389999,3904255488.000000,1010.041809
51185152.000000,13.462020,-6.570691,1.768296,51185664.000000,-110.669998,-138.669998,64.610001,0.000000,0.000000
51205120.000000,14.143975,-6.793223,4.436293,51205632.000000,-131.880005,-147.279999,44.939999,0.000000,0.000000
51225088.000000,13.165311,-5.489135,5.692525,51225600.000000,-115.779999,-109.480003,13.370000,0.000000,0.000000
51245824.000000,13.426127,-5.230711,2.311467,51245568.000000,-52.009998,-91.139999,-35.490002,0.000000,0.000000
51265024.000000,11.423335,-3.830909,-0.222532,51266304.000000,60.410000,-99.050003,-93.379997,0.000000,0.000000
51284992.000000,10.549955,-6.477371,-2.184647,51285504.000000,83.440002,-80.360001,-132.300003,0.000000,0.000000
51304960.000000,11.667403,-20.260029,-3.766303,51305472.000000,-6.650000,-23.450001,-132.160004,0.000000,0.000000
51324928.000000,7.183254,-39.376289,-9.834501,51325440.000000,-115.360001,63.700001,-143.710007,0.000000,0.000000
51347968.000000,1.131805,-38.411983,-15.479170,51345408.000000,-25.410000,155.889999,-264.320007,0.000000,0.000000
51364864.000000,-0.600598,-38.021954,-15.675381,51368448.000000,138.460007,214.130005,-388.989990,0.000000,0.000000
51385088.000000,-2.634498,-32.650066,-13.521841,51385344.000000,114.099998,245.910004,-404.880005,0.000000,0.000000
51405056.000000,-4.917251,-24.105295,-11.018949,51405568.000000,109.059998,244.649994,-427.839996,0.000000,0.000000
51425024.000000,-8.367701,-20.109282,-8.128418,51425536.000000,83.230003,266.839996,-399.350006,0.000000,0.000000
51445760.000000,-14.282759,-17.324036,-1.954936,51445504.000000,39.410000,260.610016,-382.269989,0.000000,0.000000
51464960.000000,-10.789237,-10.327423,-0.521635,51466240.000000,9.380000,245.770004,-325.149994,0.000000,0.000000
51484928.000000,-5.730811,-3.756732,-1.277767,51485440.000000,59.430000,210.699997,-192.360001,0.000000,0.000000
51504896.000000,-4.984250,0.445065,-0.526421,51505408.000000,76.300003,182.559998,-113.120003,0.000000,0.000000
51524864.000000,-8.451449,2.522035,0.588634,51525376.000000,46.270000,170.869995,-80.639999,0.000000,0.000000
51545856.000000,-10.959127,2.452643,1.677369,51545344.000000,-31.780001,170.100006,-33.810001,0.000000,0.000000
51564800.000000,-9.623933,2.457429,2.316252,51566336.000000,-104.230003,141.820007,15.050000,0.000000,0.000000
51584768.000000,-10.112068,2.323431,1.629512,51585280.000000,-124.949997,101.360001,58.730000,0.000000,0.000000
51604736.000000,-11.605190,3.524628,1.155733,51605248.000000,-84.699997,49.770000,74.059998,0.000000,0.000000
51624960.000000,-10.561919,4.888536,0.447458,51625216.000000,-49.279999,-10.920000,85.820000,0.000000,0.000000
51645696.000000,-9.614362,3.093920,-1.794617,51645440.000000,-38.220001,-70.419998,123.830002,0.000000,0.000000
51664896.000000,-12.313466,-0.784846,-2.335395,51666176.000000,-26.320000,-140.979996,143.779999,0.000000,0.000000
51684864.000000,-14.220546,-9.087940,-5.879165,51685376.000000,-50.330002,-195.300003,180.389999,0.000000,0.000000
51704832.000000,-17.584854,-25.174889,-13.450057,51705344.000000,-93.449997,-243.180008,240.309998,0.000000,0.000000
51724800.000000,-8.255238,-35.700912,-15.704096,51725312.000000,-107.099998,-291.410004,281.610016,0.000000,0.000000
51745792.000000,-7.448857,-42.434315,-13.842479,51745280.000000,-104.300003,-289.589996,336.839996,0.000000,0.000000
51764736.000000,-6.015556,-35.353954,-13.100704,51766272.000000,-119.910004,-243.110001,318.850006,0.000000,0.000000
51784704.000000,0.064606,-29.144579,-7.640282,51785216.000000,-69.580002,-170.520004,312.829987,0.000000,0.000000
51804672.000000,4.153940,-24.081367,-3.007778,51805184.000000,-78.400002,-111.370003,316.540009,0.000000,0.000000
51824640.000000,4.089334,-17.158932,-1.141376,51825152.000000,-102.340004,-97.580002,268.450012,0.000000,0.000000
51845632.000000,3.811767,-10.449455,-1.593620,51845120.000000,-67.550003,-107.590004,188.160004,0.000000,0.000000
51864832.000000,5.053641,-6.262017,-2.155933,51885312.000000,-90.300003,-199.149994,150.779999,0.000000,0.000000
51884800.000000,8.492127,-3.366701,0.267996,0.000000,0.000000,0.000000,0.000000,0.000000,0.000000
51904768.000000,14.495720,-3.235096,2.751746,51905280.000000,-158.830002,-260.329987,143.080002,0.000000,0.000000
51924736.000000,16.149158,-5.793024,0.636491,51925248.000000,-195.160004,-259.980011,137.059998,0.000000,0.000000
51945472.000000,13.914263,-7.530212,-2.359323,51945216.000000,-164.919998,-203.279999,109.410004,0.000000,0.000000
51964672.000000,14.510076,-13.284950,-1.155733,51965952.000000,-133.419998,-139.440002,66.080002,0.000000,0.000000
51984640.000000,11.435300,-18.537197,-0.160319,51985152.000000,-131.880005,-80.150002,27.930000,0.000000,0.000000
52004608.000000,8.056634,-20.226528,-9.219545,52005120.000000,-19.670000,-0.910000,-14.420000,0.000000,0.000000
52024576.000000,6.474977,-23.399412,-15.584454,52025088.000000,179.759995,60.130001,-115.500000,0.000000,0.000000
52045568.000000,3.450450,-26.967112,-14.017156,52045056.000000,142.309998,146.930008,-194.669998,0.000000,0.000000
52064512.000000,0.361316,-34.516468,-13.555340,52066048.000000,24.850000,212.660004,-280.630005,0.000000,0.000000
52084480.000000,-4.400401,-43.477585,-18.391235,52084992.000000,47.180000,250.110001,-346.709991,0.000000,0.000000
52104448.000000,-11.140982,-44.224144,-21.150160,52104960.000000,99.680000,311.570007,-392.070007,0.000000,0.000000
52124672.000000,-15.553347,-33.674191,-17.350357,52124928.000000,150.289993,356.649994,-408.799988,0.000000,0.000000
52145408.000000,-13.502698,-28.965120,-11.866007,52145152.000000,108.570000,271.950012,-433.860016,0.000000,0.000000
52164608.000000,-19.750359,-23.772696,-6.582655,52165888.000000,44.240002,252.139999,-413.000000,3905254912.000000,1010.037476
52184576.000000,-15.108281,-13.844872,-6.070591,52185088.000000,49.490002,265.720001,-384.790009,0.000000,0.000000
52204544.000000,-11.662617,-4.027121,-5.481956,52205056.000000,132.229996,242.759995,-284.130005,0.000000,0.000000
52224512.000000,-11.509477,1.749153,-2.081756,52225024.000000,114.239998,225.889999,-221.339996,0.000000,0.000000
52245504.000000,-12.095718,2.569891,2.663212,52244992.000000,43.470001,226.589996,-184.729996,0.000000,0.000000
52264448.000000,-13.282558,1.701297,2.526821,52265984.000000,-60.410000,225.119995,-142.240005,0.000000,0.000000
52284416.000000,-12.681960,5.065606,0.516850,52284928.000000,-26.880001,197.470001,-115.360001,0.000000,0.000000
52304384.000000,-10.825130,8.879765,-1.208375,52304896.000000,65.029999,144.479996,-38.080002,0.000000,0.000000
52324352.000000,-10.655239,11.107484,0.019143,52324864.000000,71.120003,90.930000,23.940001,0.000000,0.000000
52347392.000000,-9.930215,8.121240,0.019143,52344832.000000,-9.520000,39.480000,47.110001,0.000000,0.000000
52364544.000000,-8.740981,4.699504,-0.911665,52367872.000000,-83.720001,-32.900002,72.870003,0.000000,0.000000
52384512.000000,-9.564112,1.435694,-0.641276,52385024.000000,-98.910004,-118.020004,122.989998,0.000000,0.000000
52404480.000000,-11.406586,-6.005985,-4.840680,52404992.000000,-105.139999,-175.490005,211.610001,0.000000,0.000000
52424448.000000,-16.457834,-22.269999,-11.370694,52424960.000000,-116.480003,-222.880005,271.250000,0.000000,0.000000
52445184.000000,-8.262416,-34.760536,-13.658232,52444928.000000,-139.860001,-296.589996,265.089996,0.000000,0.000000
52464384.000000,-7.319644,-37.225140,-13.600803,52465664.000000,-152.740005,-317.869995,321.089996,0.000000,0.000000
52484352.000000,-11.940186,-33.626339,-14.029119,52484864.000000,-141.259995,-279.089996,340.760010,0.000000,0.000000
52504320.000000,-2.995814,-32.702705,-8.286345,52504832.000000,-87.989998,-220.009995,322.070007,0.000000,0.000000
52524288.000000,1.172483,-29.338400,-4.295116,52524800.000000,-110.250000,-165.130005,365.890015,0.000000,0.000000
52545280.000000,2.471786,-21.858435,-1.505085,52544768.000000,-70.000000,-131.669998,324.940002,0.000000,0.000000
52564224.000000,2.694318,-16.852650,-0.337388,52565760.000000,40.110001,-118.650002,254.940002,0.000000,0.000000
52584192.000000,2.837888,-12.366108,-1.483550,52584704.000000,67.480003,-118.090004,206.289993,0.000000,0.000000
52604416.000000,4.055835,-8.130811,-3.017349,52604672.000000,80.779999,-155.399994,166.740005,0.000000,0.000000
52624384.000000,7.661818,-6.996613,-2.191825,52624896.000000,47.110001,-206.289993,149.520004,0.000000,0.000000
52645120.000000,16.295122,-8.154739,0.543171,52644864.000000,-39.759998,-275.450012,140.699997,0.000000,0.000000
52664320.000000,20.090139,-7.039684,-1.232304,52665600.000000,-108.639999,-322.839996,106.400002,0.000000,0.000000
52684288.000000,14.464613,-9.657433,-3.979264,52684800.000000,-122.290001,-199.220001,67.480003,0.000000,0.000000
52704256.000000,17.857635,-18.149559,-3.201597,52704768.000000,-114.029999,-90.300003,1.610000,0.000000,0.000000
52724224.000000,11.440084,-20.078175,-4.072584,52724736.000000,-97.650002,-31.710001,-55.790001,0.000000,0.000000
52745216.000000,7.769495,-22.482962,-9.399008,52744704.000000,-42.910000,77.139999,-163.660004,0.000000,0.000000
52764160.000000,5.618347,-27.663422,-12.911672,52765696.000000,-2.100000,156.940002,-274.679993,0.000000,0.000000
52784128.000000,0.256032,-37.306496,-15.579668,52784640.000000,22.260000,233.940002,-354.690002,0.000000,0.000000
52804096.000000,-4.043870,-37.782669,-15.708879,52804608.000000,37.450001,288.470001,-437.080017,0.000000,0.000000
52824064.000000,-4.993821,-32.437103,-14.799608,52824576.000000,36.889999,319.619995,-483.279999,0.000000,0.000000
52845056.000000,-6.010770,-26.416761,-10.983055,52844544.000000,73.430000,288.679993,-475.580017,0.000000,0.000000
52864256.000000,-9.544970,-25.732414,-7.243074,52865536.000000,67.340004,274.750000,-458.360016,0.000000,0.000000
52884224.000000,-13.040883,-20.932411,-4.350152,52884736.000000,37.170002,258.510010,-419.369995,0.000000,0.000000
52904192.000000,-12.861421,-16.630117,-3.366701,52904704.000000,48.650002,235.690002,-356.089996,0.000000,0.000000
52924160.000000,-11.727223,-7.458428,-2.301895,52924672.000000,87.709999,211.050003,-261.519989,0.000000,0.000000
52944896.000000,-10.853845,-0.655633,-0.361316,52944640.000000,69.790001,181.789993,-198.940002,0.000000,0.000000
52964096.000000,-10.341780,0.425922,1.213161,52965376.000000,29.260000,167.300003,-152.110001,0.000000,0.000000
52984064.000000,-10.681561,1.323231,2.404787,52984576.000000,-31.150000,161.699997,-95.620003,0.000000,0.000000
53004032.000000,-11.609976,2.349752,3.625126,53004544.000000,-82.389999,165.899994,-39.340000,0.000000,0.000000
53024000.000000,-12.863814,3.787838,2.388037,53024512.000000,-71.750000,143.850006,-3.850000,0.000000,0.000000
53044992.000000,-12.945170,5.225924,1.076770,53044480.000000,-6.020000,89.529999,26.460001,0.000000,0.000000
53063936.000000,-10.547562,6.161518,0.023928,53065472.000000,48.369999,27.860001,48.790001,0.000000,0.000000
53084160.000000,-9.401401,6.254838,-0.861416,53084416.000000,37.240002,-13.020000,88.690002,0.000000,0.000000
53104128.000000,-12.466606,4.599005,-2.852244,53104640.000000,-10.080000,-57.470001,133.419998,0.000000,0.000000
53124096.000000,-12.263215,-1.162912,-1.356731,53124608.000000,-40.880001,-114.309998,184.029999,0.000000,0.000000
53144832.000000,-13.004992,-13.296914,-9.410972,53165312.000000,-104.650002,-230.229996,279.440002,3906254336.000000,1010.036682
53164032.000000,-15.814165,-33.470802,-12.272788,0.000000,0.000000,0.000000,0.000000,0.000000,0.000000
53184000.000000,-7.200003,-50.852268,-10.590633,53184512.000000,-199.430008,-292.950012,332.920013,0.000000,0.000000
53203968.000000,-7.118648,-41.694939,-9.334401,53204480.000000,-151.899994,-286.579987,375.970001,0.000000,0.000000
53223936.000000,-0.390030,-35.452061,-7.412964,53224448.000000,-45.290001,-225.960007,371.980011,0.000000,0.000000
53244928.000000,1.505085,-29.381468,-2.849852,53244416.000000,8.960000,-132.369995,361.619995,0.000000,0.000000
53263872.000000,2.883351,-23.365911,-1.744368,53265408.000000,-12.250000,-69.440002,313.739990,0.000000,0.000000
53283840.000000,3.388237,-18.620945,-2.031506,53284352.000000,-27.719999,-52.009998,253.330002,0.000000,0.000000
53303808.000000,4.553542,-14.268401,-1.909473,53304320.000000,-29.750000,-65.870003,216.369995,0.000000,0.000000
53323776.000000,5.467600,-10.877771,-2.237289,53324288.000000,-48.860001,-94.639999,182.559998,0.000000,0.000000
53346816.000000,7.520642,-8.137990,-0.591027,53344256.000000,-78.750000,-123.620003,154.419998,0.000000,0.000000
53363968.000000,11.150554,-7.841280,1.249053,53367296.000000,-112.770004,-144.479996,132.789993,0.000000,0.000000
53383936.000000,16.615761,-8.288737,3.471986,53384448.000000,-114.520004,-163.660004,98.910004,0.000000,0.000000
53403904.000000,18.128025,-5.082355,3.988836,53404416.000000,-77.980003,-167.229996,57.049999,0.000000,0.000000
53423872.000000,18.333807,-6.015556,2.273181,53424384.000000,-12.250000,-126.139999,-19.040001,0.000000,0.000000
53444864.000000,17.539389,-8.831908,-1.529014,53444352.000000,31.430000,-72.239998,-67.760002,0.000000,0.000000
53463808.000000,13.725230,-12.813565,-3.345166,53465344.000000,47.880001,-21.000000,-114.590004,0.000000,0.000000
53483776.000000,10.250853,-23.925835,-7.523034,53484288.000000,25.410000,70.489998,-155.680008,0.000000,0.000000
53503744.000000,4.584648,-35.413773,-10.104890,53504256.000000,16.240000,176.330002,-229.949997,0.000000,0.000000
53523712.000000,0.839881,-42.195038,-12.047862,53524224.000000,19.250000,243.320007,-335.019989,0.000000,0.000000
53544704.000000,-2.153540,-43.034916,-13.856836,53544192.000000,62.580002,219.869995,-390.739990,0.000000,0.000000
53563648.000000,-6.005985,-32.848667,-11.160125,53565184.000000,74.690002,205.169998,-427.769989,0.000000,0.000000
53583872.000000,-7.805387,-26.785255,-8.422735,53584128.000000,90.930000,193.130005,-448.910004,0.000000,0.000000
53603840.000000,-11.741580,-24.000011,-4.960321,53604352.000000,59.080002,174.229996,-421.470001,0.000000,0.000000
53623808.000000,-13.117454,-18.805193,-1.730011,53624320.000000,43.610001,162.889999,-392.559998,0.000000,0.000000
53644544.000000,-13.074384,-10.609775,-2.354537,53644288.000000,47.810001,154.699997,-314.440002,0.000000,0.000000
53663744.000000,-10.212566,-2.790031,-2.579463,53665024.000000,57.540001,134.259995,-239.399994,0.000000,0.000000
53683712.000000,-9.198010,1.318445,-0.272782,53684224.000000,20.370001,129.080002,-177.029999,0.000000,0.000000
53703680.000000,-13.004992,2.081756,2.845066,53704192.000000,-65.029999,139.440002,-107.870003,0.000000,0.000000
53723648.000000,-13.220345,2.079363,3.821337,53724160.000000,-132.089996,142.240005,-69.019997,0.000000,0.000000
53744640.000000,-10.372886,3.773481,3.256632,53744128.000000,-116.410004,125.790001,-16.100000,0.000000,0.000000
53763584.000000,-9.597611,5.324030,2.031506,53765120.000000,-41.790001,96.949997,36.610001,0.000000,0.000000
53783808.000000,-10.832308,5.654240,0.617348,53784064.000000,-0.840000,62.020000,70.139999,0.000000,0.000000
53803520.000000,-11.291731,5.012963,-0.301496,53804288.000000,-12.600000,19.180000,92.330002,0.000000,0.000000
53823744.000000,-9.932607,4.177868,-1.631905,53824000.000000,-44.029999,-15.260000,138.039993,0.000000,0.000000
53844480.000000,-10.511670,1.823331,-2.665605,53844224.000000,-60.830002,-65.940002,197.680008,0.000000,0.000000
53863680.000000,-17.876778,-9.075976,-9.839286,53864960.000000,-60.689999,-142.589996,253.750000,0.000000,0.000000
53883648.000000,-20.693129,-32.994633,-15.086747,53884160.000000,-73.639999,-213.779999,299.739990,0.000000,0.000000
53903872.000000,-9.583255,-45.865627,-19.319651,53904128.000000,-185.850006,-311.149994,348.739990,0.000000,0.000000
53923584.000000,-6.951149,-44.487362,-16.833508,53924352.000000,-226.449997,-278.179993,390.880005,0.000000,0.000000
53944576.000000,-1.665405,-39.163330,-9.013763,53944064.000000,-154.210007,-248.639999,318.850006,0.000000,0.000000
53963520.000000,2.766103,-33.839294,-4.369294,53965056.000000,-192.500000,-170.520004,318.500000,0.000000,0.000000
53983488.000000,6.041877,-24.579073,-3.739982,53984000.000000,-116.340004,-130.479996,288.890015,0.000000,0.000000
54003456.000000,6.063413,-16.007982,-2.261217,54003968.000000,30.520000,-127.120003,220.710007,0.000000,0.000000
54023424.000000,5.754738,-11.320443,-0.744168,54023936.000000,85.400002,-99.190002,155.680008,0.000000,0.000000
54044416.000000,8.188239,-9.731609,-0.713061,54043904.000000,43.470001,-109.059998,114.239998,0.000000,0.000000
54063616.000000,11.200804,-8.788837,0.059821,54064896.000000,-7.000000,-163.940002,94.779999,0.000000,0.000000
54083584.000000,13.679767,-7.630712,2.268396,54084096.000000,-35.000000,-200.830002,61.250000,0.000000,0.000000
54103552.000000,13.952549,-6.807580,1.607977,54104064.000000,-59.360001,-190.119995,20.370001,0.000000,0.000000
54123520.000000,15.498313,-5.139783,-0.607777,54124032.000000,-69.440002,-159.320007,-27.510000,0.000000,0.000000
54144256.000000,17.625532,-3.196811,-2.433501,54164736.000000,-31.710001,-84.349998,-122.220001,3907254016.000000,1010.034729
54163456.000000,15.053247,-4.792823,-3.462414,0.000000,0.000000,0.000000,0.000000,0.000000,0.000000
54183424.000000,12.375679,-14.557933,-8.154739,54183936.000000,-30.309999,27.930000,-174.649994,0.000000,0.000000
54203392.000000,7.142576,-27.835707,-10.480563,54203904.000000,-53.830002,155.470001,-196.070007,0.000000,0.000000
54223360.000000,2.842674,-36.406796,-12.519248,54223872.000000,-101.430000,259.070007,-261.869995,0.000000,0.000000
54244352.000000,1.935793,-44.417969,-17.474783,54243840.000000,11.900000,284.269989,-349.790009,0.000000,0.000000
54263296.000000,-1.897508,-36.512081,-18.649660,54264832.000000,200.619995,292.179993,-360.360016,0.000000,0.000000
54283264.000000,-5.218746,-27.263819,-13.854443,54283776.000000,249.759995,311.360016,-428.610016,0.000000,0.000000
54303232.000000,-10.621738,-22.954348,-8.147561,54303744.000000,145.600006,318.850006,-416.500000,0.000000,0.000000
54323456.000000,-15.749558,-18.912870,-2.234896,54323712.000000,42.490002,273.489990,-427.910004,0.000000,0.000000
54346240.000000,-12.035898,-12.818351,-1.354338,54343936.000000,18.900000,246.680008,-349.649994,0.000000,0.000000
54363392.000000,-8.104490,-4.299902,-1.880759,54366720.000000,60.340000,209.580002,-206.080002,0.000000,0.000000
54383360.000000,-7.838887,1.232304,-0.514457,54383872.000000,52.150002,201.110001,-123.550003,0.000000,0.000000
54403328.000000,-11.064411,2.565106,1.679761,54403840.000000,24.570000,202.580002,-81.550003,0.000000,0.000000
54423296.000000,-12.459428,1.576870,3.117848,54423808.000000,-31.990000,180.600006,-46.060001,0.000000,0.000000
54444288.000000,-9.355937,2.127219,2.435893,54443776.000000,-99.190002,142.940002,-23.590000,0.000000,0.000000
54463232.000000,-8.439486,3.792624,1.622334,54464768.000000,-96.949997,105.769997,37.520000,0.000000,0.000000
54483200.000000,-10.841879,4.634897,2.093720,54483712.000000,-63.000000,66.570000,83.930000,0.000000,0.000000
54503168.000000,-10.406385,3.639483,1.442872,54503680.000000,-67.550003,19.320000,102.900002,0.000000,0.000000
54523136.000000,-7.635497,2.502892,0.320638,54523648.000000,-91.980003,-39.549999,120.889999,0.000000,0.000000
54544128.000000,-7.231110,0.325424,-1.119841,54543616.000000,-116.550003,-119.699997,145.740005,0.000000,0.000000
54563328.000000,-10.832308,-6.860222,-2.720639,54564608.000000,-101.919998,-177.520004,195.580002,0.000000,0.000000
54583296.000000,-18.183060,-26.194231,-11.454442,54583808.000000,-84.769997,-216.300003,236.809998,0.000000,0.000000
54603264.000000,-8.858230,-39.646675,-15.830914,54603776.000000,-91.559998,-286.369995,239.259995,0.000000,0.000000
54623232.000000,-2.433501,-38.952759,-17.852850,54623744.000000,-53.200001,-308.209991,270.619995,0.000000,0.000000
54643968.000000,-2.301895,-31.427332,-12.035898,54643712.000000,-51.240002,-266.420013,285.739990,0.000000,0.000000
54663168.000000,0.461815,-24.614967,-7.293324,54664448.000000,-174.440002,-202.300003,234.149994,0.000000,0.000000
54683136.000000,4.792823,-22.552353,-2.909672,54683648.000000,-178.639999,-175.350006,223.580002,0.000000,0.000000
54703104.000000,8.513663,-21.468405,-0.272782,54703616.000000,-197.680008,-170.169998,245.770004,0.000000,0.000000
54723072.000000,7.551748,-15.445671,-0.468993,54723584.000000,-109.480003,-139.369995,226.940002,0.000000,0.000000
54744064.000000,5.726025,-11.327622,-1.844866,54743552.000000,12.950000,-68.879997,167.720001,0.000000,0.000000
54763008.000000,6.893722,-9.119047,-1.478764,54764544.000000,73.290001,-55.439999,106.400002,0.000000,0.000000
54783232.000000,9.509077,-7.877172,-0.066999,54783488.000000,73.639999,-71.330002,78.889999,0.000000,0.000000
54803200.000000,12.794422,-6.946364,2.481357,54803712.000000,39.130001,-121.099998,62.299999,0.000000,0.000000
54823168.000000,12.736995,-6.774081,5.335995,54823680.000000,-0.420000,-148.470001,30.100000,0.000000,0.000000
54843904.000000,10.717452,-6.855437,5.608776,54843648.000000,-14.770000,-125.790001,-7.140000,0.000000,0.000000
54863104.000000,10.992627,-6.690332,3.725625,54864384.000000,13.790000,-87.639999,-64.330002,0.000000,0.000000
54883072.000000,13.019348,-3.996014,-0.263210,54883584.000000,70.349998,-89.320000,-118.160004,0.000000,0.000000
54903040.000000,12.191431,-4.046263,-2.713461,54903552.000000,83.370003,-94.570000,-158.199997,0.000000,0.000000
54923008.000000,11.440084,-13.031311,-4.436293,54923520.000000,-3.570000,-27.790001,-180.180008,0.000000,0.000000
54944000.000000,9.262616,-32.415569,-8.039884,54943488.000000,-159.250000,76.930000,-190.050003,0.000000,0.000000
54962944.000000,3.534199,-47.097927,-10.619347,54964480.000000,-226.380005,189.559998,-239.820007,0.000000,0.000000
54982912.000000,1.476372,-40.941193,-14.916857,54983424.000000,-57.889999,225.610001,-339.500000,0.000000,0.000000
55002880.000000,0.370888,-31.089943,-16.247265,55003392.000000,151.339996,223.369995,-389.269989,0.000000,0.000000
55022848.000000,-2.761317,-21.324837,-12.313466,55023360.000000,209.789993,228.479996,-407.119995,0.000000,0.000000
55043840.000000,-7.087541,-19.365112,-6.798009,55043328.000000,109.620003,253.960007,-408.170013,0.000000,0.000000
55063040.000000,-13.488340,-17.343178,-2.108077,55064320.000000,-1.260000,265.230011,-383.809998,0.000000,0.000000
55083008.000000,-14.055440,-9.542577,-1.378266,55083520.000000,-35.840000,260.329987,-322.700012,0.000000,0.000000
55102976.000000,-7.676175,-2.191825,-0.598206,55103488.000000,45.220001,213.430008,-184.169998,0.000000,0.000000
55122944.000000,-5.158926,1.423729,1.636691,55123456.000000,53.480000,180.600006,-83.790001,0.000000,0.000000
55143936.000000,-6.477371,2.775674,4.352544,55143424.000000,-2.170000,182.419998,-40.180000,0.000000,0.000000
55162880.000000,-10.858629,1.636691,3.890730,55164416.000000,-69.510002,175.630005,-11.340000,3908253440.000000,1010.033386
55182848.000000,-9.387043,2.646462,0.775275,55183360.000000,-70.349998,158.410004,27.510000,0.000000,0.000000
55202816.000000,-7.491928,5.192425,-0.947558,55203328.000000,-51.029999,84.279999,93.800003,0.000000,0.000000
55222784.000000,-7.941778,5.613562,-0.674776,55223296.000000,-57.330002,18.690001,135.309998,0.000000,0.000000
55243776.000000,-7.635497,3.079563,0.610170,55243264.000000,-111.300003,-31.990000,128.660004,0.000000,0.000000
55262720.000000,-6.374479,0.698704,0.495314,55264256.000000,-178.500000,-86.099998,112.699997,0.000000,0.000000
55282944.000000,-5.967700,-0.265603,-0.674776,55283200.000000,-171.009995,-134.889999,118.370003,0.000000,0.000000
55302912.000000,-6.470192,-2.940779,-2.239682,55303424.000000,-84.980003,-179.479996,168.910004,0.000000,0.000000
55322880.000000,-10.229317,-13.591233,-9.822537,55323392.000000,-24.290001,-186.830002,230.649994,0.000000,0.000000
55345664.000000,-12.256038,-36.469009,-13.239488,55343360.000000,-64.820000,-210.210007,214.410004,0.000000,0.000000
55362816.000000,-4.230510,-41.008194,-15.857236,55366144.000000,-135.729996,-252.210007,176.539993,0.000000,0.000000
55382784.000000,-4.165904,-34.767712,-12.607781,55383296.000000,-99.400002,-248.710007,229.040009,0.000000,0.000000
55402752.000000,-3.024528,-26.689543,-6.774081,55403264.000000,-115.220001,-176.960007,204.680008,0.000000,0.000000
55422720.000000,2.067399,-21.444477,-0.378066,55443200.000000,-91.000000,-119.349998,185.779999,0.000000,0.000000
55443712.000000,6.092126,-20.068604,0.078963,0.000000,0.000000,0.000000,0.000000,0.000000,0.000000
55462656.000000,7.066005,-15.651453,-1.643869,55464192.000000,-28.280001,-144.410004,161.139999,0.000000,0.000000
55482624.000000,3.668197,-11.614761,-2.780460,55483136.000000,59.849998,-104.650002,121.940002,0.000000,0.000000
55502592.000000,2.758924,-11.042876,-2.711068,55503104.000000,45.849998,-77.840004,74.059998,0.000000,0.000000
55522816.000000,3.237489,-10.899307,-2.096112,55523072.000000,-45.150002,-119.910004,62.299999,0.000000,0.000000
55543552.000000,4.677969,-8.171489,-1.016950,55543296.000000,-107.520004,-175.210007,42.209999,0.000000,0.000000
55562752.000000,6.841080,-5.527420,0.746561,55564032.000000,-111.580002,-203.559998,20.930000,0.000000,0.000000
55582720.000000,10.904092,-4.728218,2.682354,55583232.000000,-91.559998,-207.410004,-2.800000,0.000000,0.000000
55602688.000000,11.971292,-6.374479,4.072584,55603200.000000,-51.240002,-187.389999,-32.830002,0.000000,0.000000
55622656.000000,11.526227,-6.771688,5.156533,55623168.000000,5.810000,-126.770004,-71.959999,0.000000,0.000000
55643648.000000,12.677175,-7.288538,1.036092,55643136.000000,55.650002,-78.610001,-91.279999,0.000000,0.000000
55662592.000000,13.880764,-11.770294,-4.285545,55664128.000000,121.379997,-56.770000,-126.840004,0.000000,0.000000
55682560.000000,13.928620,-20.176279,-9.523434,55683072.000000,117.250000,-8.260000,-174.300003,0.000000,0.000000
55702528.000000,11.442478,-34.506897,-11.882757,55703040.000000,10.010000,79.940002,-221.130005,0.000000,0.000000
55722496.000000,5.580062,-43.836510,-15.364313,55723008.000000,-52.779999,168.070007,-332.360016,0.000000,0.000000
55743488.000000,2.297110,-34.865818,-16.520048,55742976.000000,-13.370000,205.869995,-407.890015,0.000000,0.000000
55762432.000000,0.308674,-24.815964,-12.746566,55763968.000000,81.199997,223.160004,-471.660004,0.000000,0.000000
55782656.000000,-4.189832,-17.749958,-8.429914,55803136.000000,-3.360000,306.040009,-460.459991,0.000000,0.000000
55802624.000000,-11.026128,-15.326030,-5.453243,0.000000,0.000000,0.000000,0.000000,0.000000,0.000000
55822592.000000,-12.842279,-8.702696,-0.648455,55823104.000000,11.970000,329.559998,-406.980011,0.000000,0.000000
55843328.000000,-3.900301,-3.945765,-0.918844,55843072.000000,21.629999,265.510010,-271.250000,0.000000,0.000000
55862528.000000,-1.734797,-1.036092,0.473779,55863808.000000,38.080002,222.949997,-118.580002,0.000000,0.000000
55882496.000000,-4.149154,-0.009571,3.507878,55883008.000000,-26.670000,208.039993,-67.410004,0.000000,0.000000
55902464.000000,-8.819944,-0.990629,4.369294,55902976.000000,-81.970001,222.320007,-39.830002,0.000000,0.000000
55922432.000000,-8.427521,-0.160319,2.699104,55922944.000000,-91.070000,214.970001,2.870000,0.000000,0.000000
55943424.000000,-5.386244,1.464408,1.564906,55942912.000000,-76.019997,139.440002,57.330002,0.000000,0.000000
55962368.000000,-6.393622,2.538785,1.689333,55963904.000000,-78.959999,84.769997,113.680000,0.000000,0.000000
55982336.000000,-8.666803,1.284946,2.734996,55982848.000000,-125.090004,45.709999,118.300003,0.000000,0.000000
56002304.000000,-7.994420,-1.275374,3.187240,56002816.000000,-186.059998,17.430000,112.699997,0.000000,0.000000
56022528.000000,-6.384050,-1.292124,2.084148,56022784.000000,-184.660004,-14.630000,81.480003,0.000000,0.000000
56043264.000000,-6.843473,0.425922,-0.564706,56043008.000000,-121.379997,-78.400002,98.000000,0.000000,0.000000
56062464.000000,-7.716853,1.217947,-1.320838,56063744.000000,-46.970001,-125.160004,154.419998,0.000000,0.000000
56082432.000000,-7.546963,-1.464408,-4.086941,56082944.000000,-14.700000,-178.990005,184.940002,0.000000,0.000000
56102400.000000,-13.557733,-13.780266,-10.770095,56102912.000000,-41.509998,-220.639999,209.369995,0.000000,0.000000
56122368.000000,-19.001404,-33.700512,-14.653646,56122880.000000,-99.260002,-255.080002,206.080002,0.000000,0.000000
56143360.000000,-8.066205,-37.150963,-19.133011,56163840.000000,-101.500000,-238.979996,297.709991,3909252864.000000,1010.032227
56162304.000000,-6.530013,-34.990246,-13.512270,0.000000,0.000000,0.000000,0.000000,0.000000,0.000000
56182272.000000,-2.074577,-31.135406,-4.735396,56182784.000000,-189.490005,-156.940002,263.339996,0.000000,0.000000
56202240.000000,1.473979,-28.859833,0.150748,56202752.000000,-229.880005,-86.870003,259.000000,0.000000,0.000000
56222208.000000,4.606184,-24.552753,-1.883151,56222720.000000,-149.589996,-89.250000,256.760010,0.000000,0.000000
56243200.000000,5.807381,-19.130617,-3.852444,56242688.000000,31.570000,-108.779999,213.850006,0.000000,0.000000
56262400.000000,5.400600,-16.694723,-3.706482,56263680.000000,63.840000,-87.290001,168.210007,0.000000,0.000000
56282368.000000,5.479564,-15.170495,-1.387837,56282880.000000,-16.450001,-97.720001,109.830002,0.000000,0.000000
56302336.000000,6.348158,-14.330614,1.220340,56302848.000000,-123.059998,-133.000000,63.139999,0.000000,0.000000
56322304.000000,6.917650,-12.184253,2.323431,56322816.000000,-156.380005,-161.699997,16.730000,0.000000,0.000000
56345088.000000,6.128019,-8.551948,1.438086,56342784.000000,-93.660004,-166.320007,-28.280001,0.000000,0.000000
56362240.000000,5.489135,-5.513064,1.450050,56365568.000000,1.960000,-151.550003,-66.849998,0.000000,0.000000
56382208.000000,5.979663,-3.536592,1.672583,56382720.000000,47.459999,-140.490005,-87.989998,0.000000,0.000000
56402176.000000,7.465607,-1.718047,1.871187,56402688.000000,57.470001,-130.130005,-96.879997,0.000000,0.000000
56422144.000000,7.838887,-1.914258,1.122234,56422656.000000,68.809998,-112.070000,-111.370003,0.000000,0.000000
56443136.000000,7.496714,-1.217947,0.638884,56442624.000000,84.629997,-75.180000,-142.240005,0.000000,0.000000
56462080.000000,6.953543,-1.385444,-1.371087,56463616.000000,62.369999,-20.020000,-150.779999,0.000000,0.000000
56482048.000000,8.386844,-6.171089,-1.629512,56482560.000000,48.580002,31.920000,-149.940002,0.000000,0.000000
56502272.000000,8.903693,-29.551359,-4.252046,56502528.000000,32.480000,59.430000,-140.139999,0.000000,0.000000
56522240.000000,3.017349,-39.907497,-6.238089,56522752.000000,64.190002,103.669998,-65.660004,0.000000,0.000000
56542976.000000,-1.624727,-34.396824,-12.157932,56542720.000000,123.830002,171.779999,-49.420002,0.000000,0.000000
56562176.000000,-2.768496,-28.895725,-7.470392,56563456.000000,324.450012,214.339996,-129.919998,0.000000,0.000000
56582144.000000,-5.453243,-25.062424,-2.598605,56582656.000000,278.110016,250.880005,-120.889999,0.000000,0.000000
56602112.000000,-8.985049,-19.484755,0.868595,56602624.000000,207.130005,297.149994,-159.529999,0.000000,0.000000
56622080.000000,-6.367301,-13.129417,1.598405,56622592.000000,210.770004,281.119995,-198.800003,0.000000,0.000000
56643072.000000,-3.833302,-9.741181,1.158126,56642560.000000,258.089996,235.410004,-193.130005,0.000000,0.000000
56662016.000000,-5.536992,-7.561320,0.662812,56663552.000000,276.290009,224.839996,-174.720001,0.000000,0.000000
56681984.000000,-5.355137,-5.496314,0.504886,56682496.000000,279.860016,228.339996,-192.149994,0.000000,0.000000
56701952.000000,-4.465007,-4.007978,1.938186,56702464.000000,280.489990,225.050003,-170.309998,0.000000,0.000000
56721920.000000,-4.821537,-2.837888,2.184647,56722432.000000,283.220001,222.460007,-159.389999,0.000000,0.000000
56742912.000000,-4.610970,-2.711068,1.043271,56742400.000000,291.829987,221.410004,-149.240005,0.000000,0.000000
56762112.000000,-5.010571,-2.773281,1.265803,56763392.000000,331.309998,206.220001,-139.300003,0.000000,0.000000
56782080.000000,-5.132604,-2.864209,1.529014,56782592.000000,353.640015,186.619995,-111.090004,0.000000,0.000000
56802048.000000,-4.996214,-5.280960,1.196411,56802560.000000,358.820007,169.680008,-70.279999,0.000000,0.000000
56822016.000000,-3.605984,-3.845266,4.309474,56822528.000000,375.549988,145.669998,-38.009998,0.000000,0.000000
56842752.000000,-4.223332,-3.943372,5.379066,56842496.000000,421.260010,120.120003,-2.170000,0.000000,0.000000
56861952.000000,-4.321437,-3.562913,6.130411,56863232.000000,469.630005,104.230003,5.110000,0.000000,0.000000
56881920.000000,-6.704689,2.230111,4.625326,56882432.000000,512.679993,83.860001,36.610001,0.000000,0.000000
56901888.000000,-10.736595,8.951550,2.438286,56902400.000000,534.729980,49.840000,66.360001,0.000000,0.000000
56921856.000000,-5.541777,11.191232,5.022535,56922368.000000,405.160004,12.320000,118.230003,0.000000,0.000000
56942848.000000,-3.742374,5.391029,8.001599,56942336.000000,94.430000,-58.520000,111.580002,0.000000,0.000000
56961792.000000,-4.689932,2.385644,10.042676,56963328.000000,-188.789993,-57.119999,-21.700001,0.000000,0.000000
56982016.000000,-3.969693,3.945765,10.748559,56982272.000000,-212.940002,-8.120000,11.200000,0.000000,0.000000
57001984.000000,-2.222932,5.139783,9.650253,57002496.000000,-113.610001,-0.560000,27.370001,0.000000,0.000000
57021952.000000,-3.081956,6.285945,9.119047,57022464.000000,-14.630000,-8.120000,26.809999,0.000000,0.000000
57042688.000000,-4.211368,5.869594,9.767502,57042432.000000,-8.400000,16.240000,37.029999,0.000000,0.000000
57061888.000000,-4.165904,4.386044,10.052249,57063168.000000,-46.900002,25.270000,39.410000,0.000000,0.000000
57081856.000000,-2.900101,4.302295,8.628519,57082368.000000,-75.879997,12.810000,36.540001,0.000000,0.000000
57101824.000000,-1.426122,4.400401,7.302894,57102336.000000,-62.650002,-11.970000,32.900002,0.000000,0.000000
57121792.000000,0.066999,3.074777,7.087541,57122304.000000,-50.610001,-32.759998,18.830000,0.000000,0.000000
57142784.000000,0.114855,3.263810,6.668797,57142272.000000,-39.410000,-42.420002,-6.300000,0.000000,0.000000
57161728.000000,0.796810,3.256632,5.996413,57163264.000000,2.100000,-46.619999,-33.110001,3910252288.000000,1010.031982
57181696.000000,1.028914,3.579663,5.611169,57182208.000000,41.090000,-42.630001,-18.410000,0.000000,0.000000
57202176.000000,0.256032,4.132405,6.223732,57202176.000000,59.500000,-31.430000,-15.190001,0.000000,0.000000
57221888.000000,-1.045663,4.510471,6.716653,57222656.000000,53.830002,-10.220000,-12.320000,0.000000,0.000000
57242624.000000,-1.488336,5.367101,6.671190,57242368.000000,42.700001,2.450000,-3.220000,0.000000,0.000000
57261824.000000,-0.457029,6.443871,6.809973,57263104.000000,31.570000,-15.890000,-2.100000,0.000000,0.000000
57281792.000000,-0.289532,6.474977,7.893922,57282304.000000,21.700001,-39.970001,6.510000,0.000000,0.000000
57301760.000000,-0.540778,5.127820,9.418150,57302272.000000,19.040001,-46.970001,3.710000,0.000000,0.000000
57321728.000000,-0.538385,5.249853,9.375079,57322240.000000,5.880000,-39.970001,0.980000,0.000000,0.000000
57344512.000000,-0.160319,6.496514,8.573483,57342208.000000,10.500000,-38.500000,4.480000,0.000000,0.000000
57361664.000000,-1.591227,7.185646,8.130811,57364992.000000,21.840000,-43.470001,4.200000,0.000000,0.000000
57381632.000000,-1.308874,6.592227,8.537591,57382144.000000,7.350000,-24.360001,1.750000,0.000000,0.000000
57401600.000000,-0.064606,5.927022,10.124033,57402112.000000,-42.209999,-27.160000,-3.080000,0.000000,0.000000
57421568.000000,0.528814,4.811966,11.100305,57422080.000000,-73.849998,-28.000000,8.120000,0.000000,0.000000
57442560.000000,0.839881,4.529613,11.229517,57442048.000000,-56.700001,-12.950000,1.820000,0.000000,0.000000
57461760.000000,0.531207,4.646862,10.679168,57463040.000000,-18.549999,-0.490000,-4.060000,0.000000,0.000000
57481728.000000,0.622134,3.950550,10.112068,57482240.000000,10.710000,12.810000,-0.420000,0.000000,0.000000
57501696.000000,0.600598,3.534199,9.334401,57502208.000000,15.050000,10.010000,0.280000,0.000000,0.000000
57521664.000000,0.330210,3.663411,8.396415,57522176.000000,17.780001,7.770000,-8.050000,0.000000,0.000000
57542400.000000,0.547956,3.567699,7.721639,57542144.000000,19.879999,6.370000,-13.580000,0.000000,0.000000
57561600.000000,0.878166,3.543770,7.130611,57562880.000000,23.100000,3.990000,-7.070000,0.000000,0.000000
57581568.000000,0.392423,3.940979,6.381658,57582080.000000,23.870001,2.940000,-3.430000,0.000000,0.000000
57601536.000000,0.275175,4.606184,6.417551,57602048.000000,21.210001,4.620000,-8.120000,0.000000,0.000000
57621504.000000,0.890130,4.725825,6.616155,57622016.000000,26.809999,-1.050000,-14.700000,0.000000,0.000000
57642496.000000,0.631705,4.374080,6.690332,57641984.000000,6.930000,-2.240000,-13.230000,0.000000,0.000000
57661440.000000,0.167498,4.651647,6.623333,57662976.000000,-0.910000,7.630000,-11.200000,0.000000,0.000000
57681408.000000,0.370888,4.589434,6.527620,57681920.000000,8.540000,11.340000,-13.090000,0.000000,0.000000
57701376.000000,0.083749,5.182854,6.699903,57701888.000000,14.140000,12.390000,-7.840000,0.000000,0.000000
57721600.000000,-0.380459,5.723632,6.991827,57721856.000000,12.040000,15.680000,-2.800000,0.000000,0.000000
57742336.000000,-0.887737,5.864808,7.176075,57742080.000000,-2.590000,13.720000,1.820000,0.000000,0.000000
57761536.000000,0.844666,5.113462,7.233503,57762816.000000,-21.139999,-4.690000,11.620000,0.000000,0.000000