 Acc_timestamp,Accx,Accy,Accz,Gyro_timestamp,Gyrox,Gyroy,Gyroz,Baro_timestamp,Pressure_Reading
 145922512.000000, -0.363709 , 3.658626, 8.951550, 277452736.000000, -0.630000,  0.210000,  0.280000, 0.000000,  0.000000 
 145942512.000000, -0.373280 , 3.692125, 9.025726, 277472384.000000, -0.280000,  0.210000,  0.140000, 0.000000,  0.000000 
 145962480.000000, -0.433101 , 3.646662, 8.982656, 277492384.000000, -0.140000,  0.490000,  0.140000, 0.000000,  0.000000 
 145982480.000000, -0.385244 , 3.665804, 8.977871, 277512384.000000, -0.210000,  0.420000,  -0.140000, 0.000000,  0.000000 
 146002800.000000, -0.416351 , 3.658626, 8.958728, 277532352.000000, -0.420000,  0.350000,  -0.140000, 0.000000,  0.000000 
 146022448.000000, -0.394816 , 3.692125, 8.977871, 277552672.000000, -0.420000,  0.350000,  -0.140000, 0.000000,  0.000000 
 146042448.000000, -0.344566 , 3.661019, 8.989835, 277572352.000000, -0.560000,  0.350000,  0.070000, 0.000000,  0.000000 
 146062448.000000, -0.416351 , 3.634698, 8.994620, 277592320.000000, -0.700000,  0.350000,  0.070000, 0.000000,  0.000000 
 146082416.000000, -0.346959 , 3.713661, 8.951550, 277612320.000000, -0.350000,  0.350000,  -0.070000, 0.000000,  0.000000 
 146102736.000000, -0.423530 , 3.661019, 8.965906, 277652608.000000, -0.140000,  0.350000,  0.070000, 0.000000,  0.000000 
 146122416.000000, -0.390030 , 3.680161, 8.956335, 0.000000, 0.000000,  0.000000,  0.000000, 0.000000,  0.000000 
 146142384.000000, -0.390030 , 3.708875, 8.987441, 277672288.000000, -0.210000,  0.350000,  0.070000, 0.000000,  0.000000 
 146162384.000000, -0.433101 , 3.706482, 8.989835, 277692256.000000, -0.070000,  0.280000,  0.070000, 0.000000,  0.000000 
 146182384.000000, -0.313460 , 3.716053, 8.999406, 277712256.000000, 0.140000,  0.420000,  0.070000, 277711520.000000,  1008.936035 
 146202672.000000, -0.351745 , 3.672983, 8.953942, 277732256.000000, -0.070000,  0.280000,  0.070000, 0.000000,  0.000000 
 146222352.000000, -0.346959 , 3.728018, 9.042477, 277752576.000000, -0.350000,  0.420000,  0.070000, 0.000000,  0.000000 
 146242352.000000, -0.390030 , 3.627519, 8.997013, 277772224.000000, -0.490000,  0.490000,  0.070000, 0.000000,  0.000000 
 146262352.000000, -0.411566 , 3.658626, 9.006584, 277792224.000000, -0.350000,  0.490000,  0.070000, 0.000000,  0.000000 
 146282320.000000, -0.380459 , 3.670590, 8.970692, 277812256.000000, -0.140000,  0.350000,  0.070000, 0.000000,  0.000000 
 146302640.000000, -0.378066 , 3.670590, 8.958728, 277832192.000000, 0.140000,  0.350000,  0.140000, 0.000000,  0.000000 
 146322288.000000, -0.368495 , 3.689733, 8.999406, 277852512.000000, 0.140000,  0.350000,  0.210000, 0.000000,  0.000000 
 146342448.000000, -0.457029 , 3.763910, 8.961121, 277872160.000000, 0.070000,  0.420000,  -0.140000, 0.000000,  0.000000 
 146362288.000000, -0.430708 , 3.756732, 8.949157, 277892320.000000, 0.280000,  0.630000,  -0.350000, 0.000000,  0.000000 
 146382256.000000, -0.363709 , 3.661019, 8.997013, 277912160.000000, -0.770000,  0.350000,  -0.350000, 0.000000,  0.000000 
 146402576.000000, -0.358923 , 3.555735, 8.999406, 277932128.000000, -1.890000,  0.140000,  0.350000, 0.000000,  0.000000 
 146422256.000000, -0.392423 , 3.605984, 8.982656, 277952448.000000, -1.400000,  0.070000,  0.280000, 0.000000,  0.000000 
 146442224.000000, -0.346959 , 3.749553, 9.008978, 277972128.000000, 0.420000,  0.280000,  0.140000, 0.000000,  0.000000 
 146462224.000000, -0.394816 , 3.763910, 8.946764, 277992096.000000, 1.610000,  0.350000,  0.070000, 0.000000,  0.000000 
 146482192.000000, -0.413958 , 3.732803, 8.946764, 278012096.000000, 1.260000,  0.420000,  0.070000, 0.000000,  0.000000 
 146502512.000000, -0.409173 , 3.687340, 8.927622, 278032096.000000, 0.210000,  0.350000,  0.070000, 0.000000,  0.000000 
 146522192.000000, -0.392423 , 3.665804, 8.963513, 278052384.000000, -0.630000,  0.420000,  0.070000, 0.000000,  0.000000 
 146542160.000000, -0.363709 , 3.625126, 9.001799, 278072064.000000, -1.330000,  0.490000,  0.070000, 0.000000,  0.000000 
 146562160.000000, -0.390030 , 3.620341, 8.977871, 278092064.000000, -1.470000,  0.350000,  -0.070000, 0.000000,  0.000000 
 146582160.000000, -0.397209 , 3.677768, 9.006584, 278112032.000000, -0.770000,  0.350000,  0.070000, 0.000000,  0.000000 
 146602448.000000, -0.382852 , 3.699304, 8.989835, 278132032.000000, 0.140000,  0.350000,  0.070000, 0.000000,  0.000000 
 146622128.000000, -0.337388 , 3.656233, 9.028119, 278152320.000000, 0.350000,  0.350000,  0.140000, 0.000000,  0.000000 
 146642128.000000, -0.368495 , 3.725625, 8.999406, 278172000.000000, 0.350000,  0.280000,  0.070000, 0.000000,  0.000000 
 146662096.000000, -0.430708 , 3.744767, 9.006584, 278192000.000000, 0.070000,  0.420000,  0.070000, 0.000000,  0.000000 
 146682096.000000, -0.413958 , 3.692125, 8.968300, 278212000.000000, -0.070000,  0.420000,  -0.140000, 0.000000,  0.000000 
 146702416.000000, -0.397209 , 3.644269, 8.951550, 278231968.000000, -0.560000,  0.280000,  0.070000, 0.000000,  0.000000 
 146722064.000000, -0.399601 , 3.677768, 9.006584, 278252288.000000, -0.630000,  0.210000,  0.210000, 0.000000,  0.000000 
 146742064.000000, -0.339781 , 3.759124, 9.013763, 278271968.000000, -0.210000,  0.280000,  0.140000, 0.000000,  0.000000 
 146762064.000000, -0.358923 , 3.689733, 8.934800, 278291936.000000, 0.070000,  0.350000,  0.070000, 0.000000,  0.000000 
 146782032.000000, -0.399601 , 3.692125, 8.941978, 278311936.000000, 0.070000,  0.420000,  -0.070000, 0.000000,  0.000000 
 146802352.000000, -0.404387 , 3.728018, 8.977871, 278331904.000000, -0.210000,  0.420000,  -0.070000, 0.000000,  0.000000 
 146822032.000000, -0.392423 , 3.689733, 8.970692, 278352224.000000, -0.560000,  0.350000,  -0.070000, 0.000000,  0.000000 
 146842000.000000, -0.416351 , 3.692125, 8.987441, 278391904.000000, -0.700000,  0.350000,  0.070000, 0.000000,  0.000000 
 146862000.000000, -0.380459 , 3.634698, 8.958728, 0.000000, 0.000000,  0.000000,  0.000000, 0.000000,  0.000000 
 146882000.000000, -0.334995 , 3.694518, 8.958728, 278411872.000000, -0.420000,  0.350000,  0.070000, 0.000000,  0.000000 
 146902288.000000, -0.401994 , 3.713661, 8.958728, 278431872.000000, -0.070000,  0.350000,  0.070000, 0.000000,  0.000000 
 146921968.000000, -0.385244 , 3.696911, 8.961121, 278452160.000000, -0.140000,  0.420000,  0.070000, 0.000000,  0.000000 
 146941968.000000, -0.354138 , 3.637090, 8.992228, 278471840.000000, -0.140000,  0.350000,  0.070000, 0.000000,  0.000000 
 146961936.000000, -0.390030 , 3.680161, 8.970692, 278491840.000000, -0.140000,  0.350000,  0.070000, 0.000000,  0.000000 
 146981936.000000, -0.397209 , 3.708875, 8.973085, 278511808.000000, -0.140000,  0.350000,  0.070000, 0.000000,  0.000000 
 147002224.000000, -0.358923 , 3.718446, 8.958728, 278531808.000000, -0.140000,  0.280000,  0.070000, 0.000000,  0.000000 
 147021904.000000, -0.399601 , 3.675375, 8.968300, 278552128.000000, -0.210000,  0.280000,  0.070000, 0.000000,  0.000000 
 147041904.000000, -0.413958 , 3.672983, 8.951550, 278571776.000000, -0.350000,  0.420000,  0.070000, 0.000000,  0.000000 
 147061904.000000, -0.416351 , 3.670590, 8.973085, 278591776.000000, -0.420000,  0.490000,  0.070000, 0.000000,  0.000000 
 147081872.000000, -0.349352 , 3.694518, 8.997013, 278611776.000000, -0.420000,  0.420000,  0.070000, 0.000000,  0.000000 
 147102192.000000, -0.339781 , 3.670590, 8.999406, 278631744.000000, -0.280000,  0.280000,  0.140000, 0.000000,  0.000000 
 147121872.000000, -0.442672 , 3.677768, 9.001799, 278652064.000000, -0.140000,  0.350000,  0.140000, 0.000000,  0.000000 
 147141840.000000, -0.401994 , 3.761517, 8.937192, 278671744.000000, 0.210000,  0.490000,  -0.070000, 0.000000,  0.000000 
 147161840.000000, -0.418744 , 3.759124, 8.896514, 278711712.000000, -0.280000,  0.280000,  0.140000, 278710976.000000,  1008.930908 
 147181840.000000, -0.440279 , 3.663411, 8.951550, 0.000000, 0.000000,  0.000000,  0.000000, 0.000000,  0.000000 
 147202128.000000, -0.366102 , 3.572484, 8.992228, 278731712.000000, -1.890000,  0.210000,  0.280000, 0.000000,  0.000000 
 147221808.000000, -0.397209 , 3.586841, 9.025726, 278752000.000000, -1.960000,  0.280000,  0.210000, 0.000000,  0.000000 
 147241808.000000, -0.380459 , 3.716053, 8.989835, 278771680.000000, -0.280000,  0.280000,  0.140000, 0.000000,  0.000000 
 147261840.000000, -0.411566 , 3.754339, 8.973085, 278791680.000000, 1.120000,  0.350000,  0.070000, 0.000000,  0.000000 
 147281776.000000, -0.416351 , 3.739982, 8.939585, 278811712.000000, 1.050000,  0.490000,  -0.070000, 0.000000,  0.000000 
 147302064.000000, -0.382852 , 3.680161, 8.946764, 278831648.000000, 1.050000,  0.490000,  -0.070000, 0.000000,  0.000000 
 147321744.000000, -0.411566 , 3.653840, 8.973085, 278851936.000000, -0.980000,  0.420000,  0.070000, 0.000000,  0.000000 
 147341744.000000, -0.385244 , 3.649055, 8.997013, 278871648.000000, -1.610000,  0.420000,  0.070000, 0.000000,  0.000000 
 147361744.000000, -0.382852 , 3.622734, 8.977871, 278891616.000000, -1.540000,  0.350000,  -0.070000, 0.000000,  0.000000 
 147381712.000000, -0.378066 , 3.634698, 8.989835, 278911616.000000, -0.910000,  0.350000,  0.070000, 0.000000,  0.000000 
 147402032.000000, -0.392423 , 3.706482, 8.970692, 278931584.000000, 0.070000,  0.420000,  0.070000, 0.000000,  0.000000 
 147421712.000000, -0.370888 , 3.694518, 8.970692, 278951904.000000, 0.350000,  0.350000,  0.140000, 0.000000,  0.000000 
 147441680.000000, -0.418744 , 3.684947, 8.992228, 278971584.000000, 0.070000,  0.280000,  0.070000, 0.000000,  0.000000 
 147461680.000000, -0.406780 , 3.696911, 8.939585, 278991552.000000, -0.070000,  0.350000,  0.070000, 0.000000,  0.000000 
 147481680.000000, -0.442672 , 3.696911, 8.985049, 279011552.000000, -0.140000,  0.490000,  0.070000, 0.000000,  0.000000 
 147501968.000000, -0.409173 , 3.668197, 9.001799, 279031552.000000, -0.700000,  0.420000,  0.070000, 0.000000,  0.000000 
 147521648.000000, -0.363709 , 3.672983, 8.975478, 279051840.000000, -0.770000,  0.210000,  0.210000, 0.000000,  0.000000 
 147541648.000000, -0.380459 , 3.718446, 9.011370, 279071520.000000, -0.350000,  0.210000,  0.210000, 0.000000,  0.000000 
 147561616.000000, -0.397209 , 3.701697, 8.973085, 279091520.000000, -0.070000,  0.350000,  0.070000, 0.000000,  0.000000 
 147581616.000000, -0.435494 , 3.665804, 9.001799, 279111488.000000, -0.070000,  0.490000,  0.070000, 0.000000,  0.000000 
 147601904.000000, -0.370888 , 3.713661, 8.982656, 279131488.000000, -0.210000,  0.350000,  0.070000, 0.000000,  0.000000 
 147621584.000000, -0.421137 , 3.682554, 8.992228, 279151776.000000, -0.420000,  0.350000,  0.070000, 0.000000,  0.000000 
 147641584.000000, -0.394816 , 3.692125, 8.977871, 279171456.000000, -0.630000,  0.350000,  0.070000, 0.000000,  0.000000 
 147661552.000000, -0.421137 , 3.689733, 8.968300, 279191456.000000, -0.700000,  0.350000,  0.070000, 0.000000,  0.000000 
 147681552.000000, -0.366102 , 3.680161, 8.951550, 279211424.000000, -0.490000,  0.350000,  0.070000, 0.000000,  0.000000 
 147701872.000000, -0.394816 , 3.653840, 8.941978, 279231424.000000, -0.140000,  0.350000,  0.070000, 0.000000,  0.000000 
 147721520.000000, -0.413958 , 3.708875, 8.973085, 279251744.000000, -0.140000,  0.420000,  0.070000, 0.000000,  0.000000 
 147741520.000000, -0.387637 , 3.720839, 9.011370, 279271392.000000, -0.070000,  0.420000,  0.070000, 0.000000,  0.000000 
 147761488.000000, -0.368495 , 3.677768, 8.949157, 279291392.000000, -0.140000,  0.350000,  0.070000, 0.000000,  0.000000 
 147781488.000000, -0.385244 , 3.725625, 8.965906, 279311392.000000, -0.350000,  0.280000,  0.070000, 0.000000,  0.000000 
 147801808.000000, -0.425922 , 3.663411, 8.932407, 279331360.000000, -0.420000,  0.350000,  0.070000, 0.000000,  0.000000 
 147821488.000000, -0.425922 , 3.684947, 8.961121, 279351680.000000, -0.490000,  0.420000,  0.070000, 0.000000,  0.000000 
 147841456.000000, -0.354138 , 3.653840, 8.965906, 279371360.000000, -0.420000,  0.350000,  0.070000, 0.000000,  0.000000 
 147861456.000000, -0.390030 , 3.668197, 8.953942, 279391328.000000, -0.210000,  0.280000,  0.140000, 0.000000,  0.000000 
 147881424.000000, -0.346959 , 3.677768, 8.973085, 279411328.000000, -0.070000,  0.280000,  0.280000, 0.000000,  0.000000 
 147901744.000000, -0.397209 , 3.739982, 8.970692, 279431328.000000, -0.070000,  0.350000,  -0.070000, 0.000000,  0.000000 
 147921424.000000, -0.435494 , 3.725625, 8.932407, 279451616.000000, 0.280000,  0.560000,  -0.280000, 0.000000,  0.000000 
 147941392.000000, -0.356531 , 3.737589, 8.965906, 279471296.000000, -0.350000,  0.350000,  -0.070000, 0.000000,  0.000000 
 147961392.000000, -0.387637 , 3.538985, 9.001799, 279491296.000000, -1.820000,  0.280000,  0.280000, 0.000000,  0.000000 
 147981392.000000, -0.380459 , 3.584448, 9.011370, 279511264.000000, -2.030000,  0.280000,  0.210000, 0.000000,  0.000000 
 148001680.000000, -0.378066 , 3.732803, 8.975478, 279531264.000000, -0.350000,  0.280000,  0.140000, 0.000000,  0.000000 
 148021360.000000, -0.385244 , 3.739982, 8.951550, 279551584.000000, 1.050000,  0.280000,  0.070000, 0.000000,  0.000000 
 148041360.000000, -0.382852 , 3.751946, 8.946764, 279571232.000000, 0.980000,  0.490000,  -0.070000, 0.000000,  0.000000 
 148061328.000000, -0.358923 , 3.708875, 8.958728, 279591232.000000, 0.980000,  0.490000,  -0.070000, 0.000000,  0.000000 
 148081328.000000, -0.416351 , 3.665804, 8.977871, 279611232.000000, -0.840000,  0.420000,  -0.070000, 0.000000,  0.000000 
 148101648.000000, -0.452243 , 3.610770, 9.013763, 279631200.000000, -1.470000,  0.420000,  -0.070000, 0.000000,  0.000000 
 148121296.000000, -0.411566 , 3.625126, 8.994620, 279651520.000000, -1.540000,  0.420000,  -0.070000, 0.000000,  0.000000 
 148141296.000000, -0.375673 , 3.711268, 8.963513, 279671200.000000, -0.700000,  0.280000,  -0.070000, 0.000000,  0.000000 
 148161296.000000, -0.361316 , 3.687340, 8.944371, 279711168.000000, 0.350000,  0.350000,  0.140000, 279710432.000000,  1008.930359 
 148181264.000000, -0.370888 , 3.706482, 8.968300, 0.000000, 0.000000,  0.000000,  0.000000, 0.000000,  0.000000 
 148201584.000000, -0.325424 , 3.670590, 8.958728, 279731136.000000, 0.350000,  0.210000,  0.140000, 0.000000,  0.000000 
 148221264.000000, -0.425922 , 3.680161, 8.965906, 279751456.000000, -0.140000,  0.350000,  0.140000, 0.000000,  0.000000 
 148241232.000000, -0.394816 , 3.704089, 8.997013, 279771136.000000, -0.140000,  0.490000,  -0.070000, 0.000000,  0.000000 
 148261264.000000, -0.409173 , 3.680161, 8.989835, 279791104.000000, -0.420000,  0.490000,  0.070000, 0.000000,  0.000000 
 148281232.000000, -0.349352 , 3.672983, 8.985049, 279811136.000000, -0.840000,  0.210000,  0.140000, 0.000000,  0.000000 
 148301520.000000, -0.385244 , 3.680161, 9.001799, 279831104.000000, -0.490000,  0.210000,  0.210000, 0.000000,  0.000000 
 148321200.000000, -0.399601 , 3.689733, 8.937192, 279851392.000000, -0.210000,  0.350000,  0.070000, 0.000000,  0.000000 
 148341200.000000, -0.428315 , 3.684947, 8.944371, 279871072.000000, -0.070000,  0.490000,  -0.070000, 0.000000,  0.000000 
 148361168.000000, -0.457029 , 3.675375, 8.925228, 279891072.000000, -0.280000,  0.420000,  -0.070000, 0.000000,  0.000000 
 148381168.000000, -0.373280 , 3.692125, 8.949157, 279911040.000000, -0.490000,  0.350000,  -0.070000, 0.000000,  0.000000 
 148401584.000000, -0.375673 , 3.682554, 8.994620, 279931040.000000, -0.490000,  0.420000,  0.070000, 0.000000,  0.000000 
 148421136.000000, -0.404387 , 3.680161, 9.001799, 279951456.000000, -0.700000,  0.420000,  0.070000, 0.000000,  0.000000 
 148441136.000000, -0.351745 , 3.711268, 8.956335, 279971008.000000, -0.560000,  0.280000,  0.070000, 0.000000,  0.000000 
 148461104.000000, -0.421137 , 3.651447, 8.992228, 279991008.000000, -0.350000,  0.350000,  0.070000, 0.000000,  0.000000 
 148481104.000000, -0.354138 , 3.670590, 8.999406, 280011008.000000, -0.210000,  0.350000,  0.070000, 0.000000,  0.000000 
 148501424.000000, -0.430708 , 3.663411, 9.020942, 280030976.000000, -0.280000,  0.420000,  0.070000, 0.000000,  0.000000 
 148521104.000000, -0.366102 , 3.687340, 8.992228, 280051296.000000, -0.140000,  0.420000,  0.070000, 0.000000,  0.000000 
 148541072.000000, -0.346959 , 3.718446, 8.973085, 280070976.000000, -0.070000,  0.350000,  0.070000, 0.000000,  0.000000 
 148561072.000000, -0.404387 , 3.661019, 8.985049, 280090944.000000, -0.210000,  0.280000,  0.070000, 0.000000,  0.000000 
 148581040.000000, -0.378066 , 3.639483, 8.992228, 280110944.000000, -0.560000,  0.420000,  -0.070000, 0.000000,  0.000000 
 148601360.000000, -0.375673 , 3.646662, 8.989835, 280130944.000000, -0.700000,  0.560000,  -0.070000, 0.000000,  0.000000 
 148621040.000000, -0.421137 , 3.682554, 8.980263, 280151232.000000, -0.490000,  0.420000,  0.070000, 0.000000,  0.000000 
 148641008.000000, -0.416351 , 3.713661, 8.965906, 280170912.000000, -0.490000,  0.350000,  0.210000, 0.000000,  0.000000 
 148661008.000000, -0.354138 , 3.680161, 8.953942, 280190912.000000, 0.070000,  0.350000,  0.140000, 0.000000,  0.000000 
 148681168.000000, -0.361316 , 3.720839, 8.963513, 280210880.000000, 0.070000,  0.350000,  0.140000, 0.000000,  0.000000 
 148701296.000000, -0.425922 , 3.766303, 8.953942, 280231040.000000, 0.140000,  0.490000,  -0.280000, 0.000000,  0.000000 
 148720976.000000, -0.380459 , 3.680161, 8.961121, 280251168.000000, -0.280000,  0.490000,  -0.140000, 0.000000,  0.000000 
 148740976.000000, -0.361316 , 3.565305, 8.970692, 280270848.000000, -1.540000,  0.280000,  0.210000, 0.000000,  0.000000 
 148760944.000000, -0.397209 , 3.579663, 8.965906, 280290848.000000, -1.820000,  0.140000,  0.210000, 0.000000,  0.000000 
 148780944.000000, -0.399601 , 3.708875, 9.001799, 280310848.000000, -0.350000,  0.210000,  0.210000, 0.000000,  0.000000 
 148801232.000000, -0.418744 , 3.751946, 8.963513, 280330816.000000, 1.050000,  0.350000,  0.070000, 0.000000,  0.000000 
 148820944.000000, -0.394816 , 3.723232, 8.944371, 280351136.000000, 1.120000,  0.420000,  0.070000, 0.000000,  0.000000 
 148840912.000000, -0.387637 , 3.713661, 8.968300, 280370816.000000, 0.350000,  0.350000,  0.070000, 0.000000,  0.000000 
 148860912.000000, -0.392423 , 3.699304, 8.965906, 280390784.000000, -0.420000,  0.350000,  0.070000, 0.000000,  0.000000 
 148880880.000000, -0.406780 , 3.644269, 8.994620, 280410784.000000, -0.980000,  0.420000,  0.070000, 0.000000,  0.000000 
 148901200.000000, -0.440279 , 3.646662, 9.001799, 280430784.000000, -1.190000,  0.420000,  -0.070000, 0.000000,  0.000000 
 148920880.000000, -0.380459 , 3.632305, 8.999406, 280451072.000000, -0.770000,  0.420000,  0.070000, 0.000000,  0.000000 
 148940848.000000, -0.375673 , 3.694518, 8.937192, 280470752.000000, -0.280000,  0.420000,  0.070000, 0.000000,  0.000000 
 148960848.000000, -0.318245 , 3.682554, 8.949157, 280490752.000000, 0.350000,  0.350000,  0.070000, 0.000000,  0.000000 
 148980848.000000, -0.380459 , 3.689733, 8.982656, 280510720.000000, 0.210000,  0.350000,  0.210000, 0.000000,  0.000000 
 149001136.000000, -0.375673 , 3.749553, 9.032906, 280530720.000000, 0.070000,  0.280000,  0.070000, 0.000000,  0.000000 
 149020816.000000, -0.418744 , 3.706482, 8.987441, 280551008.000000, 0.210000,  0.420000,  0.070000, 0.000000,  0.000000 
 149040816.000000, -0.399601 , 3.692125, 8.975478, 280570688.000000, 0.070000,  0.490000,  0.070000, 0.000000,  0.000000 
 149060816.000000, -0.382852 , 3.649055, 8.987441, 280590688.000000, -0.490000,  0.420000,  0.070000, 0.000000,  0.000000 
 149080784.000000, -0.354138 , 3.629912, 8.920443, 280610688.000000, -0.630000,  0.140000,  0.280000, 0.000000,  0.000000 
 149101072.000000, -0.382852 , 3.646662, 8.965906, 280630656.000000, -0.420000,  0.210000,  0.210000, 0.000000,  0.000000 
 149120784.000000, -0.387637 , 3.694518, 8.987441, 280650944.000000, -0.210000,  0.280000,  0.070000, 0.000000,  0.000000 
 149140752.000000, -0.401994 , 3.658626, 8.958728, 280670656.000000, -0.280000,  0.420000,  0.070000, 0.000000,  0.000000 
 149160752.000000, -0.385244 , 3.680161, 8.968300, 280710624.000000, -0.350000,  0.350000,  0.070000, 280709888.000000,  1008.930115 
 149180720.000000, -0.358923 , 3.692125, 8.999406, 0.000000, 0.000000,  0.000000,  0.000000, 0.000000,  0.000000 
 149201040.000000, -0.409173 , 3.708875, 8.977871, 280730624.000000, -0.210000,  0.350000,  0.070000, 0.000000,  0.000000 
 149220720.000000, -0.334995 , 3.651447, 8.968300, 280750912.000000, -0.420000,  0.350000,  0.140000, 0.000000,  0.000000 
 149240688.000000, -0.397209 , 3.720839, 8.941978, 280770592.000000, -0.420000,  0.350000,  0.140000, 0.000000,  0.000000 
 149260720.000000, -0.370888 , 3.675375, 8.951550, 280790592.000000, -0.280000,  0.350000,  0.070000, 0.000000,  0.000000 
 149280688.000000, -0.366102 , 3.704089, 8.953942, 280810592.000000, -0.210000,  0.420000,  0.070000, 0.000000,  0.000000 
 149300976.000000, -0.394816 , 3.708875, 8.968300, 280830560.000000, -0.210000,  0.420000,  0.070000, 0.000000,  0.000000 
 149320656.000000, -0.392423 , 3.699304, 8.999406, 280850848.000000, -0.070000,  0.420000,  0.070000, 0.000000,  0.000000 
 149340656.000000, -0.332602 , 3.730411, 8.956335, 280870528.000000, -0.070000,  0.350000,  0.070000, 0.000000,  0.000000 
 149360624.000000, -0.442672 , 3.670590, 8.951550, 280890528.000000, -0.140000,  0.280000,  0.070000, 0.000000,  0.000000 
 149380624.000000, -0.368495 , 3.672983, 8.958728, 280910496.000000, -0.420000,  0.420000,  0.070000, 0.000000,  0.000000 
 149400912.000000, -0.447458 , 3.663411, 8.975478, 280930496.000000, -0.490000,  0.560000,  0.070000, 0.000000,  0.000000 
 149420592.000000, -0.378066 , 3.684947, 8.992228, 280950784.000000, -0.560000,  0.490000,  0.070000, 0.000000,  0.000000 
 149440592.000000, -0.401994 , 3.728018, 8.961121, 280970464.000000, -0.210000,  0.350000,  0.140000, 0.000000,  0.000000 
 149460560.000000, -0.390030 , 3.704089, 9.013763, 280990464.000000, -0.210000,  0.350000,  0.210000, 0.000000,  0.000000 
 149480560.000000, -0.387637 , 3.747160, 8.985049, 281010464.000000, -0.210000,  0.350000,  0.070000, 0.000000,  0.000000 
 149500880.000000, -0.382852 , 3.766303, 8.884550, 281030432.000000, 0.350000,  0.490000,  -0.280000, 0.000000,  0.000000 
 149520528.000000, -0.401994 , 3.716053, 8.932407, 281050752.000000, 0.350000,  0.490000,  -0.140000, 0.000000,  0.000000 
 149540528.000000, -0.325424 , 3.601198, 8.975478, 281070432.000000, -1.470000,  0.280000,  0.280000, 0.000000,  0.000000 
 149560528.000000, -0.385244 , 3.560520, 8.997013, 281090400.000000, -1.890000,  0.210000,  0.280000, 0.000000,  0.000000 
 149580496.000000, -0.401994 , 3.699304, 8.994620, 281110400.000000, -0.630000,  0.280000,  0.140000, 0.000000,  0.000000 
 149600816.000000, -0.382852 , 3.754339, 8.939585, 281130368.000000, 1.050000,  0.350000,  0.140000, 0.000000,  0.000000 
 149620496.000000, -0.394816 , 3.701697, 8.920443, 281150688.000000, 1.260000,  0.350000,  0.070000, 0.000000,  0.000000 
 149640464.000000, -0.392423 , 3.728018, 8.925228, 281170368.000000, 0.350000,  0.420000,  -0.070000, 0.000000,  0.000000 
 149660464.000000, -0.366102 , 3.706482, 8.970692, 281190336.000000, -0.700000,  0.420000,  0.070000, 0.000000,  0.000000 
 149680464.000000, -0.425922 , 3.668197, 8.987441, 281210336.000000, -1.330000,  0.420000,  0.070000, 0.000000,  0.000000 
 149700752.000000, -0.406780 , 3.658626, 8.989835, 281230336.000000, -1.540000,  0.420000,  -0.070000, 0.000000,  0.000000 
 149720432.000000, -0.406780 , 3.680161, 8.944371, 281250624.000000, -0.910000,  0.350000,  -0.070000, 0.000000,  0.000000 
 149740432.000000, -0.382852 , 3.682554, 8.965906, 281270304.000000, 0.070000,  0.350000,  0.140000, 0.000000,  0.000000 
 149760400.000000, -0.397209 , 3.694518, 8.987441, 281290304.000000, 0.350000,  0.350000,  0.070000, 0.000000,  0.000000 
 149780400.000000, -0.368495 , 3.716053, 8.975478, 281310272.000000, 0.350000,  0.350000,  0.140000, 0.000000,  0.000000 
 149800720.000000, -0.421137 , 3.749553, 8.973085, 281330272.000000, -0.140000,  0.350000,  0.070000, 0.000000,  0.000000 
 149820368.000000, -0.411566 , 3.718446, 8.968300, 281350592.000000, -0.070000,  0.490000,  -0.070000, 0.000000,  0.000000 
 149840368.000000, -0.411566 , 3.699304, 8.977871, 281370240.000000, -0.350000,  0.490000,  -0.070000, 0.000000,  0.000000 
 149860336.000000, -0.344566 , 3.661019, 8.958728, 281390240.000000, -0.490000,  0.280000,  0.210000, 0.000000,  0.000000 
 149880336.000000, -0.373280 , 3.680161, 8.973085, 281410240.000000, -0.420000,  0.280000,  0.210000, 0.000000,  0.000000 
 149900656.000000, -0.370888 , 3.751946, 8.997013, 281430208.000000, -0.350000,  0.350000,  0.140000, 0.000000,  0.000000 
 149920336.000000, -0.390030 , 3.687340, 8.949157, 281450528.000000, -0.280000,  0.420000,  0.140000, 0.000000,  0.000000 
 149940304.000000, -0.390030 , 3.696911, 8.970692, 281470208.000000, -0.280000,  0.420000,  0.140000, 0.000000,  0.000000 
 149960304.000000, -0.411566 , 3.692125, 8.949157, 281490176.000000, -0.350000,  0.350000,  0.140000, 0.000000,  0.000000 
 149980272.000000, -0.394816 , 3.677768, 8.992228, 281510176.000000, -0.490000,  0.420000,  0.140000, 0.000000,  0.000000 
 150000592.000000, -0.413958 , 3.644269, 8.982656, 281530176.000000, -0.700000,  0.350000,  0.070000, 0.000000,  0.000000 
 150020272.000000, -0.409173 , 3.637090, 8.946764, 281550464.000000, -0.700000,  0.350000,  0.070000, 0.000000,  0.000000 
 150040240.000000, -0.363709 , 3.649055, 8.968300, 281570144.000000, -0.560000,  0.420000,  0.070000, 0.000000,  0.000000 
 150060240.000000, -0.346959 , 3.658626, 8.953942, 281590144.000000, -0.350000,  0.420000,  0.070000, 0.000000,  0.000000 
 150080240.000000, -0.399601 , 3.670590, 8.970692, 281610112.000000, -0.140000,  0.420000,  0.070000, 0.000000,  0.000000 
 150100528.000000, -0.390030 , 3.701697, 8.934800, 281630112.000000, -0.140000,  0.350000,  0.140000, 0.000000,  0.000000 
 150120208.000000, -0.349352 , 3.680161, 8.951550, 281650400.000000, 0.070000,  0.280000,  0.140000, 0.000000,  0.000000 
 150140208.000000, -0.447458 , 3.706482, 8.927622, 281670080.000000, -0.140000,  0.280000,  0.070000, 0.000000,  0.000000 
 150160176.000000, -0.356531 , 3.663411, 8.941978, 281690080.000000, -0.490000,  0.420000,  0.070000, 0.000000,  0.000000 
 150180176.000000, -0.409173 , 3.680161, 8.999406, 281710080.000000, -0.770000,  0.420000,  0.070000, 281709344.000000,  1008.931824 
 150200464.000000, -0.370888 , 3.677768, 8.956335, 281730048.000000, -0.700000,  0.350000,  0.070000, 0.000000,  0.000000 
 150220144.000000, -0.346959 , 3.675375, 9.001799, 281750368.000000, -0.280000,  0.350000,  0.210000, 0.000000,  0.000000 
 150240144.000000, -0.346959 , 3.723232, 8.958728, 281770048.000000, 0.140000,  0.350000,  0.140000, 0.000000,  0.000000 
 150260176.000000, -0.404387 , 3.785445, 8.927622, 281790016.000000, 0.490000,  0.490000,  -0.140000, 0.000000,  0.000000 
 150280112.000000, -0.385244 , 3.795017, 8.930015, 281810048.000000, 0.560000,  0.560000,  -0.210000, 0.000000,  0.000000 
 150300432.000000, -0.390030 , 3.701697, 8.975478, 281829984.000000, -0.630000,  0.280000,  0.070000, 0.000000,  0.000000 
 150320112.000000, -0.368495 , 3.572484, 9.052048, 281850304.000000, -2.170000,  0.210000,  0.280000, 0.000000,  0.000000 
 150340240.000000, -0.406780 , 3.579663, 9.018548, 281869984.000000, -2.100000,  0.350000,  0.140000, 0.000000,  0.000000 
 150360080.000000, -0.399601 , 3.756732, 9.013763, 281890144.000000, -0.140000,  0.350000,  0.070000, 0.000000,  0.000000 
 150380080.000000, -0.421137 , 3.785445, 8.908479, 281909952.000000, 1.400000,  0.350000,  0.070000, 0.000000,  0.000000 
 150400368.000000, -0.366102 , 3.735196, 8.934800, 281929952.000000, 1.260000,  0.490000,  -0.140000, 0.000000,  0.000000 
 150420048.000000, -0.380459 , 3.713661, 8.953942, 281950240.000000, -0.140000,  0.420000,  -0.140000, 0.000000,  0.000000 
 150440048.000000, -0.361316 , 3.637090, 8.973085, 281969920.000000, -1.470000,  0.350000,  -0.140000, 0.000000,  0.000000 
 150460016.000000, -0.413958 , 3.644269, 8.997013, 281989920.000000, -1.960000,  0.420000,  -0.140000, 0.000000,  0.000000 
 150480016.000000, -0.385244 , 3.637090, 8.999406, 282009888.000000, -1.400000,  0.420000,  -0.140000, 0.000000,  0.000000 
 150500304.000000, -0.390030 , 3.672983, 9.004191, 282029888.000000, -0.140000,  0.280000,  0.070000, 0.000000,  0.000000 
 150519984.000000, -0.401994 , 3.720839, 8.939585, 282050176.000000, 0.770000,  0.280000,  0.070000, 0.000000,  0.000000 
 150539984.000000, -0.399601 , 3.711268, 8.992228, 282069856.000000, 0.630000,  0.350000,  0.140000, 0.000000,  0.000000 
 150559984.000000, -0.387637 , 3.725625, 8.989835, 282089856.000000, -0.140000,  0.280000,  0.070000, 0.000000,  0.000000 
 150579952.000000, -0.394816 , 3.713661, 9.016156, 282109856.000000, -0.350000,  0.350000,  0.070000, 0.000000,  0.000000 
 150600272.000000, -0.373280 , 3.682554, 8.970692, 282129824.000000, -0.420000,  0.490000,  -0.070000, 0.000000,  0.000000 
 150619952.000000, -0.378066 , 3.658626, 8.908479, 282150144.000000, -0.700000,  0.420000,  0.070000, 0.000000,  0.000000 
 150639920.000000, -0.370888 , 3.680161, 8.944371, 282169824.000000, -0.560000,  0.140000,  0.210000, 0.000000,  0.000000 
 150659920.000000, -0.318245 , 3.682554, 8.975478, 282189792.000000, -0.560000,  0.280000,  0.140000, 0.000000,  0.000000 
 150679888.000000, -0.380459 , 3.701697, 8.951550, 282209792.000000, 0.070000,  0.420000,  0.140000, 0.000000,  0.000000 
 150700208.000000, -0.399601 , 3.677768, 8.934800, 282229792.000000, -0.350000,  0.490000,  -0.070000, 0.000000,  0.000000 
 150719888.000000, -0.416351 , 3.622734, 8.941978, 282250080.000000, -0.770000,  0.350000,  -0.070000, 0.000000,  0.000000 
 150739856.000000, -0.411566 , 3.699304, 9.006584, 282269760.000000, -0.700000,  0.350000,  -0.070000, 0.000000,  0.000000 
 150759856.000000, -0.368495 , 3.684947, 9.030513, 282289760.000000, -0.560000,  0.420000,  0.070000, 0.000000,  0.000000 
 150779856.000000, -0.354138 , 3.687340, 8.975478, 282309728.000000, -0.350000,  0.350000,  0.070000, 0.000000,  0.000000 
 150800144.000000, -0.356531 , 3.677768, 8.946764, 282329728.000000, -0.140000,  0.280000,  0.070000, 0.000000,  0.000000 
 150819824.000000, -0.397209 , 3.699304, 8.927622, 282350016.000000, -0.070000,  0.350000,  0.070000, 0.000000,  0.000000 
 150839824.000000, -0.378066 , 3.713661, 8.977871, 282369696.000000, -0.210000,  0.350000,  0.070000, 0.000000,  0.000000 
 150859824.000000, -0.392423 , 3.699304, 9.001799, 282389696.000000, -0.560000,  0.420000,  0.070000, 0.000000,  0.000000 
 150879792.000000, -0.406780 , 3.728018, 9.037691, 282409696.000000, -0.420000,  0.420000,  0.070000, 0.000000,  0.000000 
 150900080.000000, -0.332602 , 3.725625, 8.958728, 282429664.000000, -0.070000,  0.420000,  0.070000, 0.000000,  0.000000 
 150919792.000000, -0.418744 , 3.732803, 8.922836, 282449984.000000, 0.070000,  0.350000,  0.070000, 0.000000,  0.000000 
 150939760.000000, -0.387637 , 3.680161, 8.975478, 282469664.000000, -0.140000,  0.350000,  0.070000, 0.000000,  0.000000 
 150959760.000000, -0.409173 , 3.682554, 8.961121, 282489632.000000, -0.560000,  0.490000,  0.070000, 0.000000,  0.000000 
 150979728.000000, -0.373280 , 3.641876, 8.994620, 282509632.000000, -0.840000,  0.490000,  -0.070000, 0.000000,  0.000000 
 151000048.000000, -0.394816 , 3.692125, 8.951550, 282529632.000000, -0.560000,  0.350000,  0.070000, 0.000000,  0.000000 
 151019728.000000, -0.351745 , 3.639483, 9.004191, 282549920.000000, -0.210000,  0.350000,  0.140000, 0.000000,  0.000000 
 151039728.000000, -0.363709 , 3.689733, 8.989835, 282569600.000000, -0.210000,  0.350000,  0.140000, 0.000000,  0.000000 
 151059696.000000, -0.433101 , 3.751946, 8.951550, 282589600.000000, 0.420000,  0.490000,  -0.140000, 0.000000,  0.000000 
 151079696.000000, -0.459422 , 3.763910, 8.944371, 282609568.000000, 0.420000,  0.560000,  -0.140000, 0.000000,  0.000000 
 151099984.000000, -0.351745 , 3.677768, 8.982656, 282629568.000000, -1.120000,  0.350000,  0.140000, 0.000000,  0.000000 
 151119664.000000, -0.332602 , 3.543770, 8.999406, 282649856.000000, -2.310000,  0.210000,  0.210000, 0.000000,  0.000000 
 151139664.000000, -0.370888 , 3.625126, 8.997013, 282669536.000000, -1.540000,  0.140000,  0.210000, 0.000000,  0.000000 
 151159664.000000, -0.409173 , 3.730411, 8.977871, 282709536.000000, 1.400000,  0.490000,  0.070000, 282708800.000000,  1008.930481 
 151179632.000000, -0.401994 , 3.749553, 8.956335, 0.000000, 0.000000,  0.000000,  0.000000, 0.000000,  0.000000 
 151199920.000000, -0.382852 , 3.759124, 8.906086, 282729504.000000, 1.050000,  0.420000,  -0.070000, 0.000000,  0.000000 
 151219600.000000, -0.342174 , 3.742374, 8.930015, 282749824.000000, 0.070000,  0.350000,  0.070000, 0.000000,  0.000000 
 151239600.000000, -0.392423 , 3.637090, 8.992228, 282769472.000000, -0.980000,  0.420000,  0.070000, 0.000000,  0.000000 
 151259632.000000, -0.404387 , 3.625126, 8.985049, 282789472.000000, -1.750000,  0.490000,  -0.070000, 0.000000,  0.000000 
 151279568.000000, -0.378066 , 3.682554, 9.006584, 282829440.000000, -0.350000,  0.350000,  -0.070000, 0.000000,  0.000000 
 151299888.000000, -0.394816 , 3.680161, 8.977871, 0.000000, 0.000000,  0.000000,  0.000000, 0.000000,  0.000000 
 151319536.000000, -0.368495 , 3.720839, 8.939585, 282849760.000000, 0.490000,  0.280000,  0.070000, 0.000000,  0.000000 
 151339536.000000, -0.366102 , 3.737589, 8.927622, 282869440.000000, 0.700000,  0.280000,  -0.070000, 0.000000,  0.000000 
 151359536.000000, -0.380459 , 3.763910, 8.956335, 282889408.000000, 0.490000,  0.210000,  -0.070000, 0.000000,  0.000000 
 151379504.000000, -0.433101 , 3.670590, 8.949157, 282909408.000000, 0.070000,  0.350000,  -0.070000, 0.000000,  0.000000 
 151399824.000000, -0.409173 , 3.622734, 8.963513, 282929408.000000, -0.700000,  0.490000,  -0.140000, 0.000000,  0.000000 
 151419504.000000, -0.382852 , 3.641876, 8.997013, 282949696.000000, -0.910000,  0.350000,  0.140000, 0.000000,  0.000000 
 151439472.000000, -0.366102 , 3.641876, 8.934800, 282969376.000000, -0.490000,  0.210000,  0.280000, 0.000000,  0.000000 
 151459472.000000, -0.382852 , 3.694518, 8.958728, 282989344.000000, 0.140000,  0.280000,  0.140000, 0.000000,  0.000000 
 151479472.000000, -0.404387 , 3.756732, 8.965906, 283009344.000000, 0.350000,  0.420000,  0.070000, 0.000000,  0.000000 
 151499760.000000, -0.392423 , 3.716053, 8.934800, 283029344.000000, -0.070000,  0.420000,  -0.070000, 0.000000,  0.000000 
 151519440.000000, -0.418744 , 3.651447, 8.985049, 283049664.000000, -0.560000,  0.420000,  -0.070000, 0.000000,  0.000000 
 151539440.000000, -0.382852 , 3.692125, 8.994620, 283069312.000000, -0.770000,  0.350000,  0.070000, 0.000000,  0.000000 
 151559408.000000, -0.373280 , 3.682554, 8.999406, 283089312.000000, -0.630000,  0.350000,  0.070000, 0.000000,  0.000000 
 151579408.000000, -0.392423 , 3.689733, 8.985049, 283109280.000000, -0.140000,  0.350000,  0.070000, 0.000000,  0.000000 
 151599728.000000, -0.378066 , 3.692125, 8.934800, 283129280.000000, 0.280000,  0.350000,  0.070000, 0.000000,  0.000000 
 151619376.000000, -0.349352 , 3.718446, 8.941978, 283149600.000000, 0.280000,  0.420000,  0.070000, 0.000000,  0.000000 
 151639376.000000, -0.373280 , 3.708875, 8.963513, 283169280.000000, -0.140000,  0.420000,  0.070000, 0.000000,  0.000000 
 151659376.000000, -0.380459 , 3.656233, 9.006584, 283189248.000000, -0.560000,  0.350000,  0.070000, 0.000000,  0.000000 
 151679344.000000, -0.413958 , 3.701697, 9.011370, 283209248.000000, -0.350000,  0.420000,  0.070000, 0.000000,  0.000000 
 151699664.000000, -0.358923 , 3.708875, 8.999406, 283229216.000000, 0.140000,  0.420000,  0.070000, 0.000000,  0.000000 
 151719344.000000, -0.368495 , 3.768696, 8.949157, 283269216.000000, 0.280000,  0.420000,  0.070000, 0.000000,  0.000000 
 151739312.000000, -0.337388 , 3.732803, 8.968300, 0.000000, 0.000000,  0.000000,  0.000000, 0.000000,  0.000000 
 151759312.000000, -0.385244 , 3.682554, 8.997013, 283289184.000000, -0.560000,  0.490000,  0.070000, 0.000000,  0.000000 
 151779280.000000, -0.404387 , 3.680161, 8.965906, 283309184.000000, -0.770000,  0.420000,  0.070000, 0.000000,  0.000000 
 151799600.000000, -0.392423 , 3.656233, 8.965906, 283329184.000000, -0.490000,  0.350000,  0.140000, 0.000000,  0.000000 
 151819280.000000, -0.373280 , 3.672983, 8.994620, 283349472.000000, -0.490000,  0.350000,  0.210000, 0.000000,  0.000000 
 151839248.000000, -0.404387 , 3.723232, 8.980263, 283369152.000000, 0.280000,  0.350000,  0.140000, 0.000000,  0.000000 
 151859248.000000, -0.445065 , 3.814159, 8.927622, 283389152.000000, 0.630000,  0.490000,  -0.210000, 0.000000,  0.000000 
 151879248.000000, -0.399601 , 3.713661, 8.949157, 283409120.000000, 0.350000,  0.490000,  -0.280000, 0.000000,  0.000000 
 151899536.000000, -0.392423 , 3.615555, 8.977871, 283429120.000000, -1.120000,  0.280000,  0.210000, 0.000000,  0.000000 
 151919216.000000, -0.346959 , 3.558127, 8.982656, 283449408.000000, -2.240000,  0.140000,  0.350000, 0.000000,  0.000000 
 151939216.000000, -0.375673 , 3.641876, 8.987441, 283469088.000000, -1.190000,  0.140000,  0.140000, 0.000000,  0.000000 
 151959184.000000, -0.375673 , 3.756732, 8.963513, 283489088.000000, 0.770000,  0.350000,  0.140000, 0.000000,  0.000000 
 151979184.000000, -0.382852 , 3.768696, 8.922836, 283509088.000000, 1.680000,  0.490000,  -0.070000, 0.000000,  0.000000 
 151999504.000000, -0.397209 , 3.744767, 8.918050, 283529056.000000, 0.980000,  0.420000,  -0.070000, 0.000000,  0.000000 
 152019152.000000, -0.409173 , 3.732803, 8.977871, 283549376.000000, -0.140000,  0.350000,  0.070000, 0.000000,  0.000000 
 152039152.000000, -0.392423 , 3.720839, 8.980263, 283569056.000000, -1.260000,  0.420000,  0.070000, 0.000000,  0.000000 
 152059152.000000, -0.392423 , 3.632305, 9.016156, 283589024.000000, -1.750000,  0.490000,  -0.070000, 0.000000,  0.000000 
 152079120.000000, -0.399601 , 3.627519, 9.004191, 283609024.000000, -1.470000,  0.420000,  -0.070000, 0.000000,  0.000000 
 152099440.000000, -0.401994 , 3.720839, 8.944371, 283628992.000000, -0.280000,  0.350000,  0.070000, 0.000000,  0.000000 
 152119120.000000, -0.409173 , 3.708875, 8.951550, 283649312.000000, 0.630000,  0.280000,  0.140000, 0.000000,  0.000000 
 152139088.000000, -0.358923 , 3.711268, 8.965906, 283668992.000000, 0.490000,  0.280000,  0.140000, 0.000000,  0.000000 
 152159088.000000, -0.394816 , 3.694518, 8.997013, 283688960.000000, 0.490000,  0.280000,  0.070000, 0.000000,  0.000000 
 152179088.000000, -0.404387 , 3.742374, 8.927622, 283708960.000000, -0.280000,  0.420000,  -0.070000, 283708224.000000,  1008.929749 
 152199376.000000, -0.349352 , 3.718446, 8.982656, 283728960.000000, -0.560000,  0.490000,  -0.070000, 0.000000,  0.000000 
 152219056.000000, -0.363709 , 3.708875, 8.977871, 283749248.000000, -0.700000,  0.210000,  0.140000, 0.000000,  0.000000 
 152239056.000000, -0.358923 , 3.735196, 9.001799, 283768928.000000, -0.490000,  0.210000,  0.210000, 0.000000,  0.000000 
 152259056.000000, -0.411566 , 3.718446, 8.982656, 283788928.000000, -0.490000,  0.350000,  0.070000, 0.000000,  0.000000 
 152279024.000000, -0.337388 , 3.732803, 8.975478, 283808960.000000, 0.070000,  0.420000,  0.070000, 0.000000,  0.000000 
 152299312.000000, -0.370888 , 3.704089, 8.961121, 283828896.000000, -0.140000,  0.420000,  -0.070000, 0.000000,  0.000000 
 152318992.000000, -0.378066 , 3.706482, 8.939585, 283849216.000000, -0.630000,  0.420000,  -0.070000, 0.000000,  0.000000 
 152338992.000000, -0.404387 , 3.737589, 8.985049, 283868896.000000, -0.840000,  0.420000,  -0.070000, 0.000000,  0.000000 
 152358992.000000, -0.404387 , 3.689733, 8.982656, 283888864.000000, -0.770000,  0.420000,  0.070000, 0.000000,  0.000000 
 152378960.000000, -0.401994 , 3.687340, 8.958728, 283908864.000000, -0.560000,  0.350000,  0.070000, 0.000000,  0.000000 
 152399280.000000, -0.399601 , 3.704089, 8.930015, 283928832.000000, -0.140000,  0.350000,  0.070000, 0.000000,  0.000000 
 152418960.000000, -0.406780 , 3.718446, 8.937192, 283949152.000000, -0.140000,  0.420000,  0.070000, 0.000000,  0.000000 
 152438928.000000, -0.387637 , 3.708875, 8.982656, 283968832.000000, -0.140000,  0.350000,  0.070000, 0.000000,  0.000000 
 152458928.000000, -0.378066 , 3.728018, 8.970692, 283988800.000000, -0.350000,  0.420000,  0.070000, 0.000000,  0.000000 
 152478928.000000, -0.387637 , 3.725625, 8.987441, 284008800.000000, -0.210000,  0.350000,  0.140000, 0.000000,  0.000000 
 152499216.000000, -0.351745 , 3.696911, 8.980263, 284028800.000000, -0.140000,  0.350000,  0.140000, 0.000000,  0.000000 
 152518896.000000, -0.425922 , 3.711268, 8.965906, 284049088.000000, -0.070000,  0.350000,  0.070000, 0.000000,  0.000000 
 152538896.000000, -0.378066 , 3.716053, 8.946764, 284068768.000000, -0.210000,  0.420000,  0.070000, 0.000000,  0.000000 
 152558864.000000, -0.361316 , 3.692125, 8.963513, 284088768.000000, -0.420000,  0.490000,  0.070000, 0.000000,  0.000000 
 152578864.000000, -0.363709 , 3.716053, 9.013763, 284108736.000000, -0.630000,  0.350000,  0.070000, 0.000000,  0.000000 
 152599152.000000, -0.385244 , 3.682554, 8.989835, 284128736.000000, -0.560000,  0.280000,  0.210000, 0.000000,  0.000000 
 152618832.000000, -0.401994 , 3.708875, 8.997013, 284149024.000000, -0.280000,  0.420000,  0.070000, 0.000000,  0.000000 
 152638832.000000, -0.445065 , 3.766303, 8.925228, 284168736.000000, 0.280000,  0.560000,  -0.210000, 0.000000,  0.000000 
 152658832.000000, -0.413958 , 3.823731, 8.944371, 284188704.000000, 0.630000,  0.560000,  -0.210000, 0.000000,  0.000000 
 152678800.000000, -0.401994 , 3.665804, 8.949157, 284208704.000000, -0.490000,  0.280000,  0.210000, 0.000000,  0.000000 
 152699088.000000, -0.344566 , 3.594020, 8.989835, 284228672.000000, -2.030000,  0.210000,  0.280000, 0.000000,  0.000000 
 152718960.000000, -0.330210 , 3.605984, 9.020942, 284248992.000000, -1.820000,  0.350000,  0.140000, 0.000000,  0.000000 
 152738768.000000, -0.382852 , 3.713661, 8.968300, 284268832.000000, 0.070000,  0.350000,  0.070000, 0.000000,  0.000000 
 152758768.000000, -0.358923 , 3.787838, 8.941978, 284288640.000000, 0.840000,  0.350000,  0.070000, 0.000000,  0.000000 
 152778768.000000, -0.409173 , 3.766303, 8.934800, 284308640.000000, 1.120000,  0.420000,  -0.070000, 0.000000,  0.000000 
 152799056.000000, -0.399601 , 3.739982, 8.987441, 284328640.000000, 0.280000,  0.560000,  -0.140000, 0.000000,  0.000000 
 152818736.000000, -0.409173 , 3.704089, 8.999406, 284348928.000000, -0.840000,  0.350000,  -0.140000, 0.000000,  0.000000 
 152838736.000000, -0.409173 , 3.663411, 8.980263, 284368608.000000, -1.610000,  0.280000,  0.070000, 0.000000,  0.000000 
 152858704.000000, -0.380459 , 3.627519, 8.982656, 284408576.000000, -0.980000,  0.280000,  -0.070000, 0.000000,  0.000000 
 152878704.000000, -0.375673 , 3.641876, 8.975478, 284428576.000000, 0.210000,  0.350000,  0.070000, 0.000000,  0.000000 
 152898992.000000, -0.380459 , 3.716053, 8.956335, 0.000000, 0.000000,  0.000000,  0.000000, 0.000000,  0.000000 
 152918672.000000, -0.339781 , 3.711268, 8.994620, 284448864.000000, 0.490000,  0.420000,  0.070000, 0.000000,  0.000000 
 152938672.000000, -0.399601 , 3.713661, 9.008978, 284468544.000000, 0.210000,  0.350000,  0.070000, 0.000000,  0.000000 
 152958672.000000, -0.430708 , 3.737589, 8.989835, 284488544.000000, -0.140000,  0.280000,  0.070000, 0.000000,  0.000000 
 152978640.000000, -0.445065 , 3.684947, 8.982656, 284508544.000000, -0.210000,  0.350000,  0.070000, 0.000000,  0.000000 
 152998928.000000, -0.375673 , 3.680161, 9.016156, 284528512.000000, -0.630000,  0.350000,  0.070000, 0.000000,  0.000000 
 153018608.000000, -0.370888 , 3.694518, 8.994620, 284548832.000000, -0.770000,  0.210000,  0.140000, 0.000000,  0.000000 
 153038608.000000, -0.378066 , 3.713661, 8.975478, 284568480.000000, -0.350000,  0.210000,  0.210000, 0.000000,  0.000000 
 153058608.000000, -0.409173 , 3.751946, 8.977871, 284588480.000000, 0.140000,  0.350000,  0.070000, 0.000000,  0.000000 
 153078576.000000, -0.382852 , 3.706482, 8.958728, 284608480.000000, 0.140000,  0.490000,  0.070000, 0.000000,  0.000000 
 153098896.000000, -0.370888 , 3.704089, 8.951550, 284628448.000000, -0.140000,  0.350000,  0.070000, 0.000000,  0.000000 
 153118576.000000, -0.440279 , 3.680161, 8.975478, 284648768.000000, -0.490000,  0.350000,  0.070000, 0.000000,  0.000000 
 153138544.000000, -0.370888 , 3.677768, 8.963513, 284668448.000000, -0.630000,  0.490000,  0.070000, 0.000000,  0.000000 
 153158544.000000, -0.401994 , 3.675375, 8.968300, 284708416.000000, -0.700000,  0.350000,  0.070000, 284707680.000000,  1008.930237 
 153178512.000000, -0.421137 , 3.682554, 8.946764, 0.000000, 0.000000,  0.000000,  0.000000, 0.000000,  0.000000 
 153198832.000000, -0.378066 , 3.699304, 8.951550, 284728416.000000, -0.280000,  0.350000,  0.070000, 0.000000,  0.000000 
 153218512.000000, -0.363709 , 3.732803, 8.937192, 284748704.000000, -0.140000,  0.350000,  0.070000, 0.000000,  0.000000 
 153238480.000000, -0.375673 , 3.699304, 8.965906, 284768384.000000, -0.210000,  0.420000,  -0.070000, 0.000000,  0.000000 
 153258512.000000, -0.406780 , 3.677768, 8.939585, 284788384.000000, -0.210000,  0.350000,  -0.070000, 0.000000,  0.000000 
 153278480.000000, -0.378066 , 3.720839, 8.941978, 284808384.000000, -0.210000,  0.280000,  0.070000, 0.000000,  0.000000 
 153298800.000000, -0.397209 , 3.684947, 8.961121, 284828352.000000, -0.140000,  0.280000,  0.070000, 0.000000,  0.000000 
 153318448.000000, -0.390030 , 3.692125, 8.965906, 284848672.000000, -0.280000,  0.350000,  0.070000, 0.000000,  0.000000 
 153338448.000000, -0.413958 , 3.692125, 8.951550, 284868320.000000, -0.420000,  0.420000,  0.070000, 0.000000,  0.000000 
 153358416.000000, -0.380459 , 3.689733, 8.973085, 284888320.000000, -0.350000,  0.420000,  0.070000, 0.000000,  0.000000 
 153378416.000000, -0.430708 , 3.694518, 8.968300, 284908320.000000, -0.280000,  0.280000,  0.210000, 0.000000,  0.000000 
 153399024.000000, -0.375673 , 3.687340, 8.963513, 284928288.000000, -0.210000,  0.280000,  0.070000, 0.000000,  0.000000 
 153418416.000000, -0.425922 , 3.761517, 8.930015, 284948896.000000, 0.070000,  0.560000,  -0.210000, 0.000000,  0.000000 
 153438384.000000, -0.404387 , 3.768696, 8.932407, 284968288.000000, 0.280000,  0.560000,  -0.280000, 0.000000,  0.000000 
 153458384.000000, -0.346959 , 3.689733, 8.963513, 284988256.000000, -0.770000,  0.280000,  0.210000, 0.000000,  0.000000 
 153478352.000000, -0.390030 , 3.579663, 8.980263, 285008256.000000, -2.030000,  0.210000,  0.280000, 0.000000,  0.000000 
 153498672.000000, -0.452243 , 3.658626, 8.999406, 285028224.000000, -1.470000,  0.280000,  0.140000, 0.000000,  0.000000 
 153518352.000000, -0.394816 , 3.756732, 8.968300, 285048544.000000, 0.280000,  0.280000,  0.140000, 0.000000,  0.000000 
 153538320.000000, -0.392423 , 3.761517, 8.963513, 285068224.000000, 1.190000,  0.350000,  0.140000, 0.000000,  0.000000 
 153558320.000000, -0.409173 , 3.723232, 8.949157, 285088192.000000, 0.700000,  0.420000,  -0.070000, 0.000000,  0.000000 
 153578320.000000, -0.358923 , 3.775874, 8.920443, 285108192.000000, -0.280000,  0.420000,  -0.070000, 0.000000,  0.000000 
 153598608.000000, -0.416351 , 3.665804, 9.013763, 285128192.000000, -1.120000,  0.350000,  0.140000, 0.000000,  0.000000 
 153618288.000000, -0.380459 , 3.689733, 8.997013, 285148480.000000, -1.610000,  0.490000,  -0.070000, 0.000000,  0.000000 
 153638288.000000, -0.423530 , 3.665804, 8.953942, 285168160.000000, -1.330000,  0.350000,  -0.070000, 0.000000,  0.000000 
 153658256.000000, -0.423530 , 3.653840, 8.968300, 285188160.000000, -0.490000,  0.210000,  0.070000, 0.000000,  0.000000 
 153678256.000000, -0.399601 , 3.708875, 8.934800, 285208128.000000, 0.140000,  0.350000,  0.070000, 0.000000,  0.000000 
 153698544.000000, -0.380459 , 3.670590, 8.937192, 285228128.000000, 0.140000,  0.350000,  0.070000, 0.000000,  0.000000 
 153718224.000000, -0.344566 , 3.689733, 8.975478, 285248448.000000, -0.210000,  0.350000,  0.070000, 0.000000,  0.000000 
 153738224.000000, -0.378066 , 3.737589, 8.977871, 285268096.000000, -0.210000,  0.420000,  -0.070000, 0.000000,  0.000000 
 153758224.000000, -0.406780 , 3.723232, 8.968300, 285288096.000000, -0.140000,  0.490000,  -0.070000, 0.000000,  0.000000 
 153778192.000000, -0.315853 , 3.672983, 8.951550, 285308096.000000, -0.700000,  0.350000,  -0.070000, 0.000000,  0.000000 
 153798512.000000, -0.392423 , 3.649055, 8.961121, 285328064.000000, -0.630000,  0.210000,  0.210000, 0.000000,  0.000000 
 153818192.000000, -0.375673 , 3.716053, 8.977871, 285348384.000000, -0.350000,  0.280000,  0.140000, 0.000000,  0.000000 
 153838160.000000, -0.416351 , 3.682554, 8.975478, 285368064.000000, -0.070000,  0.420000,  0.140000, 0.000000,  0.000000 
 153858160.000000, -0.378066 , 3.680161, 8.934800, 285388032.000000, -0.140000,  0.420000,  -0.070000, 0.000000,  0.000000 
 153878128.000000, -0.394816 , 3.704089, 8.910872, 285408032.000000, -0.350000,  0.420000,  -0.070000, 0.000000,  0.000000 
 153898448.000000, -0.397209 , 3.723232, 8.980263, 285428032.000000, -0.420000,  0.350000,  -0.070000, 0.000000,  0.000000 
 153918128.000000, -0.387637 , 3.675375, 8.963513, 285448320.000000, -0.630000,  0.420000,  0.070000, 0.000000,  0.000000 
 153938096.000000, -0.404387 , 3.684947, 8.997013, 285468000.000000, -0.770000,  0.350000,  0.070000, 0.000000,  0.000000 
 153958096.000000, -0.392423 , 3.723232, 8.946764, 285488000.000000, -0.420000,  0.420000,  0.070000, 0.000000,  0.000000 
 153978096.000000, -0.387637 , 3.689733, 8.934800, 285507968.000000, -0.140000,  0.420000,  0.070000, 0.000000,  0.000000 
 153998384.000000, -0.421137 , 3.682554, 8.987441, 285527968.000000, -0.210000,  0.420000,  0.070000, 0.000000,  0.000000 
 154018064.000000, -0.411566 , 3.692125, 8.997013, 285548256.000000, -0.140000,  0.420000,  0.070000, 0.000000,  0.000000 
 154038064.000000, -0.411566 , 3.749553, 8.927622, 285567936.000000, -0.140000,  0.420000,  0.070000, 0.000000,  0.000000 
 154058032.000000, -0.363709 , 3.723232, 8.973085, 285587936.000000, -0.070000,  0.350000,  0.070000, 0.000000,  0.000000 
 154078032.000000, -0.401994 , 3.680161, 8.951550, 285607936.000000, -0.280000,  0.350000,  0.070000, 0.000000,  0.000000 
 154098320.000000, -0.394816 , 3.684947, 8.958728, 285627904.000000, -0.490000,  0.490000,  0.070000, 0.000000,  0.000000 
 154118032.000000, -0.375673 , 3.708875, 8.977871, 285648224.000000, -0.490000,  0.560000,  0.070000, 0.000000,  0.000000 
 154138000.000000, -0.401994 , 3.687340, 8.932407, 285667904.000000, -0.210000,  0.350000,  0.070000, 0.000000,  0.000000 
 154158000.000000, -0.334995 , 3.684947, 9.004191, 285707872.000000, -0.070000,  0.350000,  0.140000, 285707136.000000,  1008.929382 
 154177968.000000, -0.394816 , 3.718446, 8.975478, 0.000000, 0.000000,  0.000000,  0.000000, 0.000000,  0.000000 
 154198288.000000, -0.406780 , 3.771089, 8.953942, 285727872.000000, -0.070000,  0.420000,  -0.070000, 0.000000,  0.000000 
 154217968.000000, -0.428315 , 3.783052, 8.922836, 285748160.000000, 0.210000,  0.490000,  -0.280000, 0.000000,  0.000000 
 154237936.000000, -0.406780 , 3.672983, 8.977871, 285767840.000000, -0.560000,  0.490000,  0.070000, 0.000000,  0.000000 
 154257968.000000, -0.361316 , 3.562913, 8.977871, 285787840.000000, -1.680000,  0.210000,  0.280000, 0.000000,  0.000000 
 154277936.000000, -0.339781 , 3.598805, 9.004191, 285807840.000000, -1.260000,  0.070000,  0.420000, 0.000000,  0.000000 
 154298224.000000, -0.394816 , 3.723232, 9.008978, 285827808.000000, 0.490000,  0.210000,  0.280000, 0.000000,  0.000000 
 154317904.000000, -0.401994 , 3.763910, 8.946764, 285848096.000000, 1.680000,  0.420000,  0.070000, 0.000000,  0.000000 
 154338064.000000, -0.433101 , 3.787838, 8.922836, 285867776.000000, 1.260000,  0.420000,  0.070000, 0.000000,  0.000000 
 154357872.000000, -0.375673 , 3.728018, 8.939585, 285887936.000000, 0.140000,  0.350000,  0.070000, 0.000000,  0.000000 
 154377872.000000, -0.370888 , 3.699304, 8.963513, 285907744.000000, -0.770000,  0.420000,  0.140000, 0.000000,  0.000000 
 154398160.000000, -0.411566 , 3.680161, 9.018548, 285927744.000000, -1.190000,  0.420000,  0.070000, 0.000000,  0.000000 
 154417840.000000, -0.421137 , 3.646662, 8.999406, 285948064.000000, -1.260000,  0.350000,  0.070000, 0.000000,  0.000000 
 154437840.000000, -0.349352 , 3.699304, 8.958728, 285967744.000000, -0.560000,  0.420000,  0.070000, 0.000000,  0.000000 
 154457840.000000, -0.370888 , 3.699304, 8.965906, 285987712.000000, 0.140000,  0.350000,  0.070000, 0.000000,  0.000000 
 154477808.000000, -0.382852 , 3.701697, 8.963513, 286007712.000000, 0.070000,  0.420000,  0.070000, 0.000000,  0.000000 
 154498128.000000, -0.370888 , 3.646662, 8.987441, 286027712.000000, -0.210000,  0.280000,  0.070000, 0.000000,  0.000000 
 154517808.000000, -0.394816 , 3.728018, 8.965906, 286048000.000000, -0.070000,  0.350000,  0.070000, 0.000000,  0.000000 
 154537776.000000, -0.394816 , 3.716053, 8.970692, 286067680.000000, 0.070000,  0.420000,  0.070000, 0.000000,  0.000000 
 154557776.000000, -0.385244 , 3.723232, 8.946764, 286087680.000000, -0.210000,  0.350000,  0.070000, 0.000000,  0.000000 
 154577776.000000, -0.339781 , 3.716053, 8.939585, 286107648.000000, -0.350000,  0.140000,  0.210000, 0.000000,  0.000000 
 154598224.000000, -0.385244 , 3.692125, 8.965906, 286127648.000000, -0.210000,  0.210000,  0.280000, 0.000000,  0.000000 
 154617744.000000, -0.385244 , 3.713661, 8.968300, 286148128.000000, -0.210000,  0.350000,  0.140000, 0.000000,  0.000000 
 154637744.000000, -0.366102 , 3.739982, 8.958728, 286167616.000000, -0.280000,  0.490000,  -0.070000, 0.000000,  0.000000 
 154657712.000000, -0.394816 , 3.713661, 8.982656, 286187616.000000, -0.420000,  0.420000,  -0.070000, 0.000000,  0.000000 
 154677712.000000, -0.399601 , 3.723232, 8.987441, 286207584.000000, -0.420000,  0.350000,  0.070000, 0.000000,  0.000000 
 154698000.000000, -0.404387 , 3.720839, 8.963513, 286227584.000000, -0.420000,  0.420000,  0.070000, 0.000000,  0.000000 
 154717680.000000, -0.425922 , 3.670590, 8.985049, 286247872.000000, -0.560000,  0.420000,  0.070000, 0.000000,  0.000000 
 154737680.000000, -0.380459 , 3.689733, 8.965906, 286267584.000000, -0.700000,  0.350000,  0.070000, 0.000000,  0.000000 
 154757680.000000, -0.404387 , 3.672983, 8.961121, 286287552.000000, -0.630000,  0.350000,  0.070000, 0.000000,  0.000000 
 154777648.000000, -0.392423 , 3.701697, 8.970692, 286307552.000000, -0.420000,  0.420000,  0.070000, 0.000000,  0.000000 
 154797968.000000, -0.433101 , 3.713661, 8.975478, 286327520.000000, -0.210000,  0.420000,  0.070000, 0.000000,  0.000000 
 154817648.000000, -0.330210 , 3.713661, 8.941978, 286347840.000000, -0.070000,  0.420000,  0.070000, 0.000000,  0.000000 
 154837616.000000, -0.378066 , 3.723232, 8.975478, 286367520.000000, 0.140000,  0.350000,  0.140000, 0.000000,  0.000000 
 154857616.000000, -0.375673 , 3.723232, 8.953942, 286387488.000000, 0.140000,  0.280000,  0.140000, 0.000000,  0.000000 
 154877584.000000, -0.397209 , 3.713661, 8.918050, 286407488.000000, -0.210000,  0.350000,  0.070000, 0.000000,  0.000000 
 154897904.000000, -0.375673 , 3.696911, 8.965906, 286427456.000000, -0.490000,  0.490000,  0.070000, 0.000000,  0.000000 
 154917584.000000, -0.380459 , 3.706482, 8.987441, 286447776.000000, -0.700000,  0.420000,  0.070000, 0.000000,  0.000000 
 154937552.000000, -0.361316 , 3.759124, 8.953942, 286467456.000000, -0.420000,  0.350000,  0.140000, 0.000000,  0.000000 
 154957552.000000, -0.385244 , 3.725625, 9.035298, 286487424.000000, -0.140000,  0.350000,  0.210000, 0.000000,  0.000000 
 154977552.000000, -0.413958 , 3.785445, 8.934800, 286507424.000000, 0.210000,  0.420000,  0.210000, 0.000000,  0.000000 
 154997840.000000, -0.449851 , 3.809374, 8.910872, 286527424.000000, 0.490000,  0.490000,  -0.280000, 0.000000,  0.000000 
 155017520.000000, -0.370888 , 3.692125, 8.973085, 286547712.000000, -0.210000,  0.420000,  -0.070000, 0.000000,  0.000000 
 155037520.000000, -0.330210 , 3.598805, 8.987441, 286567392.000000, -1.820000,  0.210000,  0.350000, 0.000000,  0.000000 
 155057488.000000, -0.346959 , 3.632305, 9.011370, 286587392.000000, -2.100000,  0.210000,  0.280000, 0.000000,  0.000000 
 155077488.000000, -0.349352 , 3.699304, 8.987441, 286607360.000000, -0.350000,  0.350000,  0.140000, 0.000000,  0.000000 
 155097808.000000, -0.428315 , 3.771089, 8.932407, 286627360.000000, 1.400000,  0.420000,  0.070000, 0.000000,  0.000000 
 155117456.000000, -0.409173 , 3.725625, 8.932407, 286647680.000000, 1.400000,  0.490000,  0.070000, 0.000000,  0.000000 
 155137456.000000, -0.380459 , 3.739982, 8.927622, 286667328.000000, 0.070000,  0.420000,  0.070000, 0.000000,  0.000000 
 155157456.000000, -0.418744 , 3.720839, 8.956335, 286707328.000000, -1.680000,  0.420000,  0.070000, 286706592.000000,  1008.929871 
 155177424.000000, -0.380459 , 3.668197, 8.987441, 0.000000, 0.000000,  0.000000,  0.000000, 0.000000,  0.000000 
 155197744.000000, -0.380459 , 3.649055, 8.985049, 286727296.000000, -1.540000,  0.350000,  -0.070000, 0.000000,  0.000000 
 155217424.000000, -0.394816 , 3.696911, 8.925228, 286747616.000000, -0.630000,  0.350000,  -0.070000, 0.000000,  0.000000 
 155237392.000000, -0.344566 , 3.725625, 8.915657, 286767296.000000, 0.420000,  0.280000,  0.140000, 0.000000,  0.000000 
 155257424.000000, -0.361316 , 3.775874, 8.961121, 286787264.000000, 0.420000,  0.420000,  0.140000, 0.000000,  0.000000 
 155277360.000000, -0.387637 , 3.744767, 8.949157, 286807296.000000, -0.140000,  0.350000,  0.140000, 0.000000,  0.000000 
 155297680.000000, -0.411566 , 3.761517, 8.925228, 286827264.000000, -0.350000,  0.350000,  0.140000, 0.000000,  0.000000 
 155317360.000000, -0.416351 , 3.749553, 8.980263, 286847552.000000, -0.280000,  0.490000,  0.140000, 0.000000,  0.000000 
 155337328.000000, -0.368495 , 3.682554, 8.961121, 286867232.000000, -0.490000,  0.420000,  0.070000, 0.000000,  0.000000 
 155357328.000000, -0.390030 , 3.687340, 8.958728, 286887232.000000, -0.420000,  0.280000,  0.210000, 0.000000,  0.000000 
 155377328.000000, -0.406780 , 3.725625, 8.958728, 286907200.000000, -0.070000,  0.210000,  0.210000, 0.000000,  0.000000 
 155397616.000000, -0.380459 , 3.744767, 8.958728, 286927200.000000, -0.070000,  0.350000,  0.140000, 0.000000,  0.000000 
 155417296.000000, -0.385244 , 3.735196, 8.963513, 286947520.000000, -0.280000,  0.420000,  0.140000, 0.000000,  0.000000 
 155437296.000000, -0.440279 , 3.696911, 8.968300, 286967168.000000, -0.630000,  0.490000,  0.140000, 0.000000,  0.000000 
 155457264.000000, -0.356531 , 3.723232, 8.961121, 286987168.000000, -0.700000,  0.490000,  -0.070000, 0.000000,  0.000000 
 155477264.000000, -0.373280 , 3.766303, 8.970692, 287007168.000000, -0.770000,  0.420000,  0.070000, 0.000000,  0.000000 
 155497552.000000, -0.344566 , 3.718446, 8.975478, 287027136.000000, -0.770000,  0.420000,  0.070000, 0.000000,  0.000000 
 155517232.000000, -0.346959 , 3.687340, 8.920443, 287047456.000000, -0.630000,  0.280000,  0.070000, 0.000000,  0.000000 
 155537232.000000, -0.349352 , 3.768696, 8.968300, 287067136.000000, -0.350000,  0.350000,  0.070000, 0.000000,  0.000000 
 155557232.000000, -0.409173 , 3.675375, 8.944371, 287087104.000000, -0.210000,  0.490000,  0.070000, 0.000000,  0.000000 
 155577200.000000, -0.428315 , 3.706482, 8.977871, 287107104.000000, -0.140000,  0.420000,  0.070000, 0.000000,  0.000000 
 155597520.000000, -0.373280 , 3.756732, 8.949157, 287127072.000000, -0.140000,  0.350000,  0.070000, 0.000000,  0.000000 
 155617200.000000, -0.394816 , 3.742374, 8.958728, 287147392.000000, -0.140000,  0.350000,  0.140000, 0.000000,  0.000000 
 155637168.000000, -0.382852 , 3.701697, 8.973085, 287167072.000000, -0.210000,  0.420000,  0.140000, 0.000000,  0.000000 
 155657168.000000, -0.418744 , 3.689733, 8.989835, 287187040.000000, -0.420000,  0.420000,  0.140000, 0.000000,  0.000000 
 155677168.000000, -0.370888 , 3.716053, 8.965906, 287207040.000000, -0.420000,  0.350000,  0.070000, 0.000000,  0.000000 
 155697456.000000, -0.346959 , 3.701697, 8.992228, 287227040.000000, -0.350000,  0.280000,  0.210000, 0.000000,  0.000000 
 155717136.000000, -0.375673 , 3.739982, 8.970692, 287247328.000000, -0.210000,  0.280000,  0.070000, 0.000000,  0.000000 
 155737136.000000, -0.497707 , 3.742374, 8.901299, 287267008.000000, 0.210000,  0.560000,  -0.350000, 0.000000,  0.000000 
 155757104.000000, -0.351745 , 3.768696, 8.937192, 287287008.000000, 0.280000,  0.490000,  -0.210000, 0.000000,  0.000000 
 155777104.000000, -0.378066 , 3.644269, 8.953942, 287306976.000000, -0.840000,  0.140000,  0.350000, 0.000000,  0.000000 
 155797392.000000, -0.401994 , 3.570091, 8.982656, 287326976.000000, -1.960000,  0.140000,  0.350000, 0.000000,  0.000000 
 155817072.000000, -0.358923 , 3.708875, 9.085547, 287347264.000000, -1.050000,  0.350000,  0.070000, 0.000000,  0.000000 
 155837072.000000, -0.370888 , 3.739982, 8.992228, 287366944.000000, 0.560000,  0.280000,  0.070000, 0.000000,  0.000000 
 155857040.000000, -0.392423 , 3.780660, 8.934800, 287386944.000000, 0.980000,  0.420000,  -0.140000, 0.000000,  0.000000 
 155877040.000000, -0.428315 , 3.742374, 8.930015, 287406944.000000, 0.280000,  0.420000,  -0.210000, 0.000000,  0.000000 
 155897360.000000, -0.375673 , 3.708875, 8.968300, 287426912.000000, -0.770000,  0.420000,  -0.210000, 0.000000,  0.000000 
 155917008.000000, -0.368495 , 3.658626, 8.999406, 287447232.000000, -1.540000,  0.420000,  -0.210000, 0.000000,  0.000000 
 155937008.000000, -0.358923 , 3.687340, 8.965906, 287466912.000000, -1.610000,  0.420000,  -0.070000, 0.000000,  0.000000 
 155957008.000000, -0.390030 , 3.641876, 8.920443, 287486880.000000, -0.980000,  0.280000,  -0.070000, 0.000000,  0.000000 
 155977008.000000, -0.387637 , 3.735196, 8.970692, 287506880.000000, -0.980000,  0.280000,  0.070000, 0.000000,  0.000000 
 155997296.000000, -0.351745 , 3.732803, 8.977871, 287526880.000000, 0.490000,  0.350000,  0.070000, 0.000000,  0.000000 
 156016976.000000, -0.358923 , 3.737589, 8.975478, 287547168.000000, 0.140000,  0.280000,  0.070000, 0.000000,  0.000000 
 156036944.000000, -0.413958 , 3.720839, 8.973085, 287566848.000000, -0.140000,  0.210000,  0.070000, 0.000000,  0.000000 
 156056944.000000, -0.409173 , 3.780660, 8.958728, 287586848.000000, -0.140000,  0.420000,  -0.070000, 0.000000,  0.000000 
 156076944.000000, -0.394816 , 3.684947, 8.985049, 287606816.000000, -0.210000,  0.490000,  -0.070000, 0.000000,  0.000000 
 156097232.000000, -0.397209 , 3.665804, 8.961121, 287626816.000000, -0.700000,  0.280000,  0.140000, 0.000000,  0.000000 
 156116912.000000, -0.337388 , 3.696911, 8.973085, 287647104.000000, -0.700000,  0.210000,  0.210000, 0.000000,  0.000000 
 156136912.000000, -0.401994 , 3.708875, 8.968300, 287666784.000000, -0.210000,  0.280000,  0.140000, 0.000000,  0.000000 
 156156880.000000, -0.358923 , 3.682554, 8.953942, 287686784.000000, 0.070000,  0.560000,  -0.070000, 0.000000,  0.000000 
 156176880.000000, -0.454636 , 3.675375, 8.939585, 287706784.000000, -0.070000,  0.490000,  -0.070000, 287706048.000000,  1008.929443 
 156197168.000000, -0.380459 , 3.718446, 8.951550, 287726752.000000, -0.280000,  0.280000,  -0.070000, 0.000000,  0.000000 
 156216848.000000, -0.399601 , 3.751946, 8.951550, 287747072.000000, -0.630000,  0.350000,  0.070000, 0.000000,  0.000000 
 156236848.000000, -0.375673 , 3.718446, 8.980263, 287766752.000000, -0.770000,  0.420000,  0.070000, 0.000000,  0.000000 
 156256880.000000, -0.346959 , 3.708875, 8.932407, 287786720.000000, -0.700000,  0.350000,  0.070000, 0.000000,  0.000000 
 156276848.000000, -0.373280 , 3.680161, 8.958728, 287806752.000000, -0.210000,  0.280000,  0.070000, 0.000000,  0.000000 
 156297136.000000, -0.370888 , 3.692125, 8.925228, 287826720.000000, 0.280000,  0.350000,  0.070000, 0.000000,  0.000000 
 156316816.000000, -0.361316 , 3.751946, 8.997013, 287847008.000000, 0.280000,  0.420000,  0.070000, 0.000000,  0.000000 
 156336784.000000, -0.380459 , 3.680161, 9.028119, 287866688.000000, 0.280000,  0.420000,  0.070000, 0.000000,  0.000000 
 156356784.000000, -0.390030 , 3.550949, 8.941978, 287886688.000000, -0.140000,  0.350000,  0.070000, 0.000000,  0.000000 
 156376784.000000, -0.354138 , 3.656233, 8.894121, 287906656.000000, 1.680000,  0.700000,  0.280000, 0.000000,  0.000000 
 156397072.000000, -0.406780 , 3.775874, 8.913264, 287926656.000000, 3.360000,  0.560000,  0.280000, 0.000000,  0.000000 
 156416752.000000, -0.368495 , 3.538985, 8.997013, 287946944.000000, 4.970000,  1.050000,  0.420000, 0.000000,  0.000000 
 156436752.000000, -0.358923 , 3.912265, 8.848659, 287966624.000000, 5.250000,  0.980000,  0.210000, 0.000000,  0.000000 
 156456720.000000, -0.346959 , 4.034299, 8.903693, 287986624.000000, 5.810000,  0.420000,  1.050000, 0.000000,  0.000000 
 156476720.000000, -0.394816 , 3.897908, 8.951550, 288006624.000000, 2.520000,  -0.140000,  -0.140000, 0.000000,  0.000000 
 156497008.000000, -0.428315 , 3.802195, 8.939585, 288026592.000000, -0.140000,  0.560000,  0.140000, 0.000000,  0.000000 
 156516720.000000, -0.390030 , 3.787838, 8.941978, 288046912.000000, -0.980000,  0.560000,  -0.490000, 0.000000,  0.000000 
 156536688.000000, -0.433101 , 3.747160, 9.028119, 288066592.000000, -1.470000,  0.490000,  -0.490000, 0.000000,  0.000000 
 156556688.000000, -0.378066 , 3.672983, 8.994620, 288086560.000000, -1.960000,  0.140000,  0.140000, 0.000000,  0.000000 
 156576656.000000, -0.370888 , 3.737589, 9.006584, 288106560.000000, -0.630000,  -0.070000,  -0.070000, 0.000000,  0.000000 
 156596976.000000, -0.378066 , 3.864408, 8.915657, 288126560.000000, 0.490000,  -0.280000,  0.420000, 0.000000,  0.000000 
 156616656.000000, -0.363709 , 3.940979, 8.863015, 288146848.000000, 2.590000,  0.070000,  0.140000, 0.000000,  0.000000 
 156636624.000000, -0.358923 , 3.854837, 8.894121, 288166528.000000, 2.450000,  0.210000,  -0.210000, 0.000000,  0.000000 
 156656624.000000, -0.399601 , 3.854837, 8.920443, 288186528.000000, 1.050000,  0.490000,  -0.070000, 0.000000,  0.000000 
 156676592.000000, -0.373280 , 3.783052, 8.925228, 288206496.000000, -0.910000,  0.490000,  -0.070000, 0.000000,  0.000000 
 156696912.000000, -0.409173 , 3.751946, 8.946764, 288226496.000000, -1.680000,  0.350000,  -0.070000, 0.000000,  0.000000 
 156716592.000000, -0.423530 , 3.737589, 8.932407, 288246784.000000, -1.680000,  0.350000,  -0.070000, 0.000000,  0.000000 
 156736560.000000, -0.373280 , 3.761517, 8.963513, 288266464.000000, -0.910000,  0.350000,  -0.140000, 0.000000,  0.000000 
 156756560.000000, -0.380459 , 3.840480, 8.906086, 288286464.000000, 0.210000,  0.350000,  -0.140000, 0.000000,  0.000000 
 156776560.000000, -0.435494 , 3.850052, 8.922836, 288306432.000000, 0.700000,  0.350000,  0.140000, 0.000000,  0.000000 
 156796848.000000, -0.399601 , 3.821337, 8.937192, 288326432.000000, 0.350000,  0.420000,  0.070000, 0.000000,  0.000000 
 156816528.000000, -0.397209 , 3.840480, 8.939585, 288346752.000000, -0.140000,  0.350000,  0.070000, 0.000000,  0.000000 
 156836528.000000, -0.385244 , 3.806981, 8.927622, 288366400.000000, -0.210000,  0.420000,  0.070000, 0.000000,  0.000000 
 156856496.000000, -0.413958 , 3.852444, 8.941978, 288386400.000000, -0.140000,  0.490000,  -0.070000, 0.000000,  0.000000 
 156876496.000000, -0.385244 , 3.806981, 8.973085, 288406368.000000, -0.420000,  0.350000,  0.070000, 0.000000,  0.000000 
 156896816.000000, -0.320638 , 3.763910, 8.946764, 288426368.000000, -0.350000,  0.140000,  0.210000, 0.000000,  0.000000 
 156916464.000000, -0.378066 , 3.857230, 8.941978, 288446688.000000, -0.070000,  0.210000,  0.210000, 0.000000,  0.000000 
 156936464.000000, -0.380459 , 3.814159, 8.910872, 288466368.000000, 0.070000,  0.420000,  0.210000, 0.000000,  0.000000 
 156956464.000000, -0.363709 , 3.811767, 8.913264, 288486336.000000, -0.070000,  0.490000,  -0.140000, 0.000000,  0.000000 
 156976432.000000, -0.404387 , 3.835695, 8.886944, 288506336.000000, -0.350000,  0.420000,  -0.070000, 0.000000,  0.000000 
 156996752.000000, -0.373280 , 3.780660, 8.937192, 288526304.000000, -0.490000,  0.350000,  0.070000, 0.000000,  0.000000 
 157016432.000000, -0.354138 , 3.720839, 8.939585, 288546624.000000, -0.560000,  0.350000,  0.140000, 0.000000,  0.000000 
 157036400.000000, -0.399601 , 3.775874, 8.927622, 288566304.000000, -0.280000,  0.350000,  0.140000, 0.000000,  0.000000 
 157056400.000000, -0.401994 , 3.799802, 8.860621, 288586272.000000, 0.210000,  0.280000,  0.070000, 0.000000,  0.000000 
 157076400.000000, -0.390030 , 3.838088, 8.889337, 288606272.000000, 0.350000,  0.420000,  0.070000, 0.000000,  0.000000 
 157096688.000000, -0.401994 , 3.804588, 8.922836, 288626272.000000, 0.350000,  0.420000,  0.070000, 0.000000,  0.000000 
 157116368.000000, -0.392423 , 3.768696, 8.872586, 288646560.000000, -0.420000,  0.420000,  0.140000, 0.000000,  0.000000 
 157136336.000000, -0.368495 , 3.818945, 8.915657, 288666240.000000, -0.280000,  0.420000,  0.070000, 0.000000,  0.000000 
 157156336.000000, -0.416351 , 3.842873, 8.908479, 288686240.000000, -0.280000,  0.350000,  0.070000, 0.000000,  0.000000 
 157176336.000000, -0.406780 , 3.840480, 8.896514, 288706208.000000, 0.140000,  0.350000,  0.070000, 288705472.000000,  1008.927734 
 157196656.000000, -0.354138 , 3.802195, 8.915657, 288726208.000000, -0.210000,  0.420000,  -0.070000, 0.000000,  0.000000 
 157216304.000000, -0.390030 , 3.773481, 8.944371, 288746528.000000, -0.560000,  0.490000,  -0.070000, 0.000000,  0.000000 
 157236304.000000, -0.394816 , 3.775874, 8.939585, 288766176.000000, -0.770000,  0.420000,  0.070000, 0.000000,  0.000000 
 157256336.000000, -0.318245 , 3.823731, 8.963513, 288786176.000000, -0.350000,  0.350000,  0.210000, 0.000000,  0.000000 
 157276272.000000, -0.344566 , 3.797409, 8.939585, 288806208.000000, 0.140000,  0.280000,  0.210000, 0.000000,  0.000000 
 157296592.000000, -0.404387 , 3.845266, 8.903693, 288826144.000000, 0.350000,  0.350000,  0.070000, 0.000000,  0.000000 
 157316240.000000, -0.454636 , 3.955336, 8.867801, 288846464.000000, 0.630000,  0.490000,  -0.210000, 0.000000,  0.000000 
 157336240.000000, -0.373280 , 3.881158, 8.886944, 288866144.000000, 0.630000,  0.490000,  -0.140000, 0.000000,  0.000000 
 157356240.000000, -0.361316 , 3.675375, 8.920443, 288886112.000000, -1.610000,  0.280000,  0.280000, 0.000000,  0.000000 
 157376208.000000, -0.351745 , 3.728018, 8.913264, 288906112.000000, -2.240000,  0.210000,  0.350000, 0.000000,  0.000000 
 157396528.000000, -0.378066 , 3.835695, 8.958728, 288926112.000000, -0.630000,  0.280000,  0.140000, 0.000000,  0.000000 
 157416208.000000, -0.394816 , 3.881158, 8.889337, 288946400.000000, 1.260000,  0.420000,  0.140000, 0.000000,  0.000000 
 157436176.000000, -0.423530 , 3.895515, 8.884550, 288966080.000000, 1.610000,  0.420000,  -0.070000, 0.000000,  0.000000 
 157456176.000000, -0.349352 , 3.869194, 8.865408, 288986048.000000, 0.630000,  0.420000,  -0.070000, 0.000000,  0.000000 
 157476176.000000, -0.421137 , 3.811767, 8.889337, 289006048.000000, -0.490000,  0.350000,  0.070000, 0.000000,  0.000000 
 157496464.000000, -0.404387 , 3.778267, 8.932407, 289026048.000000, -1.330000,  0.420000,  0.070000, 0.000000,  0.000000 
 157516144.000000, -0.404387 , 3.737589, 8.937192, 289046336.000000, -1.680000,  0.420000,  -0.070000, 0.000000,  0.000000 
 157536144.000000, -0.392423 , 3.792624, 8.891729, 289066016.000000, -1.050000,  0.350000,  0.070000, 0.000000,  0.000000 
 157556112.000000, -0.406780 , 3.816552, 8.910872, 289086016.000000, 0.070000,  0.350000,  0.070000, 0.000000,  0.000000 
 157576112.000000, -0.344566 , 3.873980, 8.915657, 289105984.000000, 0.560000,  0.350000,  0.140000, 0.000000,  0.000000 
 157596400.000000, -0.409173 , 3.818945, 8.894121, 289125984.000000, 0.210000,  0.280000,  0.140000, 0.000000,  0.000000 
 157616080.000000, -0.394816 , 3.850052, 8.920443, 289146304.000000, -0.070000,  0.280000,  0.070000, 0.000000,  0.000000 
 157636080.000000, -0.401994 , 3.854837, 8.903693, 289165984.000000, -0.070000,  0.490000,  0.070000, 0.000000,  0.000000 
 157656080.000000, -0.344566 , 3.785445, 8.927622, 289185952.000000, -0.350000,  0.420000,  0.070000, 0.000000,  0.000000 
 157676048.000000, -0.354138 , 3.771089, 8.896514, 289205952.000000, -0.700000,  0.280000,  0.140000, 0.000000,  0.000000 
 157696368.000000, -0.346959 , 3.826123, 8.906086, 289225920.000000, -0.420000,  0.210000,  0.210000, 0.000000,  0.000000 
 157716048.000000, -0.354138 , 3.828516, 8.920443, 289246240.000000, -0.070000,  0.350000,  0.140000, 0.000000,  0.000000 
 157736016.000000, -0.416351 , 3.833302, 8.891729, 289265920.000000, -0.070000,  0.420000,  0.070000, 0.000000,  0.000000 
 157756016.000000, -0.346959 , 3.840480, 8.884550, 289285888.000000, -0.140000,  0.420000,  -0.070000, 0.000000,  0.000000 
 157776016.000000, -0.394816 , 3.833302, 8.925228, 289305888.000000, -0.420000,  0.350000,  -0.070000, 0.000000,  0.000000 
 157796304.000000, -0.430708 , 3.830909, 8.944371, 289325888.000000, -0.630000,  0.420000,  -0.070000, 0.000000,  0.000000 
 157815984.000000, -0.430708 , 3.818945, 8.944371, 289346176.000000, -0.770000,  0.350000,  -0.070000, 0.000000,  0.000000 
 157835984.000000, -0.378066 , 3.804588, 8.913264, 289365856.000000, -0.840000,  0.350000,  0.070000, 0.000000,  0.000000 
 157856144.000000, -0.413958 , 3.780660, 8.879765, 289385856.000000, -0.490000,  0.280000,  0.070000, 0.000000,  0.000000 
 157875952.000000, -0.387637 , 3.823731, 8.903693, 289406016.000000, -0.210000,  0.420000,  0.070000, 0.000000,  0.000000 
 157896240.000000, -0.351745 , 3.818945, 8.937192, 289425824.000000, -0.070000,  0.420000,  0.070000, 0.000000,  0.000000 
 157915920.000000, -0.392423 , 3.830909, 8.896514, 289446112.000000, 0.140000,  0.420000,  0.070000, 0.000000,  0.000000 
 157935920.000000, -0.394816 , 3.835695, 8.901299, 289465792.000000, 0.140000,  0.350000,  0.140000, 0.000000,  0.000000 
 157955888.000000, -0.416351 , 3.778267, 8.898908, 289485792.000000, 0.140000,  0.280000,  0.070000, 0.000000,  0.000000 
 157975888.000000, -0.390030 , 3.809374, 8.925228, 289505792.000000, -0.420000,  0.350000,  0.070000, 0.000000,  0.000000 
 157996176.000000, -0.394816 , 3.833302, 8.870193, 289525760.000000, -0.490000,  0.490000,  0.070000, 0.000000,  0.000000 
 158015888.000000, -0.423530 , 3.811767, 8.951550, 289546080.000000, -0.490000,  0.420000,  0.070000, 0.000000,  0.000000 
 158035856.000000, -0.334995 , 3.775874, 8.901299, 289565760.000000, -0.420000,  0.350000,  0.140000, 0.000000,  0.000000 
 158055856.000000, -0.363709 , 3.809374, 8.918050, 289585728.000000, -0.280000,  0.350000,  0.140000, 0.000000,  0.000000 
 158075856.000000, -0.413958 , 3.847659, 8.906086, 289605728.000000, -0.070000,  0.490000,  0.140000, 0.000000,  0.000000 
 158096144.000000, -0.428315 , 3.897908, 8.846266, 289625728.000000, 0.350000,  0.630000,  -0.350000, 0.000000,  0.000000 
 158115824.000000, -0.344566 , 3.864408, 8.889337, 289646016.000000, 0.350000,  0.420000,  -0.070000, 0.000000,  0.000000 
 158135824.000000, -0.385244 , 3.742374, 8.930015, 289665696.000000, -1.540000,  0.140000,  0.350000, 0.000000,  0.000000 
 158155792.000000, -0.390030 , 3.708875, 8.963513, 289685696.000000, -2.240000,  0.280000,  0.140000, 0.000000,  0.000000 
 158175792.000000, -0.404387 , 3.802195, 8.913264, 289705664.000000, -0.770000,  0.350000,  0.070000, 289704960.000000,  1008.925476 
 158196080.000000, -0.346959 , 3.873980, 8.898908, 289725664.000000, 0.980000,  0.350000,  0.070000, 0.000000,  0.000000 
 158215760.000000, -0.421137 , 3.883551, 8.894121, 289745952.000000, 1.190000,  0.490000,  -0.070000, 0.000000,  0.000000 
 158235760.000000, -0.411566 , 3.852444, 8.882158, 289765632.000000, 0.210000,  0.490000,  -0.070000, 0.000000,  0.000000 
 158255792.000000, -0.401994 , 3.790231, 8.915657, 289785632.000000, -1.120000,  0.350000,  0.070000, 0.000000,  0.000000 
 158275728.000000, -0.440279 , 3.775874, 8.932407, 289805664.000000, -1.750000,  0.350000,  0.070000, 0.000000,  0.000000 
 158296016.000000, -0.387637 , 3.754339, 8.944371, 289825600.000000, -1.540000,  0.420000,  -0.070000, 0.000000,  0.000000 
 158315728.000000, -0.401994 , 3.799802, 8.908479, 289845920.000000, -0.770000,  0.350000,  -0.070000, 0.000000,  0.000000 
 158335856.000000, -0.397209 , 3.866802, 8.939585, 289865600.000000, 0.070000,  0.350000,  0.070000, 0.000000,  0.000000 
 158355696.000000, -0.409173 , 3.869194, 8.927622, 289885760.000000, 0.350000,  0.350000,  0.070000, 0.000000,  0.000000 
 158375696.000000, -0.366102 , 3.778267, 8.896514, 289905568.000000, 0.350000,  0.350000,  0.070000, 0.000000,  0.000000 
 158396080.000000, -0.440279 , 3.866802, 8.941978, 289925568.000000, -0.070000,  0.280000,  0.070000, 0.000000,  0.000000 
 158415664.000000, -0.392423 , 3.847659, 8.956335, 289945952.000000, -0.070000,  0.420000,  -0.070000, 0.000000,  0.000000 
 158435632.000000, -0.387637 , 3.866802, 8.925228, 289965536.000000, -0.420000,  0.490000,  -0.070000, 0.000000,  0.000000 
 158455632.000000, -0.356531 , 3.795017, 8.884550, 289985536.000000, -0.490000,  0.210000,  0.140000, 0.000000,  0.000000 
 158475632.000000, -0.339781 , 3.756732, 8.915657, 290005504.000000, -0.210000,  0.140000,  0.210000, 0.000000,  0.000000 
 158495920.000000, -0.334995 , 3.838088, 8.925228, 290025504.000000, 0.140000,  0.280000,  0.070000, 0.000000,  0.000000 
 158515600.000000, -0.375673 , 3.859623, 8.889337, 290045792.000000, 0.070000,  0.420000,  0.070000, 0.000000,  0.000000 
 158535568.000000, -0.392423 , 3.816552, 8.896514, 290065472.000000, -0.280000,  0.420000,  -0.140000, 0.000000,  0.000000 
 158555568.000000, -0.390030 , 3.833302, 8.908479, 290085472.000000, -0.630000,  0.350000,  -0.140000, 0.000000,  0.000000 
 158575568.000000, -0.411566 , 3.823731, 8.908479, 290105440.000000, -0.910000,  0.350000,  -0.140000, 0.000000,  0.000000 
 158595856.000000, -0.409173 , 3.778267, 8.946764, 290125440.000000, -1.050000,  0.420000,  -0.140000, 0.000000,  0.000000 
 158615536.000000, -0.351745 , 3.785445, 8.951550, 290145728.000000, -0.910000,  0.420000,  -0.140000, 0.000000,  0.000000 
 158635536.000000, -0.382852 , 3.797409, 8.944371, 290165408.000000, -0.560000,  0.280000,  -0.140000, 0.000000,  0.000000 
 158655504.000000, -0.413958 , 3.804588, 8.901299, 290185408.000000, -0.140000,  0.350000,  0.070000, 0.000000,  0.000000 
 158675504.000000, -0.392423 , 3.852444, 8.925228, 290205376.000000, -0.070000,  0.350000,  0.070000, 0.000000,  0.000000 
 158695824.000000, -0.385244 , 3.787838, 8.889337, 290225376.000000, -0.070000,  0.350000,  0.070000, 0.000000,  0.000000 
 158715504.000000, -0.394816 , 3.818945, 8.920443, 290245696.000000, 0.070000,  0.350000,  0.070000, 0.000000,  0.000000 
 158735472.000000, -0.392423 , 3.818945, 8.903693, 290265376.000000, 0.070000,  0.280000,  0.070000, 0.000000,  0.000000 
 158755472.000000, -0.363709 , 3.797409, 8.901299, 290285344.000000, -0.140000,  0.280000,  0.070000, 0.000000,  0.000000 
 158775440.000000, -0.378066 , 3.768696, 8.898908, 290305344.000000, -0.420000,  0.420000,  0.070000, 0.000000,  0.000000 
 158795760.000000, -0.390030 , 3.809374, 8.915657, 290325312.000000, -0.560000,  0.420000,  0.070000, 0.000000,  0.000000 
 158815440.000000, -0.380459 , 3.818945, 8.896514, 290345632.000000, -0.420000,  0.420000,  0.070000, 0.000000,  0.000000 
 158835408.000000, -0.366102 , 3.814159, 8.925228, 290365312.000000, -0.210000,  0.280000,  0.210000, 0.000000,  0.000000 
 158855408.000000, -0.354138 , 3.790231, 8.922836, 290385280.000000, -0.070000,  0.350000,  0.140000, 0.000000,  0.000000 
 158875408.000000, -0.452243 , 3.926622, 8.879765, 290405280.000000, 0.210000,  0.560000,  -0.280000, 0.000000,  0.000000 
 158895696.000000, -0.404387 , 3.857230, 8.915657, 290425280.000000, 0.210000,  0.490000,  -0.280000, 0.000000,  0.000000 
 158915376.000000, -0.339781 , 3.761517, 8.946764, 290445568.000000, -1.400000,  0.280000,  0.210000, 0.000000,  0.000000 
 158935376.000000, -0.368495 , 3.694518, 8.968300, 290465248.000000, -2.380000,  0.210000,  0.210000, 0.000000,  0.000000 
 158955344.000000, -0.342174 , 3.787838, 8.958728, 290485248.000000, -1.260000,  0.280000,  0.140000, 0.000000,  0.000000 
 158975344.000000, -0.366102 , 3.876373, 8.949157, 290505216.000000, 0.700000,  0.210000,  0.140000, 0.000000,  0.000000 
 158995664.000000, -0.421137 , 3.895515, 8.894121, 290525216.000000, 1.330000,  0.350000,  0.140000, 0.000000,  0.000000 
 159015312.000000, -0.416351 , 3.862016, 8.879765, 290545536.000000, 0.700000,  0.490000,  -0.070000, 0.000000,  0.000000 
 159035312.000000, -0.325424 , 3.830909, 8.922836, 290565184.000000, -0.420000,  0.420000,  -0.070000, 0.000000,  0.000000 
 159055312.000000, -0.344566 , 3.833302, 8.930015, 290585184.000000, -1.330000,  0.350000,  0.070000, 0.000000,  0.000000 
 159075280.000000, -0.385244 , 3.751946, 8.977871, 290605184.000000, -1.820000,  0.420000,  0.070000, 0.000000,  0.000000 
 159095600.000000, -0.373280 , 3.766303, 8.941978, 290625152.000000, -1.260000,  0.350000,  0.070000, 0.000000,  0.000000 
 159115280.000000, -0.346959 , 3.809374, 8.903693, 290645472.000000, -0.140000,  0.350000,  0.070000, 0.000000,  0.000000 
 159135248.000000, -0.394816 , 3.816552, 8.932407, 290665152.000000, 0.490000,  0.350000,  0.070000, 0.000000,  0.000000 
 159155248.000000, -0.375673 , 3.818945, 8.941978, 290685120.000000, 0.210000,  0.350000,  0.070000, 0.000000,  0.000000 
 159175248.000000, -0.366102 , 3.845266, 8.898908, 290705120.000000, -0.280000,  0.350000,  0.070000, 290704384.000000,  1008.924133 
 159195536.000000, -0.433101 , 3.806981, 8.934800, 290725120.000000, -0.280000,  0.490000,  -0.070000, 0.000000,  0.000000 
 159215216.000000, -0.404387 , 3.806981, 8.925228, 290745408.000000, -0.490000,  0.560000,  -0.070000, 0.000000,  0.000000 
 159235216.000000, -0.409173 , 3.787838, 8.896514, 290765088.000000, -0.840000,  0.350000,  0.070000, 0.000000,  0.000000 
 159255216.000000, -0.356531 , 3.816552, 8.951550, 290785088.000000, -0.560000,  0.210000,  0.210000, 0.000000,  0.000000 
 159275184.000000, -0.404387 , 3.842873, 8.920443, 290805088.000000, -0.140000,  0.280000,  0.140000, 0.000000,  0.000000 
 159295472.000000, -0.385244 , 3.850052, 8.927622, 290825056.000000, 0.070000,  0.490000,  0.140000, 0.000000,  0.000000 
 159315152.000000, -0.366102 , 3.799802, 8.901299, 290845344.000000, -0.070000,  0.420000,  -0.070000, 0.000000,  0.000000 
 159335152.000000, -0.385244 , 3.847659, 8.901299, 290865024.000000, -0.490000,  0.350000,  -0.070000, 0.000000,  0.000000 
 159355120.000000, -0.406780 , 3.823731, 8.951550, 290885024.000000, -0.560000,  0.420000,  -0.070000, 0.000000,  0.000000 
 159375120.000000, -0.418744 , 3.799802, 8.930015, 290905024.000000, -0.560000,  0.420000,  0.070000, 0.000000,  0.000000 
 159395440.000000, -0.445065 , 3.799802, 8.939585, 290924992.000000, -0.560000,  0.280000,  0.140000, 0.000000,  0.000000 
 159415088.000000, -0.399601 , 3.828516, 8.894121, 290945312.000000, -0.280000,  0.420000,  0.140000, 0.000000,  0.000000 
 159435088.000000, -0.378066 , 3.809374, 8.930015, 290964992.000000, -0.280000,  0.420000,  0.140000, 0.000000,  0.000000 
 159455088.000000, -0.428315 , 3.823731, 8.898908, 290984960.000000, -0.210000,  0.350000,  0.140000, 0.000000,  0.000000 
 159475056.000000, -0.337388 , 3.811767, 8.898908, 291024928.000000, -0.280000,  0.420000,  0.070000, 0.000000,  0.000000 
 159495376.000000, -0.361316 , 3.795017, 8.939585, 0.000000, 0.000000,  0.000000,  0.000000, 0.000000,  0.000000 
 159515056.000000, -0.354138 , 3.852444, 8.930015, 291045248.000000, 0.070000,  0.420000,  0.070000, 0.000000,  0.000000 
 159535024.000000, -0.394816 , 3.862016, 8.918050, 291064928.000000, 0.070000,  0.280000,  0.070000, 0.000000,  0.000000 
 159555024.000000, -0.385244 , 3.797409, 8.894121, 291084896.000000, -0.280000,  0.350000,  0.070000, 0.000000,  0.000000 
 159575024.000000, -0.430708 , 3.766303, 8.939585, 291104896.000000, -0.630000,  0.490000,  -0.070000, 0.000000,  0.000000 
 159595312.000000, -0.366102 , 3.799802, 8.918050, 291124896.000000, -0.840000,  0.490000,  -0.070000, 0.000000,  0.000000 
 159614992.000000, -0.411566 , 3.799802, 8.939585, 291145184.000000, -0.560000,  0.420000,  0.140000, 0.000000,  0.000000 
 159634992.000000, -0.363709 , 3.811767, 8.920443, 291164864.000000, -0.560000,  0.350000,  0.140000, 0.000000,  0.000000 
 159654960.000000, -0.366102 , 3.850052, 8.903693, 291184864.000000, 0.280000,  0.350000,  0.210000, 0.000000,  0.000000 
 159674960.000000, -0.382852 , 3.866802, 8.906086, 291204864.000000, 0.350000,  0.350000,  -0.070000, 0.000000,  0.000000 
 159695248.000000, -0.385244 , 3.924229, 8.889337, 291224832.000000, 0.280000,  0.560000,  -0.350000, 0.000000,  0.000000 
 159714928.000000, -0.454636 , 3.821337, 8.906086, 291245120.000000, -0.700000,  0.420000,  0.070000, 0.000000,  0.000000 
 159734928.000000, -0.397209 , 3.704089, 8.975478, 291264832.000000, -1.890000,  0.210000,  0.280000, 0.000000,  0.000000 
 159754928.000000, -0.342174 , 3.749553, 8.937192, 291284800.000000, -1.400000,  0.210000,  0.280000, 0.000000,  0.000000 
 159774896.000000, -0.397209 , 3.859623, 8.901299, 291304800.000000, 0.420000,  0.280000,  0.280000, 0.000000,  0.000000 
 159795216.000000, -0.409173 , 3.917051, 8.896514, 291324768.000000, 1.470000,  0.420000,  0.070000, 0.000000,  0.000000 
 159814896.000000, -0.387637 , 3.885944, 8.925228, 291345088.000000, 1.190000,  0.490000,  0.070000, 0.000000,  0.000000 
 159834864.000000, -0.358923 , 3.878766, 8.874979, 291364768.000000, 0.280000,  0.350000,  0.070000, 0.000000,  0.000000 
 159854864.000000, -0.390030 , 3.859623, 8.927622, 291384736.000000, -0.630000,  0.350000,  0.140000, 0.000000,  0.000000 
 159874864.000000, -0.373280 , 3.744767, 8.956335, 291404736.000000, -1.400000,  0.420000,  0.140000, 0.000000,  0.000000 
 159895152.000000, -0.411566 , 3.735196, 8.910872, 291424736.000000, -1.470000,  0.490000,  -0.070000, 0.000000,  0.000000 
 159914832.000000, -0.351745 , 3.816552, 8.886944, 291445024.000000, -0.630000,  0.420000,  -0.070000, 0.000000,  0.000000 
 159934832.000000, -0.366102 , 3.804588, 8.915657, 291464704.000000, 0.140000,  0.350000,  0.070000, 0.000000,  0.000000 
 159954800.000000, -0.430708 , 3.818945, 8.898908, 291484704.000000, 0.210000,  0.350000,  0.140000, 0.000000,  0.000000 
 159974800.000000, -0.370888 , 3.811767, 8.918050, 291504704.000000, 0.070000,  0.280000,  0.070000, 0.000000,  0.000000 
 159995088.000000, -0.423530 , 3.876373, 8.913264, 291524672.000000, 0.210000,  0.420000,  0.070000, 0.000000,  0.000000 
 160014768.000000, -0.423530 , 3.828516, 8.927622, 291544960.000000, 0.210000,  0.420000,  0.070000, 0.000000,  0.000000 
 160034768.000000, -0.404387 , 3.809374, 8.934800, 291564672.000000, -0.350000,  0.420000,  0.140000, 0.000000,  0.000000 
 160054768.000000, -0.363709 , 3.809374, 8.891729, 291584640.000000, -0.560000,  0.210000,  0.280000, 0.000000,  0.000000 
 160074736.000000, -0.330210 , 3.821337, 8.934800, 291624608.000000, -0.070000,  0.350000,  0.140000, 0.000000,  0.000000 
 160095056.000000, -0.346959 , 3.866802, 8.918050, 0.000000, 0.000000,  0.000000,  0.000000, 0.000000,  0.000000 
 160114736.000000, -0.392423 , 3.840480, 8.886944, 291644928.000000, -0.210000,  0.420000,  -0.070000, 0.000000,  0.000000 
 160134704.000000, -0.404387 , 3.816552, 8.908479, 291664608.000000, -0.560000,  0.420000,  -0.070000, 0.000000,  0.000000 
 160154704.000000, -0.454636 , 3.854837, 8.922836, 291684576.000000, -0.630000,  0.420000,  0.070000, 0.000000,  0.000000 
 160174704.000000, -0.370888 , 3.828516, 8.953942, 291704576.000000, -0.630000,  0.420000,  0.070000, 291703840.000000,  1008.921387 
 160194992.000000, -0.387637 , 3.799802, 8.958728, 291724576.000000, -0.630000,  0.420000,  0.140000, 0.000000,  0.000000 
 160214672.000000, -0.330210 , 3.878766, 8.925228, 291744864.000000, -0.560000,  0.350000,  0.070000, 0.000000,  0.000000 
 160234672.000000, -0.373280 , 3.823731, 8.879765, 291764544.000000, -0.210000,  0.420000,  0.070000, 0.000000,  0.000000 
 160254672.000000, -0.390030 , 3.828516, 8.927622, 291784544.000000, -0.280000,  0.420000,  0.070000, 0.000000,  0.000000 
 160274640.000000, -0.380459 , 3.773481, 8.937192, 291804576.000000, -0.280000,  0.420000,  0.070000, 0.000000,  0.000000 
 160294928.000000, -0.457029 , 3.869194, 8.925228, 291824512.000000, -0.280000,  0.350000,  0.140000, 0.000000,  0.000000 
 160314608.000000, -0.399601 , 3.811767, 8.946764, 291844800.000000, 0.140000,  0.350000,  0.070000, 0.000000,  0.000000 
 160334608.000000, -0.380459 , 3.830909, 8.898908, 291884480.000000, -0.210000,  0.350000,  0.070000, 0.000000,  0.000000 
 160354576.000000, -0.411566 , 3.823731, 8.906086, 0.000000, 0.000000,  0.000000,  0.000000, 0.000000,  0.000000 
 160374576.000000, -0.382852 , 3.833302, 8.932407, 291904448.000000, -0.490000,  0.420000,  0.070000, 0.000000,  0.000000 
 160394864.000000, -0.349352 , 3.818945, 8.896514, 291924448.000000, -0.700000,  0.490000,  0.070000, 0.000000,  0.000000 
 160414544.000000, -0.354138 , 3.823731, 8.939585, 291944768.000000, -0.770000,  0.420000,  0.140000, 0.000000,  0.000000 
 160434544.000000, -0.373280 , 3.799802, 8.896514, 291964416.000000, -0.420000,  0.350000,  0.140000, 0.000000,  0.000000 
 160454544.000000, -0.401994 , 3.830909, 8.965906, 291984416.000000, -0.070000,  0.350000,  0.210000, 0.000000,  0.000000 
 160474512.000000, -0.406780 , 3.888337, 8.858230, 292004416.000000, 0.210000,  0.420000,  0.210000, 0.000000,  0.000000 
 160494832.000000, -0.421137 , 3.914658, 8.855836, 292024384.000000, 0.490000,  0.560000,  -0.350000, 0.000000,  0.000000 
 160514512.000000, -0.382852 , 3.876373, 8.913264, 292044704.000000, -0.070000,  0.420000,  -0.140000, 0.000000,  0.000000 
 160534480.000000, -0.349352 , 3.739982, 8.941978, 292064384.000000, -1.610000,  0.140000,  0.350000, 0.000000,  0.000000 
 160554480.000000, -0.392423 , 3.699304, 8.968300, 292084352.000000, -2.100000,  0.280000,  0.210000, 0.000000,  0.000000 
 160574448.000000, -0.358923 , 3.830909, 8.961121, 292104352.000000, -0.700000,  0.280000,  0.070000, 0.000000,  0.000000 
 160594768.000000, -0.442672 , 3.921836, 8.901299, 292124352.000000, 1.050000,  0.350000,  0.070000, 0.000000,  0.000000 
 160614448.000000, -0.413958 , 3.881158, 8.903693, 292144640.000000, 1.260000,  0.420000,  0.070000, 0.000000,  0.000000 
 160634416.000000, -0.399601 , 3.871587, 8.874979, 292164320.000000, 0.420000,  0.490000,  -0.070000, 0.000000,  0.000000 
 160654416.000000, -0.366102 , 3.828516, 8.932407, 292184320.000000, -0.700000,  0.420000,  0.070000, 0.000000,  0.000000 
 160674416.000000, -0.394816 , 3.759124, 8.927622, 292204288.000000, -1.400000,  0.420000,  0.070000, 0.000000,  0.000000 
 160694704.000000, -0.373280 , 3.785445, 8.939585, 292224288.000000, -1.680000,  0.490000,  -0.070000, 0.000000,  0.000000 
 160714384.000000, -0.363709 , 3.799802, 8.937192, 292244608.000000, -1.050000,  0.420000,  0.070000, 0.000000,  0.000000 
 160734384.000000, -0.401994 , 3.850052, 8.879765, 292264256.000000, -1.050000,  0.280000,  0.140000, 0.000000,  0.000000 
 160754352.000000, -0.399601 , 3.888337, 8.927622, 292284256.000000, 0.490000,  0.350000,  0.210000, 0.000000,  0.000000 
 160774352.000000, -0.356531 , 3.840480, 8.903693, 292304256.000000, 0.210000,  0.350000,  0.070000, 0.000000,  0.000000 
 160794672.000000, -0.368495 , 3.838088, 8.894121, 292324224.000000, -0.070000,  0.280000,  0.070000, 0.000000,  0.000000 
 160814320.000000, -0.430708 , 3.850052, 8.886944, 292344544.000000, -0.140000,  0.490000,  0.070000, 0.000000,  0.000000 
 160834320.000000, -0.392423 , 3.823731, 8.891729, 292364224.000000, -0.490000,  0.490000,  0.070000, 0.000000,  0.000000 
 160854320.000000, -0.382852 , 3.802195, 8.920443, 292384192.000000, -0.770000,  0.350000,  0.210000, 0.000000,  0.000000 
 160874288.000000, -0.318245 , 3.838088, 8.896514, 292404192.000000, -0.490000,  0.210000,  0.210000, 0.000000,  0.000000 
 160894608.000000, -0.368495 , 3.869194, 8.891729, 292424160.000000, -0.210000,  0.350000,  0.140000, 0.000000,  0.000000 
 160914288.000000, -0.399601 , 3.862016, 8.884550, 292444480.000000, -0.280000,  0.490000,  -0.070000, 0.000000,  0.000000 
 160934256.000000, -0.430708 , 3.842873, 8.906086, 292464160.000000, -0.490000,  0.560000,  -0.070000, 0.000000,  0.000000 
 160954256.000000, -0.387637 , 3.806981, 8.908479, 292484128.000000, -0.700000,  0.420000,  -0.070000, 0.000000,  0.000000 
 160974256.000000, -0.406780 , 3.809374, 8.937192, 292504128.000000, -0.840000,  0.420000,  0.070000, 0.000000,  0.000000 
 160994544.000000, -0.392423 , 3.799802, 8.970692, 292524128.000000, -0.910000,  0.420000,  0.070000, 0.000000,  0.000000 
 161014224.000000, -0.433101 , 3.780660, 8.961121, 292544416.000000, -0.630000,  0.280000,  0.070000, 0.000000,  0.000000 
 161034224.000000, -0.332602 , 3.828516, 8.903693, 292564096.000000, -0.420000,  0.280000,  0.070000, 0.000000,  0.000000 
 161054192.000000, -0.413958 , 3.840480, 8.915657, 292584096.000000, -0.140000,  0.420000,  0.070000, 0.000000,  0.000000 
 161074192.000000, -0.387637 , 3.828516, 8.951550, 292604064.000000, -0.140000,  0.420000,  0.070000, 0.000000,  0.000000 
 161094480.000000, -0.342174 , 3.811767, 8.939585, 292624064.000000, -0.070000,  0.350000,  0.070000, 0.000000,  0.000000 
 161114160.000000, -0.385244 , 3.809374, 8.915657, 292644352.000000, -0.140000,  0.350000,  0.070000, 0.000000,  0.000000 
 161134160.000000, -0.358923 , 3.826123, 8.891729, 292664032.000000, -0.280000,  0.350000,  0.070000, 0.000000,  0.000000 
 161154160.000000, -0.394816 , 3.790231, 8.901299, 292684032.000000, -0.350000,  0.420000,  0.070000, 0.000000,  0.000000 
 161174128.000000, -0.409173 , 3.780660, 8.920443, 292704032.000000, -0.420000,  0.420000,  0.070000, 292703296.000000,  1008.921204 
 161194448.000000, -0.370888 , 3.816552, 8.891729, 292724000.000000, -0.490000,  0.350000,  0.070000, 0.000000,  0.000000 
 161214128.000000, -0.349352 , 3.845266, 8.939585, 292744320.000000, -0.140000,  0.280000,  0.210000, 0.000000,  0.000000 
 161234096.000000, -0.342174 , 3.811767, 8.965906, 292764000.000000, 0.140000,  0.280000,  0.210000, 0.000000,  0.000000 
 161254128.000000, -0.437887 , 3.830909, 8.901299, 292783968.000000, 0.420000,  0.490000,  -0.070000, 0.000000,  0.000000 
 161274064.000000, -0.356531 , 3.905087, 8.898908, 292804000.000000, 0.420000,  0.630000,  -0.420000, 0.000000,  0.000000 
 161294384.000000, -0.378066 , 3.833302, 8.894121, 292823968.000000, -0.350000,  0.350000,  -0.420000, 0.000000,  0.000000 
 161314064.000000, -0.337388 , 3.713661, 8.949157, 292844256.000000, -2.100000,  0.210000,  0.350000, 0.000000,  0.000000 
 161334032.000000, -0.421137 , 3.649055, 8.937192, 292863936.000000, -2.520000,  0.280000,  0.210000, 0.000000,  0.000000 
 161354032.000000, -0.349352 , 3.799802, 8.925228, 292883936.000000, -0.560000,  0.280000,  0.140000, 0.000000,  0.000000 
 161374032.000000, -0.387637 , 3.895515, 8.884550, 292903904.000000, 1.400000,  0.350000,  0.140000, 0.000000,  0.000000 
 161394320.000000, -0.416351 , 3.921836, 8.836694, 292923904.000000, 1.610000,  0.350000,  -0.210000, 0.000000,  0.000000 
 161414000.000000, -0.397209 , 3.854837, 8.896514, 292944192.000000, 0.350000,  0.350000,  -0.070000, 0.000000,  0.000000 
 161434000.000000, -0.397209 , 3.799802, 8.951550, 292963872.000000, -1.050000,  0.280000,  0.140000, 0.000000,  0.000000 
 161453968.000000, -0.351745 , 3.742374, 8.973085, 292983872.000000, -1.890000,  0.420000,  0.140000, 0.000000,  0.000000 
 161473968.000000, -0.380459 , 3.749553, 8.939585, 293003872.000000, -1.610000,  0.350000,  0.140000, 0.000000,  0.000000 
 161494256.000000, -0.385244 , 3.809374, 8.906086, 293023840.000000, -0.420000,  0.280000,  0.070000, 0.000000,  0.000000 
 161513936.000000, -0.378066 , 3.852444, 8.908479, 293044160.000000, 0.560000,  0.280000,  0.070000, 0.000000,  0.000000 
 161533936.000000, -0.425922 , 3.806981, 8.860621, 293063840.000000, 0.560000,  0.420000,  0.070000, 0.000000,  0.000000 
 161553936.000000, -0.344566 , 3.850052, 8.894121, 293083808.000000, 0.560000,  0.280000,  0.070000, 0.000000,  0.000000 
 161573904.000000, -0.344566 , 3.842873, 8.922836, 293103808.000000, -0.350000,  0.350000,  -0.070000, 0.000000,  0.000000 
 161594224.000000, -0.392423 , 3.821337, 8.939585, 293123776.000000, -0.490000,  0.490000,  -0.070000, 0.000000,  0.000000 
 161613904.000000, -0.354138 , 3.797409, 8.906086, 293144096.000000, -0.840000,  0.490000,  -0.070000, 0.000000,  0.000000 
 161633872.000000, -0.356531 , 3.773481, 8.941978, 293163776.000000, -0.770000,  0.210000,  0.140000, 0.000000,  0.000000 
 161653872.000000, -0.387637 , 3.838088, 8.930015, 293183744.000000, -0.280000,  0.210000,  0.140000, 0.000000,  0.000000 
 161673872.000000, -0.351745 , 3.857230, 8.918050, 293203744.000000, 0.210000,  0.350000,  0.070000, 0.000000,  0.000000 
 161694160.000000, -0.423530 , 3.838088, 8.908479, 293223744.000000, 0.210000,  0.420000,  -0.070000, 0.000000,  0.000000 
 161713840.000000, -0.373280 , 3.739982, 8.874979, 293244032.000000, -0.490000,  0.420000,  -0.070000, 0.000000,  0.000000 
 161733840.000000, -0.423530 , 3.809374, 8.941978, 293263712.000000, -0.700000,  0.350000,  -0.070000, 0.000000,  0.000000 
 161753808.000000, -0.375673 , 3.814159, 8.906086, 293283712.000000, -0.700000,  0.350000,  0.140000, 0.000000,  0.000000 
 161773808.000000, -0.346959 , 3.783052, 8.937192, 293303712.000000, -0.700000,  0.350000,  0.070000, 0.000000,  0.000000 
 161794096.000000, -0.390030 , 3.878766, 8.908479, 293323680.000000, -0.420000,  0.350000,  0.070000, 0.000000,  0.000000 
 161813808.000000, -0.358923 , 3.823731, 8.884550, 293343968.000000, -0.420000,  0.350000,  0.070000, 0.000000,  0.000000 
 161833776.000000, -0.394816 , 3.821337, 8.965906, 293363680.000000, -0.070000,  0.420000,  0.070000, 0.000000,  0.000000 
 161853776.000000, -0.416351 , 3.806981, 8.939585, 293383648.000000, -0.350000,  0.420000,  0.070000, 0.000000,  0.000000 
 161873744.000000, -0.378066 , 3.823731, 8.946764, 293403648.000000, -0.420000,  0.420000,  0.070000, 0.000000,  0.000000 
 161894064.000000, -0.390030 , 3.847659, 8.934800, 293423648.000000, -0.140000,  0.420000,  -0.070000, 0.000000,  0.000000 
 161913744.000000, -0.409173 , 3.838088, 8.920443, 293443936.000000, -0.140000,  0.350000,  -0.070000, 0.000000,  0.000000 
 161933712.000000, -0.380459 , 3.814159, 8.848659, 293463616.000000, -0.490000,  0.350000,  -0.070000, 0.000000,  0.000000 
 161953712.000000, -0.375673 , 3.756732, 8.944371, 293483616.000000, -0.700000,  0.490000,  -0.070000, 0.000000,  0.000000 
 161973712.000000, -0.385244 , 3.797409, 8.884550, 293503584.000000, -0.630000,  0.490000,  0.070000, 0.000000,  0.000000 
 161994000.000000, -0.413958 , 3.783052, 8.925228, 293523584.000000, -0.280000,  0.350000,  0.070000, 0.000000,  0.000000 
 162013680.000000, -0.358923 , 3.804588, 8.910872, 293543872.000000, -0.140000,  0.350000,  0.140000, 0.000000,  0.000000 
 162033680.000000, -0.363709 , 3.854837, 8.961121, 293563552.000000, -0.070000,  0.420000,  0.140000, 0.000000,  0.000000 
 162053648.000000, -0.428315 , 3.914658, 8.870193, 293583552.000000, 0.210000,  0.560000,  -0.280000, 0.000000,  0.000000 
 162073648.000000, -0.421137 , 3.847659, 8.915657, 293603520.000000, -0.070000,  0.490000,  -0.140000, 0.000000,  0.000000 
 162093936.000000, -0.375673 , 3.756732, 8.944371, 293623520.000000, -1.400000,  0.350000,  0.210000, 0.000000,  0.000000 
 162113616.000000, -0.368495 , 3.677768, 8.968300, 293643808.000000, -2.240000,  0.280000,  0.210000, 0.000000,  0.000000 
 162133616.000000, -0.366102 , 3.766303, 8.925228, 293663488.000000, -1.190000,  0.280000,  0.210000, 0.000000,  0.000000 
 162153584.000000, -0.375673 , 3.873980, 8.934800, 293703488.000000, 1.260000,  0.420000,  0.070000, 293702752.000000,  1008.922852 
 162173584.000000, -0.399601 , 3.852444, 8.915657, 0.000000, 0.000000,  0.000000,  0.000000, 0.000000,  0.000000 
 162193872.000000, -0.375673 , 3.900301, 8.906086, 293723456.000000, 0.770000,  0.490000,  -0.070000, 0.000000,  0.000000 
 162213552.000000, -0.368495 , 3.835695, 8.903693, 293743776.000000, -0.210000,  0.350000,  0.070000, 0.000000,  0.000000 
 162233552.000000, -0.425922 , 3.787838, 8.918050, 293763456.000000, -1.120000,  0.420000,  0.070000, 0.000000,  0.000000 
 162253584.000000, -0.406780 , 3.723232, 8.922836, 293783424.000000, -1.610000,  0.490000,  0.070000, 0.000000,  0.000000 
 162273520.000000, -0.392423 , 3.792624, 8.927622, 293803456.000000, -1.190000,  0.420000,  0.070000, 0.000000,  0.000000 
 162293840.000000, -0.390030 , 3.823731, 8.906086, 293823392.000000, -0.210000,  0.350000,  0.070000, 0.000000,  0.000000 
 162313520.000000, -0.382852 , 3.842873, 8.930015, 293843712.000000, 0.350000,  0.350000,  0.070000, 0.000000,  0.000000 
 162333680.000000, -0.401994 , 3.799802, 8.910872, 293863392.000000, 0.350000,  0.350000,  0.070000, 0.000000,  0.000000 
 162353488.000000, -0.373280 , 3.816552, 8.903693, 293883552.000000, -0.070000,  0.350000,  0.070000, 0.000000,  0.000000 
 162373488.000000, -0.378066 , 3.828516, 8.898908, 293903360.000000, -0.070000,  0.350000,  0.070000, 0.000000,  0.000000 
 162393776.000000, -0.452243 , 3.842873, 8.920443, 293923360.000000, -0.070000,  0.490000,  0.070000, 0.000000,  0.000000 
 162413456.000000, -0.382852 , 3.790231, 8.944371, 293943648.000000, -0.490000,  0.420000,  0.070000, 0.000000,  0.000000 
 162433424.000000, -0.344566 , 3.795017, 8.939585, 293963328.000000, -0.630000,  0.280000,  0.210000, 0.000000,  0.000000 
 162453424.000000, -0.358923 , 3.821337, 8.910872, 293983328.000000, -0.140000,  0.210000,  0.210000, 0.000000,  0.000000 
 162473424.000000, -0.392423 , 3.866802, 8.918050, 294003296.000000, 0.210000,  0.420000,  0.070000, 0.000000,  0.000000 
 162493744.000000, -0.397209 , 3.821337, 8.908479, 294023296.000000, 0.140000,  0.490000,  -0.070000, 0.000000,  0.000000 
 162513392.000000, -0.394816 , 3.816552, 8.896514, 294043616.000000, -0.210000,  0.420000,  -0.070000, 0.000000,  0.000000 
 162533392.000000, -0.392423 , 3.811767, 8.908479, 294063264.000000, -0.490000,  0.420000,  0.070000, 0.000000,  0.000000 
 162553360.000000, -0.351745 , 3.823731, 8.920443, 294083264.000000, -0.630000,  0.420000,  0.070000, 0.000000,  0.000000 
 162573360.000000, -0.397209 , 3.826123, 8.934800, 294103264.000000, -0.490000,  0.420000,  0.140000, 0.000000,  0.000000 
 162593680.000000, -0.349352 , 3.797409, 8.894121, 294123232.000000, -0.070000,  0.350000,  0.140000, 0.000000,  0.000000 
 162613360.000000, -0.351745 , 3.838088, 8.894121, 294143552.000000, 0.280000,  0.350000,  0.140000, 0.000000,  0.000000 
 162633328.000000, -0.337388 , 3.814159, 8.889337, 294163232.000000, 0.070000,  0.420000,  0.070000, 0.000000,  0.000000 
 162653328.000000, -0.399601 , 3.795017, 8.918050, 294183200.000000, -0.420000,  0.350000,  0.140000, 0.000000,  0.000000 
 162673296.000000, -0.394816 , 3.821337, 8.937192, 294203200.000000, -0.490000,  0.350000,  0.140000, 0.000000,  0.000000 
 162693616.000000, -0.323031 , 3.835695, 8.915657, 294223200.000000, -0.280000,  0.350000,  0.070000, 0.000000,  0.000000 
 162713296.000000, -0.418744 , 3.854837, 8.896514, 294243488.000000, 0.070000,  0.420000,  0.070000, 0.000000,  0.000000 
 162733264.000000, -0.406780 , 3.852444, 8.906086, 294263168.000000, 0.140000,  0.280000,  0.140000, 0.000000,  0.000000 
 162753264.000000, -0.401994 , 3.787838, 8.898908, 294283136.000000, -0.070000,  0.280000,  0.140000, 0.000000,  0.000000 
 162773264.000000, -0.425922 , 3.797409, 8.961121, 294303136.000000, -0.350000,  0.420000,  0.140000, 0.000000,  0.000000 
 162793552.000000, -0.421137 , 3.790231, 8.903693, 294323136.000000, -0.700000,  0.490000,  0.140000, 0.000000,  0.000000 
 162813232.000000, -0.382852 , 3.823731, 8.944371, 294343424.000000, -0.560000,  0.350000,  0.140000, 0.000000,  0.000000 
 162833232.000000, -0.330210 , 3.830909, 8.934800, 294363104.000000, -0.140000,  0.350000,  0.140000, 0.000000,  0.000000 
 162853200.000000, -0.382852 , 3.850052, 8.925228, 294383104.000000, 0.210000,  0.420000,  0.210000, 0.000000,  0.000000 
 162873200.000000, -0.423530 , 3.938586, 8.855836, 294403072.000000, 0.350000,  0.490000,  -0.140000, 0.000000,  0.000000 
 162893488.000000, -0.445065 , 3.881158, 8.874979, 294423072.000000, 0.350000,  0.560000,  -0.350000, 0.000000,  0.000000 
 162913168.000000, -0.390030 , 3.802195, 8.894121, 294443392.000000, -0.840000,  0.350000,  0.140000, 0.000000,  0.000000 
 162933168.000000, -0.366102 , 3.711268, 8.930015, 294463072.000000, -2.170000,  0.210000,  0.420000, 0.000000,  0.000000 
 162953168.000000, -0.378066 , 3.761517, 8.973085, 294483040.000000, -1.540000,  0.210000,  0.280000, 0.000000,  0.000000 
 162973136.000000, -0.399601 , 3.862016, 8.913264, 294503040.000000, 0.420000,  0.280000,  0.140000, 0.000000,  0.000000 
 162993456.000000, -0.416351 , 3.931407, 8.886944, 294523008.000000, 1.680000,  0.420000,  0.070000, 0.000000,  0.000000 
 163013136.000000, -0.411566 , 3.838088, 8.898908, 294543328.000000, 1.120000,  0.420000,  0.070000, 0.000000,  0.000000 
 163033104.000000, -0.346959 , 3.859623, 8.860621, 294563008.000000, 1.120000,  0.420000,  0.070000, 0.000000,  0.000000 
 163053104.000000, -0.351745 , 3.852444, 8.898908, 294582976.000000, -0.980000,  0.350000,  0.140000, 0.000000,  0.000000 
 163073104.000000, -0.397209 , 3.751946, 8.989835, 294602976.000000, -1.680000,  0.420000,  0.140000, 0.000000,  0.000000 
 163093392.000000, -0.392423 , 3.756732, 8.920443, 294622976.000000, -1.540000,  0.420000,  -0.070000, 0.000000,  0.000000 
 163113072.000000, -0.370888 , 3.797409, 8.903693, 294643264.000000, -0.490000,  0.280000,  -0.070000, 0.000000,  0.000000 
 163133040.000000, -0.356531 , 3.833302, 8.932407, 294662944.000000, 0.490000,  0.350000,  0.140000, 0.000000,  0.000000 
 163153040.000000, -0.337388 , 3.840480, 8.915657, 294682944.000000, 0.560000,  0.350000,  0.140000, 0.000000,  0.000000 
 163173040.000000, -0.392423 , 3.811767, 8.898908, 294702912.000000, 0.070000,  0.350000,  0.140000, 294702176.000000,  1008.920654 
 163193328.000000, -0.378066 , 3.828516, 8.956335, 294722912.000000, -0.140000,  0.420000,  0.070000, 0.000000,  0.000000 
 163213008.000000, -0.418744 , 3.826123, 8.944371, 294743200.000000, -0.140000,  0.490000,  0.070000, 0.000000,  0.000000 
 163233008.000000, -0.409173 , 3.799802, 8.920443, 294762880.000000, -0.560000,  0.280000,  0.140000, 0.000000,  0.000000 
 163253040.000000, -0.385244 , 3.787838, 8.906086, 294782880.000000, -0.700000,  0.210000,  0.210000, 0.000000,  0.000000 
 163272976.000000, -0.387637 , 3.806981, 8.941978, 294802912.000000, -0.280000,  0.280000,  0.210000, 0.000000,  0.000000 
 163293296.000000, -0.418744 , 3.823731, 8.865408, 294822848.000000, -0.280000,  0.350000,  0.070000, 0.000000,  0.000000 
 163312976.000000, -0.411566 , 3.821337, 8.920443, 294843168.000000, -0.140000,  0.420000,  0.070000, 0.000000,  0.000000 
 163332944.000000, -0.404387 , 3.838088, 8.903693, 294862848.000000, -0.420000,  0.420000,  0.070000, 0.000000,  0.000000 
 163352944.000000, -0.399601 , 3.814159, 8.915657, 294882816.000000, -0.700000,  0.420000,  0.070000, 0.000000,  0.000000 
 163372912.000000, -0.411566 , 3.835695, 8.908479, 294902816.000000, -0.770000,  0.420000,  0.070000, 0.000000,  0.000000 
 163393328.000000, -0.385244 , 3.826123, 8.922836, 294922816.000000, -0.770000,  0.420000,  0.070000, 0.000000,  0.000000 
 163412912.000000, -0.354138 , 3.828516, 8.910872, 294943200.000000, -0.560000,  0.280000,  0.070000, 0.000000,  0.000000 
 163432880.000000, -0.404387 , 3.842873, 8.918050, 294962784.000000, -0.210000,  0.350000,  0.070000, 0.000000,  0.000000 
 163452880.000000, -0.394816 , 3.869194, 8.898908, 294982784.000000, -0.140000,  0.420000,  0.070000, 0.000000,  0.000000 
 163472880.000000, -0.387637 , 3.818945, 8.922836, 295002752.000000, -0.210000,  0.420000,  0.070000, 0.000000,  0.000000 
 163493168.000000, -0.373280 , 3.826123, 8.922836, 295022752.000000, -0.140000,  0.420000,  0.140000, 0.000000,  0.000000 
 163512848.000000, -0.368495 , 3.828516, 8.918050, 295043040.000000, -0.070000,  0.350000,  0.070000, 0.000000,  0.000000 
 163532848.000000, -0.404387 , 3.840480, 8.901299, 295062720.000000, -0.140000,  0.350000,  0.070000, 0.000000,  0.000000 
 163552848.000000, -0.390030 , 3.852444, 8.937192, 295082720.000000, -0.280000,  0.420000,  0.070000, 0.000000,  0.000000 
 163572816.000000, -0.409173 , 3.850052, 8.906086, 295102720.000000, -0.630000,  0.420000,  0.070000, 0.000000,  0.000000 
 163593104.000000, -0.385244 , 3.821337, 8.903693, 295122688.000000, -0.770000,  0.420000,  0.070000, 0.000000,  0.000000 
 163612816.000000, -0.356531 , 3.814159, 8.963513, 295143008.000000, -0.700000,  0.350000,  0.070000, 0.000000,  0.000000 
 163632784.000000, -0.358923 , 3.806981, 8.939585, 295162688.000000, -0.350000,  0.280000,  0.210000, 0.000000,  0.000000 
 163652784.000000, -0.411566 , 3.862016, 8.853443, 295182656.000000, -0.350000,  0.490000,  -0.070000, 0.000000,  0.000000 
 163672784.000000, -0.449851 , 3.885944, 8.824730, 295202656.000000, 0.490000,  0.560000,  -0.280000, 0.000000,  0.000000 
 163693072.000000, -0.430708 , 3.840480, 8.920443, 295222656.000000, 0.070000,  0.350000,  -0.070000, 0.000000,  0.000000 
 163712752.000000, -0.363709 , 3.783052, 8.908479, 295242944.000000, -1.400000,  0.210000,  0.350000, 0.000000,  0.000000 
 163732752.000000, -0.366102 , 3.672983, 8.963513, 295262624.000000, -2.310000,  0.280000,  0.210000, 0.000000,  0.000000 
 163752720.000000, -0.354138 , 3.778267, 8.946764, 295282624.000000, -0.980000,  0.280000,  0.210000, 0.000000,  0.000000 
 163772720.000000, -0.361316 , 3.919443, 8.901299, 295302592.000000, 0.910000,  0.280000,  0.070000, 0.000000,  0.000000 
 163793008.000000, -0.401994 , 3.897908, 8.865408, 295322592.000000, 1.540000,  0.350000,  -0.070000, 0.000000,  0.000000 
 163812688.000000, -0.385244 , 3.885944, 8.863015, 295342880.000000, 0.700000,  0.350000,  -0.070000, 0.000000,  0.000000 
 163832688.000000, -0.378066 , 3.854837, 8.930015, 295362560.000000, -0.630000,  0.280000,  0.070000, 0.000000,  0.000000 
 163852656.000000, -0.358923 , 3.787838, 8.956335, 295382560.000000, -1.610000,  0.350000,  0.070000, 0.000000,  0.000000 
 163872656.000000, -0.382852 , 3.778267, 8.937192, 295402560.000000, -1.820000,  0.420000,  0.070000, 0.000000,  0.000000 
 163892944.000000, -0.385244 , 3.780660, 8.930015, 295422528.000000, -1.050000,  0.280000,  0.070000, 0.000000,  0.000000 
 163912624.000000, -0.401994 , 3.799802, 8.956335, 295442816.000000, -1.050000,  0.280000,  0.070000, 0.000000,  0.000000 
 163932624.000000, -0.375673 , 3.840480, 8.908479, 295462528.000000, 0.350000,  0.350000,  0.070000, 0.000000,  0.000000 
 163952592.000000, -0.342174 , 3.814159, 8.913264, 295482496.000000, 0.350000,  0.280000,  0.070000, 0.000000,  0.000000 
 163972592.000000, -0.404387 , 3.854837, 8.932407, 295502496.000000, -0.280000,  0.280000,  0.070000, 0.000000,  0.000000 
 163992912.000000, -0.394816 , 3.830909, 8.934800, 295522464.000000, -0.070000,  0.420000,  -0.070000, 0.000000,  0.000000 
 164012560.000000, -0.368495 , 3.821337, 8.927622, 295542784.000000, -0.420000,  0.490000,  -0.070000, 0.000000,  0.000000 
 164032560.000000, -0.390030 , 3.811767, 8.913264, 295562464.000000, -0.630000,  0.280000,  0.140000, 0.000000,  0.000000 
 164052560.000000, -0.320638 , 3.866802, 8.894121, 295582432.000000, -0.280000,  0.210000,  0.140000, 0.000000,  0.000000 
 164072528.000000, -0.354138 , 3.840480, 8.906086, 295602432.000000, -0.280000,  0.280000,  0.140000, 0.000000,  0.000000 
 164092848.000000, -0.418744 , 3.838088, 8.903693, 295622400.000000, -0.070000,  0.490000,  0.140000, 0.000000,  0.000000 
 164112528.000000, -0.342174 , 3.828516, 8.896514, 295642720.000000, -0.350000,  0.420000,  0.140000, 0.000000,  0.000000 
 164132496.000000, -0.401994 , 3.821337, 8.934800, 295682368.000000, -0.700000,  0.350000,  0.140000, 0.000000,  0.000000 
 164152496.000000, -0.366102 , 3.869194, 8.930015, 295702368.000000, -0.700000,  0.350000,  0.070000, 295701632.000000,  1008.917847 
 164172496.000000, -0.349352 , 3.806981, 8.970692, 0.000000, 0.000000,  0.000000,  0.000000, 0.000000,  0.000000 
 164192784.000000, -0.392423 , 3.783052, 8.889337, 295722368.000000, -0.560000,  0.350000,  0.070000, 0.000000,  0.000000 
 164212464.000000, -0.342174 , 3.862016, 8.894121, 295742688.000000, -0.210000,  0.350000,  0.070000, 0.000000,  0.000000 
 164232464.000000, -0.378066 , 3.799802, 8.896514, 295762336.000000, -0.070000,  0.350000,  0.070000, 0.000000,  0.000000 
 164252464.000000, -0.356531 , 3.806981, 8.898908, 295782336.000000, -0.210000,  0.420000,  0.070000, 0.000000,  0.000000 
 164272432.000000, -0.382852 , 3.816552, 8.951550, 295802368.000000, -0.420000,  0.420000,  0.070000, 0.000000,  0.000000 
 164292752.000000, -0.394816 , 3.830909, 8.934800, 295822304.000000, -0.350000,  0.420000,  0.070000, 0.000000,  0.000000 
 164312400.000000, -0.380459 , 3.847659, 8.934800, 295842624.000000, -0.070000,  0.420000,  0.070000, 0.000000,  0.000000 
 164332400.000000, -0.413958 , 3.852444, 8.898908, 295862272.000000, -0.070000,  0.280000,  0.070000, 0.000000,  0.000000 
 164352400.000000, -0.409173 , 3.814159, 8.889337, 295882272.000000, -0.350000,  0.280000,  0.070000, 0.000000,  0.000000 
 164372368.000000, -0.401994 , 3.823731, 8.934800, 295902272.000000, -0.560000,  0.420000,  0.070000, 0.000000,  0.000000 
 164392688.000000, -0.406780 , 3.747160, 8.925228, 295922240.000000, -0.560000,  0.490000,  0.070000, 0.000000,  0.000000 
 164412368.000000, -0.330210 , 3.780660, 8.901299, 295942560.000000, -0.420000,  0.350000,  0.140000, 0.000000,  0.000000 
 164432336.000000, -0.366102 , 3.780660, 8.944371, 295962240.000000, -0.140000,  0.280000,  0.140000, 0.000000,  0.000000 
 164452336.000000, -0.387637 , 3.830909, 8.920443, 295982208.000000, -0.140000,  0.350000,  0.140000, 0.000000,  0.000000 
 164472336.000000, -0.382852 , 3.902694, 8.882158, 296002208.000000, 0.140000,  0.490000,  -0.210000, 0.000000,  0.000000 
 164492624.000000, -0.373280 , 3.936193, 8.927622, 296022208.000000, 0.280000,  0.490000,  -0.280000, 0.000000,  0.000000 
 164512304.000000, -0.373280 , 3.790231, 8.886944, 296042496.000000, -0.630000,  0.210000,  0.070000, 0.000000,  0.000000 
 164532272.000000, -0.325424 , 3.701697, 8.963513, 296062176.000000, -2.170000,  0.210000,  0.280000, 0.000000,  0.000000 
 164552272.000000, -0.308674 , 3.723232, 8.927622, 296082176.000000, -1.960000,  0.210000,  0.210000, 0.000000,  0.000000 
 164572272.000000, -0.354138 , 3.804588, 8.913264, 296102144.000000, -0.210000,  0.280000,  0.210000, 0.000000,  0.000000 
 164592560.000000, -0.380459 , 3.857230, 8.886944, 296122144.000000, 1.260000,  0.280000,  0.210000, 0.000000,  0.000000 
 164612240.000000, -0.406780 , 3.900301, 8.860621, 296142432.000000, 1.330000,  0.420000,  -0.070000, 0.000000,  0.000000 
 164632240.000000, -0.390030 , 3.866802, 8.867801, 296162112.000000, 0.350000,  0.350000,  -0.070000, 0.000000,  0.000000 
 164652208.000000, -0.421137 , 3.799802, 8.946764, 296182112.000000, -0.910000,  0.420000,  -0.070000, 0.000000,  0.000000 
 164672208.000000, -0.392423 , 3.763910, 8.958728, 296202112.000000, -1.820000,  0.490000,  -0.070000, 0.000000,  0.000000 
 164692496.000000, -0.397209 , 3.744767, 8.949157, 296222080.000000, -1.820000,  0.420000,  -0.070000, 0.000000,  0.000000 
 164712176.000000, -0.358923 , 3.771089, 8.898908, 296242400.000000, -0.840000,  0.350000,  -0.070000, 0.000000,  0.000000 
 164732176.000000, -0.401994 , 3.838088, 8.930015, 296262080.000000, 0.280000,  0.350000,  -0.070000, 0.000000,  0.000000 
 164752176.000000, -0.387637 , 3.833302, 8.898908, 296282048.000000, 0.560000,  0.350000,  0.070000, 0.000000,  0.000000 
 164772144.000000, -0.370888 , 3.838088, 8.901299, 296302048.000000, 0.280000,  0.280000,  0.140000, 0.000000,  0.000000 
 164792464.000000, -0.378066 , 3.871587, 8.898908, 296322048.000000, -0.070000,  0.350000,  0.140000, 0.000000,  0.000000 
 164812144.000000, -0.428315 , 3.823731, 8.932407, 296342336.000000, -0.210000,  0.490000,  -0.070000, 0.000000,  0.000000 
 164832112.000000, -0.387637 , 3.785445, 8.910872, 296362016.000000, -0.770000,  0.490000,  -0.070000, 0.000000,  0.000000 
 164852112.000000, -0.351745 , 3.780660, 8.918050, 296382016.000000, -0.910000,  0.280000,  0.140000, 0.000000,  0.000000 
 164872112.000000, -0.378066 , 3.806981, 8.915657, 296401984.000000, -0.420000,  0.280000,  0.210000, 0.000000,  0.000000 
 164892400.000000, -0.368495 , 3.862016, 8.920443, 296421984.000000, 0.210000,  0.420000,  0.070000, 0.000000,  0.000000 
 164912080.000000, -0.378066 , 3.866802, 8.927622, 296442272.000000, 0.280000,  0.490000,  -0.070000, 0.000000,  0.000000 
 164932080.000000, -0.356531 , 3.873980, 8.927622, 296461952.000000, -0.070000,  0.420000,  -0.070000, 0.000000,  0.000000 
 164952048.000000, -0.399601 , 3.802195, 8.939585, 296481952.000000, -0.560000,  0.420000,  -0.070000, 0.000000,  0.000000 
 164972048.000000, -0.430708 , 3.768696, 8.925228, 296501920.000000, -0.770000,  0.350000,  0.070000, 0.000000,  0.000000 
 164992336.000000, -0.373280 , 3.797409, 8.949157, 296521920.000000, -0.700000,  0.350000,  0.070000, 0.000000,  0.000000 
 165012016.000000, -0.370888 , 3.823731, 8.913264, 296542240.000000, -0.210000,  0.350000,  0.070000, 0.000000,  0.000000 
 165032016.000000, -0.425922 , 3.845266, 8.894121, 296561888.000000, 0.280000,  0.350000,  0.070000, 0.000000,  0.000000 
 165052016.000000, -0.366102 , 3.862016, 8.894121, 296581888.000000, 0.210000,  0.350000,  0.070000, 0.000000,  0.000000 
 165071984.000000, -0.368495 , 3.840480, 8.894121, 296601888.000000, -0.140000,  0.490000,  0.140000, 0.000000,  0.000000 
 165092304.000000, -0.428315 , 3.802195, 8.915657, 296621856.000000, -0.350000,  0.350000,  0.070000, 0.000000,  0.000000 
 165111984.000000, -0.368495 , 3.830909, 8.949157, 296642176.000000, -0.210000,  0.420000,  0.070000, 0.000000,  0.000000 
 165131952.000000, -0.425922 , 3.888337, 8.879765, 296661856.000000, -0.070000,  0.420000,  0.070000, 0.000000,  0.000000 
 165151952.000000, -0.397209 , 3.854837, 8.891729, 296681824.000000, -0.070000,  0.350000,  0.140000, 0.000000,  0.000000 
 165171952.000000, -0.378066 , 3.814159, 8.884550, 296701824.000000, -0.350000,  0.350000,  0.070000, 296701088.000000,  1008.917969 
 165192240.000000, -0.361316 , 3.818945, 8.918050, 296721824.000000, -0.560000,  0.490000,  0.070000, 0.000000,  0.000000 
 165211920.000000, -0.406780 , 3.785445, 8.934800, 296742112.000000, -0.700000,  0.420000,  0.070000, 0.000000,  0.000000 
 165231920.000000, -0.397209 , 3.804588, 8.903693, 296761792.000000, -0.280000,  0.420000,  0.140000, 0.000000,  0.000000 
 165251920.000000, -0.361316 , 3.821337, 8.937192, 296781792.000000, 0.070000,  0.280000,  0.140000, 0.000000,  0.000000 
 165271888.000000, -0.380459 , 3.869194, 8.956335, 296801792.000000, 0.280000,  0.350000,  0.210000, 0.000000,  0.000000 
 165292176.000000, -0.495314 , 3.897908, 8.906086, 296821760.000000, 0.420000,  0.420000,  -0.140000, 0.000000,  0.000000 
 165311856.000000, -0.416351 , 3.921836, 8.891729, 296842048.000000, 0.280000,  0.560000,  -0.350000, 0.000000,  0.000000 
 165331856.000000, -0.411566 , 3.814159, 8.941978, 296861728.000000, -0.910000,  0.350000,  -0.350000, 0.000000,  0.000000 
 165351856.000000, -0.368495 , 3.684947, 8.965906, 296881728.000000, -2.240000,  0.140000,  0.420000, 0.000000,  0.000000 
 165371824.000000, -0.404387 , 3.749553, 8.968300, 296901728.000000, -1.610000,  0.140000,  0.350000, 0.000000,  0.000000 
