time,seconds_elapsed,z,y,x
1634126191216230700,0.013230712890625,0.08125677704811096,0.07530217617750168,0.04924522340297699
1634126191236109600,0.033109619140625,0.041613221168518066,-0.016199633479118347,0.21172446012496948
1634126191255988500,0.052988525390625,-0.0336732342839241,-0.12898118793964386,0.1667744517326355
1634126191275867100,0.0728671875,-0.07672768086194992,-0.18392570316791534,0.007790945935994387
1634126191295747000,0.0927470703125,-0.07584799826145172,-0.22837267816066742,-0.10314714163541794
1634126191315626200,0.112626220703125,-0.06350091099739075,-0.14438703656196594,-0.07180271297693253
1634126191335505000,0.1325048828125,-0.049775321036577225,-0.06365501135587692,0.02854704111814499
1634126191355384000,0.152384033203125,-0.05118023231625557,0.004312768578529358,0.11131196469068527
1634126191375263200,0.17226318359375,-0.054354503750801086,-0.049419935792684555,0.10805108398199081
1634126191395142100,0.19214208984375,-0.08426060527563095,-0.14370028674602509,0.05067263916134834
1634126191415021000,0.21202099609375,-0.07414720207452774,-0.17363905906677246,-0.03255213052034378
1634126191434900000,0.23189990234375,-0.04339567571878433,-0.15639495849609375,-0.09207938611507416
1634126191454779100,0.251779052734375,0.011985459364950657,-0.07845588773488998,-0.07447930425405502
1634126191474658000,0.271657958984375,0.07530620694160461,-0.041566506028175354,-0.045750487595796585
1634126191494537200,0.291537109375,0.06921568512916565,-0.07043136656284332,-0.024620816111564636
1634126191514417200,0.311417236328125,0.01324531901627779,-0.0889015793800354,-0.012335004284977913
1634126191534296000,0.331296142578125,-0.04422787204384804,-0.08527699112892151,-0.016007639467716217
1634126191554175200,0.35117529296875,-0.04776943475008011,-0.03863660246133804,-0.01605476811528206
1634126191574054000,0.371053955078125,-0.026623934507369995,-0.006124734412878752,-0.007980328984558582
1634126191593933000,0.39093310546875,-0.012924320995807648,-0.02145138755440712,0.010223297402262688
1634126191613812200,0.410812255859375,-0.018510254099965096,-0.036859262734651566,-0.03662131726741791
1634126191633691100,0.430691162109375,-0.017475130036473274,-0.0028721094131469727,-0.06409940123558044
1634126191653570000,0.450570068359375,0.010906578972935677,0.04591852426528931,-0.04380813613533974
1634126191673449000,0.470448974609375,0.03947124257683754,0.07989494502544403,0.009666429832577705
1634126191693329200,0.4903291015625,0.051240988075733185,0.0795300155878067,0.031665507704019547
1634126191713208300,0.510208251953125,0.07178883254528046,0.056446418166160583,-0.013838209211826324
1634126191733087000,0.5300869140625,0.0779242292046547,0.04610760882496834,-0.10747978836297989
1634126191752966100,0.549966064453125,0.07855135202407837,0.03451624512672424,-0.15146224200725555
1634126191772845000,0.569844970703125,0.09402316808700562,0.010524654760956764,-0.14865823090076447
1634126191792724200,0.58972412109375,0.05918839946389198,0.012229260988533497,-0.05640498921275139
1634126191812603100,0.60960302734375,-0.011408805847167969,0.05802391096949577,0.059209223836660385
1634126191832482000,0.62948193359375,-0.13222840428352356,0.14826591312885284,0.13443994522094727
1634126191852361200,0.649361328125,-0.21392099559307098,0.21190141141414642,0.15443642437458038
1634126191872240000,0.669240234375,-0.1723310649394989,0.1889835149049759,0.13701947033405304
1634126191892120000,0.6891201171875,-0.07003332674503326,0.0524265393614769,0.07385023683309555
1634126191911999200,0.708999267578125,-0.028811277821660042,-0.11418311297893524,0.07834284752607346
1634126191931878100,0.728878173828125,-0.038067981600761414,-0.24770958721637726,0.2301936149597168
1634126191951757300,0.74875732421875,-0.07145429402589798,-0.30422672629356384,0.32661959528923035
1634126191971636000,0.768635986328125,-0.09604282677173615,-0.31813833117485046,0.2839035987854004
1634126191991515100,0.78851513671875,-0.10835675150156021,-0.2516803741455078,0.14890797436237335
1634126192011394000,0.80839404296875,-0.09432623535394669,-0.16780820488929749,0.05610771104693413
1634126192031273200,0.828273193359375,-0.054104916751384735,-0.1700434535741806,0.060776639729738235
1634126192051152100,0.848152099609375,-0.03136870637536049,-0.2656903564929962,0.0767851397395134
1634126192071031000,0.868031005859375,-0.018885191529989243,-0.334608793258667,-0.009884602390229702
1634126192090911200,0.8879111328125,-0.013345811516046524,-0.35513246059417725,-0.16346406936645508
1634126192110790000,0.907789794921875,0.020205264911055565,-0.30890145897865295,-0.3332100808620453
1634126192130669000,0.9276689453125,0.07523634284734726,-0.29237669706344604,-0.47083571553230286
1634126192150548200,0.94754833984375,0.0644645243883133,-0.3200913667678833,-0.5414064526557922
1634126192170427100,0.96742724609375,-0.03678180277347565,-0.43094298243522644,-0.49878668785095215
1634126192190306300,0.987306396484375,-0.18041184544563293,-0.5775845050811768,-0.32091572880744934
1634126192210185000,1.00718505859375,-0.3325914442539215,-0.7300839424133301,-0.10963144153356552
1634126192230064000,1.027064208984375,-0.5008596777915955,-0.9025580883026123,-0.018490495160222054
1634126192249943000,1.046943115234375,-0.6656102538108826,-1.0594253540039062,-0.05785613879561424
1634126192269822000,1.066822021484375,-0.7636831402778625,-1.1405386924743652,-0.20748944580554962
1634126192289702000,1.086701904296875,-0.8005957007408142,-1.0834312438964844,-0.2640380859375
1634126192309581000,1.1065810546875,-0.8136873841285706,-0.8551216721534729,-0.2050815373659134
1634126192329460000,1.1264599609375,-0.8282694816589355,-0.39078444242477417,-0.134311705827713
1634126192349339100,1.146339111328125,-0.7777757048606873,0.09067343920469284,0.011812522076070309
1634126192369218000,1.166218017578125,-0.6940345168113708,0.3446120023727417,0.28961458802223206
1634126192389097000,1.186096923828125,-0.6147275567054749,0.30677106976509094,0.5380401611328125
1634126192408976100,1.20597607421875,-0.5566626191139221,-0.04480137676000595,0.6545220017433167
1634126192428855000,1.22585498046875,-0.5309867858886719,-0.5002485513687134,0.5714651942253113
1634126192448734000,1.24573388671875,-0.5254976153373718,-0.8138054609298706,0.4068825840950012
1634126192468612900,1.26561279296875,-0.5152556300163269,-0.8541032075881958,0.2507575750350952
1634126192488493000,1.2854931640625,-0.4788958430290222,-0.7537240386009216,0.1654408723115921
1634126192508372000,1.3053720703125,-0.4118832051753998,-0.5636214017868042,0.10463866591453552
1634126192528251000,1.3252509765625,-0.34862402081489563,-0.4208160936832428,-0.009512323886156082
1634126192548130000,1.345130126953125,-0.33242928981781006,-0.40930646657943726,-0.17037484049797058
1634126192568009000,1.365009033203125,-0.3733453154563904,-0.510715126991272,-0.2899705171585083
1634126192587888000,1.38488818359375,-0.45129117369651794,-0.6386659145355225,-0.3607120215892792
1634126192607767000,1.40476708984375,-0.49609383940696716,-0.687193751335144,-0.4401456117630005
1634126192627646000,1.42464599609375,-0.48690956830978394,-0.6835862994194031,-0.5309648513793945
1634126192647525000,1.444525146484375,-0.4407370984554291,-0.5969963669776917,-0.6751227974891663
1634126192667404000,1.464404052734375,-0.38462507724761963,-0.463497132062912,-0.8395373225212097
1634126192687284000,1.484283935546875,-0.40073609352111816,-0.3384399116039276,-0.9277839660644531
1634126192707163100,1.5041630859375,-0.5176257491111755,-0.2926449775695801,-0.934104859828949
1634126192727042000,1.5240419921875,-0.7081964612007141,-0.31438785791397095,-0.8725177645683289
1634126192746921000,1.5439208984375,-0.8909045457839966,-0.3297822177410126,-0.7587035894393921
1634126192766800000,1.5637998046875,-1.0246195793151855,-0.39526328444480896,-0.584650993347168
1634126192786679000,1.583678955078125,-1.1161415576934814,-0.46235936880111694,-0.42183753848075867
1634126192806558000,1.603557861328125,-1.1701043844223022,-0.5287550091743469,-0.35895219445228577
1634126192826437000,1.62343701171875,-1.2128151655197144,-0.6038540005683899,-0.35708388686180115
1634126192846316000,1.64331591796875,-1.2660787105560303,-0.6847026348114014,-0.3996739685535431
1634126192866195000,1.66319482421875,-1.2706671953201294,-0.7548455595970154,-0.4344671666622162
1634126192886075100,1.6830751953125,-1.2234363555908203,-0.8321931958198547,-0.43390727043151855
1634126192905953800,1.702953857421875,-1.2032703161239624,-0.8926578760147095,-0.42791664600372314
1634126192925833000,1.7228330078125,-1.2422629594802856,-0.9109355807304382,-0.4833498001098633
1634126192945712000,1.742712158203125,-1.2995660305023193,-0.8816387057304382,-0.568665623664856
1634126192965591000,1.762591064453125,-1.3058699369430542,-0.8322232365608215,-0.5803379416465759
1634126192985470000,1.782469970703125,-1.2609056234359741,-0.718252956867218,-0.5262740850448608
1634126193005348900,1.802348876953125,-1.2202292680740356,-0.6508337259292603,-0.4058884084224701
1634126193025228000,1.82222802734375,-1.1726322174072266,-0.7134867310523987,-0.3114583194255829
1634126193045107000,1.84210693359375,-1.148430347442627,-0.734002947807312,-0.29323887825012207
1634126193064987000,1.86198681640625,-1.1183184385299683,-0.7129748463630676,-0.30316320061683655
1634126193084866000,1.881865966796875,-1.06331205368042,-0.7717388272285461,-0.25975796580314636
1634126193104745000,1.901744873046875,-1.0769644975662231,-0.9372683763504028,-0.13136669993400574
1634126193124624100,1.9216240234375,-1.190985083580017,-1.1014057397842407,-0.023447047919034958
1634126193144502800,1.941502685546875,-1.2067877054214478,-1.1536692380905151,-0.05822004750370979
1634126193164382000,1.9613818359375,-1.2319929599761963,-1.1054399013519287,-0.16842538118362427
1634126193184261000,1.98126123046875,-1.2125294208526611,-0.9584127068519592,-0.3634696900844574
1634126193204140000,2.00114013671875,-1.1553593873977661,-0.6910284757614136,-0.518078625202179
1634126193224019000,2.02101904296875,-1.0772907733917236,-0.44361287355422974,-0.5514230132102966
1634126193243897900,2.04089794921875,-0.9920058250427246,-0.154172882437706,-0.44679632782936096
1634126193263778600,2.060778564453125,-0.8878060579299927,0.1640525907278061,-0.2189469039440155
1634126193283657500,2.080657470703125,-0.7431081533432007,0.2996061146259308,0.034051571041345596
1634126193303536400,2.100536376953125,-0.6530943512916565,0.15949183702468872,0.16312351822853088
1634126193323415600,2.12041552734375,-0.7267094254493713,-0.15428295731544495,0.1783955842256546
1634126193343294500,2.14029443359375,-0.828096866607666,-0.46300068497657776,0.11853167414665222
1634126193363173400,2.16017333984375,-0.809368908405304,-0.6498761177062988,0.11286034435033798
1634126193383052500,2.180052490234375,-0.7146912217140198,-0.7199937701225281,0.0860992893576622
1634126193402931500,2.199931396484375,-0.6502097845077515,-0.7136936187744141,0.017599333077669144
1634126193422810600,2.219810546875,-0.5327195525169373,-0.5831773281097412,-0.13529741764068604
1634126193442689500,2.239689453125,-0.3102017343044281,-0.25964468717575073,-0.3557126224040985
1634126193462569500,2.259569580078125,-0.1028222143650055,-0.11279343068599701,-0.43615591526031494
1634126193482448600,2.27944873046875,-0.07840435951948166,-0.3256479501724243,-0.3255959451198578
1634126193502327600,2.29932763671875,-0.30308884382247925,-0.7018065452575684,-0.14515161514282227
1634126193522206500,2.31920654296875,-0.6294407248497009,-0.840225875377655,-0.10330843180418015
1634126193542085400,2.33908544921875,-0.8816087245941162,-0.6879284381866455,-0.12051272392272949
1634126193561964500,2.358964599609375,-0.9562509059906006,-0.3175714313983917,-0.13310015201568604
1634126193581843500,2.378843505859375,-0.91205894947052,0.09212113916873932,-0.05500456318259239
1634126193601722400,2.398722412109375,-0.8131789565086365,0.37247368693351746,0.11953339725732803
1634126193621601500,2.4186015625,-0.6923486590385437,0.429094523191452,0.29045483469963074
1634126193641480400,2.43848046875,-0.5571877360343933,0.2567666172981262,0.3919154405593872
1634126193661359600,2.458359619140625,-0.44552966952323914,-0.1270080953836441,0.364181786775589
1634126193681239600,2.478239501953125,-0.2938305139541626,-0.45398417115211487,0.15275424718856812
1634126193701118500,2.498118408203125,-0.11429475247859955,-0.44780516624450684,-0.22101324796676636
1634126193720997600,2.51799755859375,0.1079215407371521,0.1252017617225647,-0.709023118019104
1634126193740876500,2.53787646484375,0.3148129880428314,0.5721122622489929,-0.9855826497077942
1634126193760755500,2.55775537109375,0.3914538025856018,0.6233860850334167,-0.8936962485313416
1634126193780634400,2.57763427734375,0.24600793421268463,0.31764930486679077,-0.5327617526054382
1634126193800513500,2.597513427734375,-0.019600559026002884,-0.16592057049274445,-0.183235764503479
1634126193820392700,2.617392822265625,-0.24113377928733826,-0.5486251711845398,-0.02016579546034336
1634126193840271400,2.637271240234375,-0.31795889139175415,-0.8023645877838135,-0.027335014194250107
1634126193860150500,2.657150634765625,-0.29349470138549805,-0.8292545676231384,-0.17803514003753662
1634126193880030500,2.677030517578125,-0.19821353256702423,-0.7317006587982178,-0.39242762327194214
1634126193899909400,2.696909423828125,-0.06901027262210846,-0.514276921749115,-0.7254130244255066
1634126193919788500,2.71678857421875,0.022875530645251274,-0.3470761179924011,-1.1784299612045288
1634126193939667500,2.73666748046875,0.03010348230600357,-0.14008544385433197,-1.6722763776779175
1634126193959546600,2.756546630859375,0.043423645198345184,0.12930601835250854,-2.0122663974761963
1634126193979425500,2.776425537109375,0.1551477313041687,0.12025237083435059,-2.1276659965515137
1634126193999304400,2.796304443359375,0.25404179096221924,-0.11164237558841705,-1.9245703220367432
1634126194019183400,2.816183349609375,0.2203925997018814,-0.5634382367134094,-1.437839388847351
1634126194039062500,2.8360625,0.013378827832639217,-0.8973836302757263,-0.9380831122398376
1634126194058941700,2.855941650390625,-0.2008778601884842,-0.944342315196991,-0.644390344619751
1634126194078821400,2.8758212890625,-0.2997385263442993,-0.7259669303894043,-0.45174700021743774
1634126194098700500,2.895700439453125,-0.2913719415664673,-0.45911434292793274,-0.19121423363685608
1634126194118579500,2.915579345703125,-0.2521115243434906,-0.2874038815498352,0.09872785210609436
1634126194138458400,2.935458251953125,-0.18301446735858917,-0.21602743864059448,0.22660672664642334
1634126194158337500,2.955337646484375,-0.10775682330131531,-0.23188744485378265,0.1272612363100052
1634126194178216400,2.975216552734375,0.009652052074670792,-0.2457711547613144,-0.07585660368204117
1634126194198095600,2.995095703125,0.17143145203590393,-0.30147427320480347,-0.3605586290359497
1634126194217974500,3.014974609375,0.2560788094997406,-0.41702818870544434,-0.5949884653091431
1634126194237853400,3.034853515625,0.25867170095443726,-0.6701659560203552,-0.7014328241348267
1634126194257732400,3.054732421875,0.15570051968097687,-0.8866909146308899,-0.7095762491226196
1634126194277612300,3.0746123046875,-0.07724178582429886,-0.8646770715713501,-0.5476996302604675
1634126194297491200,3.0944912109375,-0.33099496364593506,-0.7100717425346375,-0.24081771075725555
1634126194317370000,3.1143701171875,-0.5387973785400391,-0.5421525835990906,0.07507288455963135
1634126194337249000,3.1342490234375,-0.6755189895629883,-0.5009975433349609,0.27802279591560364
1634126194357128200,3.154128173828125,-0.6976368427276611,-0.49248480796813965,0.2391304224729538
1634126194377007000,3.174007080078125,-0.6216022968292236,-0.5020973682403564,0.03195762261748314
1634126194396886000,3.193885986328125,-0.4561060667037964,-0.552306592464447,-0.23172661662101746
1634126194416765200,3.21376513671875,-0.30934786796569824,-0.6076428890228271,-0.36431577801704407
1634126194436644000,3.23364404296875,-0.2561200261116028,-0.5658193230628967,-0.27898216247558594
1634126194456523300,3.253523193359375,-0.2593652606010437,-0.3920530080795288,-0.09500563889741898
1634126194476403200,3.2734033203125,-0.3025129735469818,-0.2048511803150177,0.09342512488365173
1634126194496282000,3.2932822265625,-0.3679453730583191,-0.1275734007358551,0.28494828939437866
1634126194516161300,3.313161376953125,-0.3945789635181427,-0.17516480386257172,0.4354056715965271
1634126194536040200,3.333040283203125,-0.38559430837631226,-0.2896495461463928,0.45444416999816895
1634126194555919000,3.352919189453125,-0.3791618347167969,-0.3312673568725586,0.3457289934158325
1634126194575798000,3.372798095703125,-0.32593101263046265,-0.3439822494983673,0.20918501913547516
1634126194595677200,3.39267724609375,-0.2281426340341568,-0.3651416301727295,0.1309010088443756
1634126194615556000,3.41255615234375,-0.10514586418867111,-0.3950561285018921,0.06481386721134186
1634126194635435000,3.43243505859375,-0.0576612688601017,-0.41663017868995667,-0.006987585220485926
1634126194655314200,3.452314208984375,-0.10527069121599197,-0.3739311695098877,-0.03656066209077835
1634126194675194000,3.472194091796875,-0.19424355030059814,-0.26855459809303284,-0.009469821117818356
1634126194695073000,3.492072998046875,-0.27975398302078247,-0.14458417892456055,0.05599986016750336
1634126194714952200,3.5119521484375,-0.38273897767066956,-0.04507595673203468,0.132283553481102
1634126194734831000,3.5318310546875,-0.45554932951927185,0.06258954107761383,0.17777501046657562
1634126194754710300,3.551710205078125,-0.459572970867157,0.13372038304805756,0.1680077612400055
1634126194774589200,3.571589111328125,-0.41443371772766113,0.18767575919628143,0.13386790454387665
1634126194794468000,3.591468017578125,-0.3213806450366974,0.17473571002483368,0.07120321691036224
1634126194814347000,3.611346923828125,-0.1841236799955368,0.1356244683265686,0.009640868753194809
1634126194834226200,3.63122607421875,-0.04605599120259285,0.09451013803482056,0.020597608759999275
1634126194854105300,3.651105224609375,0.06501774489879608,0.06062252074480057,0.07728690654039383
1634126194873985000,3.670985107421875,0.1056021898984909,0.03334096819162369,0.11812010407447815
1634126194893864200,3.6908642578125,0.12084288895130157,0.0069246795028448105,0.09544843435287476
1634126194913743000,3.7107431640625,0.13439318537712097,0.028449486941099167,0.08720424771308899
1634126194933622000,3.7306220703125,0.14938119053840637,0.07069894671440125,0.15323731303215027
1634126194953501200,3.750501220703125,0.1727757602930069,0.0760238990187645,0.21948088705539703
1634126194973380000,3.770380126953125,0.18087759613990784,0.0811648964881897,0.2162162810564041
1634126194993259300,3.79025927734375,0.1853674203157425,0.07370723783969879,0.15164178609848022
1634126195013138200,3.81013818359375,0.17586152255535126,0.04185916483402252,0.10946665704250336
1634126195033017000,3.83001708984375,0.17060910165309906,-0.00008514150977134705,0.08380407094955444
1634126195052896000,3.84989599609375,0.13732437789440155,-0.047607388347387314,0.11206047236919403
1634126195072776200,3.869776123046875,0.08379564434289932,-0.031006839126348495,0.11603337526321411
1634126195092655000,3.889655029296875,0.0373653918504715,0.04236426204442978,0.05452525615692139
1634126195112534000,3.909533935546875,0.01752093806862831,0.06014533340930939,-0.006408956367522478
1634126195132413200,3.9294130859375,-0.031190013512969017,-0.021421216428279877,0.012503116391599178
1634126195152292000,3.9492919921875,-0.10129675269126892,-0.09815669804811478,-0.002853740006685257
1634126195172171000,3.9691708984375,-0.17202280461788177,-0.09816578775644302,-0.039640143513679504
1634126195192050200,3.98905029296875,-0.226064071059227,-0.07417942583560944,-0.061218250542879105
1634126195211929000,4.00892919921875,-0.2513173520565033,0.029026785865426064,-0.08663588017225266
1634126195231808300,4.028808349609375,-0.2707383632659912,0.016283370554447174,-0.0970238447189331
1634126195251688000,4.04868798828125,-0.29160434007644653,0.044983915984630585,-0.0756298378109932
1634126195271568000,4.06856787109375,-0.29661259055137634,0.062212128192186356,-0.04413076117634773
1634126195291446800,4.08844677734375,-0.2984347939491272,0.05965182185173035,-0.04421808570623398
1634126195311325700,4.10832568359375,-0.31144699454307556,0.063382089138031,-0.11224813759326935
1634126195331204600,4.12820458984375,-0.333412766456604,0.042942337691783905,-0.23722004890441895
1634126195351083800,4.148083740234375,-0.34869760274887085,0.052982669323682785,-0.34651869535446167
1634126195370963000,4.167962890625,-0.33648887276649475,0.014102505519986153,-0.41271182894706726
1634126195390841600,4.187841552734375,-0.23052681982517242,-0.0312967523932457,-0.48566168546676636
1634126195410720800,4.207720703125,-0.03491014242172241,-0.09560518711805344,-0.48505672812461853
1634126195430600700,4.2276005859375,0.11884520202875137,-0.08865386992692947,-0.35663628578186035
1634126195450479900,4.24747998046875,0.15629804134368896,0.04300268366932869,-0.18719057738780975
1634126195470358800,4.26735888671875,0.11764722317457199,0.17213581502437592,-0.07657350599765778
1634126195490237700,4.28723779296875,0.08766216784715652,0.2586562931537628,0.0077330926433205605
1634126195510116900,4.307116943359375,0.10506170988082886,0.2333618551492691,0.06501220166683197
1634126195529995800,4.326995849609375,0.107264943420887,0.10013242810964584,0.11881101131439209
1634126195549874700,4.346874755859375,0.06894891709089279,-0.002851163037121296,0.17380227148532867
1634126195569753600,4.366753662109375,-0.007947590202093124,-0.05120238661766052,0.3086901903152466
1634126195589632800,4.3866328125,-0.10999973863363266,-0.04499959200620651,0.4994986951351166
1634126195609512000,4.406511962890625,-0.2172941416501999,0.011859655380249023,0.6766399145126343
1634126195629391600,4.4263916015625,-0.30496546626091003,0.005335209891200066,0.758435070514679
1634126195649270800,4.446270751953125,-0.3361425995826721,-0.07252974808216095,0.5614404082298279
1634126195669149700,4.466149658203125,-0.27015459537506104,-0.25137922167778015,0.2626596689224243
1634126195689028900,4.48602880859375,-0.13989239931106567,-0.25389647483825684,0.06811348348855972
1634126195708907800,4.50590771484375,-0.0640636757016182,-0.1837814301252365,-0.009711234830319881
1634126195728786700,4.52578662109375,-0.05474376305937767,-0.11467702686786652,-0.015619742684066296
1634126195748665900,4.545665771484375,-0.058888666331768036,-0.025185510516166687,-0.028948461636900902
1634126195768544800,4.565544677734375,-0.059988632798194885,0.03334815055131912,-0.04001602903008461
1634126195788423700,4.585423583984375,-0.029709696769714355,0.04754846543073654,-0.03024420700967312
1634126195808303900,4.605303955078125,0.01136631891131401,0.04299835115671158,-0.013026193715631962
1634126195828182800,4.625182861328125,0.027305079624056816,-0.004766394849866629,-0.024663448333740234
1634126195848061700,4.645061767578125,0.013474075123667717,-0.028837285935878754,-0.03825684264302254
1634126195867940600,4.664940673828125,0.0206933431327343,-0.020823709666728973,-0.051624782383441925
1634126195887819800,4.68481982421875,0.0032730218954384327,-0.017712170258164406,-0.01614491268992424
1634126195907698700,4.70469873046875,0.006858034525066614,0.03084598109126091,0.04715031012892723
1634126195927577900,4.724577880859375,0.02022435888648033,0.01773926615715027,0.09850667417049408
1634126195947456800,4.744456787109375,0.030455689877271652,0.012991915456950665,0.11317669600248337
1634126195967335700,4.764335693359375,0.058142803609371185,-0.09096276760101318,0.08740340173244476
1634126195987214800,4.78421484375,0.0658051073551178,-0.19554196298122406,0.02666059508919716
1634126196007094800,4.8040947265625,0.07586062699556351,-0.1964322328567505,-0.04899488762021065
1634126196026973700,4.8239736328125,0.1134004220366478,-0.10952750593423843,-0.07758833467960358
1634126196046852900,4.843852783203125,0.19212599098682404,-0.03323530778288841,-0.07054276019334793
1634126196066731800,4.863731689453125,0.2134624719619751,-0.051483191549777985,-0.0221176128834486
1634126196086610700,4.883610595703125,0.19437217712402344,-0.037457942962646484,-0.025764409452676773
1634126196106489600,4.903489501953125,0.14622782170772552,-0.060336362570524216,-0.04624757915735245
1634126196126368800,4.92336865234375,0.0812227800488472,-0.06028471887111664,-0.03071082942187786
1634126196146247700,4.94324755859375,0.0355793796479702,-0.04944043979048729,0.00829972792416811
1634126196166126800,4.963126953125,0.0049529410898685455,-0.023487361147999763,0.032875906676054
1634126196186006800,4.9830068359375,-0.017425065860152245,0.018143299967050552,0.027338115498423576
1634126196205885700,5.0028857421875,-0.023258278146386147,0.023010941222310066,0.02414126694202423
1634126196225764900,5.022764892578125,-0.037499792873859406,-0.0051005990244448185,0.03127904236316681
1634126196245643800,5.042643798828125,-0.054218631237745285,-0.01799386739730835,0.0144346933811903
1634126196265522200,5.062522216796875,-0.08518321067094803,-0.031364914029836655,-0.00157565763220191
1634126196285401300,5.0824013671875,-0.11482885479927063,-0.014986678026616573,-0.004186227917671204
1634126196305280300,5.1022802734375,-0.12429475039243698,0.0029909564182162285,0.002220647409558296
1634126196325159400,5.122159423828125,-0.13185706734657288,-0.008436794392764568,-0.0025924700312316418
1634126196345038000,5.1420380859375,-0.13448147475719452,-0.014513404108583927,-0.007238774560391903
1634126196364918300,5.161918212890625,-0.12368710339069366,-0.04612928256392479,0.00021846458548679948
1634126196384797400,5.18179736328125,-0.11411792039871216,-0.0719526931643486,0.007207168266177177
1634126196404676000,5.201676025390625,-0.1269437074661255,-0.07697796821594238,-0.0007059233030304313
1634126196424555300,5.22155517578125,-0.13916291296482086,-0.03301591798663139,-0.0020755776204168797
1634126196444434200,5.24143408203125,-0.11817524582147598,0.014127454720437527,-0.00579120172187686
1634126196464313300,5.261313232421875,-0.0585927814245224,0.009169661439955235,-0.008115631528198719
1634126196484192300,5.281192138671875,0.009405259974300861,-0.04583783447742462,-0.009084737859666348
1634126196504071200,5.3010712890625,0.049327194690704346,-0.07509962469339371,-0.030680039897561073
1634126196523950300,5.320950439453125,0.05310969054698944,-0.07838238030672073,-0.04924308508634567
1634126196543829200,5.340829345703125,0.039654117077589035,-0.05799484625458717,-0.03373325988650322
1634126196563709200,5.360709228515625,0.03324752300977707,-0.026992134749889374,-0.01062924973666668
1634126196583588000,5.380588134765625,0.030883796513080597,-0.0037426636554300785,-0.006815906148403883
1634126196603467300,5.40046728515625,0.011759715154767036,-0.009059419855475426,-0.022259516641497612
1634126196623346400,5.420346435546875,0.003417142666876316,-0.0291062593460083,-0.030576180666685104
1634126196643225000,5.44022509765625,0.0019275119993835688,-0.029583847150206566,-0.03690243512392044
1634126196663104300,5.460104248046875,-0.016519231721758842,-0.03189435601234436,-0.04196641594171524
1634126196682983200,5.479983154296875,-0.053445953875780106,-0.017731865867972374,-0.038545724004507065
1634126196702862300,5.4998623046875,-0.060999881476163864,0.015658259391784668,-0.03464135900139809
1634126196722741200,5.5197412109375,-0.0415516160428524,0.023885289207100868,-0.029525188729166985
1634126196742620200,5.5396201171875,-0.02563580870628357,0.004306281916797161,-0.031733088195323944
1634126196762500400,5.559500244140625,-0.030435845255851746,-0.011682698503136635,-0.025767484679818153
1634126196782379300,5.579379150390625,-0.05539654567837715,-0.02017073705792427,-0.006275378167629242
1634126196802258200,5.599258056640625,-0.06339561939239502,0.00005876366049051285,0.005169542506337166
1634126196822137300,5.619137451171875,-0.05098794400691986,0.008473142050206661,0.030164865776896477
1634126196842016300,5.639016357421875,-0.02200428582727909,-0.012430757284164429,0.06280424445867538
1634126196861895400,5.6588955078125,0.010256979614496231,-0.06793422996997833,0.07726974040269852
1634126196881774000,5.678774169921875,0.025700215250253677,-0.09480597823858261,0.04716053605079651
1634126196901653200,5.6986533203125,0.023626232519745827,-0.05869889259338379,0.010107981972396374
1634126196921533400,5.718533447265625,0.020693382248282433,0.003190000541508198,0.000625535671133548
1634126196941412000,5.738412109375,0.02513517439365387,0.02593238651752472,0.014243099838495255
1634126196961291300,5.758291259765625,0.021916132420301437,0.014936353079974651,0.010318086482584476
1634126196981170200,5.778170166015625,0.011812233366072178,-0.007711103186011314,-0.028333576396107674
1634126197001049300,5.79804931640625,-0.00324257486499846,-0.03536924719810486,-0.04725705087184906
1634126197020928300,5.81792822265625,-0.015313927084207535,-0.022323068231344223,-0.014789270237088203
1634126197040807200,5.83780712890625,-0.012102775275707245,0.01145890448242426,0.006199363619089127
1634126197060686300,5.857686279296875,-0.004299938213080168,0.02623370662331581,-0.007573290262371302
1634126197080565200,5.877565185546875,-0.005258990917354822,-0.012675311416387558,-0.022214125841856003
1634126197100445200,5.897445068359375,-0.023439183831214905,-0.08849652856588364,-0.034077636897563934
1634126197120324000,5.917323974609375,-0.053648363798856735,-0.12519466876983643,-0.04802974313497543
1634126197140203300,5.937203369140625,-0.056040406227111816,-0.09290944039821625,-0.032894231379032135
1634126197160082400,5.95708251953125,-0.033021602779626846,-0.014384816400706768,-0.000011217023711651564
1634126197179961000,5.976961181640625,-0.010402214713394642,0.04160955175757408,0.03257039189338684
1634126197199840300,5.99684033203125,0.0020574233494699,0.017123373225331306,0.03731684014201164
1634126197219719200,6.01671923828125,-0.011372138746082783,-0.0623948760330677,0.03790603578090668
1634126197239598300,6.036598388671875,-0.050013232976198196,-0.04807734116911888,0.03739618882536888
1634126197259477200,6.056477294921875,-0.06176207959651947,-0.007647999562323093,0.05067272484302521
1634126197279357200,6.076357177734375,-0.01962643675506115,0.035774365067481995,0.05626298859715462
1634126197299237400,6.0962373046875,0.017976956441998482,0.04540882632136345,0.05110602080821991
1634126197319116300,6.1161162109375,0.02823234349489212,0.056932419538497925,0.03164658695459366
1634126197338995200,6.1359951171875,0.024535084143280983,0.06366368383169174,0.021098563447594643
1634126197358874400,6.155874267578125,0.027759861201047897,0.0661201924085617,0.020278707146644592
1634126197378753300,6.175753173828125,0.041525114327669144,0.08834340423345566,0.01813117042183876
1634126197398632200,6.195632080078125,0.03893963620066643,0.12505005300045013,0.022631879895925522
1634126197418511400,6.215511474609375,0.031626634299755096,0.15283213555812836,0.049585096538066864
1634126197438390300,6.235390380859375,0.020806431770324707,0.18876326084136963,0.07937774807214737
1634126197458269400,6.25526953125,0.006246934644877911,0.23297998309135437,0.09164983034133911
1634126197478149000,6.275149169921875,-0.00603250227868557,0.258132666349411,0.10036835819482803
1634126197498028300,6.2950283203125,-0.017690708860754967,0.2330392748117447,0.1015772745013237
1634126197517907500,6.314907470703125,-0.030783481895923615,0.15160468220710754,0.06081191822886467
1634126197537786400,6.334786376953125,-0.03173724561929703,0.09405088424682617,0.005577422212809324
1634126197557665300,6.354665283203125,-0.015944788232445717,0.09235116094350815,-0.016610456630587578
1634126197577544200,6.374544189453125,0.005426629446446896,0.09931476414203644,0.009515983983874321
1634126197597423400,6.39442333984375,0.0064717913046479225,0.10108622908592224,0.054110195487737656
1634126197617302300,6.41430224609375,-0.008255718275904655,0.0666816383600235,0.03812207281589508
1634126197637182200,6.43418212890625,-0.026176035404205322,0.005586271174252033,-0.01965176872909069
1634126197657061400,6.454061279296875,-0.016995761543512344,-0.03456585854291916,-0.06678786128759384
1634126197676940300,6.473940185546875,0.02410253882408142,-0.009607573971152306,-0.07638096809387207
1634126197696819200,6.493819091796875,0.06641403585672379,0.025326455011963844,-0.05971274524927139
1634126197716698000,6.513697998046875,0.06250207871198654,0.040399689227342606,-0.0441318154335022
1634126197736577300,6.533577392578125,0.025223905220627785,0.018301203846931458,-0.036775488406419754
1634126197756456400,6.55345654296875,-0.004003612324595451,-0.0046690478920936584,-0.05282895267009735
1634126197776335400,6.57333544921875,-0.02144964039325714,-0.030564304441213608,-0.05158277228474617
1634126197796214300,6.59321435546875,-0.04902870953083038,-0.06103784590959549,-0.007617999333888292
1634126197816093200,6.61309326171875,-0.06938604265451431,-0.050032537430524826,0.02256186679005623
1634126197835973400,6.632973388671875,-0.07686375081539154,-0.014749743975698948,0.022916847839951515
1634126197855852300,6.652852294921875,-0.07135926187038422,0.028627950698137283,0.006953846663236618
1634126197875731200,6.672731201171875,-0.06279309093952179,0.04289393126964569,0.01780509017407894
1634126197895610400,6.6926103515625,-0.06008854880928993,0.025747103616595268,0.03532224893569946
1634126197915489300,6.7124892578125,-0.05258726701140404,-0.019241783767938614,0.03735198825597763
1634126197935368200,6.7323681640625,-0.04328462481498718,-0.044662170112133026,0.02046075463294983
1634126197955247400,6.752247314453125,-0.036324456334114075,-0.03585388883948326,0.009564711712300777
1634126197975126300,6.772126220703125,-0.03186756744980812,-0.0050110649317502975,0.012349051423370838
1634126197995005400,6.79200537109375,-0.011566687375307083,0.008925320580601692,-0.004225005861371756
1634126198014885000,6.811885009765625,0.00903091486543417,-0.0009637633338570595,-0.025360416620969772
1634126198034764300,6.831764404296875,0.04194270074367523,-0.005959671456366777,-0.04480334743857384
1634126198054643500,6.8516435546875,0.0451633483171463,-0.04878959804773331,-0.02528262510895729
1634126198074522400,6.8715224609375,0.031781017780303955,-0.04982573539018631,-0.014131076633930206
1634126198094401300,6.8914013671875,0.010571727529168129,-0.033024173229932785,-0.03192215785384178
1634126198114280200,6.9112802734375,-0.00047435611486434937,0.04561382532119751,-0.049908071756362915
1634126198134159400,6.931159423828125,0.015877004712820053,0.12604723870754242,-0.03731023892760277
1634126198154038300,6.951038330078125,0.037512172013521194,0.15458080172538757,-0.016878217458724976
1634126198173917200,6.970917236328125,0.04187318682670593,0.09885264933109283,0.0027298573404550552
1634126198193797400,6.99079736328125,0.028795961290597916,-0.035619668662548065,0.013800455257296562
1634126198213676300,7.01067626953125,0.008478928357362747,-0.08792039752006531,0.011985641904175282
1634126198233555200,7.03055517578125,0.008735038340091705,-0.07326432317495346,0.01743418537080288
1634126198253434000,7.05043408203125,0.03812496364116669,-0.005946430377662182,0.018254749476909637
1634126198273311500,7.0703115234375,0.07913219928741455,0.03934387117624283,0.02761133387684822
1634126198293190700,7.090190673828125,0.11236205697059631,0.018992118537425995,0.032470230013132095
1634126198313069600,7.110069580078125,0.09499779343605042,-0.02639337070286274,0.03567672148346901
1634126198332948700,7.12994873046875,0.06217468902468681,-0.053022630512714386,0.042473647743463516
1634126198352827600,7.14982763671875,0.03760729357600212,-0.03201307728886604,0.05390634387731552
1634126198372707600,7.16970751953125,0.032652758061885834,-0.03467492759227753,0.07518601417541504
1634126198392586800,7.189586669921875,0.05201202630996704,-0.007025958504527807,0.060562748461961746
1634126198412465700,7.209465576171875,0.0912555679678917,-0.00275557953864336,0.03061150759458542
1634126198432344600,7.229344482421875,0.10665520280599594,-0.007941500283777714,0.010416783392429352
1634126198452223700,7.2492236328125,0.08670462667942047,-0.01254435908049345,-0.0020557488314807415
1634126198472102700,7.2691025390625,0.050779204815626144,0.0279255248606205,-0.015904979780316353
1634126198491981800,7.28898193359375,0.021380305290222168,0.0865563377737999,-0.01722700148820877
1634126198511860700,7.30886083984375,0.018849454820156097,0.0752033144235611,-0.012036075815558434
1634126198531739600,7.32873974609375,0.040971267968416214,0.03690560162067413,-0.022137697786092758
1634126198551619800,7.348619873046875,0.0507153682410717,-0.009703638032078743,-0.04036714881658554
1634126198571498800,7.368498779296875,0.03261440992355347,-0.004760170821100473,-0.04588102549314499
1634126198591377700,7.388377685546875,0.0019623455591499805,0.0033485768362879753,-0.015241429209709167
1634126198611256600,7.408256591796875,-0.019352970644831657,0.015827298164367676,0.027400551363825798
1634126198631135700,7.4281357421875,-0.01943153142929077,-0.0003020092844963074,0.027265246957540512
1634126198651014700,7.4480146484375,-0.017627732828259468,-0.03306369483470917,-0.002100466750562191
1634126198670893600,7.4678935546875,-0.0022257883101701736,-0.058309298008680344,-0.024963688105344772
1634126198690772700,7.487772705078125,0.008235292509198189,-0.05104656517505646,-0.008189265616238117
1634126198710651600,7.507651611328125,0.0010713075753301382,0.002711104229092598,0.013527434319257736
1634126198730530800,7.52753076171875,-0.009515072219073772,0.011271331459283829,0.014183529652655125
1634126198750410500,7.547410400390625,-0.024442624300718307,-0.021246790885925293,-0.005188023671507835
1634126198770289700,7.56728955078125,-0.030591772869229317,-0.07801145315170288,-0.0208804439753294
1634126198790168800,7.5871689453125,-0.0031861576717346907,-0.08435182273387909,-0.03318212553858757
1634126198810047700,7.6070478515625,0.0215314794331789,-0.049669355154037476,-0.04143271595239639
1634126198829926700,7.6269267578125,0.04137904569506645,0.011972925625741482,-0.05204141512513161
1634126198849805600,7.6468056640625,0.036072246730327606,0.040835294872522354,-0.07618294656276703
1634126198869684700,7.666684814453125,0.02847420796751976,0.021517138928174973,-0.07379104942083359
1634126198889563600,7.686563720703125,0.02027127519249916,-0.04018331691622734,-0.04403437301516533
1634126198909442600,7.706442626953125,-0.0027625439688563347,-0.09081538021564484,-0.0325317420065403
1634126198929322800,7.72632275390625,-0.040970731526613235,-0.08266648650169373,-0.02976103685796261
1634126198949201700,7.74620166015625,-0.05406101420521736,-0.053339727222919464,-0.005154869053512812
1634126198969080600,7.76608056640625,-0.035508111119270325,-0.024038411676883698,0.013630577363073826
1634126198988959500,7.78595947265625,-0.021746840327978134,-0.02007000520825386,-0.002471192507073283
1634126199008838700,7.805838623046875,-0.011097436770796776,-0.018254773691296577,-0.029825987294316292
1634126199028717800,7.8257177734375,-0.001073887338861823,-0.018949810415506363,-0.06141142547130585
1634126199048596700,7.8455966796875,-0.008555717766284943,-0.01713450811803341,-0.07121282815933228
1634126199068475600,7.8654755859375,-0.010353129357099533,-0.009402798488736153,-0.06602432578802109
1634126199088355600,7.88535546875,-0.02535986341536045,0.017965218052268028,-0.058204490691423416
1634126199108234800,7.90523486328125,-0.036030348390340805,0.05801835283637047,-0.05644550174474716
1634126199128113700,7.92511376953125,-0.03947465494275093,0.05169735103845596,-0.041704803705215454
1634126199147992600,7.94499267578125,-0.032883964478969574,0.029742058366537094,-0.04075264185667038
1634126199167871700,7.964871826171875,-0.014847476966679096,0.04092415049672127,-0.07132003456354141
1634126199187750700,7.984750732421875,0.00217056623660028,0.04031912237405777,-0.0751430094242096
1634126199207629600,8.004629638671876,0.02198980748653412,0.04745560511946678,-0.049307387322187424
1634126199227508500,8.024508544921876,0.03660079464316368,0.03497013449668884,-0.023561008274555206
1634126199247387600,8.0443876953125,0.0364263616502285,0.02388804778456688,-0.020861109718680382
1634126199267267000,8.06426708984375,0.025481082499027252,0.006700505502521992,-0.021319866180419922
1634126199287147000,8.08414697265625,0.018699433654546738,0.01193263940513134,-0.0158566664904356
1634126199307026200,8.104026123046875,0.016883553937077522,0.02264953777194023,-0.008166633546352386
1634126199326905000,8.123905029296875,0.00777656864374876,0.023297499865293503,-0.001509959576651454
1634126199346784000,8.143783935546875,0.006491589359939098,-0.011221854016184807,0.01578756608068943
1634126199366663000,8.163662841796874,-0.004648189060389996,-0.04018598049879074,0.029941584914922714
1634126199386542000,8.1835419921875,-0.02605525404214859,-0.03273336589336395,0.02259298786520958
1634126199406421000,8.2034208984375,-0.032094068825244904,-0.005005940794944763,0.01378035917878151
1634126199426300200,8.223300048828126,-0.017504476010799408,0.024819470942020416,0.019087785854935646
1634126199446179000,8.243178955078125,-0.0074042510241270065,0.05064377188682556,0.02344600483775139
1634126199466059000,8.26305908203125,-0.0038313998375087976,0.06028243899345398,0.021452773362398148
1634126199485938200,8.282938232421875,-0.008783816359937191,0.04397444799542427,0.028469949960708618
1634126199505816800,8.30281689453125,-0.019186129793524742,0.025970693677663803,0.04337382689118385
1634126199525696000,8.322696044921875,-0.03489052131772041,-0.005198018625378609,0.07765109091997147
1634126199545575200,8.3425751953125,-0.0413045659661293,-0.023525457829236984,0.08884727209806442
1634126199565454000,8.3624541015625,-0.02871016412973404,-0.014149286784231663,0.06955520063638687
1634126199585333000,8.3823330078125,-0.0022785135079175234,0.0106364656239748,0.0331408716738224
1634126199605212000,8.4022119140625,0.030437754467129707,0.03837934881448746,-0.004947521258145571
1634126199625092000,8.422092041015626,0.04246804118156433,0.0388607382774353,-0.014165746979415417
1634126199644971000,8.441970947265625,0.038018301129341125,0.00699780136346817,0.011736803688108921
1634126199664850000,8.461849853515625,0.020327942445874214,-0.0017177639529109001,0.026004301384091377
1634126199684729000,8.48172900390625,-0.007428712677210569,0.030438624322414398,0.020739596337080002
1634126199704608000,8.50160791015625,-0.01640728861093521,0.06141890212893486,0.013550631701946259
1634126199724487200,8.521487060546875,-0.003494114149361849,0.06593161821365356,0.0034345118328928947
1634126199744365800,8.54136572265625,0.007594538386911154,0.02777940407395363,0.002673754235729575
1634126199764245000,8.561244873046874,-0.003387675853446126,-0.006132947281002998,0.009671896696090698
1634126199784124200,8.581124267578126,-0.033324893563985825,0.006711924448609352,0.004994329530745745
1634126199804003000,8.601003173828126,-0.04551190882921219,0.009109622798860073,0.007270099129527807
1634126199823883000,8.620883056640626,-0.043746497482061386,-0.004528562538325787,0.018965622410178185
1634126199843762000,8.640761962890625,-0.03713379055261612,-0.025189653038978577,0.01986263506114483
1634126199863641000,8.66064111328125,-0.028404075652360916,-0.006834168918430805,-0.006268481723964214
1634126199883520000,8.68052001953125,-0.01604642905294895,0.023070041090250015,-0.032601695507764816
1634126199903399000,8.70039892578125,-0.012354180216789246,0.03084658831357956,-0.013437706977128983
1634126199923278000,8.720278076171875,-0.019487639889121056,-0.009965055622160435,0.010792030952870846
1634126199943157000,8.740156982421874,-0.04083598032593727,-0.03415140509605408,0.010418100282549858
1634126199963036200,8.7600361328125,-0.05699647590517998,-0.01873602159321308,-0.00695348484441638
1634126199982914800,8.779914794921876,-0.03597598522901535,0.016268104314804077,-0.018303265795111656
1634126200002795000,8.799794921875,0.006513506174087524,0.04518107697367668,-0.020646031945943832
1634126200022674200,8.819674072265625,0.024192022159695625,0.03634300082921982,0.0025932006537914276
1634126200042552800,8.839552734375,0.0009729868033900857,-0.013248519971966743,0.007749080657958984
1634126200062432000,8.859431884765625,-0.021487943828105927,-0.035113945603370667,-0.008402954787015915
1634126200082311000,8.879310791015625,-0.03256473317742348,-0.02502834051847458,-0.015202028676867485
1634126200102190000,8.899190185546875,-0.03605113923549652,-0.007138773333281279,0.002861046465113759
1634126200122069200,8.9190693359375,-0.03992774710059166,-0.0021996498107910156,0.017964942380785942
1634126200141948000,8.938947998046874,-0.03227471187710762,-0.014563195407390594,0.0038344860076904297
1634126200161827000,8.9588271484375,-0.019597357138991356,-0.032531894743442535,-0.021553685888648033
1634126200181707300,8.978707275390626,0.003480303566902876,-0.023996207863092422,-0.039818279445171356
1634126200201586000,8.9985859375,0.027412574738264084,0.004524502903223038,-0.044448304921388626
1634126200221465000,9.018465087890625,0.04111854359507561,0.005246601067483425,-0.061376992613077164
1634126200241344000,9.038343994140625,0.03782079741358757,-0.017527718096971512,-0.07295311987400055
1634126200261223200,9.05822314453125,0.02953321486711502,-0.02712836116552353,-0.07259675860404968
1634126200281105400,9.07810546875,0.006566023454070091,-0.02066761814057827,-0.05996963754296303
1634126200300984300,9.097984375,-0.0019058957695960999,0.008272762410342693,-0.05643360689282417
1634126200320863500,9.117863525390625,0.0022094366140663624,0.024900242686271667,-0.06076934188604355
1634126200340742700,9.13774267578125,0.011148293502628803,0.010917337611317635,-0.07209376990795135
1634126200360622300,9.157622314453125,0.012025807052850723,-0.012593455612659454,-0.07252068817615509
1634126200380501500,9.17750146484375,-0.0003822105936706066,-0.015213304199278355,-0.06337115168571472
1634126200400380700,9.197380615234374,-0.018023481592535973,-0.018498728051781654,-0.04860057681798935
1634126200420259600,9.217259521484374,-0.02801676280796528,-0.005495173390954733,-0.038433339446783066
1634126200440138500,9.237138427734376,-0.030661337077617645,-0.014904343523085117,-0.04457200691103935
1634126200460017400,9.257017333984376,-0.024559715762734413,0.010516953654587269,-0.04864761233329773
1634126200479896600,9.276896484375,-0.013467390090227127,-0.01872294582426548,-0.021944867447018623
1634126200499775500,9.296775390625,-0.017242373898625374,-0.0408630296587944,0.004294581711292267
1634126200519654400,9.316654296875,-0.022281784564256668,-0.032614994794130325,-0.00809870008379221
1634126200539534600,9.33653466796875,-0.021578261628746986,-0.0237282607704401,-0.03619268164038658
1634126200559413500,9.35641357421875,-0.006195493042469025,-0.022320279851555824,-0.039390575140714645
1634126200579292400,9.37629248046875,0.020133718848228455,-0.03811343386769295,-0.025801684707403183
1634126200599171300,9.39617138671875,0.03316762298345566,-0.0241132453083992,-0.024953568354249
1634126200619050500,9.416050537109374,0.02168998494744301,-0.006932706106454134,-0.03815317898988724
1634126200638929700,9.4359296875,0.028730351477861404,-0.005961448419839144,-0.057456646114587784
1634126200658808600,9.45580859375,0.031650740653276443,0.006901349872350693,-0.06834117323160172
1634126200678687500,9.4756875,0.021327616646885872,0.009565002284944057,-0.06332270801067352
1634126200698566400,9.49556640625,-0.0009816507808864117,0.010212684981524944,-0.0623435415327549
1634126200718445600,9.515445556640625,-0.01689535565674305,0.019525066018104553,-0.06300567090511322
1634126200738325500,9.535325439453125,-0.024302547797560692,0.038214415311813354,-0.04652265086770058
1634126200758204400,9.555204345703125,-0.024827249348163605,0.031205030158162117,-0.025492019951343536
1634126200778083600,9.57508349609375,-0.035517241805791855,-0.018584907054901123,-0.015607809647917747
1634126200797962500,9.59496240234375,-0.050924211740493774,-0.04570051282644272,-0.005524375941604376
1634126200817841400,9.61484130859375,-0.06257963180541992,-0.038438551127910614,-0.002252926118671894
1634126200837720300,9.63472021484375,-0.06324931979179382,-0.015700269490480423,-0.007427204865962267
1634126200857599500,9.654599609375,-0.057416558265686035,0.006453023292124271,-0.009340130724012852
1634126200877478700,9.674478759765625,-0.05210452154278755,-0.029308222234249115,-0.0165203008800745
1634126200897357600,9.694357666015625,-0.05709099397063255,-0.05133335664868355,-0.03267431631684303
1634126200917237500,9.714237548828125,-0.06091293320059776,-0.052853092551231384,-0.04005011171102524
1634126200937116400,9.734116455078125,-0.06256941705942154,-0.03844339773058891,-0.044287484139204025
1634126200956995600,9.75399560546875,-0.05900859087705612,-0.0009640296921133995,-0.05152251571416855
1634126200976874500,9.77387451171875,-0.047823671251535416,0.0146908825263381,-0.06715018302202225
1634126200996753400,9.79375341796875,-0.04318927973508835,0.028198320418596268,-0.07469506561756134
1634126201016632600,9.813632568359376,-0.041992247104644775,0.04409278184175491,-0.08871987462043762
1634126201036511500,9.833511474609375,-0.05144272372126579,0.09055624902248383,-0.1056496873497963
1634126201056390400,9.853390380859375,-0.07636210322380066,0.11185072362422943,-0.08799288421869278
1634126201076269300,9.873269287109375,-0.09847517311573029,0.09743372350931168,-0.0578249953687191
1634126201096148500,9.8931484375,-0.08831854909658432,0.050305306911468506,-0.034799136221408844
1634126201116028700,9.913028564453125,-0.051492270082235336,0.02881687879562378,-0.04100910574197769
1634126201135907300,9.9329072265625,-0.0017736244481056929,0.024127399548888206,-0.043822746723890305
1634126201155786500,9.952786376953124,0.025928890332579613,0.009511547163128853,-0.04121032729744911
1634126201175665400,9.97266552734375,0.02802559919655323,0.007953193038702011,-0.05025497078895569
1634126201195544600,9.992544677734376,0.017606457695364952,0.039268020540475845,-0.05634996294975281
1634126201215423500,10.012423583984376,0.0100067388266325,0.06672938168048859,-0.052871521562337875
1634126201235302400,10.032302490234375,0.009756127372384071,0.1024710163474083,-0.05365817993879318
1634126201255181600,10.052181640625,0.013779991306364536,0.1311579942703247,-0.05464942753314972
1634126201275057000,10.072056884765624,0.018040474504232407,0.10323198139667511,-0.029119983315467834
1634126201294936000,10.09193603515625,0.018030313774943352,0.08011509478092194,-0.026734737679362297
1634126201314815700,10.111815673828126,0.007974522188305855,0.09783974289894104,-0.06672992557287216
1634126201334695000,10.13169482421875,-0.008381589315831661,0.15280593931674957,-0.1197405606508255
1634126201354574000,10.151573974609375,-0.023570626974105835,0.24800236523151398,-0.1843324452638626
1634126201374452700,10.17145263671875,-0.02217392437160015,0.3937292695045471,-0.2674218714237213
1634126201394332000,10.191331787109375,-0.011736607179045677,0.5516502857208252,-0.27796411514282227
1634126201414210800,10.2112109375,0.018011754378676414,0.5994799137115479,-0.19731338322162628
1634126201434090000,10.231090087890625,0.04984300956130028,0.586376428604126,-0.15178318321704865
1634126201453968600,10.25096875,0.061155181378126144,0.4337952733039856,-0.1648958921432495
1634126201473847800,10.270847900390624,0.025373440235853195,0.27259013056755066,-0.18698854744434357
1634126201493728000,10.29072802734375,-0.0324796661734581,0.1421467661857605,-0.16430850327014923
1634126201513607000,10.31060693359375,-0.05091582238674164,0.09242040663957596,-0.09398886561393738
1634126201533485800,10.33048583984375,-0.010087703354656696,0.09661516547203064,-0.0007430491968989372
1634126201553364700,10.35036474609375,0.06936762481927872,0.12189631909132004,0.06268622726202011
1634126201573244000,10.370243896484375,0.1254909336566925,0.09259656816720963,0.11155515164136887
1634126201593123000,10.390123046875,0.14897876977920532,0.03334666043519974,0.16095200181007385
1634126201613001700,10.410001708984375,0.1227785125374794,-0.14134134352207184,0.18363332748413086
1634126201632881000,10.429880859375,0.10403625667095184,-0.24056808650493622,0.10416591167449951
1634126201652759800,10.449759765625,0.1617031842470169,-0.17698535323143005,-0.07877115160226822
1634126201672639000,10.469638916015626,0.239670068025589,-0.08660613000392914,-0.28975343704223633
1634126201692519000,10.489518798828126,0.24108175933361053,-0.016594942659139633,-0.3711475133895874
1634126201712397800,10.509397705078126,0.15052616596221924,0.0014337962493300438,-0.3064455986022949
1634126201732277000,10.529277099609375,0.024680120870471,-0.006522517651319504,-0.201590895652771
1634126201752156000,10.549156005859375,-0.12376713007688522,-0.022831201553344727,-0.09568552672863007
1634126201772034800,10.569034912109375,-0.2735573947429657,-0.01596147194504738,-0.007441296242177486
1634126201791914000,10.5889140625,-0.3376956284046173,0.0014301920309662819,0.03105580061674118
1634126201811793000,10.60879296875,-0.29495003819465637,0.046265557408332825,0.027474889531731606
1634126201831672000,10.628672119140624,-0.19830265641212463,0.08333519101142883,0.04162689298391342
1634126201851550700,10.64855078125,-0.08780748397111893,0.0945982038974762,0.0059887720271945
1634126201871430000,10.668429931640626,0.0017303477507084608,0.029706288129091263,-0.15527647733688354
1634126201891310000,10.68831005859375,0.10639004409313202,-0.009285906329751015,-0.39774781465530396
1634126201911188700,10.708188720703125,0.2282232791185379,0.009255691431462765,-0.5752165913581848
1634126201931068000,10.72806787109375,0.3164507746696472,0.04920581355690956,-0.6375396251678467
1634126201950946800,10.74794677734375,0.30773741006851196,0.05237753689289093,-0.5828130841255188
1634126201970826000,10.767825927734375,0.2062971144914627,-0.019597750157117844,-0.43249911069869995
1634126201990705000,10.787704833984375,0.049862757325172424,-0.08529847115278244,-0.2715691030025482
1634126202010583800,10.807583740234374,-0.10831867158412933,-0.1377858966588974,-0.13729529082775116
1634126202030463000,10.827462890625,-0.21388299763202667,-0.15101590752601624,-0.04449642077088356
1634126202050342000,10.847341796875,-0.25854647159576416,-0.14223071932792664,-0.00009976036380976439
1634126202070221000,10.867220947265626,-0.2488650381565094,-0.11342161148786545,0.008505301550030708
1634126202090100700,10.887100830078126,-0.2008904218673706,-0.06158285588026047,0.03725681081414223
1634126202109980000,10.90697998046875,-0.1398925632238388,-0.041242849081754684,0.0971938744187355
1634126202129859000,10.926859130859375,-0.11064755916595459,-0.050955407321453094,0.15911492705345154
1634126202149737700,10.94673779296875,-0.10456161946058273,-0.0543002225458622,0.15556123852729797
1634126202169617000,10.966616943359375,-0.08890236914157867,-0.01817438006401062,0.10903888195753098
1634126202189495800,10.986495849609375,-0.07128510624170303,0.009691770188510418,0.09988903999328613
1634126202209375000,11.006375,-0.09511423110961914,0.014446292072534561,0.16544528305530548
1634126202229254000,11.02625390625,-0.15068547427654266,0.02974579855799675,0.28655925393104553
1634126202249132800,11.0461328125,-0.19905048608779907,0.07732845842838287,0.38590389490127563
1634126202269012000,11.066011962890625,-0.2571035623550415,0.16445666551589966,0.41308411955833435
1634126202288891600,11.0858916015625,-0.3225264549255371,0.28780195116996765,0.4095095694065094
1634126202308771600,11.105771484375,-0.3456178307533264,0.38772374391555786,0.4221995770931244
1634126202328650800,11.125650634765625,-0.3010651767253876,0.4165114164352417,0.4379442036151886
1634126202348529700,11.14552978515625,-0.1992453783750534,0.4198339581489563,0.3779507577419281
1634126202368408600,11.16540869140625,-0.04359951242804527,0.4745977222919464,0.30370184779167175
1634126202388287500,11.18528759765625,0.0761890709400177,0.6079003214836121,0.29916393756866455
1634126202408166700,11.205166748046874,0.020492931827902794,0.7441917657852173,0.3615350127220154
1634126202428045600,11.225045654296874,-0.1236439049243927,0.821377694606781,0.47198668122291565
1634126202447924700,11.2449248046875,-0.23769791424274445,0.7410326600074768,0.5222257971763611
1634126202467803600,11.2648037109375,-0.307473748922348,0.5878438949584961,0.4388361871242523
1634126202487682600,11.2846826171875,-0.34022411704063416,0.41170549392700195,0.2787044644355774
1634126202507562800,11.304562744140625,-0.3694514334201813,0.16009904444217682,0.19259779155254364
1634126202527441400,11.32444140625,-0.39326784014701843,-0.15907132625579834,0.19518058001995087
1634126202547320600,11.344320556640625,-0.4582850933074951,-0.40781062841415405,0.20652517676353455
1634126202567199700,11.36419970703125,-0.5442184209823608,-0.5332505702972412,0.1790357530117035
1634126202587078700,11.38407861328125,-0.6107761263847351,-0.5837326049804688,0.06652575731277466
1634126202606957600,11.40395751953125,-0.6844435930252075,-0.545991837978363,-0.08456376940011978
1634126202626836500,11.42383642578125,-0.8043933510780334,-0.46929028630256653,-0.20081712305545807
1634126202646715600,11.443715576171876,-0.9494684934616089,-0.3805982768535614,-0.20302170515060425
1634126202666594600,11.463594482421875,-1.0950835943222046,-0.2966230511665344,-0.11473621428012848
1634126202686473700,11.4834736328125,-1.2476955652236938,-0.24555198848247528,0.028548547998070717
1634126202706352600,11.5033525390625,-1.4006198644638062,-0.24230597913265228,0.16110937297344208
1634126202726232600,11.523232666015625,-1.509541392326355,-0.22422583401203156,0.21209946274757385
1634126202746111700,11.54311181640625,-1.54378342628479,-0.1968347281217575,0.19638696312904358
1634126202765990700,11.56299072265625,-1.4998013973236084,-0.17458534240722656,0.12596699595451355
1634126202785869600,11.58286962890625,-1.4095834493637085,-0.1832907348871231,0.027327118441462517
1634126202805748700,11.602748779296874,-1.272341012954712,-0.19322645664215088,-0.08909685909748077
1634126202825627600,11.622627685546876,-1.0878753662109375,-0.22024734318256378,-0.22735100984573364
1634126202845506600,11.642506591796876,-0.8884315490722656,-0.30811405181884766,-0.35557547211647034
1634126202865385500,11.662385498046875,-0.7357296347618103,-0.3963504433631897,-0.4354216456413269
1634126202885264600,11.6822646484375,-0.6754831671714783,-0.47455501556396484,-0.4391780197620392
1634126202905143600,11.7021435546875,-0.720160186290741,-0.5217598080635071,-0.33620119094848633
1634126202925022700,11.722022705078125,-0.8222464323043823,-0.550017774105072,-0.2010573297739029
1634126202944902700,11.741902587890625,-0.9175293445587158,-0.5501415729522705,-0.1350869983434677
1634126202964781600,11.761781494140624,-0.9308215975761414,-0.4710979163646698,-0.20077356696128845
1634126202984660700,11.78166064453125,-0.8815059661865234,-0.34325742721557617,-0.3320685029029846
1634126203004539600,11.80153955078125,-0.7917791604995728,-0.23619690537452698,-0.49241903424263
1634126203024418600,11.82141845703125,-0.7126723527908325,-0.219953253865242,-0.6298100352287292
1634126203044297700,11.841297607421875,-0.6735775470733643,-0.25258687138557434,-0.699582576751709
1634126203064176600,11.8611767578125,-0.6769582629203796,-0.3181627690792084,-0.7021979093551636
1634126203084055600,11.8810556640625,-0.7050403356552124,-0.29701361060142517,-0.6682679653167725
1634126203103934500,11.9009345703125,-0.7369388937950134,-0.1878480166196823,-0.6421053409576416
1634126203123813600,11.920813720703125,-0.7301554679870605,-0.02534395456314087,-0.6167405843734741
1634126203143692800,11.94069287109375,-0.6860599517822266,0.11523237079381943,-0.5910614132881165
1634126203163572500,11.960572509765624,-0.6379343271255493,0.18827369809150696,-0.5595075488090515
1634126203183451600,11.98045166015625,-0.5914908647537231,0.22939875721931458,-0.5367317795753479
1634126203203330600,12.00033056640625,-0.5595578551292419,0.19712571799755096,-0.489801824092865
1634126203223209700,12.020209716796876,-0.571584939956665,0.17449432611465454,-0.38745591044425964
1634126203243088600,12.040088623046875,-0.5909557938575745,0.29686710238456726,-0.26480838656425476
1634126203262967600,12.059967529296875,-0.5310083627700806,0.45485758781433105,-0.1430041491985321
1634126203282850600,12.0798505859375,-0.4437839090824127,0.4624154567718506,0.011358092539012432
1634126203302729700,12.099729736328126,-0.38109469413757324,0.3437371551990509,0.15201827883720398
1634126203322608400,12.1196083984375,-0.3285728096961975,0.2791440188884735,0.22905714809894562
1634126203342487600,12.139487548828125,-0.2784091532230377,0.2853441834449768,0.20109394192695618
1634126203362366500,12.159366455078125,-0.26633045077323914,0.3221902549266815,0.1267080157995224
1634126203382246400,12.179246337890625,-0.29856133460998535,0.34467586874961853,0.136986643075943
1634126203402125600,12.19912548828125,-0.3782980442047119,0.2781754434108734,0.30878180265426636
1634126203422004500,12.21900439453125,-0.4582909643650055,0.08188064396381378,0.5451229214668274
1634126203441883600,12.238883544921874,-0.4964733123779297,-0.17878484725952148,0.7278472781181335
1634126203461762300,12.25876220703125,-0.46632203459739685,-0.23597504198551178,0.7538959980010986
1634126203481641500,12.278641357421876,-0.3860517144203186,-0.21629121899604797,0.6289732456207275
1634126203501520400,12.298520263671875,-0.2899639904499054,-0.2153857797384262,0.5172226428985596
1634126203521399600,12.318399658203125,-0.19076427817344666,-0.23054097592830658,0.4110080599784851
1634126203541278700,12.33827880859375,-0.14119122922420502,-0.08858286589384079,0.24441267549991608
1634126203561157400,12.358157470703125,-0.12353100627660751,0.13995936512947083,0.051077306270599365
1634126203581036500,12.37803662109375,-0.07513337582349777,0.25893303751945496,-0.15728789567947388
1634126203600915500,12.39791552734375,-0.07233843207359314,0.17763885855674744,-0.32401415705680847
1634126203620795400,12.41779541015625,-0.15027619898319244,-0.0214247889816761,-0.38773319125175476
1634126203640674600,12.437674560546874,-0.2675687372684479,-0.0945763885974884,-0.31605878472328186
1634126203660553500,12.457553466796876,-0.4361264407634735,0.02889075130224228,-0.09917827695608139
1634126203680432600,12.4774326171875,-0.6450079083442688,0.26549819111824036,0.16770288348197937
1634126203700311300,12.497311279296875,-0.8349283337593079,0.5098249912261963,0.3836536407470703
1634126203720190500,12.5171904296875,-0.9242094159126282,0.6874282360076904,0.5130390524864197
1634126203740069400,12.5370693359375,-0.8382030129432678,0.6645605564117432,0.593596875667572
1634126203759948500,12.556948486328125,-0.5556322932243347,0.6264472603797913,0.6058346033096313
1634126203779827700,12.57682763671875,-0.09624385833740234,0.6030880808830261,0.62376868724823
1634126203799706400,12.596706298828124,0.3680558204650879,0.347749263048172,0.6152326464653015
1634126203819586600,12.616586669921874,0.6439940929412842,-0.025853708386421204,0.5057982802391052
1634126203839465500,12.636465576171876,0.7199350595474243,-0.297259658575058,0.34537938237190247
1634126203859344400,12.656344482421876,0.6677921414375305,-0.42602893710136414,0.20280316472053528
1634126203879223600,12.6762236328125,0.5709636211395264,-0.45615676045417786,0.07915232330560684
1634126203899102500,12.6961025390625,0.4534229636192322,-0.35184356570243835,-0.06813541054725647
1634126203918981600,12.715981689453125,0.33776384592056274,-0.1354115754365921,-0.27232447266578674
1634126203938860500,12.735860595703125,0.19766460359096527,0.06135069951415062,-0.43573418259620667
1634126203958739500,12.755739501953125,0.032063476741313934,0.17140431702136993,-0.4525168836116791
1634126203978618400,12.775618408203124,-0.15664422512054443,0.1892450451850891,-0.32834136486053467
1634126203998497500,12.79549755859375,-0.3364480435848236,0.12016952782869339,-0.18501223623752594
1634126204018376700,12.815376708984376,-0.4553435444831848,0.07048921287059784,-0.16467240452766418
1634126204038255400,12.83525537109375,-0.47730934619903564,0.03890468180179596,-0.25619781017303467
1634126204058135600,12.855135498046875,-0.43915969133377075,0.04039543867111206,-0.3656482994556427
1634126204078014500,12.875014404296875,-0.38463130593299866,0.0398162417113781,-0.4243084192276001
1634126204097893400,12.894893310546875,-0.3549439609050751,0.06474250555038452,-0.43995529413223267
1634126204117772500,12.9147724609375,-0.3625527620315552,0.0633247047662735,-0.4385434091091156
1634126204137651500,12.9346513671875,-0.39834973216056824,0.044691406190395355,-0.4499952495098114
1634126204157530600,12.954530517578124,-0.43469950556755066,0.061777979135513306,-0.47436878085136414
1634126204177409500,12.974409423828124,-0.4583263397216797,0.09665809571743011,-0.4815838634967804
1634126204197288400,12.994288330078126,-0.48759031295776367,0.06935356557369232,-0.4663947522640228
1634126204217167400,13.01416748046875,-0.4970850944519043,0.008099589496850967,-0.4641355574131012
1634126204237046500,13.034046630859375,-0.4671230912208557,-0.0091222133487463,-0.48007047176361084
1634126204256926500,13.053926513671875,-0.40139028429985046,-0.007132251281291246,-0.4482647776603699
1634126204276801000,13.073801025390624,-0.3245231807231903,-0.04020122066140175,-0.3500870168209076
1634126204296680200,13.09368017578125,-0.3035462200641632,-0.13086886703968048,-0.22190739214420319
1634126204316559000,13.11355908203125,-0.3559098243713379,-0.26762327551841736,-0.10817606002092361
1634126204336438300,13.133438232421875,-0.4380202293395996,-0.39305195212364197,-0.055513329803943634
1634126204356317000,13.15331689453125,-0.5118265151977539,-0.46324169635772705,-0.049987539649009705
1634126204376196000,13.173196044921875,-0.5419700741767883,-0.48103347420692444,-0.051005903631448746
1634126204396075300,13.1930751953125,-0.5193244218826294,-0.37964296340942383,-0.01710072159767151
1634126204415954200,13.2129541015625,-0.4987127482891083,-0.2017679363489151,0.15358169376850128
1634126204435833000,13.2328330078125,-0.46456363797187805,0.10711030662059784,0.3361637592315674
1634126204455712000,13.2527119140625,-0.45439958572387695,0.5558129549026489,0.4783647358417511
1634126204475592200,13.27259228515625,-0.48383828997612,0.8922213912010193,0.6257476210594177
1634126204495471400,13.292471435546876,-0.45738479495048523,1.0482478141784668,0.7147130370140076
1634126204515350000,13.31235009765625,-0.3747389316558838,0.9667361974716187,0.6212803721427917
1634126204535229200,13.332229248046875,-0.30060136318206787,0.6220952272415161,0.36304476857185364
1634126204555108000,13.352108154296875,-0.3056301176548004,0.1198417991399765,0.07124699652194977
1634126204574987300,13.3719873046875,-0.30083808302879333,-0.2113768309354782,-0.21301279962062836
1634126204594866200,13.3918662109375,-0.14927631616592407,-0.29310178756713867,-0.4387608766555786
1634126204614745000,13.4117451171875,0.04135027527809143,-0.2963510751724243,-0.4512859880924225
1634126204634624300,13.431624267578124,0.2327558845281601,-0.24368225038051605,-0.23204058408737183
1634126204654503200,13.451503173828126,0.3079644441604614,-0.04184902086853981,0.1052679717540741
1634126204674382300,13.47138232421875,0.3138284385204315,-0.06803350150585175,0.4235553741455078
1634126204694262300,13.49126220703125,0.16233474016189575,-0.3277179002761841,0.5955134034156799
1634126204714141200,13.51114111328125,-0.13347795605659485,-0.7427988648414612,0.6102586984634399
1634126204734020400,13.531020263671875,-0.4531511068344116,-0.8914113640785217,0.4658176302909851
1634126204753899000,13.55089892578125,-0.6589148640632629,-0.7822074294090271,0.42373353242874146
1634126204773778200,13.570778076171875,-0.6274334788322449,-0.516079306602478,0.5458179116249084
1634126204793657000,13.590656982421875,-0.5101110339164734,-0.24794982373714447,0.7261000871658325
1634126204813536300,13.610536376953124,-0.3977949917316437,-0.12035282701253891,0.8073770403862
1634126204833415200,13.630415283203124,-0.35316649079322815,-0.17387039959430695,0.7112107276916504
1634126204853294000,13.650294189453126,-0.3673146963119507,-0.3494277596473694,0.5302248001098633
1634126204873173200,13.67017333984375,-0.40131330490112305,-0.609042227268219,0.3429660201072693
1634126204893052200,13.69005224609375,-0.40108680725097656,-0.8814953565597534,0.1336221992969513
1634126204912932000,13.70993212890625,-0.35604676604270935,-1.0466618537902832,-0.06285049766302109
1634126204932811300,13.729811279296875,-0.3330756425857544,-1.103779673576355,-0.2154662162065506
1634126204952690200,13.749690185546875,-0.4368413984775543,-1.1566996574401855,-0.34256231784820557
1634126204972569300,13.7695693359375,-0.6485296487808228,-1.2011345624923706,-0.5064494609832764
1634126204992448000,13.789447998046874,-0.8433981537818909,-1.0005680322647095,-0.7365277409553528
1634126205012327200,13.8093271484375,-0.8593735694885254,-0.6465766429901123,-0.8594450950622559
1634126205032206000,13.8292060546875,-0.6575878262519836,-0.2972581684589386,-0.7790241837501526
1634126205052085200,13.849085205078126,-0.43767300248146057,-0.08706831932067871,-0.5513845086097717
1634126205071964200,13.868964111328125,-0.36193108558654785,0.06104034185409546,-0.37315985560417175
1634126205091843000,13.888843017578125,-0.4064299464225769,0.10939538478851318,-0.2442796677350998
1634126205111723300,13.90872314453125,-0.45743489265441895,0.16505950689315796,-0.17856188118457794
1634126205131602200,13.928602294921875,-0.48653775453567505,0.2762221395969391,-0.1302500069141388
1634126205151481000,13.948481201171875,-0.47356390953063965,0.25733688473701477,-0.14240244030952454
1634126205171360300,13.9683603515625,-0.38349008560180664,0.2831363379955292,-0.40079814195632935
1634126205191239200,13.9882392578125,-0.3859287202358246,0.5282942652702332,-0.5818004608154297
1634126205211118300,14.008118408203124,-0.49833863973617554,0.7468639612197876,-0.45223310589790344
1634126205230997000,14.0279970703125,-0.6803629398345947,0.6307292580604553,-0.09569554030895233
1634126205250876200,14.047876220703126,-0.8055359721183777,0.0068313954398036,0.16580653190612793
1634126205270755000,14.067755126953125,-0.7059756517410278,-0.33314597606658936,0.14003603160381317
1634126205290634200,14.08763427734375,-0.4318878948688507,-0.12910333275794983,-0.014796667732298374
1634126205310513200,14.10751318359375,-0.101075179874897,0.2659650444984436,-0.22341780364513397
1634126205330393000,14.12739306640625,0.12195008993148804,0.6910145282745361,-0.32950031757354736
1634126205350272300,14.147272216796875,0.21477244794368744,0.7223761677742004,-0.2203301191329956
1634126205370151200,14.167151123046875,0.18066968023777008,0.2779342532157898,0.12329062819480896
1634126205390030000,14.187030029296874,0.1876383274793625,-0.213557168841362,0.49336495995521545
1634126205409909200,14.2069091796875,0.2982380986213684,-0.46693339943885803,0.6537559032440186
1634126205429788200,14.2267880859375,0.4477928578853607,-0.4412878751754761,0.5450481176376343
1634126205449667300,14.246667236328125,0.6302333474159241,-0.2994113266468048,0.32974037528038025
1634126205469546000,14.2665458984375,0.7836388349533081,-0.24864642322063446,0.06942526251077652
1634126205489425200,14.286425048828125,0.8568894267082214,-0.20670686662197113,-0.18444187939167023
1634126205509304000,14.306303955078125,0.902252197265625,-0.0885472521185875,-0.34335076808929443
1634126205529183200,14.326183349609375,0.9294942617416382,0.19651935994625092,-0.4533541798591614
1634126205549063200,14.346063232421875,0.8749988675117493,0.45202377438545227,-0.5590161085128784
1634126205568942000,14.365942138671874,0.7951167821884155,0.36514654755592346,-0.5865843296051025
1634126205588821200,14.3858212890625,0.6746927499771118,0.11383822560310364,-0.4996982514858246
1634126205608700200,14.4057001953125,0.5718929171562195,-0.1350172907114029,-0.26444169878959656
1634126205628579000,14.4255791015625,0.5167824029922485,-0.24417299032211304,-0.030147787183523178
1634126205648458200,14.445458251953125,0.480608195066452,-0.2610049843788147,0.12531651556491852
1634126205668337200,14.465337158203125,0.46155846118927,-0.19984383881092072,0.17296811938285828
1634126205688216300,14.48521630859375,0.43969547748565674,-0.13198328018188477,0.1977536529302597
1634126205708095000,14.505094970703125,0.39044713973999023,-0.03558679670095444,0.22210508584976196
1634126205727974100,14.52497412109375,0.3530592620372772,0.017190154641866684,0.2278032898902893
1634126205747853000,14.54485302734375,0.3330485224723816,0.059524692595005035,0.19763153791427612
1634126205767733000,14.56473291015625,0.3650030791759491,-0.024860262870788574,0.19602541625499725
1634126205787612200,14.584612060546876,0.4156401753425598,-0.012750743888318539,0.17227773368358612
1634126205807491000,14.604490966796876,0.4966784417629242,-0.041223205626010895,0.1257779896259308
1634126205827370200,14.624370361328126,0.6215883493423462,-0.03118531033396721,0.12375202775001526
1634126205847249200,14.644249267578125,0.7101883888244629,0.10324101895093918,0.16189530491828918
1634126205867128000,14.664128173828125,0.7673830389976501,0.27932611107826233,0.2791177034378052
1634126205887007200,14.68400732421875,0.7415726780891418,0.4090634882450104,0.49476805329322815
1634126205906886100,14.70388623046875,0.6667819619178772,0.41174226999282837,0.6944321393966675
1634126205926765300,14.723765380859374,0.458875447511673,-0.07325837761163712,0.7506294846534729
1634126205946644000,14.74364404296875,0.07943785935640335,-0.625188410282135,0.6002324819564819
1634126205966524200,14.763524169921874,-0.27810025215148926,-0.8118840456008911,0.29656052589416504
1634126205986403300,14.7834033203125,-0.499261736869812,-0.7581496238708496,0.10835668444633484
1634126206006282000,14.803281982421876,-0.5802068710327148,-0.6081150770187378,0.03151289373636246
1634126206026161200,14.8231611328125,-0.599294900894165,-0.4296249747276306,0.045085832476615906
1634126206046040000,14.8430400390625,-0.623153805732727,-0.232754185795784,-0.056879766285419464
1634126206065919200,14.862919189453125,-0.623235285282135,-0.16533279418945312,-0.19053812325000763
1634126206085798100,14.882798095703125,-0.4937805235385895,-0.0858636125922203,-0.29903972148895264
1634126206105677000,14.902677001953125,-0.31536391377449036,0.028442736715078354,-0.3601627051830292
1634126206125556200,14.92255615234375,-0.23829805850982666,0.026838798075914383,-0.2736043930053711
1634126206145435100,14.94243505859375,-0.2984824478626251,-0.08867468684911728,-0.10277019441127777
1634126206165315000,14.962315185546874,-0.4028860628604889,-0.10826344788074493,0.04464630037546158
1634126206185194200,14.9821943359375,-0.4023323655128479,-0.032047122716903687,0.23527824878692627
1634126206205073200,15.0020732421875,-0.3004773259162903,0.20024561882019043,0.4030628800392151
1634126206224952300,15.021952392578125,-0.17851954698562622,0.4772695302963257,0.5240822434425354
1634126206244831000,15.0418310546875,-0.10459721088409424,0.5703927874565125,0.7115570306777954
1634126206264710100,15.061710205078125,-0.11567485332489014,0.3158729672431946,0.863959789276123
1634126206284589600,15.081589599609375,-0.11341703683137894,-0.019617673009634018,0.7984479069709778
1634126206304468700,15.10146875,-0.010338971391320229,-0.273015558719635,0.5616431832313538
1634126206324347400,15.121347412109374,0.13024424016475677,-0.321133553981781,0.33879971504211426
1634126206344226600,15.1412265625,0.23953256011009216,-0.14565089344978333,0.19429980218410492
1634126206364105500,15.16110546875,0.2750348746776581,0.019607175141572952,0.15585575997829437
1634126206383984600,15.180984619140625,0.25542664527893066,0.01936904713511467,0.12340274453163147
1634126206403864600,15.200864501953125,0.16298061609268188,-0.08574725687503815,0.02332380972802639
1634126206423743500,15.220743408203125,0.06716208904981613,-0.21907036006450653,-0.0458570271730423
1634126206443622700,15.24062255859375,0.01376422867178917,-0.1475662738084793,-0.027025898918509483
1634126206463501600,15.26050146484375,-0.035961419343948364,-0.0026617413386702538,0.06357134133577347
1634126206483380500,15.28038037109375,-0.1524983048439026,-0.014619635418057442,0.21947777271270752
1634126206503259400,15.30025927734375,-0.2995312809944153,-0.20575733482837677,0.37343737483024597
1634126206523138600,15.320138671875,-0.3625955283641815,-0.34308290481567383,0.45385247468948364
1634126206543017700,15.340017822265626,-0.3417651057243347,-0.25814056396484375,0.41740456223487854
1634126206562896400,15.359896484375,-0.28272709250450134,-0.06960661709308624,0.3419841229915619
1634126206582775600,15.379775634765625,-0.25763410329818726,0.2406359761953354,0.2561851143836975
1634126206602654500,15.399654541015625,-0.29558736085891724,0.22358907759189606,0.259625107049942
1634126206622534400,15.419534423828125,-0.27352771162986755,0.04075570032000542,0.3765648901462555
1634126206642413600,15.43941357421875,-0.08105326443910599,0.03792644292116165,0.34199580550193787
1634126206662292500,15.45929248046875,-0.0036341631785035133,0.20939889550209045,0.14898815751075745
1634126206682171600,15.479171630859375,-0.04922769218683243,0.5536297559738159,-0.1321081519126892
1634126206702050600,15.499050537109374,-0.10945522040128708,0.8599410057067871,-0.4041445553302765
1634126206721929500,15.518929443359376,-0.08427675813436508,0.9140859246253967,-0.6721705794334412
1634126206741808600,15.53880859375,-0.025019075721502304,0.34105825424194336,-0.6853538155555725
1634126206761687600,15.5586875,0.0620342418551445,-0.2581919729709625,-0.3814070224761963
1634126206781566700,15.578566650390625,0.104941725730896,-0.46973535418510437,0.06748354434967041
1634126206801445400,15.5984453125,0.15784616768360138,-0.2806597948074341,0.44557398557662964
1634126206821324500,15.618324462890625,0.24383994936943054,0.024607399478554726,0.6085523962974548
1634126206841204700,15.638204833984375,0.3168262839317322,0.23483267426490784,0.4992450773715973
1634126206861083400,15.65808349609375,0.39886096119880676,0.2600198984146118,0.15937642753124237
1634126206880962600,15.677962646484374,0.4952830672264099,0.2940245270729065,-0.3023923635482788
1634126206900841500,15.697841552734374,0.659807562828064,0.45628225803375244,-0.674508810043335
1634126206920720600,15.717720703125,0.873410701751709,0.6071905493736267,-0.8533611297607422
1634126206940599600,15.737599609375,1.0110962390899658,0.6105451583862305,-0.8425775766372681
1634126206960478500,15.757478515625,0.9805288314819336,0.4992949962615967,-0.674687385559082
1634126206980357600,15.777357666015625,0.8299779295921326,0.35736382007598877,-0.420462429523468
1634126207000236500,15.797236572265625,0.6680092215538025,0.2961318790912628,-0.12098728865385056
1634126207020115700,15.81711572265625,0.5981842279434204,0.2880308926105499,0.12502290308475494
1634126207039994400,15.836994384765624,0.5548679232597351,0.3183463215827942,0.23895184695720673
1634126207059874600,15.85687451171875,0.5184628963470459,0.2972937226295471,0.2963978350162506
1634126207079753700,15.876753662109374,0.4590056538581848,0.19702014327049255,0.4032372236251831
1634126207099632400,15.89663232421875,0.3769781291484833,0.13845457136631012,0.48402726650238037
1634126207119511600,15.916511474609376,0.3655174672603607,0.08543556928634644,0.48142269253730774
1634126207139390500,15.936390380859375,0.3981373906135559,-0.01725788228213787,0.48376041650772095
1634126207159269600,15.95626953125,0.468716025352478,-0.10282143205404282,0.4263048470020294
1634126207179148500,15.9761484375,0.5039238929748535,-0.19243939220905304,0.32722699642181396
1634126207199027500,15.99602734375,0.5173425078392029,-0.22257332503795624,0.13145427405834198
1634126207218906600,16.01590673828125,0.49261870980262756,-0.24811071157455444,-0.05312671512365341
1634126207238785500,16.03578564453125,0.4723716378211975,-0.204072505235672,-0.2120443731546402
1634126207258664700,16.055664794921874,0.4251997172832489,-0.18152810633182526,-0.2971639335155487
1634126207278543600,16.075543701171874,0.277630478143692,-0.36296194791793823,-0.2980073094367981
1634126207298422500,16.095422607421874,0.04709061607718468,-0.18109871447086334,-0.34299328923225403
1634126207318301700,16.1153017578125,-0.161105677485466,0.19729675352573395,-0.4492466449737549
1634126207338180600,16.1351806640625,-0.2905723750591278,0.36741378903388977,-0.493369460105896
1634126207358059500,16.1550595703125,-0.3169451653957367,0.38024041056632996,-0.43000954389572144
1634126207377938400,16.1749384765625,-0.27278149127960205,0.2956293821334839,-0.40295514464378357
1634126207397817600,16.194817626953125,-0.216748908162117,0.15984295308589935,-0.39383095502853394
1634126207417696800,16.21469677734375,-0.17917515337467194,0.03572394326329231,-0.3057733476161957
1634126207437575700,16.23457568359375,-0.20622622966766357,-0.1153503954410553,-0.08317400515079498
1634126207457454600,16.25445458984375,-0.29463860392570496,-0.23818057775497437,0.1866704225540161
1634126207477333500,16.27433349609375,-0.36623215675354004,-0.20923373103141785,0.42294883728027344
1634126207497212700,16.294212646484375,-0.33387598395347595,-0.07326863706111908,0.604176938533783
1634126207517092600,16.314092529296875,-0.211190328001976,0.0958799421787262,0.6463634371757507
1634126207536971500,16.333971435546875,-0.1547546237707138,0.11418607085943222,0.5627917647361755
1634126207556850700,16.3538505859375,-0.2267257273197174,-0.04538698121905327,0.4347549080848694
1634126207576729600,16.3737294921875,-0.31416967511177063,-0.20244164764881134,0.3534664809703827
1634126207596608500,16.3936083984375,-0.29168978333473206,-0.27060890197753906,0.3080013692378998
1634126207616487400,16.4134873046875,-0.16387149691581726,-0.27848637104034424,0.25938257575035095
1634126207636366600,16.43336669921875,-0.026554476469755173,-0.27056220173835754,0.2349776178598404
1634126207656245800,16.453245849609374,0.0562862865626812,-0.3884279429912567,0.1895514577627182
1634126207676124700,16.473124755859374,-0.07295287400484085,-0.6222310066223145,0.08012705296278
1634126207696003600,16.493003662109373,-0.2643176019191742,-0.8739476203918457,-0.010433985851705074
1634126207715882500,16.512882568359377,-0.36608314514160156,-1.0162408351898193,-0.07847897708415985
1634126207735762700,16.5327626953125,-0.3712124526500702,-0.9838504791259766,-0.1344294399023056
1634126207755641600,16.5526416015625,-0.2929706871509552,-0.8394318222999573,-0.1976437121629715
1634126207775520500,16.5725205078125,-0.2369641810655594,-0.6469392776489258,-0.2438662052154541
1634126207795399700,16.592399658203124,-0.2709115147590637,-0.47868022322654724,-0.20026597380638123
1634126207815278600,16.612278564453124,-0.3915596008300781,-0.3385688364505768,-0.1481255739927292
1634126207835157800,16.63215771484375,-0.5142272710800171,-0.2781746983528137,-0.03829343244433403
1634126207855036700,16.65203662109375,-0.5602681636810303,-0.22651445865631104,0.13538728654384613
1634126207874915600,16.67191552734375,-0.5339594483375549,-0.22153417766094208,0.26633408665657043
1634126207894794800,16.691794677734375,-0.5467843413352966,-0.224892720580101,0.2773675322532654
1634126207914673700,16.711673583984375,-0.6127503514289856,-0.23832117021083832,0.26174482703208923
1634126207934552600,16.731552490234375,-0.6467148065567017,-0.1263452023267746,0.30450567603111267
1634126207954431500,16.751431396484374,-0.5853628516197205,0.04455428943037987,0.39461949467658997
1634126207974310700,16.771310546875,-0.4399375021457672,0.1594538688659668,0.5024130344390869
1634126207994190600,16.791190673828126,-0.2660033106803894,0.16375409066677094,0.5189350247383118
1634126208014069500,16.811069580078126,-0.1271185725927353,0.1104423850774765,0.39884117245674133
1634126208033948700,16.83094873046875,-0.02536497823894024,0.10313808172941208,0.3053984045982361
1634126208053827600,16.85082763671875,0.03603464365005493,0.14968205988407135,0.26549971103668213
1634126208073706800,16.870706787109373,0.008428096771240234,-0.19957943260669708,0.3075428903102875
1634126208093585700,16.890585693359377,-0.020142776891589165,-0.4349272847175598,0.308595210313797
1634126208113464600,16.910464599609377,-0.042626384645700455,-0.3140568435192108,0.1766141653060913
1634126208133343700,16.93034375,-0.08567807078361511,-0.1057475134730339,-0.12921683490276337
1634126208153222700,16.95022265625,-0.18659105896949768,0.0020520249381661415,-0.5170547366142273
1634126208173101600,16.9701015625,-0.34103918075561523,-0.09606202691793442,-0.7785716652870178
1634126208192980500,16.98998046875,-0.4897546172142029,-0.05670744925737381,-0.8430278897285461
1634126208212860700,17.009860595703124,-0.46478310227394104,0.13038593530654907,-0.6395921111106873
1634126208232739600,17.029739501953124,-0.3115062713623047,0.14493484795093536,-0.2539817988872528
1634126208252618500,17.049618408203123,-0.26158592104911804,-0.06805302947759628,0.05188718065619469
1634126208272497700,17.06949755859375,-0.32170671224594116,-0.3163616955280304,0.2465163916349411
1634126208292377300,17.08937744140625,-0.3347993791103363,-0.3853171765804291,0.42478030920028687
1634126208312256500,17.109256591796875,-0.28998589515686035,-0.24593579769134521,0.5774639844894409
1634126208332135400,17.129135498046875,-0.1547650545835495,0.021604351699352264,0.7359598875045776
1634126208352014600,17.1490146484375,0.08601893484592438,0.23680752515792847,0.8142942190170288
1634126208371893500,17.1688935546875,0.35778743028640747,0.3482847511768341,0.6927872896194458
1634126208391772400,17.1887724609375,0.5500495433807373,0.3053748309612274,0.33792051672935486
1634126208411651600,17.208651611328126,0.605690062046051,0.10256213694810867,-0.1333273947238922
1634126208431530500,17.228530517578125,0.5985400080680847,0.0004204642027616501,-0.4017683267593384
1634126208451409700,17.24840966796875,0.5988336205482483,0.06805334985256195,-0.4339659512042999
1634126208471289300,17.268289306640625,0.6333097815513611,0.21907325088977814,-0.38912126421928406
1634126208491168500,17.28816845703125,0.6307494640350342,0.24454794824123383,-0.33893945813179016
1634126208511047700,17.308047607421877,0.5426533818244934,0.21262280642986298,-0.26090097427368164
1634126208530926600,17.327926513671876,0.4193422198295593,0.17244374752044678,-0.18038897216320038
1634126208550805500,17.347805419921876,0.3125874996185303,0.1918606162071228,-0.10709571093320847
1634126208570684400,17.367684326171876,0.224264994263649,0.15990714728832245,0.016473934054374695
1634126208590563600,17.3875634765625,0.2073792815208435,0.05478547886013985,0.16178277134895325
1634126208610442500,17.4074423828125,0.20393463969230652,-0.042497728019952774,0.2959376871585846
1634126208630321400,17.4273212890625,0.18850775063037872,-0.10267984122037888,0.39642274379730225
1634126208650200600,17.44720068359375,0.20313242077827454,-0.10437344014644623,0.4465695321559906
1634126208670079500,17.46707958984375,0.22604581713676453,-0.18444837629795074,0.44094860553741455
1634126208689958700,17.486958740234375,0.2638602554798126,-0.282301664352417,0.4137565493583679
1634126208709838300,17.50683837890625,0.332742303609848,-0.24183541536331177,0.4084824323654175
1634126208729717500,17.526717529296874,0.3972843289375305,-0.10102880001068115,0.3615451455116272
1634126208749596700,17.5465966796875,0.4243222773075104,0.04092822223901749,0.12860655784606934
1634126208769475600,17.5664755859375,0.4078010618686676,-0.07555414736270905,-0.23958729207515717
1634126208789354500,17.5863544921875,0.3478853404521942,0.03658992052078247,-0.4920070469379425
1634126208809233400,17.6062333984375,0.34751129150390625,0.22439716756343842,-0.5119105577468872
1634126208829112600,17.626112548828125,0.3280331492424011,0.36788299679756165,-0.43222516775131226
1634126208848991500,17.645991455078125,0.2452957034111023,0.22779564559459686,-0.2942695617675781
1634126208868870400,17.665870361328125,0.08401455730199814,0.16323241591453552,-0.17823819816112518
1634126208888749600,17.68574951171875,0.006476155482232571,0.27192625403404236,-0.11075922101736069
1634126208908628500,17.70562841796875,0.03385115787386894,0.3196624219417572,0.029373621568083763
1634126208928507600,17.725507568359376,-0.048139896243810654,0.3567340672016144,0.28280070424079895
1634126208948387300,17.74538720703125,-0.26060137152671814,0.27196353673934937,0.664631724357605
1634126208968266500,17.7652666015625,-0.48883166909217834,0.07167708873748779,1.0222184658050537
1634126208988145700,17.785145751953124,-0.5954900979995728,0.12140239030122757,1.137282371520996
1634126209008024600,17.805024658203124,-0.5337645411491394,0.26026058197021484,1.0324345827102661
1634126209027903500,17.824903564453123,-0.419212281703949,0.1260889172554016,0.789072573184967
1634126209047782400,17.844782470703127,-0.34274521470069885,-0.1819712221622467,0.4888463616371155
1634126209067661600,17.86466162109375,-0.27628016471862793,-0.4548502564430237,0.21693125367164612
1634126209087540500,17.88454052734375,-0.18670791387557983,-0.46731600165367126,0.04104694351553917
1634126209107419400,17.90441943359375,-0.08730947971343994,-0.3932115137577057,-0.03433386981487274
1634126209127298600,17.924298583984374,-0.055814456194639206,-0.2732972204685211,-0.06405726820230484
1634126209147177500,17.944177490234374,-0.07025247067213058,-0.20467796921730042,-0.15288394689559937
1634126209167056600,17.964056640625,-0.0665329322218895,-0.23557962477207184,-0.24988237023353577
1634126209186935600,17.983935546875,-0.02817261964082718,-0.37075644731521606,-0.33715057373046875
1634126209206815500,18.0038154296875,-0.021381642669439316,-0.5225620865821838,-0.406199187040329
1634126209226694700,18.023694580078125,-0.08560426533222198,-0.5075798034667969,-0.4912926256656647
1634126209246573600,18.043573486328125,-0.1517127901315689,-0.24810582399368286,-0.46862274408340454
1634126209266452500,18.063452392578125,-0.2802164852619171,-0.0895831361413002,-0.2527930736541748
1634126209286330600,18.08333056640625,-0.3829531967639923,-0.11185608804225922,-0.08031342178583145
1634126209306209800,18.103209716796876,-0.40669432282447815,-0.21990421414375305,-0.05577841401100159
1634126209326088700,18.123088623046876,-0.3770877420902252,-0.3027094602584839,-0.13118010759353638
1634126209345967900,18.1429677734375,-0.3222402036190033,-0.2763717472553253,-0.18043820559978485
1634126209365846500,18.162846435546875,-0.2549857199192047,-0.24198465049266815,-0.18995554745197296
1634126209385725700,18.1827255859375,-0.18701711297035217,-0.17949369549751282,-0.19644702970981598
1634126209405604900,18.20260498046875,-0.12028183043003082,-0.1311619132757187,-0.2131728231906891
1634126209425483800,18.22248388671875,-0.07049686461687088,-0.12179458141326904,-0.24516406655311584
1634126209445362700,18.24236279296875,-0.06876109540462494,-0.1411108523607254,-0.27004334330558777
1634126209465242600,18.26224267578125,-0.08249066770076752,-0.15840546786785126,-0.22413069009780884
1634126209485121800,18.282121826171874,-0.05660177022218704,-0.12004970759153366,-0.141478031873703
1634126209505000700,18.302000732421874,-0.05133670195937157,-0.15678735077381134,-0.07360470294952393
1634126209524879600,18.321879638671874,-0.025453761219978333,-0.18313848972320557,-0.0546492338180542
1634126209544758800,18.3417587890625,-0.04595707356929779,-0.17733444273471832,-0.060449354350566864
1634126209564637700,18.3616376953125,-0.042708735913038254,-0.09978736191987991,-0.08293573558330536
1634126209584516900,18.381516845703125,-0.037918075919151306,-0.185699924826622,-0.01495745126157999
1634126209604395500,18.4013955078125,-0.017272114753723145,-0.20639942586421967,0.05876822769641876
1634126209624274700,18.421274658203124,0.013538606464862823,-0.1349593698978424,0.012709420174360275
1634126209644153900,18.44115380859375,0.07814627140760422,0.047693461179733276,-0.03565996512770653
1634126209664032800,18.46103271484375,0.09635905921459198,0.06654038280248642,0.008894023485481739
1634126209683911700,18.48091162109375,0.05411769449710846,0.038997385650873184,0.1600763350725174
1634126209703790600,18.50079052734375,0.022920576855540276,0.10515925288200378,0.23946183919906616
1634126209723670800,18.5206708984375,0.06831037253141403,0.12706540524959564,0.16860996186733246
1634126209743549700,18.5405498046875,0.1369658261537552,0.12250461429357529,0.040764227509498596
1634126209763428600,18.5604287109375,0.23073990643024445,0.24176141619682312,-0.12211631238460541
1634126209783307800,18.580307861328127,0.33149096369743347,0.37729451060295105,-0.2599611282348633
1634126209803186700,18.600186767578126,0.3727602958679199,0.3714461028575897,-0.28878211975097656
1634126209823065900,18.62006591796875,0.3304423987865448,0.2465333342552185,-0.21747440099716187
1634126209842944800,18.63994482421875,0.22826352715492249,0.05733426660299301,-0.006836326327174902
1634126209862823700,18.65982373046875,0.13544924557209015,-0.07246863842010498,0.17911039292812347
1634126209882702800,18.679702880859374,0.09857609122991562,-0.04731249809265137,0.24388939142227173
1634126209902581800,18.699581787109373,0.1279202103614807,0.09624278545379639,0.19131410121917725
1634126209922460700,18.719460693359373,0.17256826162338257,0.1614319235086441,0.07575961202383041
1634126209942339600,18.739339599609377,0.17180626094341278,0.08986096829175949,-0.003918824717402458
1634126209962218800,18.75921875,0.12357881665229797,-0.01992063596844673,-0.011419858783483505
1634126209982099000,18.779098876953125,0.07747364044189453,0.012409606017172337,0.02590780518949032
1634126210001977600,18.7989775390625,0.023121710866689682,0.14263619482517242,0.09809306263923645
1634126210021856800,18.818856689453124,0.023435812443494797,0.32125937938690186,0.12901762127876282
1634126210041735700,18.838735595703124,0.07571080327033997,0.4319111704826355,0.12037437409162521
1634126210061614800,18.85861474609375,0.1262349784374237,0.3654331862926483,0.1398782879114151
1634126210081493800,18.87849365234375,0.10646004974842072,0.24819202721118927,0.16683872044086456
1634126210101372700,18.89837255859375,0.06831450015306473,0.12946923077106476,0.20416595041751862
1634126210121251800,18.918251953125,0.08644885569810867,0.08656991273164749,0.20969225466251373
1634126210141130800,18.938130859375,0.1844056248664856,0.13899874687194824,0.17444416880607605
1634126210161009700,18.958009765625,0.33352306485176086,0.14670704305171967,0.138226717710495
1634126210180888600,18.977888671875,0.42261067032814026,0.08319448679685593,0.13405996561050415
1634126210200767700,18.997767822265626,0.39748895168304443,0.04049608111381531,0.09698158502578735
1634126210220647000,19.01764697265625,0.34110066294670105,0.039144035428762436,0.04776753485202789
1634126210240525800,19.03752587890625,0.3091265559196472,0.15541188418865204,0.019091803580522537
1634126210260405800,19.05740576171875,0.30799004435539246,0.18976768851280212,0.006195078603923321
1634126210280289300,19.077289306640626,0.2786082327365875,0.09754838794469833,0.011934846639633179
1634126210300168200,19.097168212890626,0.1736154854297638,-0.1173722967505455,0.037507861852645874
1634126210320047400,19.11704736328125,0.05203913152217865,-0.21858754754066467,0.03245514631271362
1634126210339926300,19.13692626953125,0.038661930710077286,0.02501680701971054,-0.016356434673070908
1634126210359805400,19.156805419921874,0.014251181855797768,0.09320354461669922,-0.003379272762686014
1634126210379684000,19.17668408203125,-0.019577227532863617,0.06409633904695511,0.015660617500543594
1634126210399563300,19.196563232421877,-0.06874165683984756,0.012291220016777515,0.04347650706768036
1634126210419442200,19.216442138671876,-0.09434866905212402,-0.02199714258313179,0.06420790404081345
1634126210439321300,19.2363212890625,-0.09473647177219391,-0.15832579135894775,0.1284986138343811
1634126210459200300,19.2562001953125,-0.12410922348499298,-0.36279749870300293,0.1638660430908203
1634126210479079200,19.2760791015625,-0.20297668874263763,-0.5971177816390991,0.2779417335987091
1634126210498958300,19.295958251953124,-0.24454833567142487,-0.5949061512947083,0.647698163986206
1634126210518838300,19.31583837890625,0.10800959169864655,0.23928767442703247,0.6273274421691895
1634126210538717200,19.33571728515625,0.1820920705795288,0.3366825580596924,0.17687959969043732
1634126210558596400,19.355596435546875,0.16088825464248657,0.13732321560382843,-0.245261549949646
1634126210578475300,19.375475341796875,0.09948195517063141,-0.04776636138558388,-0.4448204040527344
