time,seconds_elapsed,z,y,x
1633781786178085600,0.028085693359375,-5.772857666015625,38.748435974121094,-12.95400619506836
1633781786197964500,0.047964599609375,-6.16845703125,38.52688217163086,-12.747379302978516
1633781786217843500,0.067843505859375,-6.912445068359375,38.46184158325195,-12.935115814208984
1633781786237723600,0.0877236328125,-7.069915771484375,38.34773254394531,-12.754352569580078
1633781786257602800,0.107602783203125,-6.887969970703125,38.26675796508789,-12.741741180419922
1633781786277481500,0.1274814453125,-7.157562255859375,38.186180114746094,-12.610538482666016
1633781786297360600,0.147360595703125,-7.202880859375,38.21002960205078,-12.299488067626953
1633781786317239600,0.167239501953125,-7.703948974609375,37.80615234375,-12.384143829345703
1633781786337118700,0.18711865234375,-8.250701904296875,37.83412551879883,-12.011974334716797
1633781786356997600,0.20699755859375,-8.19854736328125,38.03721237182617,-11.508541107177734
1633781786376876500,0.22687646484375,-8.300445556640625,37.88722610473633,-11.703227996826172
1633781786396755700,0.246755615234375,-8.518646240234375,38.16340637207031,-11.545467376708984
1633781786416635600,0.2666357421875,-8.520416259765625,37.75290298461914,-11.491443634033203
1633781786436514600,0.2865146484375,-8.777862548828125,38.14208984375,-11.84567642211914
1633781786456393700,0.306393798828125,-8.9749755859375,38.010169982910156,-11.822689056396484
1633781786476272600,0.326272705078125,-9.09130859375,37.84217834472656,-11.802906036376953
1633781786496151800,0.34615185546875,-9.264251708984375,37.834312438964844,-12.228565216064453
1633781786516030500,0.366030517578125,-8.8404541015625,37.837249755859375,-12.238460540771484
1633781786535909600,0.38590966796875,-8.564208984375,37.793460845947266,-12.539783477783203
1633781786555788800,0.405788818359375,-8.22674560546875,37.711517333984375,-12.690502166748047
1633781786575668500,0.42566845703125,-8.509033203125,37.97698211669922,-13.039562225341797
1633781786595547600,0.445547607421875,-8.5946044921875,37.778160095214844,-12.939456939697266
1633781786615426600,0.465426513671875,-8.50927734375,38.00551223754883,-13.09017562866211
1633781786635305700,0.4853056640625,-8.190277099609375,38.00936508178711,-13.230884552001953
1633781786655184600,0.5051845703125,-8.4281005859375,37.8568000793457,-13.101001739501953
1633781786675063600,0.5250634765625,-8.528289794921875,37.9118766784668,-12.871089935302734
1633781786694942700,0.544942626953125,-8.15960693359375,37.99118423461914,-12.71713638305664
1633781786714821600,0.564821533203125,-8.1405029296875,37.747257232666016,-12.772144317626953
1633781786734701600,0.58470166015625,-8.26922607421875,37.790435791015625,-12.73709487915039
1633781786754580700,0.604580810546875,-8.538787841796875,37.66633224487305,-12.63431167602539
1633781786774459600,0.624459716796875,-8.4215087890625,37.49027633666992,-12.81661605834961
1633781786794338800,0.6443388671875,-8.421783447265625,37.594478607177734,-12.918888092041016
1633781786814217500,0.664217529296875,-8.397979736328125,37.59535217285156,-12.816844940185547
1633781786834096600,0.6840966796875,-8.0235595703125,37.79113006591797,-12.682422637939453
1633781786853975600,0.7039755859375,-7.853973388671875,38.1705322265625,-12.47317886352539
1633781786873854700,0.723854736328125,-7.705078125,38.160709381103516,-12.25015640258789
1633781786893734700,0.743734619140625,-7.1119384765625,38.446651458740234,-11.87075424194336
1633781786913613600,0.763613525390625,-7.0028076171875,38.66590881347656,-11.62868881225586
1633781786933492700,0.78349267578125,-6.868316650390625,38.596073150634766,-11.56351089477539
1633781786953371600,0.80337158203125,-6.908416748046875,38.63684844970703,-11.480297088623047
1633781786973251000,0.8232509765625,-6.56842041015625,38.390281677246094,-11.078243255615234
1633781786993130200,0.843130126953125,-6.88494873046875,38.67238998413086,-10.996410369873047
1633781787013009400,0.863009521484375,-7.069244384765625,38.72910690307617,-10.570804595947266
1633781787032888000,0.88288818359375,-7.40753173828125,38.640201568603516,-10.20962905883789
1633781787052768300,0.902768310546875,-7.821746826171875,38.52630615234375,-9.851337432861328
1633781787072647400,0.9226474609375,-7.76971435546875,38.76140213012695,-9.489032745361328
1633781787092526000,0.942526123046875,-8.002777099609375,38.77463150024414,-9.324600219726562
1633781787112405200,0.9624052734375,-8.49298095703125,38.86695861816406,-8.865123748779297
1633781787132284200,0.9822841796875,-8.76922607421875,38.8944206237793,-8.78164291381836
1633781787152163300,1.002163330078125,-8.871856689453125,38.86312484741211,-8.48421859741211
1633781787172042200,1.022042236328125,-8.640960693359375,39.042171478271484,-8.1185302734375
1633781787191921200,1.041921142578125,-9.1051025390625,38.915035247802734,-7.78167724609375
1633781787211801300,1.06180126953125,-8.494476318359375,39.03744125366211,-7.582958221435547
1633781787231680300,1.08168017578125,-8.80511474609375,38.997344970703125,-7.0755157470703125
1633781787251559200,1.10155908203125,-8.709625244140625,39.14938735961914,-6.609600067138672
1633781787271438000,1.12143798828125,-8.78131103515625,39.12527084350586,-6.037799835205078
1633781787291317200,1.141317138671875,-9.1312255859375,39.18488693237305,-5.852924346923828
1633781787311196400,1.161196533203125,-9.02984619140625,39.1386604309082,-5.875640869140625
1633781787331075000,1.181074951171875,-9.07269287109375,39.213897705078125,-5.552661895751953
1633781787350954200,1.200954345703125,-9.11602783203125,39.14482116699219,-5.587913513183594
1633781787370834200,1.220834228515625,-9.647552490234375,39.25322723388672,-5.506969451904297
1633781787390713000,1.240713134765625,-9.610504150390625,39.039764404296875,-5.27972412109375
1633781787410592300,1.26059228515625,-9.700042724609375,39.309757232666016,-4.9391021728515625
1633781787430471200,1.28047119140625,-9.884918212890625,39.16385269165039,-4.762218475341797
1633781787450350300,1.300350341796875,-9.701263427734375,39.19157409667969,-4.236152648925781
1633781787470229200,1.320229248046875,-9.899749755859375,39.01401138305664,-4.153377532958984
1633781787490108200,1.340108154296875,-9.907806396484375,39.200469970703125,-3.711822509765625
1633781787509987000,1.359987060546875,-9.7718505859375,39.18159866333008,-3.5149307250976562
1633781787529866200,1.3798662109375,-9.45013427734375,39.19242477416992,-3.2353439331054688
1633781787549746200,1.39974609375,-9.781951904296875,39.294761657714844,-3.1128311157226562
1633781787569625000,1.419625,-9.738128662109375,39.24195098876953,-2.903961181640625
1633781787589504300,1.439504150390625,-9.708984375,39.52224349975586,-2.816516876220703
1633781787609383200,1.459383056640625,-9.70452880859375,39.39337158203125,-2.925128936767578
1633781787629262300,1.479262451171875,-8.90673828125,39.4465217590332,-2.6074371337890625
1633781787649141200,1.499141357421875,-9.150482177734375,39.46644592285156,-2.473255157470703
1633781787669020200,1.519020263671875,-9.378692626953125,39.666786193847656,-1.940032958984375
1633781787688899300,1.5388994140625,-9.279205322265625,39.695220947265625,-1.9153594970703125
1633781787708779300,1.558779296875,-9.615966796875,39.777400970458984,-2.001964569091797
1633781787728658200,1.578658203125,-9.20086669921875,39.71562194824219,-1.6607742309570312
1633781787748537300,1.598537353515625,-9.492584228515625,39.60380554199219,-1.4381484985351562
1633781787768416300,1.618416259765625,-9.283782958984375,39.99785232543945,-1.3797187805175781
1633781787788295200,1.638295166015625,-9.156280517578125,39.93584060668945,-1.2387428283691406
1633781787808174000,1.658174072265625,-9.024139404296875,39.71604537963867,-0.8185806274414062
1633781787828053200,1.67805322265625,-9.110137939453125,39.89788818359375,-1.0543937683105469
1633781787847932400,1.697932373046875,-9.17572021484375,39.756141662597656,-0.9758415222167969
1633781787867812000,1.71781201171875,-9.174407958984375,39.71745300292969,-0.8318977355957031
1633781787887691300,1.737691162109375,-9.040863037109375,39.94783401489258,-0.9074783325195312
1633781787907570200,1.757570068359375,-9.130859375,39.80940246582031,-0.8433761596679688
1633781787927449300,1.777449462890625,-8.947235107421875,39.820228576660156,-0.7810249328613281
1633781787947328300,1.797328369140625,-9.32110595703125,40.059932708740234,-0.5580024719238281
1633781787967207200,1.817207275390625,-9.39227294921875,39.79463195800781,-0.5232505798339844
1633781787987085800,1.8370859375,-9.195556640625,40.04267120361328,-0.625518798828125
1633781788006965000,1.856965087890625,-9.243988037109375,40.03154754638672,-0.37413787841796875
1633781788026844000,1.876843994140625,-9.016204833984375,39.82868957519531,-0.24130630493164062
1633781788046723800,1.896723876953125,-9.233489990234375,40.1601676940918,-0.233489990234375
1633781788066603000,1.91660302734375,-8.8885498046875,40.060997009277344,-0.16366958618164062
1633781788086482000,1.93648193359375,-8.694427490234375,40.126976013183594,0.3456001281738281
1633781788106360800,1.95636083984375,-8.46124267578125,40.085533142089844,0.375640869140625
1633781788126239700,1.97623974609375,-8.234466552734375,40.42110061645508,0.820770263671875
1633781788146119000,1.996118896484375,-8.557830810546875,40.52128601074219,0.9090042114257812
1633781788165998000,2.015998046875,-8.294036865234375,40.47965621948242,1.2890853881835938
1633781788185876700,2.035876708984375,-8.1221923828125,40.2913932800293,1.5899772644042969
1633781788205757000,2.0557568359375,-8.277801513671875,40.182212829589844,1.7695159912109375
1633781788225636000,2.075635986328125,-8.149566650390625,40.206825256347656,1.8296585083007812
1633781788245514800,2.0955146484375,-7.697052001953125,40.3121337890625,1.9704551696777344
1633781788265394000,2.115393798828125,-8.18463134765625,40.37164306640625,1.8824920654296875
1633781788285272800,2.13527294921875,-7.821380615234375,40.216758728027344,1.86517333984375
1633781788305152000,2.155152099609375,-7.389984130859375,40.47795867919922,1.9260101318359375
1633781788325031000,2.175031005859375,-7.711151123046875,40.30712890625,2.115612030029297
1633781788344909800,2.194909912109375,-7.82342529296875,40.44451141357422,1.8274383544921875
1633781788364788700,2.214788818359375,-7.59912109375,40.29088592529297,2.0303802490234375
1633781788384668000,2.23466796875,-7.9241943359375,40.49346923828125,2.0999717712402344
1633781788404547800,2.2545478515625,-7.85809326171875,40.50475311279297,1.917236328125
1633781788424426800,2.2744267578125,-8.407318115234375,40.41617202758789,2.005695343017578
1633781788444306000,2.294305908203125,-7.8447265625,40.11180877685547,2.233959197998047
1633781788464185000,2.31418505859375,-8.38409423828125,39.914947509765625,2.303192138671875
1633781788484063700,2.334063720703125,-8.356170654296875,39.75235366821289,2.155742645263672
1633781788503943000,2.35394287109375,-8.4295654296875,39.93814468383789,2.3615074157714844
1633781788523821800,2.37382177734375,-8.68658447265625,39.59917068481445,2.1746139526367188
1633781788543701000,2.393700927734375,-8.481719970703125,39.65555953979492,2.232177734375
1633781788563580000,2.413579833984375,-8.644744873046875,39.59490966796875,2.1590538024902344
1633781788583459800,2.4334599609375,-9.00042724609375,39.59458923339844,2.2128257751464844
1633781788603339000,2.453339111328125,-9.10406494140625,39.330196380615234,2.357421875
1633781788623218000,2.473218017578125,-8.89404296875,39.477027893066406,2.402660369873047
1633781788643096800,2.493096923828125,-9.463592529296875,39.377769470214844,2.179931640625
1633781788662975700,2.512975830078125,-9.309722900390625,39.43029022216797,2.0492095947265625
1633781788682855000,2.53285498046875,-9.730804443359375,39.61491394042969,2.0196762084960938
1633781788702734000,2.552734130859375,-9.78436279296875,39.68941116333008,1.752166748046875
1633781788722612700,2.57261279296875,-9.300506591796875,39.64145278930664,1.9203453063964844
1633781788742492000,2.592491943359375,-9.2041015625,39.444541931152344,1.9534187316894531
1633781788762371800,2.612371826171875,-9.215301513671875,39.746551513671875,2.1096649169921875
1633781788782251000,2.6322509765625,-9.302520751953125,39.81319808959961,2.2059249877929688
1633781788802130000,2.6521298828125,-9.3031005859375,40.07477569580078,2.4771728515625
1633781788822008800,2.6720087890625,-9.195404052734375,39.819435119628906,2.663768768310547
1633781788841888000,2.691887939453125,-9.318756103515625,39.70488739013672,2.6302566528320312
1633781788861767000,2.711766845703125,-9.149261474609375,39.60596466064453,2.5759735107421875
1633781788881645800,2.731645751953125,-9.14068603515625,39.48353576660156,2.83038330078125
1633781788901524700,2.751524658203125,-8.89501953125,39.79736328125,2.729522705078125
1633781788921404000,2.77140380859375,-9.4749755859375,39.940433502197266,2.9955406188964844
1633781788941283800,2.791283935546875,-8.81494140625,39.841835021972656,2.5514793395996094
1633781788961162800,2.811162841796875,-8.597869873046875,40.06543731689453,2.280773162841797
1633781788981045800,2.831045654296875,-8.496246337890625,40.10661315917969,2.291919708251953
1633781789000925000,2.850925048828125,-8.1959228515625,40.2076416015625,2.253612518310547
1633781789020803600,2.870803466796875,-8.3604736328125,40.293556213378906,1.9781646728515625
1633781789040682800,2.890682861328125,-7.620880126953125,39.860595703125,1.8727684020996094
1633781789060561700,2.910561767578125,-7.704193115234375,40.03582000732422,1.6477890014648438
1633781789080440800,2.93044091796875,-8.445037841796875,40.17546844482422,1.4723739624023438
1633781789100319700,2.95031982421875,-8.0699462890625,39.86018753051758,1.8376998901367188
1633781789120199700,2.97019970703125,-7.7760009765625,40.29176330566406,1.9455146789550781
1633781789140078800,2.990078857421875,-7.6279296875,40.18885803222656,1.8181991577148438
1633781789159957800,3.009957763671875,-7.65338134765625,40.0789909362793,1.9571990966796875
1633781789179836700,3.029836669921875,-7.786224365234375,40.26859664916992,1.9546241760253906
1633781789199715600,3.049715576171875,-7.700531005859375,40.16844177246094,2.2765579223632812
1633781789219594800,3.0695947265625,-7.60052490234375,40.25833511352539,2.1026687622070312
1633781789239474000,3.089473876953125,-7.7242431640625,40.031158447265625,2.2583580017089844
1633781789259352600,3.1093525390625,-7.84197998046875,39.975921630859375,2.1462936401367188
1633781789279231700,3.129231689453125,-7.572540283203125,40.38808822631836,2.4940261840820312
1633781789299111700,3.149111572265625,-7.155517578125,40.246917724609375,2.748516082763672
1633781789318990600,3.168990478515625,-7.208099365234375,40.33470916748047,2.7616043090820312
1633781789338869800,3.188869873046875,-6.906036376953125,40.308265686035156,2.7256851196289062
1633781789358748700,3.208748779296875,-7.02069091796875,40.10630416870117,3.2544708251953125
1633781789378627800,3.2286279296875,-6.74591064453125,40.14912796020508,3.226970672607422
1633781789398506800,3.2485068359375,-6.744781494140625,40.40245056152344,3.4350929260253906
1633781789418385700,3.2683857421875,-6.8280029296875,40.272281646728516,3.6722946166992188
1633781789438264600,3.2882646484375,-7.021697998046875,40.269283294677734,3.53631591796875
1633781789458143700,3.308143798828125,-7.05072021484375,40.2092399597168,3.6146392822265625
1633781789478023000,3.32802294921875,-6.739501953125,40.13974380493164,3.6301040649414062
1633781789497902600,3.347902587890625,-7.06256103515625,40.13636779785156,3.984813690185547
1633781789517781800,3.36778173828125,-7.19091796875,39.93321228027344,4.295692443847656
1633781789537661000,3.387660888671875,-7.458221435546875,39.61172103881836,4.267669677734375
1633781789557539600,3.40753955078125,-7.31610107421875,39.7324104309082,4.38092041015625
1633781789577418800,3.427418701171875,-7.556243896484375,39.73945999145508,4.139228820800781
1633781789597297700,3.447297607421875,-7.06146240234375,39.87993240356445,3.8994369506835938
1633781789617176800,3.4671767578125,-7.435455322265625,40.1202278137207,3.3490371704101562
1633781789637055700,3.4870556640625,-7.225372314453125,39.878135681152344,3.214305877685547
1633781789656934700,3.5069345703125,-6.74847412109375,39.896087646484375,3.221424102783203
1633781789676813600,3.5268134765625,-6.940826416015625,40.03498077392578,3.8061447143554688
1633781789696693800,3.54669384765625,-6.784423828125,39.9643669128418,4.263084411621094
1633781789716572700,3.56657275390625,-6.461761474609375,39.83342742919922,4.502086639404297
1633781789736451600,3.58645166015625,-6.95538330078125,39.76726150512695,4.931434631347656
1633781789756330800,3.606330810546875,-7.421142578125,39.41551971435547,5.256656646728516
1633781789776210000,3.6262099609375,-7.22711181640625,39.47977066040039,5.59527587890625
1633781789796088600,3.646088623046875,-7.946868896484375,39.38277053833008,5.737377166748047
1633781789815967700,3.6659677734375,-7.763458251953125,39.37443542480469,5.995273590087891
1633781789835846700,3.6858466796875,-8.210113525390625,38.9422607421875,6.471050262451172
1633781789855725800,3.705725830078125,-8.135986328125,39.04500961303711,6.458919525146484
1633781789875605800,3.725605712890625,-8.525604248046875,39.28777313232422,6.443325042724609
1633781789895484700,3.745484619140625,-8.18072509765625,39.06586456298828,6.8595123291015625
1633781789915363800,3.76536376953125,-8.109344482421875,38.96451187133789,6.683921813964844
1633781789935242800,3.78524267578125,-7.93359375,39.247711181640625,6.522453308105469
1633781789955121700,3.80512158203125,-7.99786376953125,38.96907424926758,6.497684478759766
1633781789974997000,3.8249970703125,-8.237091064453125,38.99513244628906,6.1829681396484375
1633781789994876000,3.8448759765625,-8.27105712890625,39.01960754394531,6.563503265380859
1633781790014755000,3.864755126953125,-8.487274169921875,38.863983154296875,6.967014312744141
1633781790034634200,3.88463427734375,-8.5577392578125,38.65978240966797,7.954719543457031
1633781790054513000,3.904512939453125,-8.574554443359375,38.52023696899414,8.987064361572266
1633781790074393000,3.92439306640625,-7.88958740234375,38.4390983581543,9.874004364013672
1633781790094272000,3.94427197265625,-7.092010498046875,38.46381759643555,10.629570007324219
1633781790114151000,3.96415087890625,-6.9158935546875,38.55094528198242,11.27029037475586
1633781790134030000,3.984030029296875,-7.14385986328125,38.41525650024414,11.389408111572266
1633781790153909000,4.003908935546875,-7.098297119140625,38.63398361206055,10.900753021240234
1633781790173788200,4.0237880859375,-7.38958740234375,38.9364013671875,10.481609344482422
1633781790193666800,4.043666748046875,-7.987213134765625,38.59687805175781,9.265281677246094
1633781790213546000,4.0635458984375,-8.742462158203125,38.736175537109375,7.7990264892578125
1633781790233425000,4.0834248046875,-8.598052978515625,39.283233642578125,5.356346130371094
1633781790253304000,4.103303955078125,-8.8572998046875,39.70367431640625,3.4522361755371094
1633781790273183200,4.123183349609375,-8.33642578125,39.83472442626953,1.2842063903808594
1633781790293063000,4.14306298828125,-8.49774169921875,40.073490142822266,-0.57666015625
1633781790312942000,4.162942138671875,-8.326263427734375,40.22877502441406,-1.8362159729003906
1633781790332821200,4.1828212890625,-8.243988037109375,40.05695343017578,-3.5009422302246094
1633781790352700000,4.202699951171875,-7.903167724609375,40.25751876831055,-4.664791107177734
1633781790372579000,4.2225791015625,-8.091156005859375,39.820899963378906,-5.799064636230469
1633781790392458000,4.2424580078125,-8.29998779296875,39.82926940917969,-6.693386077880859
1633781790412337200,4.262337158203125,-7.914459228515625,39.46125411987305,-8.090766906738281
1633781790432215800,4.2822158203125,-7.9962158203125,39.069149017333984,-9.099468231201172
1633781790452095000,4.302094970703125,-8.1416015625,39.13341522216797,-9.772422790527344
1633781790471974000,4.321973876953125,-8.580657958984375,38.67280197143555,-10.863201141357422
1633781790491854000,4.34185400390625,-8.23681640625,38.671546936035156,-11.743289947509766
1633781790511733000,4.36173291015625,-7.916778564453125,38.29064178466797,-12.416301727294922
1633781790531612000,4.38161181640625,-7.291351318359375,38.26629638671875,-13.488658905029297
1633781790551491000,4.401490966796875,-7.383148193359375,37.844261169433594,-14.165485382080078
1633781790571370200,4.421370361328125,-7.374359130859375,37.73126220703125,-14.930721282958984
1633781790591249000,4.441248779296875,-6.9771728515625,37.653717041015625,-15.078868865966797
1633781790611128000,4.461128173828125,-6.970489501953125,37.62930679321289,-15.345890045166016
1633781790631007000,4.481007080078125,-7.36297607421875,37.28146743774414,-15.241832733154297
1633781790650886100,4.50088623046875,-7.71710205078125,37.44025421142578,-14.885372161865234
1633781790670764800,4.520764892578125,-7.527252197265625,37.810550689697266,-14.945964813232422
1633781790690644000,4.54064404296875,-7.555908203125,37.84421157836914,-14.58548355102539
1633781790710524200,4.560524169921875,-7.882843017578125,37.71731185913086,-14.356876373291016
1633781790730403000,4.580403076171875,-8.394287109375,38.31300354003906,-14.345478057861328
1633781790750282000,4.600281982421875,-8.375640869140625,38.183326721191406,-13.837574005126953
1633781790770161000,4.620160888671875,-8.703643798828125,38.24383544921875,-13.367961883544922
1633781790790040000,4.6400400390625,-8.44122314453125,38.48243713378906,-12.963367462158203
1633781790809919200,4.659919189453125,-8.44915771484375,38.32664489746094,-12.68288803100586
1633781790829798000,4.6797978515625,-8.249786376953125,38.61681365966797,-12.31009292602539
1633781790849677000,4.699677001953125,-8.602996826171875,38.5890007019043,-11.830989837646484
1633781790869556000,4.719555908203125,-8.621673583984375,38.589778900146484,-11.53384017944336
1633781790889435100,4.73943505859375,-8.840911865234375,38.99616622924805,-11.207813262939453
1633781790909315000,4.759315185546875,-8.8773193359375,38.91148376464844,-10.70022201538086
1633781790929194000,4.779194091796875,-8.988189697265625,38.948509216308594,-9.96541976928711
1633781790949073200,4.7990732421875,-9.43023681640625,38.774314880371094,-10.013103485107422
1633781790968952000,4.8189521484375,-9.777679443359375,38.66382598876953,-9.881694793701172
1633781790988830500,4.83883056640625,-10.3482666015625,38.46373748779297,-9.649368286132812
1633781791008709600,4.858709716796875,-11.0162353515625,38.14356994628906,-9.778419494628906
1633781791028588500,4.878588623046875,-11.0633544921875,38.02607345581055,-9.500850677490234
1633781791048467700,4.8984677734375,-11.72991943359375,37.60712432861328,-8.868484497070312
1633781791068346600,4.9183466796875,-11.9715576171875,38.11220932006836,-8.215274810791016
1633781791088225500,4.9382255859375,-11.682647705078125,38.033721923828125,-7.715900421142578
1633781791108104700,4.958104736328125,-11.437744140625,38.052799224853516,-7.4233551025390625
1633781791127984600,4.977984619140625,-11.822174072265625,38.21897888183594,-7.503013610839844
1633781791147863600,4.997863525390625,-11.925079345703125,38.167724609375,-7.712188720703125
1633781791167742500,5.017742431640625,-11.655364990234375,38.262794494628906,-8.137653350830078
1633781791187621600,5.03762158203125,-10.95806884765625,38.3931770324707,-8.435394287109375
1633781791207500800,5.057500732421875,-10.31890869140625,38.53883743286133,-8.869792938232422
1633781791227379500,5.07737939453125,-9.509063720703125,38.845947265625,-9.211681365966797
1633781791247258600,5.097258544921875,-8.844970703125,39.033973693847656,-9.182376861572266
1633781791267137500,5.117137451171875,-8.50958251953125,39.069480895996094,-9.39468002319336
1633781791287016700,5.1370166015625,-8.259307861328125,38.511863708496094,-9.385581970214844
1633781791306895600,5.1568955078125,-9.41131591796875,38.90761184692383,-9.2412109375
1633781791326775600,5.176775634765625,-9.238983154296875,38.466064453125,-9.55196762084961
1633781791346654700,5.19665478515625,-9.8603515625,38.4607048034668,-9.997371673583984
1633781791366533600,5.21653369140625,-9.971343994140625,37.95148468017578,-10.702754974365234
1633781791386412500,5.23641259765625,-10.145111083984375,37.87312698364258,-11.253681182861328
1633781791406291500,5.25629150390625,-10.164215087890625,37.513099670410156,-11.67630386352539
1633781791426170600,5.276170654296875,-9.883819580078125,37.60792922973633,-12.011768341064453
1633781791446049800,5.2960498046875,-9.60247802734375,37.423675537109375,-12.025638580322266
1633781791465928400,5.315928466796875,-10.366729736328125,37.81206512451172,-12.120037078857422
1633781791485807600,5.3358076171875,-9.702178955078125,37.859886169433594,-12.063373565673828
1633781791505686500,5.3556865234375,-9.974151611328125,37.986473083496094,-12.002788543701172
1633781791525566500,5.37556640625,-10.240203857421875,37.69837951660156,-12.239032745361328
1633781791545445600,5.395445556640625,-9.699005126953125,37.776397705078125,-12.514423370361328
1633781791565324500,5.415324462890625,-10.21917724609375,37.40470886230469,-12.769397735595703
1633781791585203700,5.43520361328125,-10.795684814453125,37.25969314575195,-12.420894622802734
1633781791605082600,5.45508251953125,-11.125335693359375,37.533878326416016,-12.27292251586914
1633781791624961500,5.47496142578125,-10.561126708984375,37.19526672363281,-12.556514739990234
1633781791644840400,5.49484033203125,-10.63787841796875,37.26112747192383,-12.392566680908203
1633781791664719600,5.5147197265625,-10.72216796875,37.39570617675781,-12.381397247314453
1633781791684598800,5.534598876953125,-10.7239990234375,37.48435974121094,-12.11789321899414
1633781791704477400,5.5544775390625,-10.961822509765625,37.48066711425781,-11.804935455322266
1633781791724356600,5.574356689453125,-11.41510009765625,37.33774948120117,-11.815120697021484
1633781791744236800,5.59423681640625,-11.347076416015625,37.117645263671875,-11.134418487548828
1633781791764115500,5.614115478515625,-11.590667724609375,37.30188751220703,-10.825740814208984
1633781791783994600,5.63399462890625,-11.60101318359375,37.54521942138672,-10.386913299560547
1633781791803873500,5.65387353515625,-12.09619140625,37.6858024597168,-10.133800506591797
1633781791823752700,5.673752685546875,-11.972808837890625,37.687381744384766,-9.682159423828125
1633781791843631600,5.693631591796875,-11.768524169921875,37.81439971923828,-9.324283599853516
1633781791863510500,5.713510498046875,-11.525604248046875,37.96365737915039,-9.074115753173828
1633781791883389700,5.7333896484375,-11.602996826171875,37.85322570800781,-8.6278076171875
1633781791903268600,5.7532685546875,-11.274322509765625,38.04499816894531,-8.269371032714844
1633781791923147800,5.773147705078125,-11.563873291015625,38.13951110839844,-7.787097930908203
1633781791943026400,5.7930263671875,-11.52288818359375,38.33875274658203,-7.054538726806641
1633781791962906600,5.81290673828125,-11.762847900390625,38.30143356323242,-6.4737548828125
1633781791982785500,5.83278564453125,-11.5252685546875,38.51588821411133,-5.896854400634766
1633781792002664400,5.85266455078125,-11.85400390625,38.32177734375,-5.699100494384766
1633781792022543400,5.87254345703125,-11.56268310546875,38.31348419189453,-5.221923828125
1633781792042422300,5.89242236328125,-11.935272216796875,38.525299072265625,-5.157901763916016
1633781792062301400,5.912301513671875,-11.88623046875,38.523277282714844,-4.824687957763672
1633781792082180600,5.9321806640625,-11.774444580078125,38.40973663330078,-4.553295135498047
1633781792102059300,5.952059326171875,-12.19305419921875,38.52429962158203,-4.394138336181641
1633781792121938400,5.9719384765625,-12.050018310546875,38.64482116699219,-4.263679504394531
1633781792141817300,5.9918173828125,-11.85125732421875,38.67420196533203,-4.022068023681641
1633781792161696500,6.011696533203125,-12.14776611328125,38.45479965209961,-3.7396888732910156
1633781792181576400,6.031576416015625,-12.092498779296875,38.61741638183594,-3.2138023376464844
1633781792201455400,6.051455322265625,-11.730560302734375,38.91256332397461,-3.1426162719726562
1633781792221334500,6.07133447265625,-11.96490478515625,38.6650276184082,-2.702239990234375
1633781792241213400,6.09121337890625,-12.11968994140625,38.82373809814453,-2.2716712951660156
1633781792261092400,6.11109228515625,-12.456085205078125,38.72264099121094,-1.7977943420410156
1633781792280971300,6.13097119140625,-12.20465087890625,38.764747619628906,-1.2896575927734375
1633781792300850400,6.150850341796875,-12.416656494140625,38.84967803955078,-0.6957817077636719
1633781792320729600,6.1707294921875,-11.933135986328125,38.699066162109375,-0.5683670043945312
1633781792340608300,6.190608154296875,-12.42071533203125,38.8210563659668,-0.13257980346679688
1633781792360487400,6.2104873046875,-11.99505615234375,38.61271286010742,0.324737548828125
1633781792380366300,6.230366455078125,-11.884185791015625,38.5458984375,0.43023681640625
1633781792400246300,6.250246337890625,-12.137908935546875,38.76957702636719,0.41973876953125
1633781792420125400,6.27012548828125,-12.24481201171875,38.70043182373047,0.6916885375976562
1633781792440004400,6.29000439453125,-12.176605224609375,38.647308349609375,1.1811103820800781
1633781792459883500,6.309883544921875,-12.07952880859375,38.44921875,1.3027763366699219
1633781792479762400,6.329762451171875,-12.03338623046875,38.384769439697266,1.4331092834472656
1633781792499641300,6.349641357421875,-12.14874267578125,38.47846221923828,1.5751457214355469
1633781792519520300,6.369520263671875,-12.210205078125,38.7193603515625,1.9359359741210938
1633781792539399400,6.3893994140625,-12.3526611328125,38.70124053955078,1.944244384765625
1633781792559278600,6.409278564453125,-12.56024169921875,38.431392669677734,1.95648193359375
1633781792579157200,6.4291572265625,-12.48822021484375,38.536197662353516,2.231231689453125
1633781792599036400,6.449036376953125,-12.529754638671875,38.262508392333984,2.6616973876953125
1633781792618916400,6.468916259765625,-12.586822509765625,38.4345817565918,3.12554931640625
1633781792638795300,6.488795166015625,-12.333892822265625,38.26878356933594,3.5748443603515625
1633781792658674400,6.50867431640625,-11.838897705078125,38.094451904296875,3.5972251892089844
1633781792678553300,6.52855322265625,-11.718902587890625,38.27247619628906,3.873668670654297
1633781792698432500,6.5484326171875,-11.68408203125,38.46403121948242,3.815521240234375
1633781792718311400,6.5683115234375,-11.746337890625,38.46124267578125,4.255645751953125
1633781792738190300,6.5881904296875,-11.05450439453125,38.415496826171875,4.590160369873047
1633781792758069200,6.6080693359375,-10.6937255859375,38.70359802246094,4.6417388916015625
1633781792777948400,6.627948486328125,-10.703521728515625,38.72119140625,4.629600524902344
1633781792797827600,6.64782763671875,-10.635986328125,38.614105224609375,4.771366119384766
1633781792817706200,6.667706298828125,-10.69451904296875,38.65943908691406,5.177879333496094
1633781792837585400,6.68758544921875,-10.589263916015625,38.53410339355469,5.1925811767578125
1633781792857465600,6.707465576171875,-10.992706298828125,38.113277435302734,5.285945892333984
1633781792877344300,6.72734423828125,-10.733612060546875,38.592403411865234,5.737575531005859
1633781792897223400,6.747223388671875,-10.985565185546875,38.404544830322266,5.977996826171875
1633781792917102300,6.767102294921875,-10.37164306640625,38.41058349609375,6.03729248046875
1633781792936981500,6.7869814453125,-10.1536865234375,38.388328552246094,6.5261688232421875
1633781792956860400,6.8068603515625,-10.149139404296875,38.17316436767578,6.891139984130859
1633781792976739300,6.8267392578125,-10.59552001953125,38.25079345703125,7.594066619873047
1633781792996622800,6.846622802734375,-10.491119384765625,38.065853118896484,7.8629913330078125
1633781793016501800,6.866501708984375,-10.529052734375,38.09678268432617,8.729686737060547
1633781793036380700,6.886380615234375,-10.506256103515625,38.218727111816406,8.938385009765625
1633781793056259600,6.906259521484375,-10.083099365234375,38.00516891479492,9.492393493652344
1633781793076139800,6.926139892578125,-10.27362060546875,37.66156005859375,9.79079818725586
1633781793096018700,6.946018798828125,-10.68768310546875,37.48418045043945,9.953296661376953
1633781793115897600,6.965897705078125,-10.5655517578125,37.48320770263672,10.316268920898438
1633781793135776800,6.98577685546875,-10.59710693359375,37.48236846923828,10.779010772705078
1633781793155655700,7.00565576171875,-10.680023193359375,37.435142517089844,11.140510559082031
1633781793175534800,7.025534912109375,-10.407989501953125,37.03398132324219,11.361614227294922
1633781793195413800,7.045413818359375,-10.789093017578125,36.971435546875,11.523551940917969
1633781793215292700,7.065292724609375,-11.042083740234375,36.75711441040039,11.711322784423828
1633781793235171800,7.085171875,-10.674041748046875,36.569950103759766,11.725418090820312
1633781793255050800,7.10505078125,-10.681365966796875,36.9210205078125,12.137615203857422
1633781793274929700,7.1249296875,-10.5953369140625,36.62717056274414,12.408409118652344
1633781793294808600,7.14480859375,-10.31988525390625,36.679962158203125,12.552726745605469
1633781793314688800,7.164688720703125,-10.2110595703125,36.554481506347656,12.831092834472656
1633781793334567700,7.184567626953125,-10.227081298828125,36.558311462402344,13.083709716796875
1633781793354446600,7.204446533203125,-10.378570556640625,36.485076904296875,13.423450469970703
1633781793374325800,7.22432568359375,-10.22003173828125,36.390235900878906,13.97225570678711
1633781793394204700,7.24420458984375,-9.94281005859375,36.28699493408203,14.602607727050781
1633781793414083800,7.264083740234375,-9.5748291015625,36.25569152832031,15.298236846923828
1633781793433962800,7.283962646484375,-9.122894287109375,35.81661605834961,15.594715118408203
1633781793453841700,7.303841552734375,-8.920379638671875,35.89708709716797,16.143756866455078
1633781793473720800,7.323720947265625,-9.077545166015625,35.4881706237793,16.66470718383789
1633781793493599700,7.343599853515625,-8.769439697265625,35.42888259887695,17.23011016845703
1633781793513478700,7.363478759765625,-8.66986083984375,35.107948303222656,17.93118667602539
1633781793533357600,7.383357666015625,-8.61395263671875,35.01348114013672,18.364795684814453
1633781793553237800,7.40323779296875,-7.7803955078125,34.701507568359375,18.776714324951172
1633781793573116700,7.42311669921875,-8.04180908203125,34.845436096191406,18.873668670654297
1633781793592995600,7.44299560546875,-7.53741455078125,34.43611145019531,19.539730072021484
1633781793612874800,7.462874755859375,-7.388702392578125,34.292724609375,20.084487915039062
1633781793632753700,7.482753662109375,-6.824066162109375,34.01908493041992,20.53316879272461
1633781793652632800,7.5026328125,-6.2564697265625,33.68490219116211,21.32561492919922
1633781793672511700,7.52251171875,-6.193695068359375,33.68292999267578,21.492191314697266
1633781793692390700,7.542390625,-6.03369140625,33.35792541503906,21.99544906616211
1633781793712269800,7.562269775390625,-5.675323486328125,33.005943298339844,22.294979095458984
1633781793732148700,7.582148681640625,-5.245086669921875,32.621116638183594,22.845882415771484
1633781793752027600,7.602027587890625,-4.585784912109375,32.65935134887695,23.1021671295166
1633781793771906600,7.621906494140625,-4.66546630859375,32.210723876953125,23.513141632080078
1633781793791786800,7.641786865234375,-4.659149169921875,32.12400436401367,23.85880470275879
1633781793811665700,7.661665771484375,-3.95452880859375,31.681598663330078,24.19308090209961
1633781793831544600,7.681544677734375,-3.978424072265625,31.466899871826172,24.727901458740234
1633781793851423700,7.701423828125,-3.70166015625,30.896896362304688,25.214696884155273
1633781793871302700,7.721302734375,-3.768096923828125,30.707027435302734,25.412111282348633
1633781793891181800,7.741181884765625,-3.26983642578125,30.71693992614746,26.11203956604004
1633781793911060700,7.761060791015625,-2.954559326171875,29.99076271057129,26.47014808654785
1633781793930939600,7.780939697265625,-2.86993408203125,29.652976989746094,26.764122009277344
1633781793950818800,7.80081884765625,-2.796722412109375,29.121906280517578,27.49268341064453
1633781793970697700,7.82069775390625,-1.864410400390625,28.84270668029785,27.77043914794922
1633781793990572300,7.840572265625,-1.562042236328125,28.267541885375977,28.57038116455078
1633781794010451200,7.860451171875,-0.9227294921875,27.937541961669922,28.939889907836914
1633781794030331100,7.8803310546875,-1.164093017578125,27.442392349243164,29.719694137573242
1633781794050210300,7.900210205078125,-1.265625,27.10359001159668,29.875118255615234
1633781794070089200,7.920089111328125,-0.48822021484375,26.6232852935791,30.12590789794922
1633781794089968000,7.939968017578125,0.02423095703125,26.015119552612305,30.599706649780273
1633781794109847300,7.959847412109375,0.368438720703125,25.681129455566406,31.05742073059082
1633781794129726200,7.979726318359375,0.328948974609375,25.334415435791016,31.032936096191406
1633781794149605400,7.99960546875,0.123321533203125,25.025680541992188,31.652769088745117
1633781794169484000,8.019484130859375,0.74993896484375,24.90766143798828,31.442405700683594
1633781794189363200,8.03936328125,0.6678466796875,24.678970336914062,31.478105545043945
1633781794209242000,8.0592421875,1.07464599609375,24.31998634338379,31.531023025512695
1633781794229121300,8.079121337890625,1.1092529296875,24.079601287841797,31.76374053955078
1633781794249000200,8.099000244140624,1.587188720703125,23.988506317138672,32.033905029296875
1633781794268879000,8.118879150390624,1.775054931640625,23.659517288208008,31.959199905395508
1633781794288758300,8.13875830078125,2.15924072265625,23.622846603393555,32.384429931640625
1633781794308638200,8.15863818359375,2.499969482421875,23.26909828186035,32.55146026611328
1633781794328517000,8.17851708984375,2.410980224609375,22.89164161682129,32.6971435546875
1633781794348396300,8.198396240234375,2.662353515625,22.808448791503906,33.07481384277344
1633781794368275200,8.218275146484375,2.59442138671875,22.322917938232422,33.130882263183594
1633781794388154400,8.238154296875,2.653472900390625,22.076251983642578,33.46634292602539
1633781794408033000,8.258032958984375,3.3072509765625,22.048294067382812,33.66827392578125
1633781794427912200,8.277912109375,2.666046142578125,21.77849769592285,33.8096923828125
1633781794447791400,8.297791259765624,3.2906494140625,21.33196449279785,33.78973388671875
1633781794467670300,8.317670166015626,2.905731201171875,21.594907760620117,33.71662902832031
1633781794487549200,8.337549072265626,3.295501708984375,21.665117263793945,33.860084533691406
1633781794507428000,8.357427978515625,2.970672607421875,21.85409927368164,33.91477966308594
1633781794527307300,8.377307373046875,3.04425048828125,21.956321716308594,33.727481842041016
1633781794547187500,8.3971875,3.0338134765625,21.986982345581055,33.79945755004883
1633781794567066000,8.417066162109375,2.967620849609375,21.96516227722168,33.551170349121094
1633781794586945300,8.4369453125,3.07037353515625,21.82329559326172,33.78717041015625
1633781794606824200,8.45682421875,2.639739990234375,21.927963256835938,33.53106689453125
1633781794626703400,8.476703369140624,2.33660888671875,22.060697555541992,33.497108459472656
1633781794646582000,8.49658203125,2.49859619140625,21.91519546508789,33.63581848144531
1633781794666461200,8.516461181640626,2.518463134765625,22.01127052307129,33.411495208740234
1633781794686340400,8.53634033203125,2.527618408203125,22.194904327392578,33.50490188598633
1633781794706219300,8.55621923828125,2.26812744140625,22.166698455810547,33.727561950683594
1633781794726098200,8.57609814453125,2.05596923828125,22.1761531829834,33.638816833496094
1633781794745977000,8.59597705078125,2.18145751953125,22.414653778076172,33.65467834472656
1633781794765856300,8.615856201171875,1.854461669921875,22.654687881469727,33.514747619628906
1633781794785735200,8.635735107421874,2.163238525390625,22.529552459716797,33.56494140625
1633781794805615000,8.655614990234374,2.104095458984375,22.366588592529297,33.505699157714844
1633781794825494300,8.675494384765624,1.809661865234375,22.445972442626953,33.238929748535156
1633781794845373200,8.695373291015626,1.59893798828125,22.778461456298828,33.331687927246094
1633781794865252400,8.71525244140625,1.160064697265625,22.539321899414062,33.14659881591797
1633781794885131000,8.735131103515625,0.911376953125,22.970504760742188,33.115013122558594
1633781794905010200,8.75501025390625,0.9796142578125,23.255619049072266,33.156288146972656
1633781794924889300,8.774889404296875,1.15362548828125,23.376487731933594,33.21199035644531
1633781794944768300,8.794768310546875,1.273040771484375,23.222063064575195,33.04411315917969
1633781794964647200,8.814647216796875,1.49249267578125,23.246196746826172,33.018470764160156
1633781794984526600,8.834526611328124,1.0712890625,23.260623931884766,33.030555725097656
1633781795004405800,8.85440576171875,0.828643798828125,23.743698120117188,32.84088134765625
1633781795024285000,8.874284912109376,0.940277099609375,23.605321884155273,32.8996467590332
1633781795044163600,8.89416357421875,0.872161865234375,23.45380973815918,32.876243591308594
1633781795064042800,8.914042724609375,0.157318115234375,23.628765106201172,32.67021942138672
1633781795083922700,8.933922607421875,0.204132080078125,23.544076919555664,32.82244873046875
1633781795103801600,8.953801513671875,0.495330810546875,23.41437530517578,32.62699890136719
1633781795123680800,8.9736806640625,0.4976806640625,23.638896942138672,32.422645568847656
1633781795143559700,8.9935595703125,0.46771240234375,23.642499923706055,32.57135009765625
1633781795163438800,9.01343896484375,0.27178955078125,23.57961082458496,32.37569808959961
1633781795183317800,9.03331787109375,0.20013427734375,23.573955535888672,32.162105560302734
1633781795203196700,9.05319677734375,0.037109375,23.983964920043945,32.305091857910156
1633781795223075600,9.07307568359375,0.43408203125,23.981712341308594,32.19097137451172
1633781795242954800,9.092954833984376,0.25872802734375,24.181270599365234,32.07518005371094
1633781795262834000,9.112833984375,-0.11053466796875,24.28677749633789,31.93463706970215
1633781795282712600,9.132712646484375,-0.153228759765625,24.252540588378906,32.1246452331543
1633781795302591700,9.152591796875,-0.0284423828125,24.260576248168945,31.88346290588379
1633781795322470700,9.172470703125,-0.04644775390625,24.143268585205078,32.055023193359375
1633781795342349800,9.192349853515625,0.018524169921875,24.494754791259766,32.178504943847656
1633781795362229800,9.212229736328124,-0.170867919921875,24.394733428955078,31.950687408447266
1633781795382108700,9.232108642578124,-0.446746826171875,24.372331619262695,31.926610946655273
1633781795401987800,9.25198779296875,-0.08050537109375,24.193599700927734,32.33930969238281
1633781795421866800,9.27186669921875,-0.381134033203125,24.17738151550293,32.50204849243164
1633781795441745700,9.29174560546875,0.110443115234375,24.02666664123535,32.438079833984375
1633781795461624600,9.31162451171875,-0.14862060546875,23.772037506103516,32.546417236328125
1633781795481503700,9.331503662109375,-0.0291748046875,23.723413467407227,32.434288024902344
1633781795501383000,9.3513828125,0.594573974609375,23.68600845336914,32.52784729003906
1633781795521261600,9.371261474609375,0.660430908203125,23.41205406188965,32.569007873535156
1633781795541140700,9.391140625,0.62652587890625,23.094701766967773,32.846168518066406
1633781795561019600,9.41101953125,0.630584716796875,23.364330291748047,32.91889953613281
1633781795580898800,9.43089892578125,0.67889404296875,23.182384490966797,33.03125762939453
1633781795600777700,9.45077783203125,1.076690673828125,22.982723236083984,33.09722900390625
1633781795620656600,9.47065673828125,1.088836669921875,22.692092895507812,33.060943603515625
1633781795640536800,9.490536865234375,1.122314453125,22.459779739379883,33.194915771484375
1633781795660415700,9.510415771484375,1.0849609375,22.65280532836914,33.06526184082031
1633781795680294700,9.530294677734375,1.409637451171875,22.177249908447266,33.29152297973633
1633781795700173600,9.550173583984375,1.798248291015625,22.241159439086914,33.562774658203125
1633781795720052700,9.570052734375,1.947418212890625,22.074710845947266,33.93537139892578
1633781795739932000,9.589931884765624,1.94891357421875,21.768674850463867,33.687591552734375
1633781795759810600,9.609810546875,2.256744384765625,21.438032150268555,33.99151611328125
1633781795779689700,9.629689697265626,2.19677734375,21.57903289794922,34.14470672607422
1633781795799568600,9.649568603515625,2.575347900390625,21.120624542236328,34.26229476928711
1633781795819447800,9.66944775390625,2.739288330078125,20.995532989501953,34.16618728637695
1633781795839326700,9.68932666015625,2.6966552734375,21.081666946411133,34.459251403808594
1633781795859205600,9.70920556640625,3.000885009765625,20.473770141601562,34.41031265258789
1633781795879084800,9.729084716796875,3.160552978515625,20.226511001586914,34.96708679199219
1633781795898963700,9.748963623046874,3.290252685546875,20.147075653076172,34.42027282714844
1633781795918843600,9.76884375,3.468109130859375,19.748783111572266,34.777259826660156
1633781795938722600,9.78872265625,3.678955078125,19.50208282470703,35.32197570800781
1633781795958601700,9.808601806640626,4.553466796875,19.14920997619629,35.10342025756836
1633781795978481000,9.82848095703125,4.62408447265625,18.843276977539062,35.340614318847656
1633781795998359000,9.848359130859375,4.772613525390625,18.481414794921875,35.367374420166016
1633781796018238000,9.868238037109375,4.7864990234375,18.070077896118164,35.68494415283203
1633781796038116900,9.888116943359375,5.52252197265625,17.904727935791016,35.74600601196289
1633781796057996000,9.90799609375,5.364654541015625,17.458465576171875,36.07912826538086
1633781796077875000,9.927875,5.681182861328125,16.809364318847656,36.301124572753906
1633781796097754000,9.947754150390624,5.783203125,16.29552459716797,36.467498779296875
1633781796117632800,9.9676328125,6.21820068359375,15.812418937683105,36.521583557128906
1633781796137512000,9.987511962890625,6.698577880859375,15.482832908630371,36.795677185058594
1633781796157391000,10.00739111328125,7.42974853515625,14.831816673278809,37.00868225097656
1633781796177270000,10.02727001953125,7.87847900390625,14.248348236083984,37.08043670654297
1633781796197149000,10.04714892578125,7.860015869140625,13.993867874145508,37.196006774902344
1633781796217028900,10.06702880859375,7.844970703125,13.883613586425781,37.15934753417969
1633781796236908000,10.086907958984375,8.50506591796875,13.732129096984863,37.4117431640625
1633781796256787000,10.106786865234374,8.806549072265625,12.960204124450684,37.552494049072266
1633781796276665900,10.126665771484374,8.9822998046875,12.436444282531738,37.13432312011719
1633781796296545000,10.146544921875,9.79339599609375,12.09060287475586,37.577491760253906
1633781796316424000,10.166423828125,10.1827392578125,11.52169418334961,37.310882568359375
1633781796336303000,10.18630322265625,10.447906494140625,11.12352466583252,37.74708938598633
1633781796356181800,10.206181640625,10.875762939453125,10.828998565673828,37.875972747802734
1633781796376061000,10.22606103515625,11.236541748046875,10.601679801940918,37.82653045654297
1633781796395940000,10.245940185546875,11.005157470703125,10.321345329284668,37.80210876464844
1633781796415819000,10.265819091796875,11.214263916015625,9.854427337646484,37.76676940917969
1633781796435698000,10.285697998046874,11.77630615234375,9.27104377746582,37.89443588256836
1633781796455576800,10.305576904296874,11.5858154296875,9.017196655273438,37.96442413330078
1633781796475456000,10.3254560546875,12.374542236328125,8.706584930419922,37.621612548828125
1633781796495336000,10.3453359375,12.47821044921875,8.32916259765625,37.646629333496094
1633781796515214800,10.36521484375,13.136688232421875,7.785665512084961,37.35515594482422
1633781796535094000,10.385093994140625,13.3446044921875,7.333955764770508,37.847991943359375
1633781796554973000,10.404972900390625,13.616302490234375,6.8793487548828125,37.71443176269531
1633781796574852000,10.42485205078125,13.64385986328125,6.800065994262695,37.61342239379883
1633781796594730800,10.444730712890625,13.9541015625,6.44206428527832,37.8594970703125
1633781796614610000,10.46460986328125,14.587982177734375,6.032871246337891,37.722084045410156
1633781796634489000,10.484489013671874,14.664794921875,5.636621475219727,37.578025817871094
1633781796654368000,10.504367919921876,15.117828369140625,5.567827224731445,37.49840545654297
1633781796674247000,10.524246826171876,15.770294189453125,5.151285171508789,37.496788024902344
1633781796694125800,10.544125732421875,16.30718994140625,4.612524032592773,37.31671905517578
1633781796714005000,10.5640048828125,17.003265380859375,4.240764617919922,37.233482360839844
1633781796733884000,10.5838837890625,17.52508544921875,3.668489456176758,36.93738555908203
1633781796753763000,10.60376318359375,17.714141845703125,2.909841537475586,36.698387145996094
1633781796773642000,10.62364208984375,18.476776123046875,2.383533477783203,36.453834533691406
1633781796793522000,10.64352197265625,18.826202392578125,1.6542072296142578,36.5513916015625
1633781796813401000,10.663401123046874,19.222808837890625,1.2235298156738281,36.17833709716797
1633781796833280000,10.683280029296874,19.65313720703125,0.6256484985351562,35.769447326660156
1633781796853159000,10.703158935546876,20.994415283203125,-0.06957054138183594,35.62957000732422
1633781796873038000,10.7230380859375,21.65380859375,-0.5018215179443359,35.30714416503906
1633781796892917000,10.7429169921875,21.95782470703125,-0.9225234985351562,34.7974853515625
1633781796912796000,10.7627958984375,22.47491455078125,-1.2484188079833984,34.425865173339844
1633781796932674800,10.7826748046875,22.8846435546875,-1.6678466796875,34.537864685058594
1633781796952554000,10.802553955078125,23.662017822265625,-1.8879146575927734,34.205745697021484
1633781796972433200,10.82243310546875,24.055023193359375,-2.0046749114990234,33.82065963745117
1633781796992312800,10.842312744140624,24.55224609375,-2.420999526977539,33.84640121459961
1633781797012192000,10.86219189453125,24.95050048828125,-3.0617504119873047,33.49482727050781
1633781797032071000,10.88207080078125,24.759124755859375,-2.9445247650146484,33.11803436279297
1633781797051950000,10.9019501953125,25.4686279296875,-3.1837615966796875,32.903289794921875
1633781797071829000,10.9218291015625,25.5,-3.786905288696289,32.67205810546875
1633781797091709000,10.941708984375,25.956268310546875,-4.354373931884766,32.55982208251953
1633781797111588000,10.961588134765625,25.967529296875,-4.609443664550781,32.01524353027344
1633781797131466800,10.981466796875,25.858551025390625,-5.108308792114258,31.76875114440918
1633781797151346000,11.001345947265625,26.16632080078125,-5.5858612060546875,31.734222412109375
1633781797171225000,11.02122509765625,26.37554931640625,-5.831018447875977,31.79076385498047
1633781797191104000,11.04110400390625,26.02984619140625,-5.708120346069336,31.61958122253418
1633781797210983000,11.06098291015625,26.021392822265625,-5.961851119995117,31.79666519165039
1633781797230861800,11.08086181640625,26.36712646484375,-5.817590713500977,31.653644561767578
1633781797250741000,11.100740966796875,25.87005615234375,-6.168912887573242,31.929950714111328
1633781797270620000,11.120619873046875,26.38653564453125,-6.051469802856445,31.92505645751953
1633781797290499000,11.1404990234375,26.085906982421875,-5.85791015625,32.18745040893555
1633781797310378000,11.1603779296875,25.6573486328125,-5.931819915771484,31.882675170898438
1633781797330257000,11.1802568359375,25.509490966796875,-6.109411239624023,32.026092529296875
1633781797350136000,11.200135986328124,25.81890869140625,-6.32341194152832,32.08453369140625
1633781797370015700,11.220015625,25.8538818359375,-6.280063629150391,32.14927291870117
1633781797389895000,11.23989501953125,25.653533935546875,-6.606634140014648,32.46234130859375
1633781797409774000,11.259774169921876,25.821197509765625,-6.788917541503906,32.440635681152344
1633781797429653000,11.279653076171876,25.592742919921875,-6.750814437866211,32.197540283203125
1633781797449532200,11.2995322265625,25.847625732421875,-7.075193405151367,32.035587310791016
1633781797469410800,11.319410888671875,25.783538818359375,-7.012453079223633,31.944143295288086
1633781797489290000,11.3392900390625,25.76953125,-7.114999771118164,32.24078369140625
1633781797509169000,11.3591689453125,25.457855224609375,-7.147424697875977,31.87663459777832
1633781797529048000,11.379048095703125,25.667755126953125,-7.371011734008789,31.901763916015625
1633781797548927000,11.398927001953124,25.54974365234375,-7.626043319702148,31.630407333374023
1633781797568806000,11.418805908203124,25.78900146484375,-7.60386848449707,31.564027786254883
1633781797588685000,11.43868505859375,26.156585693359375,-7.848344802856445,31.772480010986328
1633781797608564000,11.45856396484375,26.286712646484375,-7.578912734985352,31.609840393066406
1633781797628443000,11.47844287109375,26.22357177734375,-7.708799362182617,31.375730514526367
1633781797648321800,11.49832177734375,26.264556884765625,-7.989240646362305,31.312274932861328
1633781797668201000,11.518200927734375,26.12542724609375,-7.980188369750977,31.393661499023438
1633781797688081200,11.5380810546875,26.05377197265625,-8.028894424438477,31.177942276000977
1633781797707959800,11.557959716796875,26.393463134765625,-8.462736129760742,31.23135757446289
1633781797727839000,11.5778388671875,26.62725830078125,-8.572919845581055,30.792137145996094
1633781797747718000,11.5977177734375,26.877532958984375,-8.642293930053711,30.42694091796875
1633781797767597000,11.61759716796875,26.75341796875,-9.098230361938477,30.248437881469727
1633781797787476000,11.63747607421875,27.21893310546875,-9.409841537475586,30.056575775146484
1633781797807355000,11.65735498046875,27.547698974609375,-9.465047836303711,30.137746810913086
1633781797827234000,11.677234130859375,27.480438232421875,-9.65278434753418,29.93467903137207
1633781797847113000,11.697113037109375,27.49578857421875,-9.516801834106445,29.737855911254883
1633781797866991900,11.716991943359375,27.7742919921875,-9.682340621948242,29.45458984375
1633781797886870800,11.736870849609375,28.2376708984375,-9.776018142700195,29.25117301940918
1633781797906750000,11.75675,28.3299560546875,-10.137929916381836,29.124717712402344
1633781797926629000,11.776629150390624,28.829833984375,-10.059770584106445,28.655681610107422
1633781797946508000,11.796508056640626,29.145782470703125,-10.564302444458008,28.371368408203125
1633781797966387000,11.816386962890626,29.839508056640625,-10.747808456420898,27.955690383911133
1633781797986267100,11.83626708984375,29.620147705078125,-11.053445816040039,27.77694320678711
1633781798006146000,11.85614599609375,29.766693115234375,-10.960649490356445,27.396324157714844
1633781798026025000,11.87602490234375,30.042327880859375,-11.230234146118164,27.001304626464844
1633781798045904000,11.89590380859375,30.516571044921875,-11.49519157409668,26.59206199645996
1633781798065783000,11.915782958984375,30.929107666015625,-11.824735641479492,26.232406616210938
1633781798085662000,11.935661865234374,30.7557373046875,-12.150720596313477,25.851409912109375
1633781798105540900,11.955540771484374,31.6600341796875,-12.490671157836914,25.47614288330078
1633781798125419800,11.975419677734376,31.8140869140625,-12.61577033996582,25.010656356811523
1633781798145299000,11.995298828125,31.55694580078125,-12.793787002563477,24.216890335083008
1633781798165178000,12.01517822265625,32.543487548828125,-13.343461990356445,23.453420639038086
1633781798185057000,12.03505712890625,32.21240234375,-13.757196426391602,23.3507080078125
1633781798204936000,12.05493603515625,32.414337158203125,-14.417226791381836,22.779821395874023
1633781798224814800,12.07481494140625,32.167938232421875,-14.881593704223633,22.074249267578125
1633781798244694000,12.094694091796875,32.78533935546875,-15.815763473510742,21.501346588134766
1633781798264573000,12.114572998046874,32.837738037109375,-16.337663650512695,20.573802947998047
1633781798284451800,12.134451904296874,33.003509521484375,-17.191556930541992,19.92580795288086
1633781798304331000,12.1543310546875,32.6551513671875,-17.95536994934082,19.200538635253906
1633781798324211000,12.1742109375,33.01666259765625,-18.57929801940918,18.32766342163086
1633781798344090000,12.194090087890626,33.073455810546875,-18.883092880249023,17.46505355834961
1633781798363969000,12.213968994140625,33.028717041015625,-19.24134635925293,16.769840240478516
1633781798383848000,12.233847900390625,33.152587890625,-19.75224494934082,15.850410461425781
1633781798403727000,12.25372705078125,33.68353271484375,-20.448999404907227,14.669994354248047
1633781798423606000,12.27360595703125,33.7674560546875,-21.460844039916992,13.676753997802734
1633781798443485000,12.29348486328125,31.42230224609375,-22.21425437927246,12.350509643554688
1633781798463363800,12.31336376953125,31.656890869140625,-22.95042610168457,11.620769500732422
1633781798483243000,12.333242919921876,31.39007568359375,-23.416902542114258,10.77267837524414
1633781798503122000,12.353121826171876,31.336212158203125,-24.13640785217285,9.91168212890625
1633781798523000800,12.373000732421875,30.635528564453125,-24.610246658325195,8.856212615966797
1633781798542880000,12.3928798828125,31.4569091796875,-25.314191818237305,8.033172607421875
1633781798562759000,12.412759033203125,31.14892578125,-25.661836624145508,7.262870788574219
1633781798582638000,12.43263818359375,30.838134765625,-26.0251407623291,6.493152618408203
1633781798602517000,12.45251708984375,30.98846435546875,-26.35931968688965,5.610683441162109
1633781798622396000,12.47239599609375,30.604827880859375,-26.822694778442383,4.595684051513672
1633781798642276000,12.492276123046874,30.684356689453125,-27.14344596862793,3.876758575439453
1633781798662155000,12.512155029296874,30.495025634765625,-27.304807662963867,3.0115966796875
1633781798682034000,12.532033935546876,30.586029052734375,-27.741479873657227,2.118133544921875
1633781798701912800,12.551912841796875,30.619781494140625,-28.227914810180664,1.2626838684082031
1633781798721792000,12.5717919921875,30.46075439453125,-28.23166847229004,0.12271881103515625
1633781798741671200,12.591671142578125,29.688018798828125,-28.305570602416992,-0.5856590270996094
1633781798761549800,12.6115498046875,30.44970703125,-28.37843894958496,-1.5873794555664062
1633781798781429000,12.631428955078125,30.134307861328125,-28.23935890197754,-3.186473846435547
1633781798801308000,12.651307861328124,30.387420654296875,-28.174924850463867,-4.894557952880859
1633781798821187000,12.67118701171875,30.40789794921875,-27.77872657775879,-6.854999542236328
1633781798841066000,12.69106591796875,30.832489013671875,-27.323678970336914,-8.126548767089844
1633781798860945000,12.71094482421875,30.657745361328125,-26.975419998168945,-9.178447723388672
1633781798880824000,12.730823974609375,30.468841552734375,-27.020376205444336,-10.505573272705078
1633781798900703000,12.750702880859375,31.02093505859375,-26.632112503051758,-11.049938201904297
1633781798920582100,12.77058203125,31.112060546875,-26.461294174194336,-11.918811798095703
1633781798940460800,12.790460693359375,31.127410888671875,-26.229299545288086,-12.531604766845703
1633781798960341000,12.810341064453125,30.759918212890625,-25.87519645690918,-13.218875885009766
1633781798980220200,12.83022021484375,30.335052490234375,-25.98381233215332,-14.05587387084961
1633781799000098300,12.850098388671874,29.7796630859375,-26.54081153869629,-14.551563262939453
1633781799019977200,12.869977294921876,29.936981201171875,-26.711503982543945,-15.169742584228516
1633781799039856000,12.889856201171876,29.516021728515625,-26.41643714904785,-15.889423370361328
1633781799059735300,12.9097353515625,29.43487548828125,-25.901655197143555,-16.16617202758789
1633781799079614200,12.9296142578125,30.73309326171875,-25.780656814575195,-16.40323257446289
1633781799099493400,12.949493408203125,31.837310791015625,-25.480073928833008,-16.567554473876953
1633781799119372000,12.9693720703125,30.885223388671875,-24.883127212524414,-16.17203140258789
1633781799139251200,12.989251220703125,30.985748291015625,-24.814687728881836,-16.747081756591797
1633781799159130400,13.00913037109375,30.7867431640625,-24.486154556274414,-16.815410614013672
1633781799179009300,13.02900927734375,30.83184814453125,-24.06233024597168,-17.053104400634766
1633781799198888200,13.04888818359375,31.298828125,-23.836748123168945,-17.08889389038086
1633781799218767000,13.06876708984375,31.050445556640625,-23.489641189575195,-17.356006622314453
1633781799238646300,13.088646240234375,32.358612060546875,-22.832136154174805,-16.972553253173828
1633781799258526200,13.108526123046875,33.00384521484375,-22.059606552124023,-17.163082122802734
1633781799278405000,13.128405029296875,33.845489501953125,-21.2550106048584,-16.771381378173828
1633781799298284300,13.1482841796875,34.116424560546875,-20.57866859436035,-16.943744659423828
1633781799318163200,13.1681630859375,34.1688232421875,-20.115182876586914,-17.131816864013672
1633781799338042400,13.18804248046875,34.18548583984375,-19.910505294799805,-17.259822845458984
1633781799357921000,13.207921142578124,34.83526611328125,-20.05970573425293,-16.99502944946289
1633781799377800200,13.22780029296875,34.66552734375,-20.346403121948242,-16.30776596069336
1633781799397679400,13.247679443359376,35.237030029296875,-19.81278419494629,-15.279232025146484
1633781799417558300,13.267558349609375,36.26568603515625,-19.82981300354004,-14.50204086303711
1633781799437437200,13.287437255859375,36.173126220703125,-19.81633949279785,-14.119098663330078
1633781799457316000,13.307316162109375,36.059539794921875,-19.907835006713867,-14.03519058227539
1633781799477195300,13.3271953125,35.657440185546875,-20.272214889526367,-14.273990631103516
1633781799497074200,13.34707421875,35.3289794921875,-21.1804256439209,-14.712100982666016
1633781799516953300,13.366953369140624,34.732208251953125,-21.71796226501465,-15.617862701416016
1633781799536833300,13.386833251953124,33.85565185546875,-22.365156173706055,-16.444713592529297
1633781799556712200,13.406712158203124,33.848602294921875,-22.31840705871582,-16.606456756591797
1633781799576591400,13.42659130859375,34.29150390625,-22.154394149780273,-16.44437026977539
1633781799596470000,13.446469970703125,34.12811279296875,-21.660337448120117,-16.135478973388672
1633781799616349200,13.46634912109375,34.826324462890625,-21.327177047729492,-16.32059097290039
1633781799636228400,13.486228271484375,34.475067138671875,-21.45146369934082,-17.307437896728516
1633781799656107300,13.506107177734375,34.24163818359375,-21.144529342651367,-18.063671112060547
1633781799675986200,13.525986083984375,34.294586181640625,-20.895051956176758,-18.737560272216797
1633781799695865000,13.545864990234374,34.059417724609375,-20.6860294342041,-19.025821685791016
1633781799715744300,13.565744140625,34.15692138671875,-20.47994041442871,-19.29825210571289
1633781799735623200,13.585623046875,34.053070068359375,-20.42877769470215,-19.080310821533203
1633781799755502300,13.60550244140625,33.721038818359375,-20.755300521850586,-18.191509246826172
1633781799775381200,13.62538134765625,33.974395751953125,-21.828794479370117,-16.948963165283203
1633781799795260200,13.64526025390625,34.308990478515625,-22.116262435913086,-16.008991241455078
1633781799815139300,13.665139404296875,35.223175048828125,-21.55377769470215,-15.315685272216797
1633781799835019000,13.68501904296875,35.894500732421875,-20.997663497924805,-14.78110122680664
1633781799854898200,13.704898193359375,36.27239990234375,-20.339040756225586,-14.073001861572266
1633781799874777300,13.72477734375,35.895477294921875,-20.580671310424805,-13.851741790771484
1633781799894656300,13.74465625,35.65069580078125,-21.271562576293945,-14.213123321533203
1633781799914535200,13.76453515625,35.419403076171875,-21.308164596557617,-14.328624725341797
1633781799934414000,13.7844140625,35.6654052734375,-21.097497940063477,-14.381610870361328
1633781799954293200,13.804293212890625,35.616729736328125,-20.70631980895996,-13.614566802978516
1633781799974172200,13.824172119140625,36.03668212890625,-20.813241958618164,-12.632190704345703
1633781799994051300,13.84405126953125,35.693023681640625,-20.943384170532227,-12.237628936767578
1633781800013930000,13.863929931640625,35.605255126953125,-21.63356590270996,-11.548213958740234
1633781800033809200,13.88380908203125,35.857025146484375,-21.87211036682129,-11.07309341430664
1633781800053688000,13.90368798828125,35.234100341796875,-22.581628799438477,-10.540950775146484
1633781800073567200,13.923567138671874,35.2396240234375,-22.51265525817871,-9.841022491455078
1633781800093446100,13.943446044921876,35.150787353515625,-22.937551498413086,-9.041614532470703
1633781800113325000,13.963324951171876,34.97076416015625,-23.681493759155273,-8.144786834716797
1633781800133204200,13.983204345703125,34.262359619140625,-24.41691017150879,-7.630878448486328
1633781800153083100,14.003083251953125,33.547149658203125,-25.146406173706055,-7.274940490722656
1633781800172963000,14.022963134765625,32.735748291015625,-25.668581008911133,-7.297290802001953
1633781800192842200,14.04284228515625,32.0203857421875,-26.32676887512207,-6.875160217285156
1633781800212721200,14.06272119140625,31.687591552734375,-26.902467727661133,-6.8087310791015625
1633781800232600300,14.082600341796875,30.612884521484375,-27.055940628051758,-6.811267852783203
1633781800252479000,14.10247900390625,30.571685791015625,-26.86473274230957,-7.265525817871094
1633781800272358100,14.122358154296874,30.707550048828125,-26.224328994750977,-8.34295654296875
1633781800292237000,14.142237060546876,31.644775390625,-25.42320442199707,-9.047828674316406
1633781800312116200,14.1621162109375,31.512481689453125,-25.01106834411621,-9.166549682617188
1633781800331995100,14.1819951171875,31.544952392578125,-25.257295608520508,-9.42678451538086
1633781800351874000,14.2018740234375,31.14892578125,-24.98643684387207,-10.133251190185547
1633781800371753200,14.221753173828125,30.8843994140625,-24.527158737182617,-11.055553436279297
1633781800391632100,14.241632080078125,30.87811279296875,-23.91779899597168,-11.151546478271484
1633781800411511300,14.26151123046875,31.06121826171875,-23.74681282043457,-11.042644500732422
1633781800431390000,14.281389892578124,31.537628173828125,-23.185544967651367,-10.791309356689453
1633781800451269000,14.30126904296875,31.728485107421875,-23.529653549194336,-10.20871353149414
1633781800471148300,14.321148193359376,31.52301025390625,-24.035810470581055,-10.19607925415039
1633781800491027200,14.341027099609375,30.8492431640625,-24.31032371520996,-10.386661529541016
1633781800510907100,14.3609072265625,31.026580810546875,-24.537050247192383,-10.30649185180664
1633781800530786000,14.3807861328125,30.86431884765625,-24.303590774536133,-10.385074615478516
1633781800550665200,14.400665283203125,31.32318115234375,-24.38139533996582,-9.927444458007812
1633781800570544000,14.420544189453125,30.9991455078125,-24.091127395629883,-9.90789794921875
1633781800590423000,14.440423095703125,30.709014892578125,-24.36409568786621,-9.678947448730469
1633781800610302200,14.46030224609375,30.473724365234375,-24.440427780151367,-9.965740203857422
1633781800630181000,14.48018115234375,30.7354736328125,-24.61054039001465,-10.609172821044922
1633781800650060300,14.500060302734376,30.559051513671875,-23.8306827545166,-11.047191619873047
1633781800669939000,14.51993896484375,31.04364013671875,-23.852994918823242,-10.65298843383789
1633781800689818000,14.539818115234375,30.872283935546875,-24.377771377563477,-10.244640350341797
1633781800709697300,14.559697265625,29.90704345703125,-25.19035530090332,-10.190032958984375
1633781800729576200,14.579576171875,29.31878662109375,-25.931779861450195,-10.245246887207031
1633781800749455000,14.599455078125,28.725616455078125,-26.169893264770508,-10.271163940429688
1633781800769334000,14.619333984375,28.8065185546875,-26.36265754699707,-10.360767364501953
1633781800789213200,14.639213134765624,28.1737060546875,-26.589929580688477,-9.929988861083984
1633781800809092000,14.659092041015626,28.00860595703125,-26.97325325012207,-9.812335968017578
1633781800828971300,14.67897119140625,27.8128662109375,-27.44997215270996,-9.269702911376953
1633781800848850200,14.69885009765625,27.609222412109375,-27.741899490356445,-8.549694061279297
1633781800868730000,14.718730224609375,27.806365966796875,-27.453413009643555,-8.096084594726562
1633781800888609300,14.738609375,28.275146484375,-27.375219345092773,-7.806606292724609
1633781800908488000,14.758488037109375,28.214141845703125,-26.9880313873291,-7.670707702636719
1633781800928367000,14.7783671875,28.716644287109375,-26.72452735900879,-7.448848724365234
1633781800948246300,14.798246337890625,29.1036376953125,-26.80293846130371,-7.2480010986328125
1633781800968125200,14.818125244140624,29.505401611328125,-26.488496780395508,-7.409374237060547
1633781800988004900,14.8380048828125,29.355224609375,-26.063631057739258,-7.536075592041016
1633781801007883800,14.8578837890625,30.023651123046875,-26.05311393737793,-7.785488128662109
1633781801027763000,14.877762939453126,29.891387939453125,-26.09061622619629,-7.479007720947266
1633781801047641900,14.897641845703125,29.216156005859375,-26.589506149291992,-7.632904052734375
1633781801067520800,14.917520751953125,28.696746826171875,-27.608083724975586,-8.054649353027344
1633781801087400000,14.93739990234375,28.396148681640625,-27.36741065979004,-8.699138641357422
1633781801107278800,14.95727880859375,29.10009765625,-27.04291343688965,-9.724075317382812
1633781801127158000,14.977157958984375,30.841522216796875,-25.7496395111084,-10.024295806884766
1633781801147036700,14.99703662109375,31.8790283203125,-24.346494674682617,-9.933570861816406
1633781801166915800,15.016915771484374,32.140380859375,-23.83696937561035,-10.026935577392578
1633781801186794800,15.036794677734376,31.91455078125,-24.197885513305664,-9.961246490478516
1633781801206674000,15.056673828125,31.957366943359375,-24.54515266418457,-10.32730484008789
1633781801226553000,15.076552978515625,31.5079345703125,-24.91922950744629,-10.371196746826172
1633781801246431700,15.096431640625,31.524566650390625,-24.965421676635742,-10.285072326660156
1633781801266312000,15.11631201171875,31.549530029296875,-25.24793815612793,-10.762874603271484
1633781801286190800,15.13619091796875,30.606842041015625,-25.558881759643555,-11.797428131103516
1633781801306069800,15.15606982421875,29.685333251953125,-26.519208908081055,-13.097270965576172
1633781801325949000,15.175948974609375,27.69537353515625,-27.549726486206055,-14.314579010009766
1633781801345827800,15.195827880859374,25.7872314453125,-28.690473556518555,-15.563709259033203
1633781801365707000,15.21570703125,24.67822265625,-29.08254051208496,-16.666072845458984
1633781801385585700,15.235585693359376,24.569244384765625,-28.909284591674805,-17.30135726928711
1633781801405464800,15.25546484375,24.71600341796875,-29.346837997436523,-17.263355255126953
1633781801425343700,15.27534375,24.704071044921875,-29.415483474731445,-17.04238510131836
1633781801445223000,15.295222900390625,25.478302001953125,-29.193422317504883,-16.446964263916016
1633781801465102000,15.31510205078125,26.5240478515625,-28.704328536987305,-15.738399505615234
1633781801484980700,15.334980712890625,28.305572509765625,-28.16306495666504,-14.467601776123047
1633781801504860000,15.35485986328125,29.550811767578125,-27.32591438293457,-12.86233139038086
1633781801524738800,15.37473876953125,30.40081787109375,-26.999834060668945,-11.103252410888672
1633781801544618000,15.394617919921876,30.303466796875,-27.441282272338867,-9.747474670410156
1633781801564496600,15.41449658203125,30.445892333984375,-28.086137771606445,-8.858482360839844
1633781801584375800,15.434375732421875,30.15814208984375,-28.284788131713867,-8.742778778076172
1633781801604255000,15.4542548828125,29.776519775390625,-28.669179916381836,-8.807918548583984
1633781801624134000,15.4741337890625,29.2664794921875,-29.06760597229004,-8.757713317871094
1633781801644013000,15.494012939453125,28.811431884765625,-29.792604446411133,-8.89505386352539
1633781801663891700,15.5138916015625,28.076995849609375,-30.26118278503418,-8.767219543457031
1633781801683772000,15.53377197265625,27.592498779296875,-30.716833114624023,-9.470706939697266
1633781801703651000,15.553651123046874,28.3277587890625,-30.157453536987305,-9.468852996826172
1633781801723529700,15.57352978515625,29.30609130859375,-29.199777603149414,-9.802600860595703
1633781801743409000,15.593408935546876,30.224517822265625,-28.496885299682617,-8.643329620361328
1633781801763287800,15.613287841796875,30.585906982421875,-28.88892936706543,-8.08816146850586
1633781801783167000,15.6331669921875,30.291778564453125,-29.096803665161133,-8.34921646118164
1633781801803045600,15.653045654296875,30.340911865234375,-28.78349494934082,-9.908523559570312
1633781801822924800,15.6729248046875,30.12701416015625,-28.32591438293457,-11.352848052978516
1633781801842804000,15.692803955078125,31.435821533203125,-27.366865158081055,-12.030010223388672
1633781801862683000,15.712682861328124,32.26727294921875,-26.22255516052246,-11.995548248291016
1633781801882562000,15.73256201171875,33.100128173828125,-26.154176712036133,-11.76308822631836
1633781801902440700,15.752440673828126,32.720306396484375,-26.34723472595215,-11.944698333740234
1633781801922320000,15.77231982421875,32.626678466796875,-26.518381118774414,-11.90078353881836
1633781801942198800,15.79219873046875,32.100830078125,-26.878549575805664,-12.369014739990234
1633781801962078000,15.812077880859375,32.16522216796875,-26.899343490600586,-12.585010528564453
1633781801981956900,15.831956787109375,31.8515625,-27.135862350463867,-12.67178726196289
1633781802001835800,15.851835693359375,31.707794189453125,-26.91668128967285,-12.790729522705078
1633781802021714700,15.871714599609374,31.93341064453125,-26.752431869506836,-13.02944564819336
1633781802041593900,15.89159375,31.90460205078125,-26.838186264038086,-13.177654266357422
1633781802061472800,15.91147265625,32.482391357421875,-26.551706314086914,-12.80063247680664
1633781802081351700,15.9313515625,32.5748291015625,-26.3944149017334,-12.918270111083984
1633781802101230800,15.95123095703125,33.140472412109375,-26.16581153869629,-12.448497772216797
1633781802121109800,15.97110986328125,33.381561279296875,-25.956125259399414,-12.493358612060547
1633781802140989700,15.99098974609375,32.7755126953125,-26.90030860900879,-12.42238998413086
1633781802160868600,16.01086865234375,32.2076416015625,-27.904077529907227,-12.798534393310547
1633781802180747800,16.030747802734375,31.588623046875,-28.11735725402832,-12.847469329833984
1633781802200627000,16.050626953125,31.42578125,-28.12099266052246,-12.49898910522461
1633781802220505600,16.070505615234374,32.20184326171875,-27.766332626342773,-12.909748077392578
1633781802240384800,16.090384765625,32.433990478515625,-27.46574592590332,-11.815479278564453
1633781802260263700,16.110263671875,32.432891845703125,-27.55666160583496,-10.985240936279297
1633781802280142800,16.130142822265626,32.71966552734375,-27.906206130981445,-9.44498062133789
1633781802300021800,16.150021728515625,32.316986083984375,-28.61668586730957,-8.06707763671875
1633781802319900700,16.169900634765625,31.7427978515625,-29.049226760864258,-7.127662658691406
1633781802339779800,16.18977978515625,31.41644287109375,-29.78797721862793,-6.521053314208984
1633781802359658800,16.20965869140625,29.77716064453125,-31.036165237426758,-6.405731201171875
1633781802379538000,16.229537841796876,28.642181396484375,-32.18164825439453,-6.255901336669922
1633781802399416600,16.24941650390625,27.459014892578125,-33.338233947753906,-6.31024169921875
1633781802419295700,16.269295654296876,27.000152587890625,-33.50390625,-7.147861480712891
1633781802439174700,16.289174560546876,27.88970947265625,-32.802825927734375,-8.21506118774414
1633781802459053800,16.3090537109375,29.4508056640625,-31.383684158325195,-9.547050476074219
1633781802478932700,16.3289326171875,30.739776611328125,-30.169191360473633,-9.706748962402344
1633781802498811600,16.348811767578123,31.425994873046875,-29.510671615600586,-9.777751922607422
1633781802518690800,16.36869091796875,31.4573974609375,-29.459897994995117,-10.424236297607422
1633781802538569700,16.38856982421875,30.89208984375,-29.390165328979492,-10.752368927001953
1633781802558449000,16.408448974609374,30.430999755859375,-29.514223098754883,-11.972660064697266
1633781802578328800,16.428328857421874,29.80035400390625,-29.355703353881836,-13.541263580322266
1633781802598207700,16.448207763671874,29.99334716796875,-29.13153648376465,-14.338130950927734
1633781802618087000,16.4680869140625,29.984222412109375,-28.9357967376709,-14.928661346435547
1633781802637965600,16.487965576171874,29.917755126953125,-28.860689163208008,-15.53268051147461
1633781802657844700,16.5078447265625,29.682708740234375,-29.140840530395508,-15.473712921142578
1633781802677723600,16.5277236328125,29.5484619140625,-29.360380172729492,-15.205730438232422
1633781802697602800,16.547602783203125,29.963104248046875,-29.47471046447754,-14.903095245361328
1633781802717481700,16.567481689453125,30.197509765625,-29.00388526916504,-14.364238739013672
1633781802737360600,16.587360595703124,31.402801513671875,-28.302274703979492,-13.748058319091797
1633781802757239800,16.60723974609375,32.138427734375,-28.120981216430664,-13.51382064819336
1633781802777118700,16.62711865234375,32.191864013671875,-27.635286331176758,-13.46999740600586
1633781802796998000,16.646997802734376,32.560089111328125,-27.44487190246582,-14.11654281616211
1633781802816876500,16.66687646484375,32.722930908203125,-26.888322830200195,-15.159381866455078
1633781802836755700,16.686755615234375,32.60748291015625,-26.621461868286133,-16.21450424194336
1633781802856635000,16.706634765625,32.3077392578125,-26.56160545349121,-16.12594223022461
1633781802876513800,16.726513671875,32.81854248046875,-26.91691017150879,-15.754077911376953
1633781802896392700,16.746392822265626,32.64703369140625,-26.865922927856445,-14.921703338623047
1633781802916271600,16.766271728515626,32.7701416015625,-27.115385055541992,-14.613262176513672
1633781802936150800,16.78615087890625,32.87872314453125,-26.6407413482666,-14.609439849853516
1633781802956029700,16.80602978515625,33.344879150390625,-26.62856101989746,-14.398944854736328
1633781802975908900,16.825908935546874,33.79168701171875,-26.27647590637207,-14.131610870361328
1633781802995788000,16.8457880859375,34.05816650390625,-26.581941604614258,-13.19057846069336
1633781803015667000,16.8656669921875,33.32568359375,-27.36821937561035,-11.548633575439453
1633781803035547100,16.885547119140625,32.9266357421875,-28.378252029418945,-10.537487030029297
1633781803055426000,16.905426025390625,32.6351318359375,-28.937936782836914,-10.40427017211914
1633781803075305000,16.925304931640625,32.198577880859375,-28.91567039489746,-10.968219757080078
1633781803095184100,16.94518408203125,32.1845703125,-29.333860397338867,-11.40048599243164
1633781803115063000,16.96506298828125,32.0787353515625,-29.30621910095215,-11.96895980834961
1633781803134942000,16.98494189453125,32.289398193359375,-29.265962600708008,-11.984630584716797
1633781803154820900,17.00482080078125,32.43731689453125,-29.005651473999023,-12.518009185791016
1633781803174700000,17.024699951171876,33.06134033203125,-27.559690475463867,-13.54977035522461
1633781803194579200,17.0445791015625,33.858245849609375,-26.367998123168945,-14.388042449951172
1633781803214458000,17.0644580078125,34.2158203125,-25.671968460083008,-14.717784881591797
1633781803234337000,17.0843369140625,34.399749755859375,-25.586790084838867,-14.862430572509766
1633781803254216000,17.1042158203125,33.799896240234375,-25.5714054107666,-16.23343276977539
1633781803274095000,17.12409521484375,32.996978759765625,-25.327112197875977,-17.829402923583984
1633781803293974000,17.14397412109375,32.283660888671875,-25.425508499145508,-19.643177032470703
1633781803313853000,17.16385302734375,32.112701416015625,-24.409616470336914,-21.328105926513672
1633781803333732000,17.183732177734374,32.5487060546875,-23.724531173706055,-21.855770111083984
1633781803353611000,17.203611083984374,32.4468994140625,-23.43358039855957,-22.21915054321289
1633781803373490200,17.223490234375,32.870880126953125,-23.88262367248535,-21.87497329711914
1633781803393368800,17.243368896484377,32.88153076171875,-24.56367301940918,-21.691516876220703
1633781803413248000,17.263248046875,32.3983154296875,-25.003076553344727,-21.40866470336914
1633781803433127000,17.283126953125,32.18865966796875,-25.388917922973633,-21.32955551147461
1633781803453006000,17.303006103515624,32.530242919921875,-25.119356155395508,-20.681331634521484
1633781803472885200,17.32288525390625,32.930023193359375,-24.983041763305664,-20.699588775634766
1633781803492764000,17.342763916015624,32.90985107421875,-24.746641159057617,-20.689105987548828
1633781803512644000,17.36264404296875,32.76544189453125,-24.910974502563477,-20.620365142822266
1633781803532523000,17.38252294921875,33.252532958984375,-24.158010482788086,-21.05966567993164
1633781803552402000,17.40240185546875,33.236907958984375,-23.872201919555664,-21.58266830444336
1633781803572281000,17.422281005859375,33.263671875,-23.885393142700195,-21.701457977294922
1633781803592160000,17.442159912109375,33.349212646484375,-24.24003028869629,-21.099628448486328
1633781803612039200,17.4620390625,32.679840087890625,-24.913515090942383,-21.061504364013672
1633781803631918000,17.48191796875,32.5396728515625,-25.3781795501709,-20.647319793701172
1633781803651797000,17.501796875,32.594268798828125,-25.36787223815918,-20.770641326904297
1633781803671676000,17.521676025390626,32.523651123046875,-25.302255630493164,-20.436992645263672
1633781803691555000,17.54155517578125,33.223907470703125,-24.5764102935791,-20.197628021240234
1633781803711434200,17.561434326171874,34.181549072265625,-24.308732986450195,-19.60263442993164
1633781803731313000,17.58131298828125,34.34283447265625,-24.504167556762695,-18.498043060302734
1633781803751192000,17.601192138671873,34.941314697265625,-24.599153518676758,-17.250469207763672
1633781803771071000,17.621071044921877,34.556884765625,-25.113557815551758,-16.370708465576172
1633781803790950100,17.6409501953125,34.792877197265625,-25.5568904876709,-16.108592987060547
1633781803810828800,17.660828857421876,34.16827392578125,-25.79035758972168,-16.51767349243164
1633781803830708000,17.6807080078125,33.681793212890625,-25.874711990356445,-17.332103729248047
1633781803850587100,17.700587158203124,32.47802734375,-26.523820877075195,-17.892414093017578
1633781803870466000,17.720466064453124,31.92608642578125,-27.12055778503418,-18.35464859008789
1633781803890345200,17.74034521484375,31.520538330078125,-27.576101303100586,-18.683391571044922
1633781803910224000,17.760223876953123,31.94610595703125,-27.08580207824707,-19.304935455322266
1633781803930103000,17.78010302734375,32.8087158203125,-25.998537063598633,-19.80556869506836
1633781803949982000,17.79998193359375,33.9219970703125,-24.716108322143555,-19.77810287475586
1633781803969861000,17.819861083984375,34.19091796875,-24.12192726135254,-19.86782455444336
1633781803989739500,17.839739501953126,33.812530517578125,-24.12872886657715,-20.546611785888672
1633781804009619500,17.859619384765626,33.514312744140625,-23.671667098999023,-21.26224136352539
1633781804029498600,17.87949853515625,33.072601318359375,-23.3537654876709,-22.580745697021484
1633781804049377500,17.89937744140625,32.58740234375,-22.749101638793945,-24.423686981201172
1633781804069256400,17.91925634765625,32.159881591796875,-22.258703231811523,-25.68569564819336
1633781804089135400,17.93913525390625,31.397857666015625,-22.1632022857666,-26.900997161865234
1633781804109014500,17.9590146484375,31.127838134765625,-22.657442092895508,-26.86800765991211
1633781804128893400,17.9788935546875,30.31524658203125,-23.014524459838867,-26.72415542602539
1633781804148772400,17.9987724609375,31.147796630859375,-23.33437156677246,-26.08285140991211
1633781804168651500,18.018651611328124,31.889862060546875,-23.657011032104492,-24.998035430908203
1633781804188530400,18.038530517578124,33.03704833984375,-23.136045455932617,-24.007694244384766
1633781804208409600,18.05840966796875,33.443695068359375,-22.314428329467773,-23.971630096435547
1633781804228288500,18.07828857421875,33.988922119140625,-21.52168846130371,-24.434940338134766
1633781804248167400,18.09816748046875,33.440216064453125,-20.796152114868164,-25.246273040771484
1633781804268046300,18.11804638671875,32.830902099609375,-20.9942684173584,-26.75546646118164
1633781804287925500,18.137925537109375,31.24432373046875,-21.697843551635742,-27.63650131225586
1633781804307804700,18.1578046875,30.128662109375,-22.741647720336914,-28.06429672241211
1633781804327683300,18.177683349609374,29.98974609375,-24.044187545776367,-27.65762710571289
1633781804347562500,18.1975625,29.737640380859375,-25.133390426635742,-27.051769256591797
1633781804367441400,18.21744140625,30.53399658203125,-25.428152084350586,-25.692211151123047
1633781804387320600,18.237320556640626,31.689971923828125,-25.076692581176758,-24.912525177001953
1633781804407199500,18.257199462890625,32.5020751953125,-24.747045516967773,-23.899974822998047
1633781804427078400,18.277078369140625,33.7999267578125,-24.28706169128418,-22.837329864501953
1633781804446957600,18.29695751953125,34.724945068359375,-24.374605178833008,-21.941524505615234
1633781804466837500,18.31683740234375,35.154632568359375,-24.4500675201416,-21.217838287353516
1633781804486716400,18.33671630859375,35.54730224609375,-24.41034507751465,-20.546939849853516
1633781804506595300,18.35659521484375,35.907470703125,-24.397947311401367,-20.234127044677734
1633781804526474500,18.376474609375,35.79083251953125,-24.0648136138916,-20.399219512939453
1633781804546353700,18.396353759765624,35.4951171875,-24.310121536254883,-20.97774887084961
1633781804566232300,18.416232421875,34.95513916015625,-24.32960319519043,-21.742359161376953
1633781804586111500,18.436111572265624,35.61553955078125,-24.036741256713867,-22.852252960205078
1633781804605990400,18.455990478515623,34.61529541015625,-23.18031883239746,-24.138629913330078
1633781804625869600,18.47586962890625,34.881256103515625,-22.69731330871582,-24.339839935302734
1633781804645748500,18.49574853515625,35.16766357421875,-22.954370498657227,-24.42813491821289
1633781804665627400,18.51562744140625,34.283660888671875,-23.421918869018555,-25.097553253173828
1633781804685506600,18.535506591796874,33.477142333984375,-23.490896224975586,-26.16238021850586
1633781804705385500,18.555385498046874,33.049407958984375,-23.041948318481445,-27.049999237060547
1633781804725264600,18.5752646484375,32.630523681640625,-22.295385360717773,-27.974414825439453
1633781804745143300,18.595143310546874,32.588287353515625,-21.69288444519043,-28.788921356201172
1633781804765022500,18.6150224609375,31.87994384765625,-21.45479393005371,-29.42435073852539
1633781804784901400,18.6349013671875,31.800048828125,-21.38617515563965,-29.773853302001953
1633781804804780500,18.654780517578125,31.69122314453125,-21.381338119506836,-29.855915069580078
1633781804824659700,18.67465966796875,31.657806396484375,-21.464235305786133,-29.935070037841797
1633781804844538400,18.694538330078124,31.88360595703125,-21.475202560424805,-29.758220672607422
1633781804864417500,18.71441748046875,32.485504150390625,-21.23029136657715,-29.27199935913086
1633781804884296400,18.73429638671875,33.253509521484375,-20.909589767456055,-28.859973907470703
1633781804904175600,18.754175537109376,33.73443603515625,-20.532407760620117,-28.598819732666016
1633781804924054300,18.77405419921875,33.90472412109375,-20.374025344848633,-28.242420196533203
1633781804943934500,18.7939345703125,33.942596435546875,-19.641267776489258,-28.256420135498047
1633781804963813600,18.813813720703124,34.0972900390625,-18.71308708190918,-28.942394256591797
1633781804983692300,18.8336923828125,34.565399169921875,-17.688817977905273,-29.74570083618164
1633781805003575600,18.853575439453124,34.024169921875,-17.119871139526367,-30.173297882080078
1633781805023454500,18.873454345703124,33.98162841796875,-17.34954261779785,-30.253719329833984
1633781805043333600,18.893333740234375,33.975250244140625,-18.1859073638916,-30.002979278564453
1633781805063212300,18.91321240234375,33.5257568359375,-18.596853256225586,-29.425914764404297
1633781805083091500,18.933091552734375,33.65155029296875,-19.0022029876709,-29.496646881103516
1633781805102970400,18.952970458984375,33.591766357421875,-19.0336856842041,-29.468677520751953
1633781805122849500,18.972849609375,33.4368896484375,-18.79274559020996,-29.71987533569336
1633781805142728400,18.992728515625,33.861785888671875,-18.337934494018555,-29.572704315185547
1633781805162607400,19.012607421875,34.296844482421875,-18.38856315612793,-28.908710479736328
1633781805182486500,19.032486572265626,34.82061767578125,-18.576814651489258,-27.659687042236328
1633781805202365400,19.052365478515625,34.972930908203125,-18.954381942749023,-27.04587173461914
1633781805222244600,19.07224462890625,34.57904052734375,-19.84620475769043,-27.125751495361328
1633781805242123300,19.092123291015625,33.9095458984375,-20.25901985168457,-27.072147369384766
1633781805262002400,19.11200244140625,33.94384765625,-20.513830184936523,-26.921001434326172
1633781805281881600,19.131881591796876,34.451202392578125,-20.47663688659668,-26.36697006225586
1633781805301760500,19.151760498046876,35.116912841796875,-19.74400520324707,-26.664318084716797
1633781805321639400,19.171639404296876,35.3665771484375,-18.705503463745117,-26.781330108642578
1633781805341518300,19.191518310546876,35.63323974609375,-17.48160743713379,-26.681072235107422
1633781805361398500,19.2113984375,36.085357666015625,-16.753042221069336,-25.970867156982422
1633781805381277400,19.23127734375,37.03863525390625,-16.86907386779785,-25.229915618896484
1633781805401156400,19.25115625,37.21659851074219,-16.376096725463867,-24.777393341064453
1633781805421035500,19.271035400390623,36.626190185546875,-16.477636337280273,-25.45102310180664
1633781805440914400,19.29091455078125,35.755340576171875,-16.29865074157715,-26.72622299194336
1633781805460793600,19.310793701171875,34.70184326171875,-15.892759323120117,-27.592037200927734
1633781805480672300,19.33067236328125,33.94598388671875,-16.265893936157227,-28.679950714111328
1633781805500551400,19.350551513671874,33.827667236328125,-16.223417282104492,-29.208873748779297
1633781805520430600,19.3704306640625,33.08135986328125,-16.249494552612305,-29.35598373413086
1633781805540309500,19.3903095703125,32.53179931640625,-16.611215591430664,-29.315837860107422
1633781805560188400,19.4101884765625,32.184051513671875,-16.60030174255371,-29.532550811767578
1633781805580067300,19.4300673828125,32.8182373046875,-16.5222110748291,-29.569347381591797
1633781805599946500,19.449946533203125,32.573333740234375,-16.859060287475586,-29.42538833618164
1633781805619825400,19.469825439453125,32.97491455078125,-16.983213424682617,-28.938274383544922
1633781805639704600,19.48970458984375,33.0411376953125,-16.908117294311523,-28.38784408569336
1633781805659583500,19.50958349609375,33.549407958984375,-16.671979904174805,-27.45907974243164
1633781805679462400,19.52946240234375,33.9527587890625,-16.35576057434082,-27.340984344482422
1633781805699341600,19.549341552734376,34.277099609375,-15.577775955200195,-27.642658233642578
1633781805719221200,19.56922119140625,33.615814208984375,-14.911233901977539,-28.36532974243164
1633781805739100400,19.589100341796875,33.069488525390625,-14.948270797729492,-28.25106430053711
1633781805758979600,19.6089794921875,33.523223876953125,-15.264734268188477,-28.182872772216797
1633781805778858500,19.6288583984375,33.530975341796875,-15.490468978881836,-27.850879669189453
1633781805798737400,19.6487373046875,34.036041259765625,-15.934736251831055,-27.241840362548828
1633781805818616300,19.6686162109375,33.69403076171875,-15.572870254516602,-27.27102279663086
1633781805838495500,19.68849560546875,34.166412353515625,-15.567930221557617,-26.890613555908203
1633781805858374400,19.70837451171875,34.233642578125,-15.337949752807617,-26.426288604736328
1633781805878253600,19.728253662109374,34.977386474609375,-15.54460334777832,-25.396442413330078
1633781805898132500,19.748132568359374,35.47247314453125,-15.730470657348633,-24.24013900756836
1633781805918011400,19.768011474609374,35.52471923828125,-16.5219669342041,-23.011821746826172
1633781805937890600,19.787890625,35.372528076171875,-16.903715133666992,-22.594074249267578
1633781805957769500,19.80776953125,34.87908935546875,-17.459558486938477,-22.465106964111328
1633781805977648400,19.8276484375,34.53961181640625,-18.049802780151367,-22.827098846435547
1633781805997523700,19.847523681640624,34.06109619140625,-18.42582893371582,-22.713207244873047
1633781806017404000,19.86740380859375,33.442291259765625,-18.717344284057617,-22.63522720336914
1633781806037282800,19.88728271484375,33.1905517578125,-18.94105339050293,-23.265995025634766
1633781806057161700,19.90716162109375,32.7562255859375,-18.329744338989258,-24.171009063720703
1633781806077041000,19.927041015625,32.377288818359375,-17.161218643188477,-25.417247772216797
1633781806096919800,19.946919921875,32.803253173828125,-16.01243019104004,-25.38961410522461
1633781806116799000,19.966799072265626,33.790924072265625,-15.645631790161133,-24.704601287841797
1633781806136677600,19.986677734375,34.02740478515625,-15.524042129516602,-24.266895294189453
1633781806156556800,20.006556884765626,33.739959716796875,-15.75920295715332,-24.584903717041016
1633781806176436000,20.02643603515625,32.959930419921875,-16.09684944152832,-24.861255645751953
1633781806196315000,20.04631494140625,32.03118896484375,-15.960691452026367,-25.697307586669922
1633781806216193800,20.06619384765625,31.447723388671875,-15.644586563110352,-26.349720001220703
1633781806236072700,20.08607275390625,31.4954833984375,-15.566965103149414,-26.785655975341797
1633781806255952000,20.105951904296877,31.603790283203125,-15.551916122436523,-26.447834014892578
1633781806275830800,20.125830810546876,31.2310791015625,-15.635557174682617,-26.264156341552734
1633781806295710000,20.1457099609375,32.14300537109375,-15.892560958862305,-25.841190338134766
1633781806315588900,20.1655888671875,32.18585205078125,-15.982660293579102,-25.84396743774414
1633781806335468800,20.18546875,32.29388427734375,-16.01995277404785,-25.483295440673828
1633781806355348000,20.205347900390624,32.23291015625,-15.833406448364258,-24.954631805419922
1633781806375226600,20.2252265625,32.876922607421875,-15.240602493286133,-24.660900115966797
1633781806395105800,20.245105712890624,33.357421875,-14.682439804077148,-24.337329864501953
1633781806414985000,20.26498486328125,33.1768798828125,-14.309904098510742,-24.726245880126953
1633781806434863900,20.28486376953125,33.139923095703125,-13.950151443481445,-24.849536895751953
1633781806454742800,20.30474267578125,32.976165771484375,-13.717229843139648,-25.619136810302734
1633781806474621700,20.32462158203125,32.64495849609375,-13.471193313598633,-25.777156829833984
1633781806494500900,20.3445009765625,32.299407958984375,-14.066450119018555,-25.933979034423828
1633781806514379800,20.3643798828125,32.030120849609375,-14.612222671508789,-25.974979400634766
1633781806534259000,20.384259033203126,31.40240478515625,-14.691308975219727,-26.12752914428711
1633781806554137900,20.404137939453125,31.202239990234375,-15.139745712280273,-26.473270416259766
1633781806574016800,20.424016845703125,30.92041015625,-15.376501083374023,-26.82022476196289
1633781806593896000,20.44389599609375,30.30889892578125,-15.498193740844727,-27.224224090576172
1633781806613774800,20.46377490234375,30.080230712890625,-15.834146499633789,-26.890094757080078
1633781806633653800,20.48365380859375,30.258636474609375,-16.377992630004883,-26.33963394165039
1633781806653532700,20.50353271484375,30.57183837890625,-16.706178665161133,-25.95584487915039
1633781806673412900,20.523412841796876,30.307525634765625,-16.575658798217773,-25.761432647705078
1633781806693291800,20.543291748046876,30.320556640625,-16.405595779418945,-25.563053131103516
1633781806713170700,20.563170654296876,31.1378173828125,-16.309438705444336,-25.218494415283203
1633781806733049900,20.5830498046875,30.769775390625,-16.261335372924805,-24.934223175048828
