time,seconds_elapsed,z,y,x
1633782693604018700,0.010018798828125,-8.405176936411857,-4.982247730067372,0.8370144493736327
1633782693623896800,0.029896728515625,-8.427864569038153,-4.942683781442046,0.8434204439584165
1633782693643775700,0.049775634765625,-8.448181380879879,-4.905731476619839,0.855808143301308
1633782693663655000,0.069655029296875,-8.466592066839336,-4.872204470071196,0.865345786975324
1633782693683533600,0.089533447265625,-8.488782855859398,-4.833942543955147,0.8625259803142398
1633782693703412700,0.109412841796875,-8.516571026495098,-4.783604980120063,0.8692097689270972
1633782693723290600,0.12929052734375,-8.548096045571565,-4.72230733859241,0.8945684473935515
1633782693743169800,0.149169677734375,-8.574525787335634,-4.664583171637356,0.9431622363012283
1633782693763048700,0.169048583984375,-8.587351951161027,-4.630381042306125,0.9936538947194814
1633782693782928000,0.188927978515625,-8.583902687489985,-4.630649630114436,1.021802276969701
1633782693802805800,0.2088056640625,-8.566392165240645,-4.66307422837913,1.0212987844269723
1633782693822684700,0.2286845703125,-8.543732589665055,-4.7098964775696395,0.9959402520909905
1633782693842563800,0.248563720703125,-8.525522979235648,-4.7488916863963,0.9663714085835963
1633782693862442800,0.26844287109375,-8.525269881257413,-4.755122397479415,0.9375322675902396
1633782693882324700,0.28832470703125,-8.548095461049675,-4.723899576219916,0.8861305816549807
1633782693902203000,0.308202880859375,-8.576396257382632,-4.680437743373215,0.8422121641471981
1633782693922081800,0.328081787109375,-8.603342716497183,-4.64045323124826,0.7868106679860501
1633782693941960700,0.347960693359375,-8.61710937604308,-4.624125196781754,0.7302552525494247
1633782693961839600,0.367839599609375,-8.618221721199154,-4.6332247412994505,0.6556460748322308
1633782693981717800,0.3877177734375,-8.611064250659942,-4.658626601320504,0.5631704741001129
1633782694001596700,0.4075966796875,-8.600645147976278,-4.687748358647525,0.4736127335760742
1633782694021475800,0.427475830078125,-8.593650174522399,-4.70750870565027,0.39865039503965527
1633782694041354800,0.447354736328125,-8.595450501942635,-4.708903082618117,0.3388831048844382
1633782694061233700,0.467233642578125,-8.605950268647074,-4.692511627526581,0.2972236270182766
1633782694081111600,0.487111572265625,-8.626709563559293,-4.6559828088134525,0.26849863219019027
1633782694100990700,0.50699072265625,-8.653527427858114,-4.607207964250445,0.2459214742010459
1633782694120869600,0.52686962890625,-8.680082841828465,-4.558317676614225,0.21972654583984985
1633782694140748800,0.546748779296875,-8.698565423980355,-4.523891383138299,0.19937820634869857
1633782694160626700,0.566626708984375,-8.710393224418162,-4.5018850107744335,0.18020015274593607
1633782694180505900,0.586505859375,-8.718030587428808,-4.4875914047449825,0.1668925255465321
1633782694200384800,0.606384765625,-8.726514922657609,-4.4712470036655665,0.1620895274452865
1633782694220263700,0.626263671875,-8.734929699781537,-4.454413942286372,0.17198986695185303
1633782694240142800,0.646142822265625,-8.740671458303927,-4.442135767732561,0.1961520839090459
1633782694260020700,0.666020751953125,-8.738173796269297,-4.4456247788921,0.22610121370460837
1633782694279900000,0.68589990234375,-8.730026145648957,-4.459171658207476,0.2698371507849544
1633782694299778800,0.70577880859375,-8.728760655757783,-4.457537042742968,0.3308879048794508
1633782694319657700,0.72565771484375,-8.751326707831025,-4.411902542032301,0.34610034278687085
1633782694339535600,0.74553564453125,-8.787388785815239,-4.344518566328287,0.2781129030306823
1633782694359414800,0.765414794921875,-8.813640832924841,-4.296135059170425,0.1825982268636115
1633782694379293700,0.785293701171875,-8.818388904234766,-4.288863022340834,0.10977753999838605
1633782694399172900,0.8051728515625,-8.799908075648545,-4.327119980020821,0.08962377323126419
1633782694419051500,0.825051513671875,-8.756472838547825,-4.414558024977147,0.07905593712613918
1633782694438930000,0.844929931640625,-8.685814078956842,-4.552393547262251,0.05231716137893963
1633782694458808600,0.86480859375,-8.589484287014603,-4.731878884536028,0.021533217877184506
1633782694478687700,0.884687744140625,-8.481531861817837,-4.922741648131609,-0.024811125303001606
1633782694498567000,0.90456689453125,-8.373797463285923,-5.103475231900811,-0.06663354092920198
1633782694518444800,0.92444482421875,-8.288637884655595,-5.2402901789665215,-0.09071317590316758
1633782694538323700,0.94432373046875,-8.245306692451239,-5.30793748178184,-0.10538918711263685
1633782694558202600,0.96420263671875,-8.24537741959989,-5.308005286321044,-0.09598997466177679
1633782694578081800,0.984081787109375,-8.269196102082729,-5.271484943175316,-0.04714396912527736
1633782694597960700,1.003960693359375,-8.300652732098103,-5.222025038957596,0.0027020026674261315
1633782694617838800,1.0238388671875,-8.328975155740975,-5.1766749081462615,0.024385755480802615
1633782694637717800,1.0437177734375,-8.352384672901033,-5.138804903957247,0.02713455643202178
1633782694657597000,1.063596923828125,-8.368199497148394,-5.113030995753407,0.02301853366465075
1633782694677475600,1.0834755859375,-8.377499824935198,-5.0977913410454985,0.02022761973791057
1633782694697353700,1.103353759765625,-8.384796411684155,-5.085792275694012,0.017174337681091854
1633782694717232600,1.123232666015625,-8.392933540910482,-5.072352948406339,0.01702582345533883
1633782694737111800,1.14311181640625,-8.39976075658202,-5.060981075042486,0.029536142247612588
1633782694756990700,1.16299072265625,-8.408065059068798,-5.047078221896291,0.0427808237460209
1633782694776868900,1.182868896484375,-8.416619536924362,-5.0327650343835355,0.04661070249879267
1633782694796747800,1.202747802734375,-8.427436114493013,-5.014624397537112,0.047324718819931146
1633782694816626700,1.222626708984375,-8.437758771064876,-4.997202722615003,0.05071851684353314
1633782694836505600,1.242505615234375,-8.445174015757441,-4.98458289501667,0.0579144516630331
1633782694856384800,1.262384765625,-8.450541680270433,-4.975376675254107,0.06601437698439695
1633782694876259000,1.282259033203125,-8.453936583405733,-4.969374804490805,0.08152763360245152
1633782694896138200,1.30213818359375,-8.459001465579867,-4.960308869981765,0.10493988157571293
1633782694916017200,1.32201708984375,-8.464407708537578,-4.950280812442302,0.13749143068832345
1633782694935896000,1.34189599609375,-8.469716920861602,-4.940038819891214,0.1740500508846715
1633782694955774000,1.36177392578125,-8.467442546188831,-4.9416947704046965,0.22902603337643668
1633782694975653000,1.381653076171875,-8.465038992178439,-4.942943893682957,0.28425642902068793
1633782694995532000,1.401531982421875,-8.472716687199473,-4.929006553745269,0.29723902551680803
1633782695015411200,1.4214111328125,-8.491934597888589,-4.896875093208253,0.27937461179587986
1633782695035290000,1.4412900390625,-8.529298990643024,-4.833103170521557,0.25011525436276566
1633782695055168300,1.461168212890625,-8.581311501953005,-4.740261512956023,0.2477793404947966
1633782695075047000,1.481046875,-8.62772195547223,-4.653071889802813,0.28587319830125196
1633782695094926000,1.500926025390625,-8.646524855619669,-4.614592229282856,0.3369348568934947
1633782695114805000,1.520804931640625,-8.632672271355986,-4.636335859057307,0.38953656626828015
1633782695134683100,1.54068310546875,-8.59605489757657,-4.701519402107596,0.41706568410899486
1633782695154562000,1.56056201171875,-8.547288236320018,-4.79151648389697,0.3944760319644585
1633782695174441200,1.580441162109375,-8.494010819640755,-4.890128249296546,0.3298632380068302
1633782695194320100,1.600320068359375,-8.451720076400042,-4.967922852116823,0.24196698268791658
1633782695214199000,1.620198974609375,-8.440442895582319,-4.99068179641366,0.14965755056925117
1633782695234077000,1.640076904296875,-8.476632983860373,-4.930747844454646,0.0693751814872725
1633782695253956000,1.6599560546875,-8.55483675200343,-4.794254384428262,0.016738843757100403
1633782695273835300,1.679835205078125,-8.653202433687447,-4.614375371661782,-0.003090987429047527
1633782695293714000,1.6997138671875,-8.744941975229978,-4.438058143030107,-0.0038030429760736294
1633782695313592300,1.71959228515625,-8.810263465446234,-4.306929717168211,-0.00018302868428099828
1633782695333471000,1.739470947265625,-8.84303819232285,-4.239228638339043,-0.0005258010218634809
1633782695353350100,1.75935009765625,-8.85519858571589,-4.213748744645715,-0.012899461957043968
1633782695373229000,1.77922900390625,-8.861483949595689,-4.200197189155221,-0.053197081452049315
1633782695393107200,1.799107177734375,-8.868820283833145,-4.183331102289259,-0.11898491053842007
1633782695412986000,1.818986083984375,-8.877902584955097,-4.161654984793067,-0.18399998342031612
1633782695432865000,1.838864990234375,-8.891556431776285,-4.129792696586251,-0.23541136876568197
1633782695452744000,1.858743896484375,-8.905307309231162,-4.098776503814757,-0.2567344167741947
1633782695472623000,1.878623046875,-8.91238002409637,-4.083903344331682,-0.248206443333067
1633782695492501000,1.8985009765625,-8.905506631195545,-4.100269080460071,-0.22388934634141622
1633782695512380200,1.918380126953125,-8.883575954416393,-4.148837588796019,-0.19900544577986
1633782695532259000,1.938259033203125,-8.850226058000326,-4.220419600711763,-0.17873294800389558
1633782695552138000,1.958137939453125,-8.817380019453168,-4.289594551485776,-0.15351526717701927
1633782695572016000,1.97801611328125,-8.792731900408864,-4.341272131752968,-0.10772896430497057
1633782695591895000,1.99789501953125,-8.78100756034553,-4.36609034666717,-0.03926162294419482
1633782695611774000,2.01777392578125,-8.78223680987954,-4.3637025747478,0.028387737114180342
1633782695631653000,2.037653076171875,-8.801594421300292,-4.3241313195988536,0.06485793695827015
1633782695651532300,2.0575322265625,-8.837343780073523,-4.250653995455801,0.06069330982579849
1633782695671410200,2.07741015625,-8.882535505452752,-4.155738454225659,0.027953560647729317
1633782695691289000,2.0972890625,-8.921224424809218,-4.072069990935922,0.019479221656557636
1633782695711168000,2.11716796875,-8.940679066863655,-4.028704896461964,0.06461559326949064
1633782695731047200,2.137047119140625,-8.931540067118405,-4.047150069212913,0.13618562705307266
1633782695750925000,2.156925048828125,-8.898338639262318,-4.117077007398009,0.1990743828302249
1633782695770804200,2.17680419921875,-8.855973077219724,-4.2046822256147856,0.2505411150920205
1633782695790683100,2.19668310546875,-8.821483363118768,-4.272854721347987,0.30745588362663984
1633782695810562000,2.21656201171875,-8.802804381611942,-4.305347708673775,0.38079485874492675
1633782695830441000,2.23644091796875,-8.801546490505338,-4.30028341102153,0.45904721527006476
1633782695850319000,2.256319091796875,-8.810265219011903,-4.272111501765251,0.5465041841225698
1633782695870198000,2.276197998046875,-8.818937770289182,-4.2408793281555175,0.6416141884788871
1633782695890078000,2.296077880859375,-8.821075951361655,-4.223047903388738,0.7244795917574316
1633782695909956600,2.31595654296875,-8.818148665738105,-4.221026334433257,0.7704367485512048
1633782695929834800,2.335834716796875,-8.813874641680718,-4.228422874425352,0.7787407587770372
1633782695949713700,2.355713623046875,-8.814293743875622,-4.2308556545302265,0.7605749874893576
1633782695969592800,2.3755927734375,-8.816938705426454,-4.230170594875514,0.7332322225335985
1633782695989471700,2.3954716796875,-8.817781001469493,-4.233853375041485,0.7011510308790951
1633782696009350000,2.415349853515625,-8.815240084815025,-4.246758449321985,0.6534255492385477
1633782696029228800,2.435228759765625,-8.807289418071507,-4.2721559254288675,0.592220481365174
1633782696049107700,2.455107666015625,-8.78912130869627,-4.3172778004422785,0.5318309311257675
1633782696068986600,2.474986572265625,-8.76081057549119,-4.3795229519531125,0.488220300925523
1633782696088865800,2.49486572265625,-8.72224089860022,-4.4583147491171955,0.4651057846566662
1633782696108743700,2.51474365234375,-8.675358735916017,-4.549594271932542,0.4579634020887315
1633782696128622800,2.534622802734375,-8.624877671957016,-4.644933591532707,0.454376556577906
1633782696148501800,2.554501708984375,-8.576420222780108,-4.734353750216961,0.44865901918131856
1633782696168380700,2.574380615234375,-8.532487557551264,-4.815260055316984,0.4246344023302197
1633782696188258600,2.594258544921875,-8.49512258027494,-4.885068335558474,0.37334943810980764
1633782696208137700,2.6141376953125,-8.46619283838868,-4.938154321318865,0.3295365998683497
1633782696228017000,2.634016845703125,-8.458084935256839,-4.952922266861796,0.31582897703330964
1633782696247895800,2.653895751953125,-8.48333452732563,-4.9084138475716115,0.33301147290468214
1633782696267774700,2.673774658203125,-8.54728297562301,-4.792844517630338,0.37812015964295714
1633782696287652600,2.693652587890625,-8.641064252126217,-4.61697064885199,0.43124790218584236
1633782696307531800,2.71353173828125,-8.744516443294286,-4.412669142490625,0.48183494726996867
1633782696327410700,2.73341064453125,-8.834333492341637,-4.224315439106523,0.5292391610668972
1633782696347289900,2.753289794921875,-8.890824025848508,-4.099169594785571,0.5660722964888438
1633782696367167700,2.773167724609375,-8.900016801607608,-4.07761184297204,0.57721116481442
1633782696387047000,2.793046875,-8.855543453630805,-4.178009615005553,0.5421924218706786
1633782696406925600,2.812925537109375,-8.764619904646278,-4.374497525006532,0.46432172160688784
1633782696426804700,2.8328046875,-8.654768367829918,-4.598983156740665,0.338702122294344
1633782696446682600,2.8526826171875,-8.564570210510492,-4.77364092772752,0.17569818341787904
1633782696466561800,2.872561767578125,-8.529683606046438,-4.838884384271502,-0.00876035742489621
1633782696486440700,2.892440673828125,-8.550421273648737,-4.798966215381026,-0.17493784830356016
1633782696506320000,2.91231982421875,-8.601214472296833,-4.702197155238688,-0.2807716373785399
1633782696526198800,2.93219873046875,-8.657766380602121,-4.5948558476775885,-0.3174382753934711
1633782696546076700,2.95207666015625,-8.705489670285582,-4.504345847930014,-0.30935579896382986
1633782696565955600,2.97195556640625,-8.735825771838426,-4.445685861429572,-0.30268269614176824
1633782696585834800,2.991834716796875,-8.74904181176424,-4.418286397850514,-0.32156010456383227
1633782696605714000,3.0117138671875,-8.749112538912891,-4.413819481569528,-0.3763060959583148
1633782696625591800,3.031591796875,-8.74174931666851,-4.421448953534663,-0.4505409239377826
1633782696645471000,3.051470947265625,-8.73401024684906,-4.4287420331522815,-0.5231517674446106
1633782696665349600,3.071349609375,-8.735756798255442,-4.418355663694441,-0.5788577995102853
1633782696685228800,3.091228759765625,-8.744926777660845,-4.39584747928828,-0.6108702367775142
1633782696705106700,3.111106689453125,-8.754666081386803,-4.3769136462375515,-0.6073193028302862
1633782696724985900,3.13098583984375,-8.755299703115224,-4.38146824080199,-0.5637812629422173
1633782696744864800,3.15086474609375,-8.7420503454417,-4.414772836771607,-0.5066705882430076
1633782696764743700,3.17074365234375,-8.712613238555193,-4.480120338211953,-0.4350601174177602
1633782696784622600,3.19062255859375,-8.673165609785913,-4.565303297717869,-0.32340153117943554
1633782696804500700,3.210500732421875,-8.63382319495678,-4.64681107584238,-0.18608455287571996
1633782696824379600,3.230379638671875,-8.611446527975797,-4.691571131806075,-0.050360026828642
1633782696844258800,3.2502587890625,-8.620086930549144,-4.675586796210706,0.058124153457535424
1633782696864137700,3.2701376953125,-8.667137435537576,-4.586177158920466,0.1345068436532747
1633782696884015000,3.29001513671875,-8.73632261544466,-4.449748580823838,0.2163105085849762
1633782696903894000,3.30989404296875,-8.795414855882525,-4.323806325428188,0.34022852814402427
1633782696923773000,3.32977294921875,-8.82185161190927,-4.259380615007877,0.4505496187008917
1633782696943651800,3.34965185546875,-8.81243145713508,-4.274646865461767,0.4887017277669161
1633782696963531000,3.369531005859375,-8.77141906326711,-4.361563516892493,0.4575522640045732
1633782696983409000,3.389408935546875,-8.714235286799072,-4.48056369806528,0.3962737655688077
1633782697003288000,3.4092880859375,-8.66265707525313,-4.584236838507652,0.3369426383411512
1633782697023167000,3.4291669921875,-8.641387492731212,-4.627409917540848,0.2896397842931561
1633782697043046000,3.4490458984375,-8.660869607314467,-4.592424528877437,0.26335427330536765
1633782697062924000,3.468924072265625,-8.712424437984824,-4.493557327412068,0.26831428859923034
1633782697082803000,3.488802978515625,-8.77468537158668,-4.369665282544493,0.2851319149472751
1633782697102682000,3.50868212890625,-8.828775273692607,-4.259721391269564,0.2790793003774248
1633782697122561000,3.52856103515625,-8.861898375615477,-4.193026274612546,0.23594200504366308
1633782697142439000,3.54843896484375,-8.871206302186847,-4.17648459739536,0.17045074775107205
1633782697162318000,3.568318115234375,-8.861659890684486,-4.198743190954626,0.10919046995858661
1633782697182197000,3.588197021484375,-8.842227460461855,-4.240363195326924,0.06867891088537871
1633782697202076000,3.608075927734375,-8.822252009403705,-4.282221684630215,0.028865880586521234
1633782697221955000,3.627955078125,-8.808790470284222,-4.309912240110338,-0.015815268346999072
1633782697241833000,3.6478330078125,-8.801492129969596,-4.324436147764325,-0.058066747014760035
1633782697261712100,3.667712158203125,-8.79822056095302,-4.330408207911253,-0.09622608497259207
1633782697281591000,3.687591064453125,-8.792184203398227,-4.341945208708942,-0.12404227612637914
1633782697301470000,3.707469970703125,-8.778481841260195,-4.36945748501271,-0.1283569335882552
1633782697321347800,3.727347900390625,-8.752208751362561,-4.422606599137187,-0.09888535817656666
1633782697341227000,3.74722705078125,-8.71440655171275,-4.497320479337871,-0.06007835169865284
1633782697361106000,3.76710595703125,-8.674455649596451,-4.57406761893183,-0.045893069448461755
1633782697380985000,3.786985107421875,-8.649056419923902,-4.622018872152268,-0.03380918449088931
1633782697400863000,3.806863037109375,-8.656768017214537,-4.6076843495905395,0.00041561001197242144
1633782697420742100,3.8267421875,-8.715749198493361,-4.494910787847638,0.043339192847721274
1633782697440620800,3.846620849609375,-8.817717873105407,-4.290673286633194,0.09142895035655237
1633782697460500000,3.8665,-8.931730036732555,-4.045700162665546,0.16399866726854814
1633782697480377900,3.8863779296875,-9.028608694729208,-3.817756207171082,0.2816745775676332
1633782697500257000,3.906257080078125,-9.090462216573954,-3.6519399142876265,0.44408714468851684
1633782697520136200,3.92613623046875,-9.11308788987994,-3.5735482223570343,0.5930987255044281
1633782697540015000,3.94601513671875,-9.100039023214578,-3.5934099839076397,0.6686405809618532
1633782697559894000,3.96589404296875,-9.050027330332995,-3.7184421387210485,0.663757996552065
1633782697579772000,3.98577197265625,-8.967488163334131,-3.924655616183579,0.5929787889191881
1633782697599651000,4.005651123046875,-8.868976351177691,-4.156598578186333,0.48408133795727043
1633782697619530000,4.025530029296875,-8.780833957344294,-4.349984722779691,0.38075781467016784
1633782697639409200,4.0454091796875,-8.723404097160696,-4.470213861225545,0.2996490458006039
1633782697659287000,4.065287109375,-8.697751184988022,-4.522334801346063,0.2607588865173049
1633782697679166000,4.085166015625,-8.69603853585124,-4.5242011797398325,0.28443008682085197
1633782697699044900,4.105044921875,-8.71780320841372,-4.477527106848359,0.34934761761240657
1633782697718924000,4.124924072265625,-8.759548008209466,-4.391023420132696,0.39951654688231647
1633782697738803000,4.144802978515625,-8.807424442628026,-4.29135191654712,0.428897320471704
1633782697758681000,4.16468115234375,-8.84619168791771,-4.20810752388835,0.45509266895800826
1633782697778560000,4.18456005859375,-8.869890543413161,-4.155664219945669,0.47526404444705694
1633782697798439000,4.20443896484375,-8.875760896751284,-4.142571514138579,0.47994657624009995
1633782697818317800,4.22431787109375,-8.863241606917978,-4.169986759808659,0.4738529720727354
1633782697838196000,4.244196044921875,-8.83324394353926,-4.231516748787462,0.48831510306950654
1633782697858075000,4.264074951171875,-8.794639195334911,-4.306172176799178,0.5306471647012978
1633782697877955000,4.283955078125,-8.753111253160238,-4.38350968350172,0.5816088517840952
1633782697897834000,4.303833984375,-8.708541459071636,-4.4643674732849,0.6333380161080508
1633782697917712000,4.3237119140625,-8.663253872102498,-4.545592635075748,0.6752841106295585
1633782697937591000,4.343591064453125,-8.629318869274854,-4.607435343265533,0.6904939547210931
1633782697957470000,4.363469970703125,-8.615008604371548,-4.6371424992650745,0.6700196142300963
1633782697977349000,4.38334912109375,-8.628483587494491,-4.61749438046515,0.6311884368587285
1633782697997227000,4.40322705078125,-8.677311039027572,-4.530552010071277,0.5905503927284851
1633782698017106200,4.423106201171875,-8.751411463505029,-4.388299840387702,0.5709678499780595
1633782698036984800,4.44298486328125,-8.81909033050239,-4.246130965073406,0.6036517202334478
1633782698056864000,4.462864013671875,-8.860806488725542,-4.149820462353527,0.6599138152793049
1633782698076743000,4.482742919921875,-8.878869384160637,-4.1092976055681705,0.6706229138854891
1633782698096621000,4.50262109375,-8.884206069013477,-4.107684617413581,0.6067849767578766
1633782698116500000,4.5225,-8.877591034787892,-4.137300587998331,0.4914360115690157
1633782698136379000,4.54237890625,-8.856941045469044,-4.1919077919766305,0.391006346559897
1633782698156257800,4.5622578125,-8.830217873716354,-4.252245064039528,0.3406551195256412
1633782698176136000,4.582135986328125,-8.809045321828126,-4.295682931488752,0.34382169379778205
1633782698196014800,4.602014892578125,-8.795658016988634,-4.320742261682451,0.3714452849889174
1633782698215894000,4.62189404296875,-8.787735407295823,-4.335629157429933,0.38523587339967486
1633782698235773000,4.64177294921875,-8.780458694291115,-4.3516617160812014,0.3700922264121473
1633782698255651800,4.66165185546875,-8.767434962067007,-4.379991153986752,0.34371582227051256
1633782698275530000,4.681530029296875,-8.7445836633116,-4.427439426121116,0.31689843289572744
1633782698295409000,4.701408935546875,-8.715441739979386,-4.48664506380558,0.28543769296081734
1633782698315288000,4.7212880859375,-8.689393106487392,-4.539747123917937,0.23563905830802395
1633782698335167000,4.7411669921875,-8.674883519619703,-4.570650503964722,0.1610376072395593
1633782698355044900,4.761044921875,-8.673777019682525,-4.574974796904623,0.07470152760918718
1633782698374924000,4.780924072265625,-8.68244255669713,-4.559095967510342,0.014803291992592857
1633782698394803000,4.800802978515625,-8.693449103879928,-4.538095557318628,-0.003574433268413122
1633782698414681900,4.820681884765625,-8.70131676851511,-4.5229856664702295,0.00817578016546031
1633782698434560000,4.84056005859375,-8.703383053395152,-4.518920316727459,0.029436775809654498
1633782698454439000,4.86043896484375,-8.701544147530198,-4.522032019007206,0.06884174589742906
1633782698474318000,4.880318115234375,-8.695802389007806,-4.531322117660939,0.14325962969306855
1633782698494197000,4.900197021484375,-8.684743234854936,-4.548063701364398,0.24644228320475667
1633782698514076000,4.920075927734375,-8.668553147554396,-4.573188498009741,0.3354314665932208
1633782698533953800,4.939953857421875,-8.650798295155168,-4.601856081828474,0.39622660195883364
1633782698553833000,4.9598330078125,-8.637108792498708,-4.624609765428304,0.42863070542477066
1633782698573712000,4.9797119140625,-8.639045898041129,-4.618846671856939,0.4511335560686886
1633782698593591000,4.999591064453125,-8.665459857714175,-4.564893840134143,0.49187023826781656
1633782698613469000,5.019468994140625,-8.704465587934852,-4.480973740170896,0.5688068360192701
1633782698633348000,5.03934814453125,-8.73151083124876,-4.414878342972695,0.6632883332137018
1633782698653226800,5.059226806640625,-8.728419294974207,-4.409337952241302,0.7367652189653366
1633782698673106000,5.07910595703125,-8.682911343252659,-4.4926945731028916,0.7701507712166756
1633782698692983800,5.09898388671875,-8.596047883313894,-4.657388583958149,0.7662045178089291
1633782698712863000,5.118863037109375,-8.491835813689232,-4.854955813628435,0.6989357659824192
1633782698732742100,5.1387421875,-8.400853812515734,-5.025795779892802,0.580877541834861
1633782698752621000,5.15862109375,-8.347944644626974,-5.124530294889212,0.4705157904740423
1633782698772499000,5.1784990234375,-8.349288460451364,-5.127376916491985,0.41203656736798583
1633782698792377900,5.1983779296875,-8.398807985901833,-5.0457273918092245,0.41357711134087294
1633782698812257000,5.218257080078125,-8.467970369455218,-4.923621353575587,0.4709751150814816
1633782698832136000,5.238135986328125,-8.530210844790934,-4.807423954863846,0.5427385845113545
1633782698852015000,5.25801513671875,-8.572248490053415,-4.72712935192138,0.5841175466693938
1633782698871893000,5.27789306640625,-8.591012227234243,-4.692985090257227,0.5837736651351675
1633782698891772200,5.297772216796875,-8.591489781618117,-4.695043484091759,0.5596928611174226
1633782698911651000,5.317651123046875,-8.585781340843438,-4.708891976702213,0.5301697564478963
1633782698931530200,5.3375302734375,-8.586234345307945,-4.711517064508795,0.49856571731846777
1633782698951408000,5.357408203125,-8.595137782731651,-4.698639755018055,0.46559031677059826
1633782698971287300,5.377287353515625,-8.607264858376979,-4.678084750506281,0.44821631691511715
1633782698991166200,5.397166259765625,-8.616303904879093,-4.66086561241895,0.45389564119316633
1633782699011045000,5.417045166015625,-8.619355693665147,-4.6531043307676905,0.4750889801410958
1633782699030923000,5.436923095703125,-8.612795604497194,-4.662840419623255,0.4980468810761347
1633782699050802200,5.45680224609375,-8.596337806171178,-4.690341590011119,0.5235049282638355
1633782699070681000,5.47668115234375,-8.572586343705654,-4.731455982948839,0.5426495910536497
1633782699090560300,5.496560302734375,-8.549708156943321,-4.771866319270432,0.5496962581621483
1633782699110439400,5.516439453125,-8.536718911510706,-4.794914601902663,0.5510044546838849
1633782699130317300,5.5363173828125,-8.54924287751913,-4.772414016281068,0.552171744897589
1633782699150196200,5.5561962890625,-8.602734813731908,-4.6759965460553765,0.5462575158851221
1633782699170075100,5.5760751953125,-8.69700708862245,-4.501081877698004,0.5222170804103836
1633782699189954300,5.595954345703125,-8.795459279546142,-4.306939361779391,0.5104426175950095
1633782699209832200,5.615832275390625,-8.860441162544488,-4.165860327528417,0.5554929617421701
1633782699229711400,5.63571142578125,-8.880145979967713,-4.114276563024521,0.6213823515068739
1633782699249590300,5.65559033203125,-8.872946423852444,-4.126881777575612,0.6403562973722815
1633782699269469200,5.67546923828125,-8.857793278384209,-4.168479277855158,0.5776333357492461
1633782699289347000,5.69534716796875,-8.834567301097511,-4.228653176049888,0.4891808165207505
1633782699309226200,5.715226318359375,-8.804776558467745,-4.296316260956227,0.43354803235437717
1633782699329105200,5.735105224609375,-8.785303211712836,-4.339825732336938,0.39337588870283213
1633782699348984300,5.754984375,-8.785027901902794,-4.343457366837561,0.3578367386141792
1633782699368862200,5.7748623046875,-8.798831970849633,-4.316026339076459,0.35050164648573845
1633782699388741400,5.794741455078125,-8.815551050460337,-4.280532124108076,0.36535569940954443
1633782699408620000,5.8146201171875,-8.82600873158872,-4.258897507666052,0.36572234076485033
1633782699428499200,5.834499267578125,-8.826967932009696,-4.25965358673036,0.3322294556815177
1633782699448378400,5.85437841796875,-8.820967814812064,-4.275752196355164,0.28081693782499056
1633782699468256300,5.87425634765625,-8.812056778603791,-4.296957481469214,0.23280109493574125
1633782699488135200,5.89413525390625,-8.802385863938927,-4.318201052767038,0.2037723313881084
1633782699508014000,5.91401416015625,-8.790110904255508,-4.34325395321995,0.20120078213335946
1633782699527893200,5.933893310546875,-8.771398605000972,-4.380269094145298,0.21492268922207874
1633782699547771100,5.953771240234375,-8.744570219308137,-4.433444511754811,0.21782345216488463
1633782699567650300,5.973650390625,-8.709609380564093,-4.501985840800404,0.21263015783810987
1633782699587529200,5.993529296875,-8.666955649229884,-4.583020156194269,0.22402628886038436
1633782699607408400,6.013408447265625,-8.622133341684936,-4.6653062252148985,0.2532286554092541
1633782699627286300,6.033286376953125,-8.582233292973042,-4.736268643927574,0.2888238465340808
1633782699647165200,6.053165283203125,-8.553956462037563,-4.784375672231614,0.3316090587608516
1633782699667044000,6.073044189453125,-8.540207922670245,-4.806266893783212,0.36746845377981663
1633782699686923300,6.09292333984375,-8.544667824688553,-4.7979327806800605,0.372662661422044
1633782699706802200,6.11280224609375,-8.57123142196536,-4.7524683758392925,0.34412886005081234
1633782699726680300,6.132680419921875,-8.613751882308721,-4.676941425690055,0.3160384915981442
1633782699746559200,6.152559326171875,-8.657831262531875,-4.594614440137148,0.31915983848907054
1633782699766438100,6.172438232421875,-8.69333395306766,-4.523658158904314,0.3644843599351123
1633782699786317000,6.192317138671875,-8.716489787727594,-4.473532484254241,0.4250872971968725
1633782699806195200,6.2121953125,-8.723015974625945,-4.455432763940095,0.47801031094789503
1633782699826074000,6.23207421875,-8.711206878888607,-4.475182297287881,0.507943348125182
1633782699845953300,6.251953369140625,-8.684044146674871,-4.529202056767046,0.49405613093953576
1633782699865832400,6.27183251953125,-8.639991654458642,-4.617576505790651,0.4459894711785018
1633782699885709300,6.291709228515625,-8.577520877498388,-4.735928159926831,0.4092752128958702
1633782699905588500,6.31158837890625,-8.507717273432016,-4.8620223910138005,0.3871300896484405
1633782699925467100,6.331467041015625,-8.446442428258061,-4.969859957659244,0.35844431258589027
1633782699945346300,6.35134619140625,-8.404064591255784,-5.044072025817632,0.31531346525922416
1633782699965225200,6.37122509765625,-8.385040741834043,-5.078897840005159,0.2574471316208131
1633782699985103400,6.391103271484375,-8.389905717521906,-5.073710208234191,0.1932196471863426
1633782700004982300,6.410982177734375,-8.417357203549146,-5.0298541153728955,0.13801124417819083
1633782700024861400,6.430861328125,-8.459094989082217,-4.9600347292155025,0.11027548871631733
1633782700044740400,6.450740234375,-8.498641986572743,-4.891292909161746,0.13685045677050947
1633782700064618200,6.4706181640625,-8.520043086519836,-4.851795596031844,0.19832323566935955
1633782700084497400,6.490497314453125,-8.519301912763714,-4.851391399145126,0.2363908630560152
1633782700104376300,6.510376220703125,-8.505076403534412,-4.877264383809268,0.21528021568916736
1633782700124255500,6.53025537109375,-8.487148532655835,-4.911160515931249,0.13856106008067726
1633782700144133400,6.55013330078125,-8.467233287352324,-4.947109781190752,0.04940568067929707
1633782700164012500,6.570012451171875,-8.445403148338197,-4.984523858305812,-0.008206204986476222
1633782700183891200,6.58989111328125,-8.419674248319863,-5.0275084290295835,-0.060216659624222665
1633782700203770400,6.609770263671875,-8.39053057142198,-5.073951031252742,-0.15622901964774355
1633782700223649300,6.629649169921875,-8.361928746315836,-5.115066885495185,-0.29090693641845133
1633782700243527400,6.64952734375,-8.33659732118249,-5.146905208304524,-0.42532384589910505
1633782700263406300,6.66940625,-8.312228603601454,-5.179218162888288,-0.5029247162455692
1633782700283285500,6.689285400390625,-8.286452941831946,-5.221943205893039,-0.48620684221126137
1633782700303164200,6.7091640625,-8.259733277210593,-5.270651414960622,-0.40918055688235905
1633782700323042300,6.729042236328125,-8.24392254461646,-5.3020805724471805,-0.3099494905406609
1633782700342921200,6.748921142578125,-8.251058972367645,-5.294968694615363,-0.23175755896586925
1633782700362800400,6.76880029296875,-8.282216327175497,-5.247524806395173,-0.19687806009603664
1633782700382679300,6.78867919921875,-8.325679036805033,-5.178433734512328,-0.19308403810793534
1633782700402557400,6.808557373046875,-8.369149929741024,-5.108832375019788,-0.16596876176511868
1633782700422436400,6.828436279296875,-8.403487668150662,-5.053738848829269,-0.10721766291512176
1633782700442315300,6.848315185546875,-8.424483694428204,-5.019519183841347,-0.05374581964230164
1633782700462194400,6.8681943359375,-8.426442427280545,-5.016441676092148,-0.02760904892584076
1633782700482072300,6.888072265625,-8.408245676332712,-5.046884160628914,-0.027289500398561355
1633782700501951200,6.907951171875,-8.377571721127628,-5.097439458867907,-0.05281781807718798
1633782700521830400,6.927830322265625,-8.350224279996752,-5.141241191193461,-0.10851400460228323
1633782700541709300,6.947709228515625,-8.340944994997978,-5.154610375854372,-0.1703157779934816
1633782700561588200,6.967588134765625,-8.352451892918348,-5.134643692624569,-0.20582407628614455
1633782700581466400,6.98746630859375,-8.374803425458072,-5.097617153522372,-0.217600036938861
1633782700601345300,7.00734521484375,-8.397260171937942,-5.060045255497098,-0.2288135596695356
1633782700621224400,7.027224365234375,-8.414398353743552,-5.029739549082517,-0.2645870847696438
1633782700641103400,7.047103271484375,-8.428653089067339,-5.001999309241771,-0.32893056026659906
1633782700660981500,7.0669814453125,-8.4468539316684,-4.9664159546852105,-0.39465398234724997
1633782700680860200,7.086860107421875,-8.475242990806699,-4.913604986473918,-0.4439887988805771
1633782700700739300,7.1067392578125,-8.512160808837413,-4.846786535698175,-0.4713432177415117
1633782700720618200,7.1266181640625,-8.550982999184727,-4.777789864100516,-0.47307764031868427
1633782700740496400,7.146496337890625,-8.579788822430372,-4.727158870276808,-0.4599763128137216
1633782700760375300,7.166375244140625,-8.586120363539457,-4.718379351493716,-0.43106538522578774
1633782700780254500,7.18625439453125,-8.56964619860053,-4.7512788737937806,-0.39610889386329795
1633782700800133000,7.206133056640625,-8.543098967936634,-4.79844569863826,-0.40095706454683094
1633782700820012300,7.22601220703125,-8.52199597415328,-4.832729953294992,-0.43668227525949477
1633782700839890200,7.24589013671875,-8.522228029343486,-4.829830432461202,-0.4634118767529726
1633782700859769300,7.265769287109375,-8.553339206922054,-4.776700023037195,-0.44034737363830206
1633782700879648500,7.2856484375,-8.618064484810828,-4.667948264156282,-0.33107330791633577
1633782700899527400,7.30552734375,-8.720417190304397,-4.482914060583711,-0.16790084407255051
1633782700919405300,7.3254052734375,-8.862852315339445,-4.197384177561104,-0.046918320842972025
1633782700939284200,7.3452841796875,-9.023362610769272,-3.840481833720207,0.0033819283476506823
1633782700959163400,7.365163330078125,-9.165172881904244,-3.488441542957723,0.027772431927162687
1633782700979042300,7.385042236328125,-9.26368995475769,-3.217444627678394,0.04982192876341287
1633782700998920400,7.40492041015625,-9.312362507990002,-3.0732363554909825,0.07420382091985084
1633782701018799400,7.42479931640625,-9.31572409337759,-3.0628271896794437,0.08219229892310687
1633782701038678500,7.444678466796875,-9.280359350007771,-3.1688962853476403,0.05842350173029117
1633782701058557200,7.46455712890625,-9.214493669912219,-3.356016647544503,0.025409184810984878
1633782701078435300,7.484435302734375,-9.13189020550549,-3.574710544134676,-0.02027451848640339
1633782701098314200,7.504314208984375,-9.051111618438362,-3.773597039709985,-0.08789445608747191
1633782701118193400,7.524193359375,-8.991015753915905,-3.9123344792708754,-0.16017267923960463
1633782701138072300,7.544072265625,-8.961405628550052,-3.9773689692392944,-0.21005661755567415
1633782701157951200,7.563951171875,-8.960167026665806,-3.9792952611267562,-0.2258187983003445
1633782701177829400,7.583829345703125,-8.978299480205774,-3.9386137066483493,-0.21875035775145515
1633782701197708300,7.603708251953125,-9.003324031347036,-3.882171980719268,-0.19819396500019357
1633782701217587200,7.623587158203125,-9.02761676108241,-3.8267397240936756,-0.16908093896890058
1633782701237466400,7.64346630859375,-9.050042527902125,-3.7744872665479776,-0.1426987535404507
1633782701257344300,7.66334423828125,-9.07463511736691,-3.7161858842268582,-0.10651370676369405
1633782701277223400,7.683223388671875,-9.108731448236107,-3.633136721879244,-0.04139881306940224
1633782701297102300,7.703102294921875,-9.156430188000202,-3.5111414505437013,0.04537973593173083
1633782701316981200,7.722981201171875,-9.210658621793986,-3.3644308401465413,0.1214647081227973
1633782701336859100,7.742859130859375,-9.259200242123008,-3.226091459992528,0.17300373843582345
1633782701356738300,7.76273828125,-9.292453107905388,-3.1270430567413565,0.2056677897458896
1633782701376617500,7.782617431640625,-9.305378055930136,-3.0869851871192453,0.22548483537193387
1633782701396496400,7.802496337890625,-9.297567089918255,-3.110589350068569,0.22329707953669128
1633782701416374500,7.82237451171875,-9.273895122429728,-3.1818256172865627,0.2030779376494698
1633782701436253200,7.842253173828125,-9.245496710941195,-3.2639424672201276,0.1945738017416559
1633782701456132400,7.86213232421875,-9.223627993482351,-3.3247117009595035,0.20336148556489497
1633782701476011300,7.88201123046875,-9.213436269813775,-3.350708896525204,0.23606031592739746
1633782701495890400,7.901890380859375,-9.21816622094512,-3.3340798332855104,0.28231431850958616
1633782701515768300,7.921768310546875,-9.242744197362661,-3.263661604452133,0.3009557444849983
1633782701535647500,7.9416474609375,-9.278427505162357,-3.162220168584585,0.2855409524058923
1633782701555526100,7.961526123046875,-9.30048560771346,-3.0954838431343434,0.2988731660572812
1633782701575405300,7.9814052734375,-9.295265242716669,-3.1074148116856812,0.33526765433363614
1633782701595283200,8.001283203125,-9.26590938437283,-3.1932974438935515,0.340815168925561
1633782701615162400,8.021162353515624,-9.223521025976538,-3.3179581350460645,0.2969768126503564
1633782701635041300,8.041041259765626,-9.180617119273542,-3.439505370353162,0.23760637632561846
1633782701654920400,8.06092041015625,-9.150147162207961,-3.521683302824199,0.20720900957221164
1633782701674798300,8.08079833984375,-9.136364720571041,-3.556266540427506,0.2240299055895768
1633782701694677200,8.10067724609375,-9.132516812971234,-3.5622561362311242,0.2790154230946675
1633782701714556200,8.12055615234375,-9.129003251892328,-3.565380113470554,0.3460478819472715
1633782701734435300,8.140435302734375,-9.121133833691477,-3.581404488815367,0.38580753580778837
1633782701754314500,8.160314453125,-9.10708601911664,-3.618120939055085,0.3749241400806233
1633782701774192400,8.1801923828125,-9.085971334895492,-3.675811788262427,0.32235114534366877
1633782701794071600,8.200071533203126,-9.060491441202164,-3.7440111720025535,0.24547396789556367
1633782701813950200,8.2199501953125,-9.033979866373539,-3.8113922250971197,0.17573455163920298
1633782701833829400,8.239829345703125,-9.01030965245068,-3.8688644631177183,0.1287972155685071
1633782701853707300,8.259707275390625,-8.989473200649023,-3.9177626417994498,0.10433270946280099
1633782701873586400,8.27958642578125,-8.968387742522358,-3.9659851131767034,0.09676631106282584
1633782701893465900,8.2994658203125,-8.94414002097249,-4.020447063465416,0.09356956084812991
1633782701913344800,8.3193447265625,-8.916025687122344,-4.082463666917383,0.09143347126804292
1633782701933222700,8.33922265625,-8.886631834855676,-4.145825839759409,0.10143890598374418
1633782701953101800,8.359101806640625,-8.862405156093836,-4.196183861860633,0.1421301050733309
1633782701972980700,8.378980712890625,-8.84561184220314,-4.22788394524306,0.22479928252687675
1633782701992860000,8.39885986328125,-8.832290003815293,-4.248375236868858,0.33517654198408126
1633782702012737800,8.41873779296875,-8.820112659287453,-4.266492785100638,0.41597982510104775
1633782702032617000,8.438616943359374,-8.810452850538491,-4.284183340092003,0.4382696175161749
1633782702052495600,8.45849560546875,-8.804366224101186,-4.299848234474659,0.4059817243084311
1633782702072374800,8.478374755859376,-8.80051597841382,-4.312402011099458,0.3528310758139938
1633782702092254000,8.49825390625,-8.801066013512015,-4.311930009673536,0.3447928038522601
1633782702112131800,8.5181318359375,-8.810358157992363,-4.287008334384859,0.4117455850647762
1633782702132011000,8.538010986328125,-8.822825425377488,-4.249956660841405,0.5157515376580879
1633782702151890000,8.557889892578125,-8.82830356452763,-4.228119799825549,0.5953515459325164
1633782702171768800,8.577768798828124,-8.817105294165014,-4.248336950685084,0.6169849933307617
1633782702191646700,8.597646728515626,-8.778878147101402,-4.329300831191241,0.5990322802718728
1633782702211526000,8.61752587890625,-8.71645880806744,-4.458120103327929,0.5647074378764256
1633782702231404800,8.63740478515625,-8.645504280400276,-4.599928913158178,0.5160393416235223
1633782702251284000,8.657283935546875,-8.587153798240422,-4.714290620875358,0.45456915654055774
1633782702271161900,8.677161865234375,-8.563259712433814,-4.763865968166291,0.3828208846798166
1633782702291041000,8.697041015625,-8.586856861120461,-4.7267044045075775,0.30746823165155945
1633782702310919700,8.716919677734374,-8.653684079724549,-4.606427043005824,0.2548701755385846
1633782702330798800,8.736798828125,-8.746660469585656,-4.427633195127546,0.24976322605470194
1633782702350677800,8.756677734375,-8.842231552115082,-4.230921705503762,0.29090682682059704
1633782702370556000,8.776555908203125,-8.919842615061999,-4.060449111247062,0.3457445881517604
1633782702390434800,8.796434814453125,-8.971581570127606,-3.9413530684843656,0.3832027601368725
1633782702410313700,8.816313720703125,-8.99995718526244,-3.8774341385424136,0.36968225737176835
1633782702430193000,8.83619287109375,-9.008999738895893,-3.861928818635642,0.30628658411893994
1633782702450070800,8.85607080078125,-9.004196722528338,-3.877621185547113,0.2426455760692246
1633782702469949700,8.87594970703125,-8.995944442489742,-3.8982767278239128,0.21635537064000962
1633782702489828900,8.895828857421876,-8.993919074141978,-3.902865809179842,0.2178223927189596
1633782702509708000,8.9157080078125,-8.998154519754648,-3.8911961219131945,0.249383049364388
1633782702529586000,8.9355859375,-9.00809022283554,-3.866088860924542,0.27938641183152796
1633782702549464800,8.95546484375,-9.026336658143997,-3.8224849892586468,0.29023601488694545
1633782702569343700,8.97534375,-9.053713909891247,-3.757437055286765,0.2869064503391273
1633782702589223000,8.995222900390624,-9.091986065140366,-3.66530500729531,0.26779167123092334
1633782702609100800,9.015100830078126,-9.136897220012544,-3.554007947845757,0.2377436659044586
1633782702628980000,9.03497998046875,-9.183519854977726,-3.435374554158747,0.17761802729824558
1633782702648859000,9.05485888671875,-9.228799258640407,-3.3157369518652557,0.07438155667351093
1633782702668737800,9.07473779296875,-9.272837137809395,-3.1910335906147953,-0.04670149975451641
1633782702688616700,9.09461669921875,-9.309809316375851,-3.079266575565934,-0.12631055898508056
1633782702708494800,9.114494873046874,-9.327238005560636,-3.025148031887412,-0.14660715915584005
1633782702728373800,9.134373779296874,-9.314869522374869,-3.0625594786539674,-0.1559375076215714
1633782702748253000,9.1542529296875,-9.275116188657282,-3.1782842914178966,-0.20276008560564368
1633782702768131800,9.1741318359375,-9.218961755236982,-3.3323417574465273,-0.2768218403068371
1633782702788010000,9.194010009765625,-9.161913003325461,-3.4814535837665197,-0.33048042005710304
1633782702807888600,9.213888671875,-9.120965491387247,-3.586616962766647,-0.33845355436075475
1633782702827767800,9.233767822265625,-9.10483034914434,-3.6296903808176517,-0.3127172747535631
1633782702847647000,9.25364697265625,-9.106617817083,-3.6284728217214344,-0.2721752018110826
1633782702867524900,9.27352490234375,-9.111737059792876,-3.619812837664783,-0.2087727334912866
1633782702887403500,9.293403564453126,-9.109382605621217,-3.629525837905705,-0.12679710039300843
1633782702907282700,9.31328271484375,-9.096248398759961,-3.664068743498623,-0.05703191037457436
1633782702927161300,9.333161376953125,-9.076850455328822,-3.7121822015434502,-0.02949465717646526
1633782702947039500,9.35303955078125,-9.057297029075025,-3.75954454896003,-0.03977557751543354
1633782702966918400,9.37291845703125,-9.040440002298354,-3.7997690073207018,-0.050843239201745015
1633782702986797600,9.392797607421874,-9.02709302946925,-3.8314486324369903,-0.04450604467000812
1633782703006676500,9.412676513671874,-9.016136166647076,-3.857365456242859,-0.02018044927807059
1633782703026555600,9.4325556640625,-9.002063217630981,-3.8901065731108186,0.017766316791449206
1633782703046433500,9.45243359375,-8.979307780465483,-3.942041927531361,0.0521434122472303
1633782703066312400,9.4723125,-8.946201045155524,-4.016246104644239,0.07510771552359219
1633782703086191400,9.49219140625,-8.905537610855697,-4.105395045171678,0.08672074526613578
1633782703106070500,9.512070556640625,-8.861735878530144,-4.199006810326874,0.09147920097275637
1633782703125948400,9.531948486328124,-8.820123765203356,-4.285883714269102,0.08364492715052328
1633782703145827600,9.55182763671875,-8.780575598669051,-4.36669737264961,0.06188922791236545
1633782703165706500,9.57170654296875,-8.739571388107537,-4.448481921888888,0.03590958398637594
1633782703185585400,9.59158544921875,-8.699892288669943,-4.525732919351756,0.0011986745867674472
1633782703205463300,9.61146337890625,-8.671701382452248,-4.579254666180908,-0.04906495464995969
1633782703225342500,9.631342529296875,-8.668041106379032,-4.585249230420589,-0.10458346935347654
1633782703245221600,9.6512216796875,-8.697576997464894,-4.527681715331972,-0.15043986005336046
1633782703265100500,9.6711005859375,-8.74902076897621,-4.42608801151216,-0.18644277346255256
1633782703284978400,9.690978515625,-8.79393017028272,-4.334261960729957,-0.22661467965207993
1633782703304857600,9.710857666015626,-8.809026617127657,-4.300803050981462,-0.27299837302854285
1633782703324736500,9.730736572265625,-8.786337815457582,-4.345514591628313,-0.2952169268383644
1633782703344615400,9.750615478515625,-8.732084247222542,-4.4535757378965615,-0.2945386439843103
1633782703364494600,9.77049462890625,-8.665068812569976,-4.58092932139486,-0.3194534876734018
1633782703384372500,9.79037255859375,-8.608169698262214,-4.6830195765599605,-0.37299225870259106
1633782703404251600,9.810251708984374,-8.579923846986889,-4.729634320479631,-0.43110045653916895
1633782703424130600,9.830130615234374,-8.585954359322786,-4.713558507208526,-0.4838866921680048
1633782703444009500,9.850009521484376,-8.618617442518472,-4.649382679896056,-0.5225550436604768
1633782703463887400,9.869887451171875,-8.662109378242492,-4.565886650563776,-0.5393724325465038
1633782703483766500,9.8897666015625,-8.700721140709518,-4.492907631331682,-0.5306724452730268
1633782703503645400,9.9096455078125,-8.722835941883922,-4.453628052605688,-0.4977114020440727
1633782703523524600,9.929524658203125,-8.72160669234991,-4.4606095820561045,-0.45488505408931523
1633782703543402500,9.949402587890624,-8.694306012970209,-4.516294059877097,-0.4272171853650361
1633782703563281700,9.96928173828125,-8.64672593114972,-4.60671345873177,-0.42743751358482984
1633782703583160300,9.989160400390626,-8.593506966659426,-4.702400568856299,-0.4576546649331227
1633782703603039500,10.00903955078125,-8.554467918691039,-4.768468201264739,-0.5031562234465032
1633782703622917400,10.02891748046875,-8.540955526167155,-4.789789513973892,-0.5295049723962322
1633782703642796500,10.048796630859375,-8.546718911999463,-4.7811140400871635,-0.5147065221171826
1633782703662675700,10.06867578125,-8.554376733276248,-4.773019288697839,-0.45967915649805213
1633782703682554400,10.088554443359374,-8.551617205435036,-4.783732990413904,-0.3951198462933302
1633782703702433500,10.10843359375,-8.538083185601234,-4.811191198442876,-0.35207254906427116
1633782703722311400,10.1283115234375,-8.516844582739472,-4.850389528626203,-0.3278250101774931
1633782703742190600,10.148190673828125,-8.489281453031301,-4.899717915418744,-0.30863398749530313
1633782703762069500,10.168069580078125,-8.456475746494531,-4.9579462325036525,-0.27779163518706335
1633782703781948700,10.18794873046875,-8.423553720101713,-5.015328746414184,-0.24616626100866124
1633782703801826600,10.20782666015625,-8.39534352466166,-5.062472190383076,-0.24486734377192332
1633782703821705500,10.22770556640625,-8.377138590407371,-5.09073966896832,-0.2798255704337731
1633782703841584400,10.24758447265625,-8.378480652666092,-5.085182619363069,-0.33520774083994326
1633782703861463600,10.267463623046876,-8.4002663680166,-5.045934312558174,-0.3800811575176194
1633782703881342200,10.28734228515625,-8.424967094030976,-5.004791570308805,-0.3773227987201884
1633782703901221400,10.307221435546875,-8.430825756931304,-4.996625214987993,-0.3539727201297879
1633782703921100000,10.32710009765625,-8.405075229603051,-5.039513924121857,-0.35831864037960764
1633782703940979200,10.346979248046875,-8.35377291238904,-5.121186245158315,-0.397886826788634
1633782703960857000,10.366857177734374,-8.289796991562843,-5.220273811376095,-0.44541243847552686
1633782703980736300,10.386736328125,-8.22497702112794,-5.320456771615147,-0.46139260935243215
1633782704000615200,10.406615234375,-8.167674586716293,-5.409845950639248,-0.439359970036149
1633782704020494300,10.426494384765626,-8.12159555710852,-5.482238986676931,-0.39385581770688294
1633782704040373200,10.446373291015625,-8.090394363158941,-5.530455028313398,-0.3605118395749479
1633782704060251100,10.466251220703125,-8.078302358826994,-5.545244601166248,-0.4020998413737863
1633782704080130000,10.486130126953125,-8.078215849587322,-5.534294752606749,-0.5332902630886063
1633782704100009200,10.50600927734375,-8.076286342829466,-5.51864593257606,-0.6989436570279299
1633782704119888400,10.525888427734374,-8.072170724204183,-5.504164987280965,-0.8453446900192648
1633782704139766300,10.545766357421876,-8.0808637337476,-5.474065617093443,-0.9511186751984059
1633782704159645400,10.5656455078125,-8.110622912195325,-5.420681232908368,-1.002196024550125
1633782704179524000,10.585524169921875,-8.155797686439753,-5.354531475174427,-0.991128614025563
1633782704199403300,10.6054033203125,-8.198596963724494,-5.299270775723457,-0.9333385422274469
1633782704219281200,10.62528125,-8.225223689365386,-5.27002246940732,-0.8619454770125449
1633782704239160300,10.645160400390624,-8.234777699652314,-5.265847814071178,-0.7935144034083932
1633782704259039200,10.665039306640624,-8.234700542762875,-5.27531823772788,-0.7287718090586364
1633782704278918100,10.684918212890626,-8.236506130880118,-5.279796259924769,-0.6738759243320673
1633782704298796300,10.70479638671875,-8.25199946808815,-5.260732078492641,-0.6321290787097066
1633782704318675200,10.72467529296875,-8.28085088404119,-5.22069116000533,-0.5850443426581099
1633782704338554000,10.74455419921875,-8.313342702323197,-5.175470793053507,-0.5227043890032917
1633782704358433300,10.764433349609375,-8.34299140613377,-5.130684725865722,-0.4908768798489123
1633782704378312200,10.784312255859374,-8.364239361345767,-5.091525850909948,-0.535023735817708
1633782704398190300,10.8041904296875,-8.376032674992084,-5.05968752810061,-0.6418868679404258
1633782704418069200,10.8240693359375,-8.387999007117747,-5.020647895610332,-0.7777870382487774
1633782704437948200,10.8439482421875,-8.41904822537601,-4.943830028867721,-0.9211706231150776
1633782704457827000,10.8638271484375,-8.492536655434966,-4.790798691016436,-1.046640073367208
1633782704477705200,10.883705322265625,-8.613187818685173,-4.547474211038649,-1.1418681876778602
1633782704497584000,10.903584228515625,-8.758921400743722,-4.249270139881968,-1.1812626980204135
1633782704517463300,10.92346337890625,-8.89715907408893,-3.955979851990938,-1.1666907865062355
1633782704537342200,10.94334228515625,-9.001029198408126,-3.7217452719196675,-1.1403809447947888
1633782704557220000,10.96322021484375,-9.063042879250645,-3.573054593621194,-1.1246883586876093
1633782704577099300,10.983099365234375,-9.085058896225691,-3.5169340624704954,-1.123952445628494
1633782704596978200,11.002978271484375,-9.07422302943468,-3.546483982081711,-1.1186189756460487
1633782704616857300,11.022857421875,-9.039859572061896,-3.6461674683660266,-1.0755397854413837
1633782704636736300,11.042736328125,-8.993315263029933,-3.781594175943732,-0.9950939374599606
1633782704656614400,11.062614501953124,-8.946743481469154,-3.911646789267659,-0.9083980891730635
1633782704676493000,11.0824931640625,-8.907164919796585,-4.0185006055727595,-0.8273143086142838
1633782704696372200,11.102372314453126,-8.875509552338718,-4.10465357915461,-0.7399533474821597
1633782704716251100,11.122251220703125,-8.85122617495358,-4.172417494086921,-0.6458410854589194
1633782704736129300,11.14212939453125,-8.832169007784128,-4.227204146285355,-0.5421427375100553
1633782704756008200,11.16200830078125,-8.817389371803403,-4.269136285346746,-0.4455432617809623
1633782704775887400,11.181887451171875,-8.806787898290157,-4.29702966992259,-0.38263387420773504
1633782704795766000,11.20176611328125,-8.801590329647064,-4.310049602754414,-0.354766062464565
1633782704815644200,11.22164404296875,-8.804011419314145,-4.3060614099010825,-0.342925439077802
1633782704835523000,11.241523193359376,-8.816111606952548,-4.281795568172633,-0.3358465867327526
1633782704855402200,11.26140234375,-8.835960216760634,-4.2416637565314765,-0.32322869536317883
1633782704875281200,11.28128125,-8.860552806225419,-4.190858575184643,-0.3125593807781115
1633782704895163600,11.30116357421875,-8.884781823074817,-4.138762477244437,-0.3188720345236361
1633782704915041800,11.321041748046875,-8.902178948077559,-4.09861137638092,-0.3506824829453602
1633782704934920400,11.34092041015625,-8.910787201946974,-4.073309761863947,-0.42000009359307583
1633782704954799600,11.360799560546875,-8.917761717134713,-4.040539711162448,-0.5638725944874808
1633782704974678500,11.380678466796875,-8.927163167208432,-3.9914924793988464,-0.7376543498247862
1633782704994556700,11.400556640625,-8.919016101109982,-3.9848584482118485,-0.8616522662196308
1633782705014435600,11.420435546875,-8.86681595827341,-4.091282640928029,-0.9007554654654115
1633782705034314800,11.440314697265626,-8.769270360800624,-4.304642775274813,-0.8604256470341235
1633782705054193400,11.460193359375,-8.650764977407455,-4.546687152314186,-0.8138118529625237
1633782705074071600,11.480071533203125,-8.538971074351668,-4.758011104658245,-0.785930304954946
1633782705093950500,11.499950439453125,-8.444842591845989,-4.929214059016108,-0.7469021437067538
1633782705113829600,11.51982958984375,-8.360519464039802,-5.082918766084313,-0.6603271453205496
1633782705133708500,11.53970849609375,-8.269774778753519,-5.245476057171821,-0.5159318991936743
1633782705153586700,11.559586669921876,-8.160463340163231,-5.428233840245008,-0.3339231809221208
1633782705173465600,11.579465576171875,-8.027877408969402,-5.630965905332565,-0.12566656199311838
1633782705193344500,11.599344482421875,-7.880096246731281,-5.836659158313274,0.08870400063837879
1633782705213223700,11.6192236328125,-7.748598695296049,-6.005500059714913,0.2521233610484749
1633782705233102600,11.6391025390625,-7.67638218486905,-6.0933168748557565,0.33915395771507173
1633782705252980500,11.65898046875,-7.672935259285569,-6.096195645162463,0.36448779400121417
1633782705272859600,11.678859619140624,-7.70814393531084,-6.051210256010293,0.3711529509788379
1633782705292738600,11.698738525390626,-7.7479060368567705,-5.999619184982777,0.38066746950559316
1633782705312617500,11.718617431640626,-7.773394698378444,-5.966894142466783,0.37535789185538887
1633782705332495600,11.73849560546875,-7.78647512922585,-5.952917639562488,0.322422639677301
1633782705352374500,11.75837451171875,-7.803526217269897,-5.935619883280992,0.2092532470172271
1633782705372253700,11.778253662109375,-7.8250500668138265,-5.910448032623529,0.07472337411481421
1633782705392132600,11.798132568359375,-7.839169777581096,-5.8921717866986985,-0.010862743381492327
1633782705412010800,11.8180107421875,-7.844186728960275,-5.8854340028762815,-0.02817707405516412
1633782705431889400,11.837889404296876,-7.845608870717883,-5.883602695795894,-0.00475440543799923
1633782705451768600,11.8577685546875,-7.848631433409452,-5.879469541513919,0.034642833719879855
1633782705471647500,11.8776474609375,-7.856016282963752,-5.869277233323454,0.07049922621429432
1633782705491526700,11.897526611328125,-7.866499683055281,-5.854752448886632,0.10216553062470629
1633782705511404500,11.917404541015625,-7.877958650180697,-5.838573467501997,0.138602734664781
1633782705531283700,11.93728369140625,-7.888909083262085,-5.82286619528234,0.17243101658178492
1633782705551162400,11.957162353515624,-7.902208125296235,-5.804368415561318,0.18654022422134875
1633782705571041500,11.97704150390625,-7.923461341205239,-5.775385482183099,0.1845838842554949
1633782705590919400,11.99691943359375,-7.958512196320295,-5.727094621744752,0.1812584296272136
1633782705610798600,12.016798583984375,-8.014277338162064,-5.648678087633848,0.18486178788142277
1633782705630677800,12.036677734375,-8.101759806782006,-5.522200410187244,0.19281462831571697
1633782705650556700,12.056556640625,-8.224277348425984,-5.337061284935474,0.21778682821523396
1633782705670434600,12.0764345703125,-8.378194236940145,-5.089145677775145,0.27719383369069545
1633782705690313500,12.0963134765625,-8.55150205462277,-4.784091594593226,0.3932741453614086
1633782705710192600,12.116192626953126,-8.72105022751093,-4.448124486753344,0.5725884369172155
1633782705730071600,12.136071533203125,-8.86345963358283,-4.121824201925099,0.7874228816002606
1633782705749950700,12.15595068359375,-8.964123070815205,-3.850131413336098,0.9956774364363401
1633782705769828600,12.17582861328125,-9.018302989292144,-3.668618077366054,1.1755128292568027
1633782705789707800,12.195707763671875,-9.030979515513778,-3.5935277650684117,1.3032085041910408
1633782705809586400,12.21558642578125,-9.013925504860282,-3.6261622066915034,1.3305936469838022
1633782705829465600,12.235465576171874,-8.975081102681159,-3.7512630428269502,1.2435149368591605
1633782705849343500,12.255343505859376,-8.912927721107005,-3.9405347378388047,1.0964888307720422
1633782705869222700,12.27522265625,-8.83417976308465,-4.154445491805673,0.9317891208283603
1633782705889101300,12.295101318359375,-8.747727806556224,-4.367200938257575,0.7584172979988157
1633782705908980200,12.314980224609375,-8.657253170382976,-4.569880396375059,0.5818426240073516
1633782705928859100,12.334859130859375,-8.56282132101655,-4.76126630706191,0.42287396852895615
1633782705948737000,12.354737060546874,-8.471873222112656,-4.93092729267478,0.28931354801347475
1633782705968616200,12.3746162109375,-8.396262977594137,-5.064005975821614,0.17029678103206677
1633782705988495000,12.3944951171875,-8.346278172719478,-5.148612596744298,0.042546357403020374
1633782706008374300,12.414374267578125,-8.322427341532707,-5.1859518550574775,-0.11614709329660981
1633782706028252200,12.434252197265625,-8.307113452544808,-5.2016556201457975,-0.32407804220151154
1633782706048131300,12.45413134765625,-8.266593226107954,-5.248482837772369,-0.5359606878742575
1633782706068010000,12.474010009765625,-8.17398391599357,-5.374356704106926,-0.6875020794287323
1633782706087889200,12.49388916015625,-8.03081112433374,-5.573565271243453,-0.7821926527965813
1633782706107768300,12.513768310546874,-7.871762133628129,-5.786446389901638,-0.8501676531963049
1633782706127646200,12.533646240234376,-7.7392837544620035,-5.953630756267905,-0.9100273708753287
1633782706147525400,12.553525390625,-7.654436895042657,-6.053093001016974,-0.9695574182085692
1633782706167404300,12.573404296875,-7.611184613293409,-6.101298521259427,-1.0071774662245065
1633782706187283200,12.593283203125,-7.597277083972096,-6.121589614138006,-0.98889150262326
1633782706207161000,12.6131611328125,-7.605570865064859,-6.121828099068999,-0.9213557704236358
1633782706227040300,12.633040283203124,-7.631988331869244,-6.102507897049188,-0.8261559323593973
1633782706246919200,12.652919189453126,-7.684826772609353,-6.047867959845066,-0.7328839205525816
1633782706266798300,12.67279833984375,-7.774524579191207,-5.938067860955,-0.6830078367494046
1633782706286677200,12.69267724609375,-7.884806324118375,-5.794440895786881,-0.6516664306115358
1633782706306555400,12.712555419921875,-7.9867089477568864,-5.66167200924158,-0.5730059682095423
1633782706326434000,12.73243408203125,-8.057648277854918,-5.572259449341892,-0.4411455748112872
1633782706346313200,12.752313232421875,-8.086506708070635,-5.539574154314399,-0.3031590084166266
1633782706366192000,12.772192138671874,-8.0756270021379,-5.559977475395798,-0.20317918780054897
1633782706386070300,12.7920703125,-8.03256293643713,-5.623582224822044,-0.15373190560238434
1633782706405949200,12.81194921875,-7.965921595793962,-5.7180473919361825,-0.13569743254417552
1633782706425828000,12.831828125,-7.885608288151025,-5.828568790838122,-0.12388679330372251
1633782706445707300,12.851707275390625,-7.81153942785561,-5.928043895068765,-0.0923630346025806
1633782706465586200,12.871586181640625,-7.766141366249323,-5.987897183007002,-0.05014252532017417
1633782706485464000,12.891464111328125,-7.758546673336625,-5.997930501243472,-0.012814142310747411
1633782706505343200,12.91134326171875,-7.782772767576575,-5.966473871228098,0.004566566988377599
1633782706525222400,12.931222412109374,-7.82688838815689,-5.908484623596072,-0.0018195970919354294
1633782706545101000,12.95110107421875,-7.88362325181365,-5.832484502977133,-0.03134563250512583
1633782706564979200,12.970979248046875,-7.948677031004428,-5.74298660288155,-0.08378658237722701
1633782706584858000,12.990858154296875,-8.016999456602335,-5.646031372517347,-0.14296604444081895
1633782706604737300,13.0107373046875,-8.08431592002809,-5.547849230706691,-0.18863619185360148
1633782706624616200,13.0306162109375,-8.142880337199568,-5.460762483406066,-0.20966856808615847
1633782706644495400,13.050495361328124,-8.185513025745749,-5.396421236398816,-0.21538712839605287
1633782706664373200,13.070373291015626,-8.203950599712133,-5.367075899448991,-0.24510372807737438
1633782706684252200,13.090252197265626,-8.185854971051215,-5.39158314871788,-0.3049546048628166
1633782706704131000,13.110131103515625,-8.121367009049653,-5.482877869102358,-0.3896622019419446
1633782706724010200,13.13001025390625,-8.0152160803169,-5.632958540454506,-0.4432599000841379
1633782706743889200,13.14988916015625,-7.885939127540588,-5.8141375299036495,-0.4220830738795921
1633782706763767300,13.169767333984375,-7.757159602892399,-5.989070318439603,-0.35762214601542797
1633782706783646200,13.189646240234374,-7.656404395723342,-6.121380939823388,-0.28026695752572267
1633782706803525000,13.209525146484374,-7.61218882189989,-6.178847624886036,-0.21635639355331657
1633782706823404300,13.229404296875,-7.636830511203407,-6.149599318569898,-0.17787070515137166
1633782706843282200,13.2492822265625,-7.711570987150073,-6.055397770828009,-0.18495220611123367
1633782706863161300,13.269161376953125,-7.821152474853396,-5.912435991570353,-0.2074939091945067
1633782706883037000,13.289036865234374,-7.9505895866274825,-5.738651788547635,-0.16244720004284754
1633782706902915800,13.308915771484376,-8.07067960886359,-5.570519327676296,-0.06189312776934821
1633782706922795000,13.328794921875,-8.159836148175597,-5.439262014737725,0.04346391977251041
1633782706942673000,13.3486728515625,-8.209948963344097,-5.362532410800457,0.10180127302273176
1633782706962552000,13.368552001953125,-8.218805054494737,-5.34911646438837,0.0926294487201143
1633782706982431000,13.388430908203125,-8.196270566603541,-5.384357289117574,0.014953215007431572
1633782707002310100,13.40831005859375,-8.163887469393014,-5.432553457009792,-0.09322571584652177
1633782707022188800,13.428188720703124,-8.141621277049182,-5.463801412710547,-0.17681244653640313
1633782707042067000,13.44806689453125,-8.135437035456299,-5.472212682703137,-0.19984165914198382
1633782707061945900,13.46794580078125,-8.137498059639334,-5.469855890443921,-0.1794219349150546
1633782707081825000,13.487824951171875,-8.143575333726405,-5.4614241621851916,-0.1593949728653766
1633782707101704000,13.507703857421875,-8.156600234994292,-5.441947892820835,-0.15956357089793308
1633782707121583000,13.5275830078125,-8.179063411214948,-5.408067835050821,-0.16159266557274385
1633782707141461000,13.5474609375,-8.213117656508087,-5.356384994086623,-0.1556376844247803
1633782707161340000,13.56733984375,-8.25572988678813,-5.291051228910685,-0.1344625569869764
1633782707181218800,13.58721875,-8.30317552857399,-5.217166493010521,-0.09399346708231605
1633782707201098000,13.607097900390626,-8.3564219655931,-5.132051338043809,-0.051515603771666064
1633782707220977200,13.62697705078125,-8.415309623369573,-5.035142284908891,-0.01717778430528124
1633782707240855000,13.64685498046875,-8.47947142215669,-4.92633938036263,0.011381705204700119
1633782707260734000,13.66673388671875,-8.541515498137473,-4.817803602319955,0.04086863344914745
1633782707280612900,13.68661279296875,-8.590002173408866,-4.730309443262219,0.08012723788577132
1633782707300492000,13.706491943359374,-8.615193313288689,-4.683246955575049,0.1265963171239011
1633782707320371000,13.726370849609374,-8.617042740547657,-4.67846965817064,0.16995096326908096
1633782707340249000,13.7462490234375,-8.606341313791274,-4.697182249686121,0.19431502294130623
1633782707360128000,13.7661279296875,-8.590992938011885,-4.724026709730923,0.22088276667026802
1633782707380007000,13.7860068359375,-8.571113933065533,-4.755335163447261,0.3052568757450208
1633782707399885800,13.8058857421875,-8.552983817613125,-4.776667289811373,0.4475586932566017
1633782707419765000,13.825764892578125,-8.548842480024694,-4.768070434118807,0.5942871681040153
1633782707439643000,13.845642822265624,-8.565386203068494,-4.726935582914948,0.6786946497254073
1633782707459522000,13.86552197265625,-8.593679985138774,-4.672972814320028,0.6945330009788274
1633782707479401000,13.88540087890625,-8.617415080991387,-4.62707878589034,0.7075901970811188
1633782707499280000,13.90527978515625,-8.622507435694336,-4.61388641910106,0.7312979665353894
1633782707519159000,13.925158935546875,-8.602461257487535,-4.651498356875777,0.7291179921478033
1633782707539037000,13.945036865234375,-8.559111360582708,-4.740548513203859,0.6627176937188953
1633782707558915800,13.964915771484375,-8.499024848410487,-4.862240417678654,0.5436660746198148
1633782707578795000,13.984794921875,-8.437855801698564,-4.97980793569982,0.417705845176056
1633782707598674200,14.004674072265624,-8.392114041221141,-5.063196997526288,0.32686621161531654
1633782707618552800,14.024552734375,-8.36138338739276,-5.115757205846905,0.2944059027164243
1633782707638431000,14.044430908203125,-8.334220070657134,-5.15903637560308,0.3090422395026311
1633782707658310000,14.064309814453125,-8.30680891664028,-5.202120899569988,0.3244148364078253
1633782707678189000,14.08418896484375,-8.288203584891557,-5.233385806405544,0.2961968412538059
1633782707698068000,14.10406787109375,-8.282517355948686,-5.246092143243551,0.2209225872240029
1633782707717947000,14.12394677734375,-8.28284702629447,-5.248421462973952,0.13747479008077643
1633782707737825000,14.143824951171876,-8.285385020339488,-5.245670118439198,0.07567261939735617
1633782707757704000,14.163703857421876,-8.289079198682307,-5.240279073050618,0.03208976540331496
1633782707777582800,14.183582763671875,-8.290664422047138,-5.237835187029838,-0.018640585725195703
1633782707797462000,14.2034619140625,-8.287147938358784,-5.242735234031081,-0.085376125724148
1633782707817341000,14.2233408203125,-8.277544828233122,-5.256255809861421,-0.15624268284691498
1633782707837219000,14.243218994140625,-8.264727432236075,-5.273774515417218,-0.22794291431484742
1633782707857098000,14.263097900390624,-8.251928156417607,-5.291100913271308,-0.28340896361218765
1633782707876977000,14.282976806640624,-8.240869002264738,-5.30681870688498,-0.31004586358722297
1633782707896856300,14.302856201171876,-8.230393200957774,-5.322608981212973,-0.3175627054907381
1633782707916735200,14.3227353515625,-8.218044591516255,-5.342078236314654,-0.3103585827982053
1633782707936613400,14.34261328125,-8.204096145662666,-5.3646705918729305,-0.2889739590618759
1633782707956492300,14.3624921875,-8.186566918712854,-5.392897738447785,-0.25913970608394593
1633782707976371200,14.38237109375,-8.168792192569375,-5.4209203023612496,-0.23418259415570644
1633782707996250000,14.40225,-8.159656115433574,-5.435547962650657,-0.21263379283361136
1633782708016129300,14.42212939453125,-8.168915526688098,-5.422631197932362,-0.18514170080134645
1633782708036007200,14.442007080078126,-8.210656819352508,-5.360173280453681,-0.15505825883531943
1633782708055886300,14.46188623046875,-8.282309850677848,-5.249790997761488,-0.11585755403181537
1633782708075765200,14.48176513671875,-8.354749648466706,-5.135005511674285,-0.01618218712187372
1633782708095644200,14.50164404296875,-8.39776636789441,-5.062050750100612,0.15345820322753861
1633782708115523000,14.521523193359375,-8.38719295143187,-5.070096109390258,0.34569380781259385
1633782708135401200,14.541401123046874,-8.314915066206455,-5.174713252684474,0.5048876868816092
1633782708155280100,14.561280029296874,-8.190735144308208,-5.35983951845467,0.5952841067194938
1633782708175159300,14.5811591796875,-8.038802123087644,-5.584867001980543,0.5977518850725144
1633782708195038200,14.6010380859375,-7.896441232332587,-5.790193759736418,0.5387527297455817
1633782708214917000,14.620917236328125,-7.798949995395541,-5.927068912556767,0.4654263583805412
1633782708234795000,14.640794921875,-7.770876578077673,-5.968368306672573,0.40303361509256064
1633782708254674200,14.660674072265625,-7.81064510936439,-5.9188563800066705,0.362416613750346
1633782708274553300,14.68055322265625,-7.8910531095534555,-5.811347022402286,0.3604291662601754
1633782708294432300,14.700432373046874,-7.988853558570146,-5.674716784253716,0.3823580894736573
1633782708314311200,14.720311279296874,-8.086006357333064,-5.535048201322555,0.38746330365817994
1633782708334190000,14.740190185546876,-8.169319431313872,-5.41357169316411,0.3547450562091544
1633782708354068200,14.760068115234375,-8.232955160400271,-5.320553217726945,0.2838078267366625
1633782708373947100,14.779947021484375,-8.275287404695153,-5.25957764776051,0.16383792374888434
1633782708393826300,14.799826416015625,-8.295143028765917,-5.2307724090367556,-0.0031153221484608363
1633782708413705200,14.819705322265625,-8.292551258707046,-5.23162171934247,-0.18469742763256652
1633782708433584000,14.839584228515625,-8.272024603506923,-5.256061748594045,-0.34322668704669923
1633782708453462000,14.8594619140625,-8.243658925244212,-5.290924972182512,-0.4675347288366407
1633782708473341200,14.879341064453126,-8.21999631010592,-5.320132946488261,-0.5461068188354372
1633782708493220000,14.89922021484375,-8.206870286551117,-5.336596005511284,-0.5817294459564611
1633782708513099300,14.919099365234375,-8.200743912625311,-5.3448319189369675,-0.5924157116763293
1633782708532978200,14.938978271484375,-8.19715027204752,-5.351522356486321,-0.5816459323914721
1633782708552856300,14.958856201171875,-8.19438899064064,-5.35978457339704,-0.5432094168934971
1633782708572735200,14.9787353515625,-8.19142195752859,-5.37050821198523,-0.4781571355400607
1633782708592614100,14.9986142578125,-8.192825394585729,-5.374181347540021,-0.4076513014884665
1633782708612493300,15.018493408203126,-8.21053991497457,-5.348267154082656,-0.39173820449840274
1633782708632372200,15.038372314453126,-8.240524718871713,-5.297284570342302,-0.4504526245998218
1633782708652251100,15.058251220703125,-8.262430845731496,-5.257799532172084,-0.5080969677843153
1633782708672129300,15.07812939453125,-8.260656821796298,-5.259544330012798,-0.5187692049788311
1633782708692008200,15.09800830078125,-8.231001103723049,-5.306432337915897,-0.512621313340962
1633782708711887000,15.11788720703125,-8.181983098053932,-5.380735591489076,-0.522706580960378
1633782708731766300,15.137766357421874,-8.125451063492894,-5.462018036425113,-0.5601665065111592
1633782708751645400,15.1576455078125,-8.073193637511134,-5.533748809161782,-0.6095470984149723
1633782708771523300,15.1775234375,-8.034957722619176,-5.583942288351059,-0.655312385898456
1633782708791402000,15.197402099609375,-8.011869107976555,-5.613906633982062,-0.6814546890232711
1633782708811281200,15.21728125,-7.99682994427681,-5.635698194551468,-0.6782400378257036
1633782708831160300,15.237160400390625,-7.98222624938488,-5.658993729943036,-0.6559259146869182
1633782708851039200,15.257039306640625,-7.965510092383623,-5.683832403123378,-0.6442723017722368
1633782708870918400,15.27691845703125,-7.94781544573903,-5.706103271642327,-0.6655776862598956
1633782708890795500,15.29679541015625,-7.930925101214647,-5.725319428765774,-0.7010897291459143
1633782708910674700,15.3166748046875,-7.9177312731206415,-5.7404468552708625,-0.7260786975171416
1633782708930553300,15.33655322265625,-7.91383543472588,-5.743932943820953,-0.7408264039896428
1633782708950432500,15.3564326171875,-7.923754771193861,-5.7285798918664455,-0.7535722691204398
1633782708970311400,15.3763115234375,-7.945349932408332,-5.696515943607688,-0.76909110609591
1633782708990189600,15.396189453125,-7.9728820824563496,-5.655798733294009,-0.7845224839836359
1633782709010068500,15.416068359375,-7.9983099537014954,-5.619190127342939,-0.7887449239842593
1633782709029947400,15.435947509765626,-8.016620686417818,-5.59522239177823,-0.7730876283861696
1633782709049826300,15.455826416015626,-8.028312293255329,-5.583069597169756,-0.7388638717450201
1633782709069705500,15.47570556640625,-8.037743553945422,-5.574266697511076,-0.7018653166282922
1633782709089584600,15.495584716796875,-8.05040955877304,-5.560231742417812,-0.6671677319303154
1633782709109462500,15.515462646484375,-8.061046688121557,-5.549655403345823,-0.6254882524557411
1633782709129341700,15.535341796875,-8.071870864474773,-5.538650025206804,-0.5819261741049587
1633782709149220400,15.555220458984374,-8.085985899066925,-5.522054864236712,-0.5423277386881411
1633782709169099500,15.575099609375,-8.110196795737743,-5.490475484624505,-0.4997680057803169
1633782709188978400,15.594978515625,-8.149729180181026,-5.436312517282366,-0.445882795933634
1633782709208856600,15.614856689453125,-8.20071176392138,-5.364812630692124,-0.37080888678152113
1633782709228735500,15.634735595703125,-8.248197153195738,-5.298390485757589,-0.254329675453715
1633782709248614700,15.65461474609375,-8.27607534020245,-5.259848281395435,-0.10466837115795351
1633782709268493300,15.674493408203125,-8.277480530825256,-5.258457703819871,0.04826238782911096
1633782709288372500,15.69437255859375,-8.2594211425215,-5.283869792973995,0.1818315168074332
1633782709308251600,15.714251708984374,-8.236890161761641,-5.314397617706656,0.28495668624453246
1633782709328129500,15.734129638671876,-8.230224274131656,-5.320925558170676,0.34863139563445
1633782709348008400,15.754008544921875,-8.25237122400999,-5.285528081575036,0.36325072648692874
1633782709367887600,15.7738876953125,-8.29918324406743,-5.21293513905108,0.34532197882551696
1633782709387766500,15.7937666015625,-8.352713758724928,-5.127435953202843,0.33459709812831134
1633782709407645400,15.8136455078125,-8.400540508782862,-5.048057296061516,0.34412213804908093
1633782709427524600,15.833524658203125,-8.438605743283032,-4.983879130661487,0.34824499013274907
1633782709447402500,15.853402587890624,-8.469731533908844,-4.932003397473693,0.33073117994777856
1633782709467281700,15.87328173828125,-8.497839438018202,-4.885565179164708,0.2972599221743643
1633782709487160300,15.893160400390625,-8.522672850501538,-4.8447617518723005,0.2504376364512369
1633782709507039500,15.91303955078125,-8.533753631964325,-4.827538522131741,0.20075755014419555
1633782709526918400,15.93291845703125,-8.519853701427579,-4.85369675347805,0.1552339624620974
1633782709546796500,15.952796630859375,-8.481126788148284,-4.922063018217682,0.1189930664454121
1633782709566675500,15.972675537109374,-8.4291540243268,-5.011052968791127,0.09534870848301798
1633782709586554600,15.9925546875,-8.378214110684395,-5.0960582336425775,0.07812713184342719
1633782709606433300,16.012433349609374,-8.335608310145139,-5.165566069632768,0.07034811817265581
1633782709626312400,16.0323125,-8.30054284198284,-5.22171816496551,0.07093710160832851
1633782709646191600,16.052191650390625,-8.267239707317948,-5.274213491356373,0.07619469334296881
1633782709666069500,16.072069580078125,-8.228831358468533,-5.333775102871656,0.08694322891039773
1633782709685948700,16.09194873046875,-8.183243327248096,-5.403036270624399,0.11003783490238711
1633782709705827600,16.11182763671875,-8.13519562791586,-5.474369568476081,0.14229656594772822
1633782709725706500,16.13170654296875,-8.08983439118862,-5.540573102223873,0.16434413797166197
1633782709745585400,16.15158544921875,-8.055485546863078,-5.590443925330042,0.16271324883420019
1633782709765464600,16.171464599609376,-8.048243905171752,-5.601225431585312,0.14976861886144616
1633782709785342500,16.191342529296875,-8.080725202059746,-5.55454668251872,0.13883634249125607
1633782709805221600,16.2112216796875,-8.147415058019757,-5.455930240944028,0.15111211502542718
1633782709825100500,16.2311005859375,-8.221103394564986,-5.342241317921877,0.21048088911604135
1633782709844979500,16.2509794921875,-8.278546114230155,-5.24723196092844,0.3203321336714551
1633782709864858400,16.2708583984375,-8.322441370058058,-5.169819635424018,0.42463929770104586
1633782709884736500,16.290736572265626,-8.363773497399688,-5.099259660032391,0.4639189129596576
1633782709904619000,16.310618896484375,-8.403659517586231,-5.0349745271265505,0.4448880492752418
1633782709924498200,16.330498291015626,-8.439017246693373,-4.979512167623639,0.3972811525130644
1633782709944377000,16.350377197265626,-8.465245912927388,-4.938388130074739,0.3497411469746381
1633782709964256000,16.370256103515626,-8.476987204125523,-4.9196594642072915,0.32867271304801104
1633782709984135200,16.39013525390625,-8.472849373668431,-4.927320792615413,0.32048929699454454
1633782710004013000,16.410012939453125,-8.457638360533117,-4.955163323786855,0.2917169924260117
1633782710023892200,16.429892333984377,-8.43827490389347,-4.991400758337974,0.22762624958110972
1633782710043771100,16.449771240234377,-8.420944414386152,-5.023660521429777,0.1446386903607752
1633782710063650000,16.469650146484376,-8.405829262840747,-5.050353882566094,0.07964833179502748
1633782710083529000,16.489529052734376,-8.390018530246614,-5.077043152049184,0.040064559657801875
1633782710103407000,16.509406982421876,-8.370045417276025,-5.11005987098813,0.003024904489472101
1633782710123286000,16.5292861328125,-8.343878125840424,-5.152513695836067,-0.04104934661118313
1633782710143165200,16.549165283203124,-8.312123974183201,-5.203072501206398,-0.08371581869595683
1633782710163044000,16.569044189453123,-8.277221003106236,-5.257929880553483,-0.1103407725048717
1633782710182923000,16.588923095703127,-8.242230353745818,-5.31256221897304,-0.11267739875889382
1633782710202802200,16.60880224609375,-8.21395235376656,-5.356434678447246,-0.09992470202851109
1633782710222680000,16.62868017578125,-8.198782257163524,-5.3798664074391125,-0.0859735801606439
1633782710242559200,16.648559326171874,-8.194878819984197,-5.38623068177402,-0.05350547154778614
1633782710262438100,16.668438232421874,-8.196251277381181,-5.384387684255838,0.014882349719817283
1633782710282317000,16.688317138671874,-8.201981929987669,-5.37477814438939,0.09816775709227658
1633782710302196000,16.708196044921873,-8.216217960610985,-5.350919714418053,0.178325189186912
1633782710322075100,16.7280751953125,-8.249175642839074,-5.296496634835004,0.2619408080445602
1633782710341953000,16.747953125,-8.314359770411253,-5.189107104218006,0.33908195192478596
1633782710361832200,16.767832275390624,-8.412293490418792,-5.0250557751804585,0.39053127639405427
1633782710381711000,16.787711181640624,-8.517513860303163,-4.840610769672692,0.4368398404413834
1633782710401590000,16.807590087890624,-8.598846574121714,-4.687260867391527,0.5097113076457753
1633782710421469000,16.827468994140624,-8.639908067828417,-4.600246600805223,0.6000854060539975
1633782710441348000,16.84734814453125,-8.6405323372066,-4.5854441684708,0.6966259546700865
1633782710461226000,16.86722607421875,-8.615271054700017,-4.622390920335054,0.7622252389144152
1633782710481105200,16.887105224609375,-8.583804487812518,-4.680776473808288,0.7609344684515148
1633782710500984000,16.906984130859374,-8.55453864583969,-4.744214342235028,0.6947514660350977
1633782710520863000,16.926863037109374,-8.52525760629773,-4.808929975512624,0.6037884983556345
1633782710540742100,16.9467421875,-8.491060737663506,-4.878330843997001,0.5236067446704954
1633782710560621000,16.96662109375,-8.451690265783666,-4.953461780565977,0.45003768712338055
1633782710580499200,16.986499267578125,-8.405821079534292,-5.037134920030832,0.37392961261793967
1633782710600378000,17.006378173828125,-8.355279225298762,-5.125504108357429,0.29815703541086985
1633782710620257000,17.026257080078125,-8.307002393385767,-5.207104533201456,0.22396489579565823
1633782710640136000,17.046135986328125,-8.266502625215052,-5.273593898153305,0.15662450350504367
1633782710660015000,17.06601513671875,-8.23506411537826,-5.323135635435581,0.13539260437870398
1633782710679893000,17.08589306640625,-8.22116944553852,-5.343899022001028,0.15968385454304515
1633782710699772200,17.105772216796876,-8.226358246353268,-5.335059881985187,0.1858657407595776
1633782710719651000,17.125651123046875,-8.23694861395061,-5.317714194908738,0.21209385900432243
1633782710739530000,17.145530029296875,-8.245499584674835,-5.302848049688339,0.24885641340808942
1633782710759409200,17.1654091796875,-8.256204518562555,-5.283855179926753,0.2938500954645686
1633782710779288000,17.1852880859375,-8.273610995915531,-5.253517909330129,0.3439508366027847
1633782710799166200,17.205166259765626,-8.293353222739697,-5.218503294572234,0.3973645930128172
1633782710819045000,17.225045166015626,-8.31212689679265,-5.186135394930839,0.427698867934756
1633782710838924300,17.24492431640625,-8.330687220355868,-5.156452788850665,0.42547636957969515
1633782710858803000,17.264802978515625,-8.352325051668286,-5.121485520365834,0.4236025750644505
1633782710878682000,17.28468212890625,-8.380662672880291,-5.073614931166172,0.4396733103016391
1633782710898558000,17.304557861328124,-8.413723815482854,-5.019891524285078,0.4246391881031915
1633782710918435800,17.324435791015624,-8.434521688839792,-4.993281165257096,0.3104309539146721
1633782710938315000,17.34431494140625,-8.423186055833101,-5.020626268300414,0.11674880378311499
1633782710958193700,17.364193603515623,-8.365769055131077,-5.116609438762069,-0.06783424478874076
1633782710978072800,17.38407275390625,-8.263850064879655,-5.2775797529190775,-0.1622327718408778
1633782710997951700,17.40395166015625,-8.138040495952964,-5.468651190829276,-0.19112802693564443
1633782711017831000,17.423830810546875,-8.020431184616685,-5.63798776679337,-0.23698340385537592
1633782711037708800,17.443708740234374,-7.93254013519585,-5.75708702442646,-0.3180323322964832
1633782711057588000,17.463587890625,-7.883655985039472,-5.819263786876201,-0.39309425874985754
1633782711077466600,17.483466552734374,-7.874791126060486,-5.827926985803246,-0.43966815920248625
1633782711097345800,17.503345703125,-7.891727647814154,-5.804755953574181,-0.4425151826640591
1633782711117225000,17.523224853515625,-7.907541303017735,-5.78647970764935,-0.3972696082057431
1633782711137102800,17.543102783203125,-7.906117407694459,-5.792339539593458,-0.3354067705433815
1633782711156982000,17.56298193359375,-7.891614835089444,-5.814047513532638,-0.2994291559722274
1633782711176861000,17.58286083984375,-7.8762635367006055,-5.834252681693434,-0.31040337178800254
1633782711196739800,17.60273974609375,-7.871098701283335,-5.838474683302641,-0.3583403407547623
1633782711216618800,17.62261865234375,-7.880815793177485,-5.822554060593247,-0.40124552609939124
1633782711236498000,17.642497802734376,-7.903992670625448,-5.790882326522469,-0.40368718363046646
1633782711256375800,17.662375732421875,-7.936927556499838,-5.747989525735378,-0.3690374931948259
1633782711276255000,17.6822548828125,-7.967565271347761,-5.707646409431099,-0.33325050582494586
1633782711296133600,17.702133544921875,-7.977437261542677,-5.69479569568634,-0.3165051957944408
1633782711316012800,17.7220126953125,-7.959780024299025,-5.719484146741032,-0.315886990830861
1633782711335891700,17.7418916015625,-7.923876351746916,-5.768537223723531,-0.32641368207484484
1633782711355771000,17.76177099609375,-7.885728699660301,-5.820276178789139,-0.3317312603684142
1633782711375648800,17.781648681640625,-7.860614132148027,-5.855556751006842,-0.3059105173481628
1633782711395528000,17.80152783203125,-7.853019439235329,-5.868480529987812,-0.2478031780281104
1633782711415406800,17.82140673828125,-7.857173051783442,-5.865210714536905,-0.18580491395043208
1633782711435285800,17.84128564453125,-7.867261899599432,-5.853244966933131,-0.1268750336005818
1633782711455165000,17.8611650390625,-7.888765875399113,-5.825005545398593,-0.08410521073918789
1633782711475043800,17.8810439453125,-7.929888159382343,-5.769293010526895,-0.05018141429214738
1633782711494922000,17.900921875,-7.991876121261716,-5.6833338059514755,0.0037128219653182895
1633782711514801000,17.92080078125,-8.073636120581627,-5.566000973469019,0.08014127554427831
1633782711534679800,17.9406796875,-8.169888171112538,-5.422025048732757,0.1579855261925608
1633782711554558700,17.960558837890623,-8.257049737215041,-5.284551930019259,0.25499900781633333
1633782711574438000,17.98043798828125,-8.31231277475357,-5.188161932322383,0.39852001012563704
1633782711594316800,18.00031689453125,-8.32850052396655,-5.14607226461172,0.5695656184973195
1633782711614195000,18.02019482421875,-8.316345391270518,-5.146058820608258,0.7258545333724469
1633782711634073900,18.040073974609374,-8.294847845211624,-5.16627217207551,0.8218968866754323
1633782711653952800,18.059952880859374,-8.276471646043658,-5.19286557996869,0.8393712416328489
1633782711673832000,18.07983203125,-8.26412245208025,-5.220317065995931,0.7892765466429292
1633782711693710800,18.0997109375,-8.255265191885828,-5.247388028272986,0.6970681454796344
1633782711713590000,18.119590087890625,-8.241185813128947,-5.28022354542613,0.6103124202316627
1633782711733468000,18.139468017578125,-8.220050086119771,-5.3193800822943444,0.5525908105598762
1633782711753346800,18.159346923828124,-8.198307040867208,-5.356881837692857,0.511817997601442
1633782711773225700,18.179225830078124,-8.183463107478618,-5.383109334883094,0.47270719957109536
1633782711793105000,18.19910498046875,-8.17868581007421,-5.394757102578878,0.4196155877875164
1633782711812983800,18.21898388671875,-8.180750925910472,-5.395646744894981,0.3642712651737034
1633782711832863000,18.238863037109375,-8.18750858347714,-5.387615998652577,0.3296672039780766
1633782711852740900,18.258740966796875,-8.196930491816998,-5.373852261716127,0.3200378999652341
1633782711872619800,18.278619873046875,-8.200444637417792,-5.3672430727094405,0.340289428018406
1633782711892499500,18.29849951171875,-8.191319081676006,-5.378311579212546,0.3826720507936552
1633782711912378600,18.318378662109374,-8.17148683848083,-5.405519319611788,0.42135384628959
1633782711932257500,18.338257568359374,-8.147664648866654,-5.439788084438443,0.4411889390289783
1633782711952135700,18.3581357421875,-8.124492447593807,-5.473291710111498,0.4539647243740037
1633782711972014300,18.378014404296874,-8.10689950775802,-5.497431879633665,0.47624764865692704
1633782711991893500,18.3978935546875,-8.094571356582641,-5.513228583702444,0.5026029004126787
1633782712011772400,18.4177724609375,-8.101535934898257,-5.499957014197111,0.5347639158377424
1633782712031651600,18.437651611328125,-8.126658685716986,-5.4596121443271635,0.5660752190982923
1633782712051530200,18.4575302734375,-8.183662429443002,-5.3728959839046,0.5744955126475543
1633782712071408400,18.477408447265624,-8.279474334990978,-5.2293578660637134,0.5239331270806491
1633782712091287300,18.497287353515624,-8.379412965080142,-5.072281052213907,0.4772721328664571
1633782712111166500,18.51716650390625,-8.44670604763031,-4.9581104831546545,0.49058790683969855
1633782712131045400,18.53704541015625,-8.47567027630806,-4.905273211458325,0.5212380793103948
1633782712150924500,18.556924560546875,-8.478178459736704,-4.9019461128622295,0.5116618571916595
1633782712170803500,18.576803466796875,-8.463430387938022,-4.93178420176506,0.46715760261993855
1633782712190681300,18.596681396484374,-8.440244158139825,-4.975578335306048,0.4198695260159671
1633782712210560500,18.616560546875,-8.425654491773248,-5.004104757088422,0.37103484102450307
1633782712230439400,18.636439453125,-8.422679275354742,-5.011623462155461,0.33538854076694696
1633782712250318600,18.656318603515626,-8.418855917674303,-5.0176037056088445,0.3419068366197869
1633782712270197500,18.676197509765625,-8.403520985898375,-5.041454536795616,0.36736736802551895
1633782712290076400,18.696076416015625,-8.374844341990352,-5.088345467308163,0.37563466297015546
1633782712309954300,18.715954345703125,-8.335854978382587,-5.153094126072526,0.35989166184999044
1633782712329833500,18.73583349609375,-8.294486610683798,-5.221050640967488,0.33541747460048643
1633782712349712400,18.75571240234375,-8.26076671191156,-5.275899837008119,0.30821894042100756
1633782712369591600,18.775591552734376,-8.240843283301592,-5.308808419397473,0.27466000436414034
1633782712389470500,18.795470458984376,-8.235950835084914,-5.318469397190213,0.23103149144733323
1633782712409349400,18.815349365234376,-8.238625022730231,-5.315870612868666,0.1922655978645198
1633782712429227300,18.835227294921875,-8.238687566572427,-5.316277440103888,0.17778132810117675
1633782712449106400,18.8551064453125,-8.229937273883818,-5.329467761066556,0.18783470274498684
1633782712468985600,18.874985595703127,-8.214489529383181,-5.352613074332475,0.20514453305676578
1633782712488864500,18.894864501953126,-8.199083870458603,-5.375696428278088,0.21746442786045372
1633782712508743400,18.914743408203126,-8.1904750320673,-5.388032178238034,0.23581744708223268
1633782712528622300,18.934622314453126,-8.1966242023468,-5.377462853428721,0.2619714771774597
1633782712548500500,18.95450048828125,-8.217482281458377,-5.344469515365362,0.2828637690858915
1633782712568379400,18.97437939453125,-8.238747772327065,-5.311090977376699,0.292802906232886
1633782712588258600,18.994258544921873,-8.243690489426255,-5.303700282603502,0.28760349269257857
1633782712608137500,19.014137451171877,-8.228957030674815,-5.326547489705682,0.2873089484591037
1633782712628016400,19.034016357421876,-8.209314757093786,-5.356022005993127,0.30094763424377885
1633782712647895600,19.0538955078125,-8.209895771852135,-5.354703909131884,0.3084488401867449
1633782712667773400,19.0737734375,-8.241524835824967,-5.306831566366553,0.2918831427731551
1633782712687652400,19.09365234375,-8.285971880316733,-5.237766797968745,0.28081096474193035
1633782712707531500,19.113531494140624,-8.313817918619513,-5.191704134973883,0.3114868196431547
1633782712727410400,19.133410400390623,-8.30380915030241,-5.20282700201273,0.38435295308530326
1633782712747289300,19.153289306640627,-8.252953992334009,-5.276695955821872,0.46433527520820495
1633782712767168500,19.17316845703125,-8.17922590830028,-5.387443564695119,0.4960888788761571
1633782712787046400,19.19304638671875,-8.107735958582163,-5.4986710660398,0.44678580918796357
1633782712806925600,19.212925537109374,-8.057585149490833,-5.579580586010217,0.33762130478769536
1633782712826804500,19.232804443359374,-8.04444042123556,-5.604816149553656,0.20833963930364696
1633782712846683400,19.252683349609374,-8.070652136334777,-5.569938312917947,0.10365110214049927
1633782712866562300,19.272562255859373,-8.120223684233427,-5.498050303792954,0.06164441370528657
1633782712886441500,19.29244140625,-8.172069606804847,-5.4203959862262,0.08342605110229924
1633782712906318800,19.31231884765625,-8.209946040734648,-5.36207882181406,0.12362323786355554
1633782712926197800,19.33219775390625,-8.228634959113597,-5.332739914605021,0.14776002811854705
1633782712946077000,19.352076904296876,-8.233073818343877,-5.325798717164993,0.1508413443931844
1633782712965955800,19.371955810546876,-8.23463507631123,-5.32377159525156,0.13647428040187806
1633782712985834800,19.391834716796875,-8.244617541143297,-5.309009494927525,0.10526603565700351
1633782713005714000,19.4117138671875,-8.261459370350837,-5.283274165168404,0.07542849474344403
1633782713025591800,19.431591796875,-8.276694933405517,-5.259349099701643,0.07711226484561338
1633782713045471000,19.451470947265626,-8.28392839179039,-5.247298011901974,0.11304126363522372
1633782713065350000,19.471349853515626,-8.262996078398823,-5.278714894428849,0.16865933428965507
1633782713085228800,19.491228759765626,-8.228501103600859,-5.331099161660671,0.20381319312145932
1633782713105107700,19.511107666015626,-8.180871921941637,-5.403149083349108,0.22292998152365906
1633782713124987000,19.53098681640625,-8.131026817798613,-5.476614717054367,0.25193841466931627
1633782713144864800,19.55086474609375,-8.088814400491119,-5.536778970637918,0.2924809077369049
1633782713164744000,19.570743896484377,-8.061620688617229,-5.574112968254089,0.33155382144227624
1633782713184622800,19.590622802734377,-8.05997759758532,-5.57390487846136,0.37245774996709075
1633782713204501800,19.610501708984376,-8.099433994182943,-5.514408733397722,0.4010579676380381
1633782713224380700,19.630380615234376,-8.18386993471384,-5.390695259967446,0.367515361661464
1633782713244259800,19.650259765625,-8.277110528469086,-5.249460742893815,0.32090185985080893
1633782713264137700,19.6701376953125,-8.34122322741747,-5.146493704894184,0.32859968434441833
1633782713284017000,19.690016845703123,-8.367213993242382,-5.102341843956709,0.3552862138811499
1633782713303896000,19.70989599609375,-8.368236906549335,-5.1017988231211895,0.33859058821126814
1633782713323774700,19.729774658203127,-8.363144551846384,-5.114046310275793,0.27336152551881965
1633782713343654000,19.74965380859375,-8.362343172335624,-5.118185894298553,0.21393811689782885
1633782713363532800,19.76953271484375,-8.369151098784803,-5.107838103285432,0.19413981250487267
1633782713383411000,19.789410888671874,-8.379719254550338,-5.089928352585434,0.2081302160703577
1633782713403289900,19.809289794921874,-8.384029518964887,-5.081446939966082,0.23942233970640225
1633782713423169000,19.8291689453125,-8.378233984428643,-5.088697934007644,0.2841296425695531
1633782713443047700,19.849047607421873,-8.373469546505808,-5.0942473848283285,0.32254484128486366
1633782713462926800,19.8689267578125,-8.379741466382145,-5.083927066344023,0.32248470859546213
1633782713482805800,19.8888056640625,-8.389604688748717,-5.067765036094189,0.3204389915794134
1633782713502684000,19.908683837890624,-8.396957389599084,-5.054153859370946,0.3420785033922642
1633782713522562800,19.928562744140624,-8.398356735002993,-5.050536837917566,0.360653951459378
1633782713542441700,19.948441650390624,-8.380471534222364,-5.080542100080847,0.35521062789428975
1633782713562321000,19.96832080078125,-8.337735969823598,-5.150845470362901,0.3483392077548429
1633782713582199800,19.98819970703125,-8.28877641634345,-5.230039418587088,0.33652996588703243
1633782713602079000,20.008078857421875,-8.252942886418104,-5.2873915373593565,0.3206323952596634
1633782713621956900,20.027956787109375,-8.238220533582568,-5.3106823965758085,0.31426435806509107
1633782713641836000,20.0478359375,-8.243425701010226,-5.30327416614592,0.30265778089622036
1633782713661714700,20.067714599609374,-8.25830353666842,-5.280212439510226,0.3002812610232271
1633782713681593900,20.08759375,-8.269667226725817,-5.260637385946512,0.3296623816724866
1633782713701472800,20.10747265625,-8.267139169552921,-5.261458054679632,0.37663708147834984
1633782713721352000,20.12735205078125,-8.245045411166549,-5.293397499775886,0.41178029105197633
1633782713741229800,20.147229736328125,-8.207551839074492,-5.35064732721746,0.4207696531934663
1633782713761109000,20.16710888671875,-8.169354502627254,-5.408247867792844,0.4276492566393688
1633782713780987600,20.186987548828125,-8.158105963382125,-5.425248102432489,0.42704460527710614
1633782713800866800,20.20686669921875,-8.18743318015337,-5.380442161500453,0.4326210171699524
1633782713820746000,20.22674609375,-8.240926869931817,-5.295564906942844,0.4631418641725555
1633782713840625000,20.246625,-8.28773012216091,-5.217294503304362,0.5135630511704832
1633782713860502800,20.266502685546875,-8.299365614897011,-5.191361020624638,0.5836812376113608
1633782713880381700,20.286381591796875,-8.262821890875697,-5.240986344537139,0.6543929329659789
1633782713900261600,20.30626171875,-8.188883378961682,-5.3498950475454325,0.7008548244114965
1633782713920140800,20.326140869140627,-8.075319543623923,-5.518846423584223,0.7084754554830491
1633782713940019700,20.346019775390626,-7.958868170151114,-5.695865370744467,0.6196084737021476
1633782713959898600,20.365898681640626,-7.890323041713238,-5.804153896027803,0.47432106450852
