time,seconds_elapsed,z,y,x
1633782693604018700,0.010018798828125,0.21133612096309662,0.12333647906780243,-0.24984554946422577
1633782693623896800,0.029896728515625,0.13689835369586945,0.14378798007965088,-0.24826762080192566
1633782693643775700,0.049775634765625,0.1581767499446869,0.1658628135919571,-0.22221316397190094
1633782693663655000,0.069655029296875,0.24193941056728363,0.14521871507167816,-0.22727948427200317
1633782693683533600,0.089533447265625,0.27781495451927185,0.14256742596626282,-0.28715449571609497
1633782693703412700,0.109412841796875,0.2784269154071808,0.2391553521156311,-0.36591559648513794
1633782693723290600,0.12929052734375,0.26079368591308594,0.3653174340724945,-0.3996898829936981
1633782693743169800,0.149169677734375,0.3043234944343567,0.4786611497402191,-0.3199973702430725
1633782693763048700,0.169048583984375,0.4335654079914093,0.4781270921230316,-0.1527138352394104
1633782693782928000,0.188927978515625,0.5727699398994446,0.3783959448337555,0.039810072630643845
1633782693802805800,0.2088056640625,0.6495921611785889,0.27531835436820984,0.18021903932094574
1633782693822684700,0.2286845703125,0.6001272201538086,0.12214449048042297,0.20401553809642792
1633782693842563800,0.248563720703125,0.5786172151565552,0.19039221107959747,0.09508734196424484
1633782693862442800,0.26844287109375,0.5759892463684082,0.05584515258669853,-0.15783968567848206
1633782693882324700,0.28832470703125,0.5362697839736938,0.01312409806996584,-0.29795461893081665
1633782693902203000,0.308202880859375,0.5584155917167664,0.014517690055072308,-0.3172304034233093
1633782693922081800,0.328081787109375,0.599024772644043,-0.013260857202112675,-0.2380310744047165
1633782693941960700,0.347960693359375,0.652691125869751,-0.007645776960998774,-0.06916924566030502
1633782693961839600,0.367839599609375,0.6856213212013245,-0.14146848022937775,0.058294814079999924
1633782693981717800,0.3877177734375,0.6719392538070679,-0.1953287124633789,0.12879341840744019
1633782694001596700,0.4075966796875,0.6230560541152954,-0.14078891277313232,0.12048963457345963
1633782694021475800,0.427475830078125,0.5501233339309692,-0.09935930371284485,0.036424607038497925
1633782694041354800,0.447354736328125,0.4774482548236847,-0.03417777642607689,-0.06281211227178574
1633782694061233700,0.467233642578125,0.3989258408546448,0.011505406349897385,-0.17164817452430725
1633782694081111600,0.487111572265625,0.33292871713638306,0.04661383852362633,-0.2723870277404785
1633782694100990700,0.50699072265625,0.32582759857177734,0.02720104530453682,-0.31399643421173096
1633782694120869600,0.52686962890625,0.36919865012168884,0.05064363777637482,-0.2571031153202057
1633782694140748800,0.546748779296875,0.4023018777370453,0.09764222800731659,-0.16868743300437927
1633782694160626700,0.566626708984375,0.34326454997062683,0.0748790055513382,-0.10443711280822754
1633782694180505900,0.586505859375,0.20101545751094818,0.04770015925168991,-0.08954861015081406
1633782694200384800,0.606384765625,0.06046639382839203,0.03823066130280495,-0.10176490992307663
1633782694220263700,0.626263671875,0.004685098305344582,0.10568323731422424,-0.09609093517065048
1633782694240142800,0.646142822265625,0.03788960352540016,0.18411684036254883,-0.035032808780670166
1633782694260020700,0.666020751953125,0.06589891761541367,0.22173796594142914,0.05971438065171242
1633782694279900000,0.68589990234375,0.009307281114161015,0.3293134272098541,0.06813236325979233
1633782694299778800,0.70577880859375,-0.07019101083278656,0.26597899198532104,-0.12778839468955994
1633782694319657700,0.72565771484375,0.06972342729568481,-0.1455521434545517,-0.37969088554382324
1633782694339535600,0.74553564453125,0.330036461353302,-0.3683324158191681,-0.378553569316864
1633782694359414800,0.765414794921875,0.413717120885849,-0.32455021142959595,-0.17906421422958374
1633782694379293700,0.785293701171875,0.253024160861969,-0.14074023067951202,0.0761711597442627
1633782694399172900,0.8051728515625,0.08472289144992828,0.023242242634296417,0.352620929479599
1633782694419051500,0.825051513671875,0.10721700638532639,-0.06949758529663086,0.6390175223350525
1633782694438930000,0.844929931640625,0.15420742332935333,-0.08381680399179459,0.9385536313056946
1633782694458808600,0.86480859375,0.08105246722698212,-0.17786474525928497,1.106376051902771
1633782694478687700,0.884687744140625,-0.07033178210258484,-0.33860641717910767,1.122570276260376
1633782694498567000,0.90456689453125,-0.24442000687122345,-0.33548489212989807,0.9879377484321594
1633782694518444800,0.92444482421875,-0.3656421899795532,-0.35177016258239746,0.6293916702270508
1633782694538323700,0.94432373046875,-0.3796892464160919,-0.2892698645591736,0.17510578036308289
1633782694558202600,0.96420263671875,-0.2403673231601715,0.030940603464841843,-0.15226595103740692
1633782694578081800,0.984081787109375,-0.006543281022459269,0.35565879940986633,-0.2846343219280243
1633782694597960700,1.003960693359375,0.1538625955581665,0.3074592351913452,-0.30069655179977417
1633782694617838800,1.0238388671875,0.15082116425037384,0.15506426990032196,-0.25731050968170166
1633782694637717800,1.0437177734375,0.04157392680644989,0.009188644587993622,-0.19734227657318115
1633782694657597000,1.063596923828125,-0.04046272486448288,-0.0519518181681633,-0.11970054358243942
1633782694677475600,1.0834755859375,-0.07256489992141724,-0.062832310795784,-0.07631174474954605
1633782694697353700,1.103353759765625,-0.0656944215297699,-0.060652002692222595,-0.08210208266973495
1633782694717232600,1.123232666015625,0.005305132362991571,0.03288894146680832,-0.07612824440002441
1633782694737111800,1.14311181640625,0.10380299389362335,0.16347689926624298,-0.07619389146566391
1633782694756990700,1.16299072265625,0.15228749811649323,0.13864369690418243,-0.08943654596805573
1633782694776868900,1.182868896484375,0.11761878430843353,0.0749419778585434,-0.09547802060842514
1633782694796747800,1.202747802734375,0.02562771923840046,0.008578493259847164,-0.1291472613811493
1633782694816626700,1.222626708984375,-0.08744541555643082,-0.07179614156484604,-0.16533488035202026
1633782694836505600,1.242505615234375,-0.1511911004781723,-0.1439153552055359,-0.15970256924629211
1633782694856384800,1.262384765625,-0.18320982158184052,-0.13414788246154785,-0.13563041388988495
1633782694876259000,1.282259033203125,-0.205596923828125,-0.10353501886129379,-0.13005870580673218
1633782694896138200,1.30213818359375,-0.2319944053888321,-0.05634760856628418,-0.12438946217298508
1633782694916017200,1.32201708984375,-0.23083406686782837,0.01428233366459608,-0.10153954476118088
1633782694935896000,1.34189599609375,-0.1720179319381714,0.17836619913578033,-0.018857069313526154
1633782694955774000,1.36177392578125,-0.16195613145828247,0.26850175857543945,0.02993074618279934
1633782694975653000,1.381653076171875,-0.12143406271934509,0.15759055316448212,-0.03118201717734337
1633782694995532000,1.401531982421875,-0.02777809090912342,-0.06172515079379082,-0.1311015486717224
1633782695015411200,1.4214111328125,0.00011681835167109966,-0.16371849179267883,-0.26822614669799805
1633782695035290000,1.4412900390625,-0.0568695105612278,-0.1721382588148117,-0.4829743802547455
1633782695055168300,1.461168212890625,-0.04295630007982254,0.09909021109342575,-0.5753395557403564
1633782695075047000,1.481046875,0.17707966268062592,0.3772011697292328,-0.40723875164985657
1633782695094926000,1.500926025390625,0.4628356695175171,0.5571427941322327,-0.059779636561870575
1633782695114805000,1.520804931640625,0.6246952414512634,0.608330249786377,0.24674253165721893
1633782695134683100,1.54068310546875,0.6772640943527222,0.38969895243644714,0.43377548456192017
1633782695154562000,1.56056201171875,0.6354485750198364,0.08287175744771957,0.5463074445724487
1633782695174441200,1.580441162109375,0.47406962513923645,-0.2016577124595642,0.5359624028205872
1633782695194320100,1.600320068359375,0.22756327688694,-0.41911667585372925,0.32610511779785156
1633782695214199000,1.620198974609375,-0.007252308074384928,-0.5326113700866699,-0.09822135418653488
1633782695234077000,1.640076904296875,-0.13425835967063904,-0.4905422627925873,-0.6077306270599365
1633782695253956000,1.6599560546875,-0.12163006514310837,-0.27514705061912537,-0.9744124412536621
1633782695273835300,1.679835205078125,-0.03547905012965202,-0.060287609696388245,-1.0859129428863525
1633782695293714000,1.6997138671875,0.0530654676258564,0.0502023883163929,-0.9209444522857666
1633782695313592300,1.71959228515625,0.0962938442826271,0.052463460713624954,-0.5661327838897705
1633782695333471000,1.739470947265625,0.09936782717704773,0.030471958220005035,-0.23245948553085327
1633782695353350100,1.75935009765625,0.10580787062644958,-0.08753447979688644,-0.09053748100996017
1633782695373229000,1.77922900390625,0.09416528791189194,-0.27967390418052673,-0.08443103730678558
1633782695393107200,1.799107177734375,0.02900439314544201,-0.3752896189689636,-0.10706496983766556
1633782695412986000,1.818986083984375,-0.09100595861673355,-0.3862331807613373,-0.15729579329490662
1633782695432865000,1.838864990234375,-0.192605122923851,-0.3100798428058624,-0.20429719984531403
1633782695452744000,1.858743896484375,-0.24805811047554016,-0.13731321692466736,-0.15690548717975616
1633782695472623000,1.878623046875,-0.25820547342300415,-0.013709086924791336,-0.014407312497496605
1633782695492501000,1.8985009765625,-0.21308983862400055,0.05563025176525116,0.17764395475387573
1633782695512380200,1.918380126953125,-0.13843035697937012,0.06124211847782135,0.35186493396759033
1633782695532259000,1.938259033203125,-0.09166461229324341,0.06693590432405472,0.4159556031227112
1633782695552138000,1.958137939453125,-0.08956055343151093,0.15457211434841156,0.353676438331604
1633782695572016000,1.97801611328125,-0.07491620630025864,0.2924672067165375,0.2173350602388382
1633782695591895000,1.99789501953125,0.040264979004859924,0.4426439702510834,0.06706540286540985
1633782695611774000,2.01777392578125,0.24073804914951324,0.43654483556747437,-0.11605814844369888
1633782695631653000,2.037653076171875,0.3581334054470062,0.26613155007362366,-0.3383042514324188
1633782695651532300,2.0575322265625,0.2768953740596771,-0.0018421905115246773,-0.5088924169540405
1633782695671410200,2.07741015625,0.050811152905225754,-0.15374146401882172,-0.5407122373580933
1633782695691289000,2.0972890625,-0.13384029269218445,0.04761254042387009,-0.38613152503967285
1633782695711168000,2.11716796875,-0.09731248021125793,0.3248245418071747,-0.08239913731813431
1633782695731047200,2.137047119140625,0.14880035817623138,0.4696594774723053,0.2678411602973938
1633782695750925000,2.156925048828125,0.43450549244880676,0.5107877850532532,0.4733828008174896
1633782695770804200,2.17680419921875,0.5767306089401245,0.5590778589248657,0.4501242935657501
1633782695790683100,2.19668310546875,0.5197674036026001,0.6249253153800964,0.2706659138202667
1633782695810562000,2.21656201171875,0.35633960366249084,0.6134620904922485,0.05405692756175995
1633782695830441000,2.23644091796875,0.17032693326473236,0.5484435558319092,-0.12452127784490585
1633782695850319000,2.256319091796875,0.05703826621174812,0.5612915754318237,-0.19606457650661469
1633782695870198000,2.276197998046875,0.10331431031227112,0.579082727432251,-0.15842722356319427
1633782695890078000,2.296077880859375,0.24862371385097504,0.5032402276992798,-0.07624930888414383
1633782695909956600,2.31595654296875,0.3675680458545685,0.3138052523136139,-0.005038456059992313
1633782695929834800,2.335834716796875,0.3551003932952881,0.12753379344940186,0.0026627143379300833
1633782695949713700,2.355713623046875,0.23900283873081207,-0.030852515250444412,-0.02442244067788124
1633782695969592800,2.3755927734375,0.13051669299602509,-0.10403548181056976,-0.012343086302280426
1633782695989471700,2.3954716796875,0.07636343687772751,-0.17752651870250702,0.03719143196940422
1633782696009350000,2.415349853515625,0.08100597560405731,-0.28081759810447693,0.09481509774923325
1633782696029228800,2.435228759765625,0.11854535341262817,-0.3102115988731384,0.18970727920532227
1633782696049107700,2.455107666015625,0.1482602059841156,-0.23072445392608643,0.2988833487033844
1633782696068986600,2.474986572265625,0.12481864541769028,-0.12931640446186066,0.39576494693756104
1633782696088865800,2.49486572265625,0.08088431507349014,-0.03505287319421768,0.48904645442962646
1633782696108743700,2.51474365234375,0.02055673860013485,-0.009941857308149338,0.5491296052932739
1633782696128622800,2.534622802734375,-0.06892553716897964,-0.054735563695430756,0.5446364283561707
1633782696148501800,2.554501708984375,-0.1752886027097702,-0.16691897809505463,0.5073282718658447
1633782696168380700,2.574380615234375,-0.29876986145973206,-0.4026332497596741,0.4565807580947876
1633782696188258600,2.594258544921875,-0.3839239180088043,-0.5473465323448181,0.39153891801834106
1633782696208137700,2.6141376953125,-0.4412001967430115,-0.4336519241333008,0.2432556003332138
1633782696228017000,2.634016845703125,-0.49648454785346985,-0.27452075481414795,-0.05463908985257149
1633782696247895800,2.653895751953125,-0.5069369673728943,-0.10718051344156265,-0.45571184158325195
1633782696267774700,2.673774658203125,-0.5831230878829956,-0.004154176451265812,-0.857244074344635
1633782696287652600,2.693652587890625,-0.685234785079956,-0.0795261561870575,-1.1163164377212524
1633782696307531800,2.71353173828125,-0.7489481568336487,-0.08072366565465927,-1.1342508792877197
1633782696327410700,2.73341064453125,-0.6484013199806213,-0.06853491067886353,-0.9004293084144592
1633782696347289900,2.753289794921875,-0.34925150871276855,0.0027783196419477463,-0.42596742510795593
1633782696367167700,2.773167724609375,0.10024810582399368,-0.012239654548466206,0.21158619225025177
1633782696387047000,2.793046875,0.5408928990364075,-0.0676054134964943,0.8645676374435425
1633782696406925600,2.812925537109375,0.6933076977729797,-0.23316887021064758,1.2468663454055786
1633782696426804700,2.8328046875,0.5643094778060913,-0.5528141856193542,1.2160029411315918
1633782696446682600,2.8526826171875,0.1887374371290207,-0.9364390969276428,0.7307689785957336
1633782696466561800,2.872561767578125,-0.23179998993873596,-1.2088347673416138,0.036951493471860886
1633782696486440700,2.892440673828125,-0.4461328983306885,-1.0879861116409302,-0.4631483852863312
1633782696506320000,2.91231982421875,-0.43761971592903137,-0.6425266861915588,-0.6496420502662659
1633782696526198800,2.93219873046875,-0.2556365430355072,-0.17429962754249573,-0.6052323579788208
1633782696546076700,2.95207666015625,0.014550933614373207,0.09300917387008667,-0.44028377532958984
1633782696565955600,2.97195556640625,0.16683745384216309,0.06767047941684723,-0.23785273730754852
1633782696585834800,2.991834716796875,0.13961324095726013,-0.14095380902290344,-0.07635589689016342
1633782696605714000,3.0117138671875,0.031117398291826248,-0.3791736364364624,0.017141025513410568
1633782696625591800,3.031591796875,-0.09892529249191284,-0.4900127351284027,0.05892177298665047
1633782696645471000,3.051470947265625,-0.18257927894592285,-0.47058624029159546,-0.017026852816343307
1633782696665349600,3.071349609375,-0.1637510061264038,-0.34234651923179626,-0.12195992469787598
1633782696685228800,3.091228759765625,-0.14789070188999176,-0.17280873656272888,-0.15219740569591522
1633782696705106700,3.111106689453125,-0.2026362419128418,0.047416094690561295,-0.07086605578660965
1633782696724985900,3.13098583984375,-0.367869108915329,0.13337701559066772,0.07856807112693787
1633782696744864800,3.15086474609375,-0.5597035884857178,0.056746721267700195,0.25123873353004456
1633782696764743700,3.17074365234375,-0.6734306812286377,0.1817498654127121,0.41670307517051697
1633782696784622600,3.19062255859375,-0.6653037071228027,0.3934953808784485,0.48449480533599854
1633782696804500700,3.210500732421875,-0.49462270736694336,0.5694435238838196,0.38454705476760864
1633782696824379600,3.230379638671875,-0.22611387073993683,0.6022297739982605,0.10103726387023926
1633782696844258800,3.2502587890625,-0.11601751297712326,0.4740521311759949,-0.313737690448761
1633782696864137700,3.2701376953125,-0.3057345151901245,0.23058518767356873,-0.7039175629615784
1633782696884015000,3.29001513671875,-0.5609679222106934,0.3127540051937103,-0.8094905018806458
1633782696903894000,3.30989404296875,-0.5191404223442078,0.5057064890861511,-0.5608611702919006
1633782696923773000,3.32977294921875,-0.15956339240074158,0.3682993948459625,-0.140389084815979
1633782696943651800,3.34965185546875,0.2653824985027313,0.12700137495994568,0.30118441581726074
1633782696963531000,3.369531005859375,0.5304732322692871,-0.046253450214862823,0.605434238910675
1633782696983409000,3.389408935546875,0.6179101467132568,-0.043672606348991394,0.664864718914032
1633782697003288000,3.4092880859375,0.5222665071487427,-0.0355161689221859,0.4381365180015564
1633782697023167000,3.4291669921875,0.3093423545360565,-0.06374096125364304,0.014560173265635967
1633782697043046000,3.4490458984375,0.15218357741832733,0.022708065807819366,-0.4280658960342407
1633782697062924000,3.468924072265625,0.14179468154907227,0.17315539717674255,-0.6909443140029907
1633782697082803000,3.488802978515625,0.21031729876995087,0.1684713512659073,-0.7150912284851074
1633782697102682000,3.50868212890625,0.291606605052948,-0.004240081645548344,-0.5337337851524353
1633782697122561000,3.52856103515625,0.3432786464691162,-0.16273601353168488,-0.24355745315551758
1633782697142439000,3.54843896484375,0.34629905223846436,-0.2333727478981018,0.025251150131225586
1633782697162318000,3.568318115234375,0.31665828824043274,-0.1282627433538437,0.1932770162820816
1633782697182197000,3.588197021484375,0.30000799894332886,-0.06338285654783249,0.2539037764072418
1633782697202076000,3.608075927734375,0.30440279841423035,-0.10261956602334976,0.20216430723667145
1633782697221955000,3.627955078125,0.30474209785461426,-0.10001953691244125,0.11518252640962601
1633782697241833000,3.6478330078125,0.2472536265850067,-0.1126595214009285,0.04590941220521927
1633782697261712100,3.667712158203125,0.12919773161411285,-0.12965308129787445,0.035987477749586105
1633782697281591000,3.687591064453125,-0.011017379350960255,-0.11387073993682861,0.0995628759264946
1633782697301470000,3.707469970703125,-0.18027254939079285,-0.016836466267704964,0.2213963270187378
1633782697321347800,3.727347900390625,-0.2974969446659088,0.09207837283611298,0.37278223037719727
1633782697341227000,3.74722705078125,-0.31259074807167053,0.004242041148245335,0.46043843030929565
1633782697361106000,3.76710595703125,-0.3065726161003113,-0.12907886505126953,0.38792917132377625
1633782697380985000,3.786985107421875,-0.31530359387397766,-0.034922946244478226,0.13184423744678497
1633782697400863000,3.806863037109375,-0.46085110306739807,-0.005970546044409275,-0.34655386209487915
1633782697420742100,3.8267421875,-0.7693623900413513,-0.14007218182086945,-0.9483296275138855
1633782697440620800,3.846620849609375,-0.8443679213523865,-0.09355822950601578,-1.3317468166351318
1633782697460500000,3.8665,-0.6070269346237183,0.25360339879989624,-1.3735594749450684
1633782697480377900,3.8863779296875,-0.21996426582336426,0.7034471035003662,-1.127750277519226
1633782697500257000,3.906257080078125,0.20451991260051727,1.0287737846374512,-0.6996463537216187
1633782697520136200,3.92613623046875,0.4898231327533722,0.8405086398124695,-0.20658063888549805
1633782697540015000,3.94601513671875,0.6014805436134338,0.4256008565425873,0.36146077513694763
1633782697559894000,3.96589404296875,0.5714903473854065,0.008844977244734764,0.916969895362854
1633782697579772000,3.98577197265625,0.4408565163612366,-0.3449994623661041,1.2629984617233276
1633782697599651000,4.005651123046875,0.22347165644168854,-0.5353400111198425,1.2492120265960693
1633782697619530000,4.025530029296875,0.007766211871057749,-0.5296152234077454,0.908954918384552
1633782697639409200,4.0454091796875,-0.08029983192682266,-0.41532453894615173,0.4772562086582184
1633782697659287000,4.065287109375,-0.04622560366988182,-0.07316192984580994,0.14785803854465485
1633782697679166000,4.085166015625,0.038842104375362396,0.332850843667984,-0.130992129445076
1633782697699044900,4.105044921875,0.14818090200424194,0.4484367370605469,-0.410155713558197
1633782697718924000,4.124924072265625,0.2070385068655014,0.3123784363269806,-0.5802302956581116
1633782697738803000,4.144802978515625,0.16888217628002167,0.23453959822654724,-0.5545024871826172
1633782697758681000,4.16468115234375,0.10580633580684662,0.19485552608966827,-0.40200838446617126
1633782697778560000,4.18456005859375,0.11928757280111313,0.13269299268722534,-0.1979837566614151
1633782697798439000,4.20443896484375,0.19965484738349915,0.07027923315763474,0.030116811394691467
1633782697818317800,4.22431787109375,0.2415306121110916,0.1083373948931694,0.25470155477523804
1633782697838196000,4.244196044921875,0.17982697486877441,0.26631197333335876,0.3967072665691376
1633782697858075000,4.264074951171875,0.068449005484581,0.31734272837638855,0.4297902286052704
1633782697877955000,4.283955078125,0.028026212006807327,0.3163730204105377,0.4452698528766632
1633782697897834000,4.303833984375,0.09662541002035141,0.3343590795993805,0.4732838571071625
1633782697917712000,4.3237119140625,0.179775670170784,0.28023040294647217,0.41912955045700073
1633782697937591000,4.343591064453125,0.2449602335691452,0.11573808640241623,0.25590425729751587
1633782697957470000,4.363469970703125,0.276348739862442,-0.053178176283836365,0.02794627472758293
1633782697977349000,4.38334912109375,0.18978948891162872,-0.13626833260059357,-0.311673641204834
1633782697997227000,4.40322705078125,0.0006313942139968276,-0.21140164136886597,-0.707823634147644
1633782698017106200,4.423106201171875,-0.043078694492578506,0.006406755186617374,-0.8761630654335022
1633782698036984800,4.44298486328125,0.19043385982513428,0.41160351037979126,-0.7238495945930481
1633782698056864000,4.462864013671875,0.5572139620780945,0.5048046708106995,-0.4197534918785095
1633782698076743000,4.482742919921875,0.8476384282112122,0.2514412999153137,-0.1694149374961853
1633782698096621000,4.50262109375,0.9341022372245789,-0.13061818480491638,0.018490249291062355
1633782698116500000,4.5225,0.8201574087142944,-0.28808659315109253,0.20146159827709198
1633782698136379000,4.54237890625,0.5712462067604065,-0.17207200825214386,0.32823851704597473
1633782698156257800,4.5622578125,0.36796897649765015,0.05792171135544777,0.29390648007392883
1633782698176136000,4.582135986328125,0.3216482996940613,0.2873346507549286,0.17446060478687286
1633782698196014800,4.602014892578125,0.41809338331222534,0.3554798662662506,0.08556712418794632
1633782698215894000,4.62189404296875,0.5322892665863037,0.25406020879745483,0.05104552209377289
1633782698235773000,4.64177294921875,0.5667319893836975,0.14276471734046936,0.09354455769062042
1633782698255651800,4.66165185546875,0.5087243914604187,0.09940466284751892,0.1935645192861557
1633782698275530000,4.681530029296875,0.41744229197502136,0.062403690069913864,0.30456140637397766
1633782698295409000,4.701408935546875,0.33669376373291016,-0.05013706535100937,0.3302662968635559
1633782698315288000,4.7212880859375,0.26615309715270996,-0.21578064560890198,0.2471979409456253
1633782698335167000,4.7411669921875,0.19023072719573975,-0.3951534330844879,0.09651952981948853
1633782698355044900,4.761044921875,0.09368953853845596,-0.40587297081947327,-0.04547835513949394
1633782698374924000,4.780924072265625,-0.055790014564991,-0.2553654611110687,-0.12446974962949753
1633782698394803000,4.800802978515625,-0.25375044345855713,-0.12996865808963776,-0.1145666092634201
1633782698414681900,4.820681884765625,-0.4707871675491333,-0.1339343935251236,-0.055479589849710464
1633782698434560000,4.84056005859375,-0.6655678153038025,-0.19635455310344696,0.00028701283736154437
1633782698454439000,4.86043896484375,-0.7999675273895264,-0.09016790986061096,0.04165222868323326
1633782698474318000,4.880318115234375,-0.8108097314834595,0.11443450301885605,0.0823737308382988
1633782698494197000,4.900197021484375,-0.654425859451294,0.2587805390357971,0.1432764232158661
1633782698514076000,4.920075927734375,-0.4728772044181824,0.1828930675983429,0.17980243265628815
1633782698533953800,4.939953857421875,-0.3276031017303467,0.0970197468996048,0.18067435920238495
1633782698553833000,4.9598330078125,-0.3326255977153778,-0.04437892884016037,0.09031152725219727
1633782698573712000,4.9797119140625,-0.5524892210960388,-0.1352505087852478,-0.13912788033485413
1633782698593591000,4.999591064453125,-0.7518147230148315,-0.05955462157726288,-0.40077874064445496
1633782698613469000,5.019468994140625,-0.6724512577056885,0.18981224298477173,-0.4390019476413727
1633782698633348000,5.03934814453125,-0.35711097717285156,0.3342273235321045,-0.21788489818572998
1633782698653226800,5.059226806640625,0.03461833670735359,0.32966965436935425,0.2071472853422165
1633782698673106000,5.07910595703125,0.323442280292511,0.2610747814178467,0.7221765518188477
1633782698692983800,5.09898388671875,0.41748353838920593,0.054394014179706573,1.082938551902771
1633782698712863000,5.118863037109375,0.31041252613067627,-0.42283567786216736,1.1217827796936035
1633782698732742100,5.1387421875,0.013799874112010002,-0.7350403666496277,0.8435024619102478
1633782698752621000,5.15862109375,-0.3406153917312622,-0.7373908758163452,0.33285290002822876
1633782698772499000,5.1784990234375,-0.5932332873344421,-0.5364636182785034,-0.24227668344974518
1633782698792377900,5.1983779296875,-0.6604090929031372,-0.197867751121521,-0.6310944557189941
1633782698812257000,5.218257080078125,-0.5974650382995605,0.09913364797830582,-0.714935839176178
1633782698832136000,5.238135986328125,-0.47208622097969055,0.10079801082611084,-0.5692445039749146
1633782698852015000,5.25801513671875,-0.3738272190093994,-0.09000853449106216,-0.3113693594932556
1633782698871893000,5.27789306640625,-0.3444922864437103,-0.28180620074272156,-0.051370710134506226
1633782698891772200,5.297772216796875,-0.3381894528865814,-0.3491547703742981,0.09704338014125824
1633782698911651000,5.317651123046875,-0.3252358138561249,-0.345730721950531,0.08437925577163696
1633782698931530200,5.3375302734375,-0.2850501537322998,-0.35854294896125793,-0.01797863468527794
1633782698951408000,5.357408203125,-0.2525081932544708,-0.2939649224281311,-0.0988159254193306
1633782698971287300,5.377287353515625,-0.2366921603679657,-0.16591119766235352,-0.1078934296965599
1633782698991166200,5.397166259765625,-0.2719358801841736,-0.0452665314078331,-0.06758835166692734
1633782699011045000,5.417045166015625,-0.34487184882164,-0.05071112513542175,0.01946336403489113
1633782699030923000,5.436923095703125,-0.3678889870643616,-0.04699065163731575,0.1311194896697998
1633782699050802200,5.45680224609375,-0.3200215697288513,-0.035546641796827316,0.22627635300159454
1633782699070681000,5.47668115234375,-0.22283786535263062,-0.04002993553876877,0.2694975435733795
1633782699090560300,5.496560302734375,-0.13230440020561218,-0.05760956183075905,0.21667620539665222
1633782699110439400,5.516439453125,-0.026784783229231834,-0.0029949238523840904,0.03455543518066406
1633782699130317300,5.5363173828125,-0.00800322089344263,-0.003864518366754055,-0.32173293828964233
1633782699150196200,5.5561962890625,-0.12602035701274872,-0.151040717959404,-0.8141736388206482
1633782699170075100,5.5760751953125,-0.21157360076904297,-0.27692246437072754,-1.1376428604125977
1633782699189954300,5.595954345703125,-0.14024902880191803,0.031344182789325714,-1.0128754377365112
1633782699209832200,5.615832275390625,0.1740475445985794,0.45950448513031006,-0.560465395450592
1633782699229711400,5.63571142578125,0.48266327381134033,0.5360437631607056,-0.09952247887849808
1633782699249590300,5.65559033203125,0.5525700449943542,0.12940509617328644,0.13411350548267365
1633782699269469200,5.67546923828125,0.4683438241481781,-0.2985648810863495,0.2555696368217468
1633782699289347000,5.69534716796875,0.3125164210796356,-0.2658764123916626,0.37459003925323486
1633782699309226200,5.715226318359375,0.18510763347148895,-0.15093591809272766,0.33587396144866943
1633782699329105200,5.735105224609375,0.15563246607780457,-0.1525612324476242,0.13094446063041687
1633782699348984300,5.754984375,0.16567866504192352,-0.05966377258300781,-0.09462890774011612
1633782699368862200,5.7748623046875,0.19325196743011475,0.1509738564491272,-0.21385037899017334
1633782699388741400,5.794741455078125,0.2454056739807129,0.19861578941345215,-0.1882634162902832
1633782699408620000,5.8146201171875,0.2654587924480438,0.0378931388258934,-0.0723949745297432
1633782699428499200,5.834499267578125,0.22366884350776672,-0.15919306874275208,0.049656692892313004
1633782699448378400,5.85437841796875,0.1461113542318344,-0.22533023357391357,0.11064648628234863
1633782699468256300,5.87425634765625,0.11845837533473969,-0.17550772428512573,0.1188051849603653
1633782699488135200,5.89413525390625,0.20714552700519562,0.00969522725790739,0.11972365528345108
1633782699508014000,5.91401416015625,0.3875315189361572,0.24556928873062134,0.16059048473834991
1633782699527893200,5.933893310546875,0.5305390357971191,0.3353039026260376,0.2468043565750122
1633782699547771100,5.953771240234375,0.5321207642555237,0.24098989367485046,0.33581268787384033
1633782699567650300,5.973650390625,0.3947809040546417,0.20487111806869507,0.42879557609558105
1633782699587529200,5.993529296875,0.18289552628993988,0.22636954486370087,0.4825213849544525
1633782699607408400,6.013408447265625,-0.06907013803720474,0.15990050137043,0.4604949355125427
1633782699627286300,6.033286376953125,-0.33330100774765015,0.04111927002668381,0.3669838607311249
1633782699647165200,6.053165283203125,-0.5360331535339355,-0.03937980532646179,0.22807759046554565
1633782699667044000,6.073044189453125,-0.5942813158035278,-0.19433726370334625,0.06962310522794724
1633782699686923300,6.09292333984375,-0.5694937109947205,-0.40686798095703125,-0.12977737188339233
1633782699706802200,6.11280224609375,-0.573910117149353,-0.5248027443885803,-0.355135440826416
1633782699726680300,6.132680419921875,-0.502342700958252,-0.36548176407814026,-0.4682074785232544
1633782699746559200,6.152559326171875,-0.4259251058101654,-0.07832779735326767,-0.4451344907283783
1633782699766438100,6.172438232421875,-0.413936972618103,0.1328187882900238,-0.34262895584106445
1633782699786317000,6.192317138671875,-0.32674965262413025,0.17036066949367523,-0.19631026685237885
1633782699806195200,6.2121953125,-0.14263367652893066,0.1922258585691452,0.013680902309715748
1633782699826074000,6.23207421875,-0.0065580750815570354,0.05851985514163971,0.21570418775081635
1633782699845953300,6.251953369140625,0.07190284878015518,-0.1803296059370041,0.4073304831981659
1633782699865832400,6.27183251953125,0.032180532813072205,-0.2625148892402649,0.6160371899604797
1633782699885709300,6.291709228515625,-0.11348074674606323,-0.20830731093883514,0.7513739466667175
1633782699905588500,6.31158837890625,-0.2362886518239975,-0.2656465172767639,0.7214425206184387
1633782699925467100,6.331467041015625,-0.27671828866004944,-0.37323224544525146,0.5632733106613159
1633782699945346300,6.35134619140625,-0.21950583159923553,-0.429399311542511,0.33769306540489197
1633782699965225200,6.37122509765625,-0.07837943732738495,-0.4246826469898224,0.09211143851280212
1633782699985103400,6.391103271484375,0.010636516846716404,-0.3691011369228363,-0.15122538805007935
1633782700004982300,6.410982177734375,-0.028996219858527184,-0.28443488478660583,-0.3590220510959625
1633782700024861400,6.430861328125,-0.12423356622457504,-0.09265021979808807,-0.44581303000450134
1633782700044740400,6.450740234375,-0.22656400501728058,0.18597806990146637,-0.3375024199485779
1633782700064618200,6.4706181640625,-0.25839483737945557,0.20591729879379272,-0.10944487154483795
1633782700084497400,6.490497314453125,-0.213680699467659,-0.056320078670978546,0.10190476477146149
1633782700104376300,6.510376220703125,-0.15106482803821564,-0.3954850137233734,0.19355979561805725
1633782700124255500,6.53025537109375,-0.13911452889442444,-0.6396485567092896,0.20846812427043915
1633782700144133400,6.55013330078125,-0.157071053981781,-0.5372466444969177,0.22034455835819244
1633782700164012500,6.570012451171875,-0.1481429487466812,-0.35990530252456665,0.23298022150993347
1633782700183891200,6.58989111328125,-0.13938654959201813,-0.49228236079216003,0.274448961019516
1633782700203770400,6.609770263671875,-0.1607082486152649,-0.8182426691055298,0.2672283947467804
1633782700223649300,6.629649169921875,-0.22239328920841217,-0.9848371744155884,0.20852985978126526
1633782700243527400,6.64952734375,-0.2728334367275238,-0.8810515403747559,0.1628417819738388
1633782700263406300,6.66940625,-0.29336750507354736,-0.36150503158569336,0.20426122844219208
1633782700283285500,6.689285400390625,-0.266657292842865,0.15930798649787903,0.2752828299999237
1633782700303164200,6.7091640625,-0.20855484902858734,0.4547356963157654,0.2609696686267853
1633782700323042300,6.729042236328125,-0.14110136032104492,0.4837871789932251,0.07905575633049011
1633782700342921200,6.748921142578125,-0.12845447659492493,0.28243932127952576,-0.18227316439151764
1633782700362800400,6.76880029296875,-0.17503561079502106,-0.0376339890062809,-0.38586774468421936
1633782700382679300,6.78867919921875,-0.24923565983772278,-0.11065025627613068,-0.4476478099822998
1633782700402557400,6.808557373046875,-0.18773674964904785,0.17536751925945282,-0.3902249336242676
1633782700422436400,6.828436279296875,-0.027120500802993774,0.3582255244255066,-0.2771853506565094
1633782700442315300,6.848315185546875,0.12622474133968353,0.32266178727149963,-0.11960642784833908
1633782700462194400,6.8681943359375,0.2625558078289032,0.23223565518856049,0.08475252240896225
1633782700482072300,6.888072265625,0.3666900396347046,0.1527937352657318,0.2662084996700287
1633782700501951200,6.907951171875,0.44276753067970276,0.015736173838377,0.3156273365020752
1633782700521830400,6.927830322265625,0.4584774672985077,-0.10588816553354263,0.1965564340353012
1633782700541709300,6.947709228515625,0.4729093611240387,-0.022555943578481674,-0.02062210626900196
1633782700561588200,6.967588134765625,0.5628103613853455,0.22533725202083588,-0.1814182549715042
1633782700581466400,6.98746630859375,0.6986905336380005,0.3815034329891205,-0.21953973174095154
1633782700601345300,7.00734521484375,0.7254112958908081,0.3213830888271332,-0.18519257009029388
1633782700621224400,7.027224365234375,0.6263184547424316,0.05534432828426361,-0.14728066325187683
1633782700641103400,7.047103271484375,0.41330406069755554,-0.17827871441841125,-0.16058427095413208
1633782700660981500,7.0669814453125,0.14266559481620789,-0.26650360226631165,-0.255323201417923
1633782700680860200,7.086860107421875,-0.03975528106093407,-0.25939837098121643,-0.36607086658477783
1633782700700739300,7.1067392578125,-0.07428380846977234,-0.12099802494049072,-0.424102783203125
1633782700720618200,7.1266181640625,0.016414882615208626,0.055060163140296936,-0.38059407472610474
1633782700740496400,7.146496337890625,0.20745715498924255,0.22819644212722778,-0.18024718761444092
1633782700760375300,7.166375244140625,0.37349486351013184,0.4297899305820465,0.10815823823213577
1633782700780254500,7.18625439453125,0.39917683601379395,0.34190109372138977,0.2846500873565674
1633782700800133000,7.206133056640625,0.26097336411476135,-0.01798030361533165,0.27608734369277954
1633782700820012300,7.22601220703125,-0.057164207100868225,-0.25327831506729126,0.11084344238042831
1633782700839890200,7.24589013671875,-0.38350534439086914,-0.2705134153366089,-0.18169564008712769
1633782700859769300,7.265769287109375,-0.45915722846984863,0.1024729534983635,-0.4921909272670746
1633782700879648500,7.2856484375,-0.20733672380447388,0.7789323329925537,-0.8334880471229553
1633782700899527400,7.30552734375,0.21375000476837158,1.003981590270996,-1.3453643321990967
1633782700919405300,7.3254052734375,0.5206526517868042,0.7034275531768799,-1.8872679471969604
1633782700939284200,7.3452841796875,0.46495288610458374,0.3822799623012543,-2.0556397438049316
1633782700959163400,7.365163330078125,0.20202064514160156,0.1802608072757721,-1.7715965509414673
1633782700979042300,7.385042236328125,-0.008131004869937897,0.13421903550624847,-1.148634672164917
1633782700998920400,7.40492041015625,-0.039726950228214264,0.09930645674467087,-0.4084251821041107
1633782701018799400,7.42479931640625,0.1334758847951889,-0.001538855955004692,0.28081387281417847
1633782701038678500,7.444678466796875,0.4221499562263489,-0.029536064714193344,0.8334079384803772
1633782701058557200,7.46455712890625,0.6042109131813049,0.03068546950817108,1.1564279794692993
1633782701078435300,7.484435302734375,0.6095510125160217,-0.07702893763780594,1.1985104084014893
1633782701098314200,7.504314208984375,0.4327103793621063,-0.23859438300132751,0.9716994762420654
1633782701118193400,7.524193359375,0.1413310468196869,-0.3009936213493347,0.5732571482658386
1633782701138072300,7.544072265625,-0.13623729348182678,-0.2401580512523651,0.16857300698757172
1633782701157951200,7.563951171875,-0.32125067710876465,-0.1523066759109497,-0.14137397706508636
1633782701177829400,7.583829345703125,-0.3807167112827301,-0.08478667587041855,-0.30372709035873413
1633782701197708300,7.603708251953125,-0.3735102713108063,-0.008909203112125397,-0.33118098974227905
1633782701217587200,7.623587158203125,-0.36477401852607727,0.002614361234009266,-0.3015303909778595
1633782701237466400,7.64346630859375,-0.33193647861480713,0.015303480438888073,-0.3018176555633545
1633782701257344300,7.66334423828125,-0.27649539709091187,0.15566092729568481,-0.3683875501155853
1633782701277223400,7.683223388671875,-0.21445588767528534,0.36608192324638367,-0.5649554133415222
1633782701297102300,7.703102294921875,-0.11437861621379852,0.4261382818222046,-0.7653477191925049
1633782701316981200,7.722981201171875,-0.015900393947958946,0.35347265005111694,-0.811518669128418
1633782701336859100,7.742859130859375,0.01893785409629345,0.22062422335147858,-0.6691931486129761
1633782701356738300,7.76273828125,-0.029301423579454422,0.13162894546985626,-0.38612106442451477
1633782701376617500,7.782617431640625,-0.11140736937522888,0.027577772736549377,-0.039307381957769394
1633782701396496400,7.802496337890625,-0.16548417508602142,-0.1384444534778595,0.2892744839191437
1633782701416374500,7.82237451171875,-0.13410581648349762,-0.14814195036888123,0.45701512694358826
1633782701436253200,7.842253173828125,-0.0035303281620144844,0.005231032148003578,0.41062864661216736
1633782701456132400,7.86213232421875,0.10911184549331665,0.1425875723361969,0.23718461394309998
1633782701476011300,7.88201123046875,0.1441466361284256,0.29842549562454224,0.03232792019844055
1633782701495890400,7.901890380859375,0.11371282488107681,0.2701982259750366,-0.2381640076637268
1633782701515768300,7.921768310546875,0.003060888731852174,-0.04263274371623993,-0.5176630616188049
1633782701535647500,7.9416474609375,-0.07636480033397675,-0.065569669008255,-0.5226778388023376
1633782701555526100,7.961526123046875,0.09559167176485062,0.20977257192134857,-0.1677994281053543
1633782701575405300,7.9814052734375,0.36815494298934937,0.2849492132663727,0.2752487063407898
1633782701595283200,8.001283203125,0.46347174048423767,0.04840541630983353,0.5936059951782227
1633782701615162400,8.021162353515624,0.3526369333267212,-0.20828421413898468,0.6986504197120667
1633782701635041300,8.041041259765626,0.17041558027267456,-0.20642493665218353,0.579829216003418
1633782701654920400,8.06092041015625,0.0798022672533989,-0.02036416158080101,0.30782845616340637
1633782701674798300,8.08079833984375,0.10858363658189774,0.27096298336982727,0.08937433362007141
1633782701694677200,8.10067724609375,0.21865017712116241,0.44791078567504883,-0.006086146458983421
1633782701714556200,8.12055615234375,0.3718665540218353,0.48329243063926697,0.029577525332570076
1633782701734435300,8.140435302734375,0.4708670973777771,0.26806512475013733,0.11862318217754364
1633782701754314500,8.160314453125,0.47000938653945923,-0.004121168050915003,0.24806033074855804
1633782701774192400,8.1801923828125,0.3650524318218231,-0.23328426480293274,0.3460295498371124
1633782701794071600,8.200071533203126,0.21262024343013763,-0.3487356901168823,0.37929198145866394
1633782701813950200,8.2199501953125,0.05187274143099785,-0.30366605520248413,0.3518226146697998
1633782701833829400,8.239829345703125,-0.0688069760799408,-0.22676166892051697,0.2903694212436676
1633782701853707300,8.259707275390625,-0.11163753271102905,-0.13108041882514954,0.26434022188186646
1633782701873586400,8.27958642578125,-0.09437000751495361,-0.05853218585252762,0.2832540273666382
1633782701893465900,8.2994658203125,-0.1150093525648117,-0.06883950531482697,0.32715168595314026
1633782701913344800,8.3193447265625,-0.18504686653614044,-0.07872852683067322,0.36647531390190125
1633782701933222700,8.33922265625,-0.2867836654186249,-0.00008769985288381577,0.3391626179218292
1633782701953101800,8.359101806640625,-0.3686550259590149,0.167108952999115,0.23738126456737518
1633782701972980700,8.378980712890625,-0.3871464431285858,0.4016573131084442,0.14713738858699799
1633782701992860000,8.39885986328125,-0.2840028405189514,0.4752492606639862,0.11680790781974792
1633782702012737800,8.41873779296875,-0.13116243481636047,0.22055412828922272,0.10808712244033813
1633782702032617000,8.438616943359374,-0.057145193219184875,-0.052502721548080444,0.10179460048675537
1633782702052495600,8.45849560546875,-0.10120438039302826,-0.3535851240158081,0.08713200688362122
1633782702072374800,8.478374755859376,-0.361274391412735,-0.41232720017433167,0.06443648785352707
1633782702092254000,8.49825390625,-0.6985486745834351,-0.1657429337501526,-0.04476046562194824
1633782702112131800,8.5181318359375,-0.7591100335121155,0.18000096082687378,-0.16540394723415375
1633782702132011000,8.538010986328125,-0.45387816429138184,0.3639589250087738,-0.16804727911949158
1633782702151890000,8.557889892578125,0.02739216387271881,0.30630335211753845,-0.032257936894893646
1633782702171768800,8.577768798828124,0.4253273904323578,0.18486493825912476,0.25180792808532715
1633782702191646700,8.597646728515626,0.560969889163971,0.11929526925086975,0.5936086773872375
1633782702211526000,8.61752587890625,0.45584744215011597,-0.0034181494265794754,0.7896110415458679
1633782702231404800,8.63740478515625,0.23297925293445587,-0.19362729787826538,0.7724486589431763
1633782702251284000,8.657283935546875,-0.02262061834335327,-0.41018396615982056,0.5161126852035522
1633782702271161900,8.677161865234375,-0.2204081118106842,-0.5676840543746948,0.056117571890354156
1633782702291041000,8.697041015625,-0.32432854175567627,-0.5799477100372314,-0.4640941321849823
1633782702310919700,8.716919677734374,-0.3200515806674957,-0.35766130685806274,-0.8941656947135925
1633782702330798800,8.736798828125,-0.26479625701904297,0.002897290512919426,-1.1166703701019287
1633782702350677800,8.756677734375,-0.1996796578168869,0.2046755999326706,-1.0779733657836914
1633782702370556000,8.776555908203125,-0.1747671216726303,0.21892936527729034,-0.8177936673164368
1633782702390434800,8.796434814453125,-0.1832440346479416,0.013239171355962753,-0.5042724013328552
1633782702410313700,8.816313720703125,-0.17105147242546082,-0.31936344504356384,-0.2041265368461609
1633782702430193000,8.83619287109375,-0.21422311663627625,-0.5031043887138367,0.02946052886545658
1633782702450070800,8.85607080078125,-0.3102145493030548,-0.3860500156879425,0.1375950574874878
1633782702469949700,8.87594970703125,-0.40506094694137573,-0.23106664419174194,0.09071661531925201
1633782702489828900,8.895828857421876,-0.5024631023406982,-0.11816225945949554,-0.014752820134162903
1633782702509708000,8.9157080078125,-0.5575025677680969,-0.029233522713184357,-0.08523944020271301
1633782702529586000,8.9355859375,-0.5324385166168213,-0.11173509061336517,-0.17184241116046906
1633782702549464800,8.95546484375,-0.4210185408592224,-0.16125892102718353,-0.28672266006469727
1633782702569343700,8.97534375,-0.25353407859802246,-0.16882827877998352,-0.4284709393978119
1633782702589223000,8.995222900390624,-0.01533969584852457,-0.13326992094516754,-0.5760653614997864
1633782702609100800,9.015100830078126,0.3060451149940491,-0.10843155533075333,-0.6536521911621094
1633782702628980000,9.03497998046875,0.49509894847869873,-0.25016316771507263,-0.6600024104118347
1633782702648859000,9.05485888671875,0.3515376150608063,-0.5388442873954773,-0.671125590801239
1633782702668737800,9.07473779296875,0.04191543534398079,-0.5760326981544495,-0.674285352230072
1633782702688616700,9.09461669921875,-0.11719495803117752,-0.28163033723831177,-0.497829407453537
1633782702708494800,9.114494873046874,0.04342428967356682,-0.007414274383336306,-0.053865548223257065
1633782702728373800,9.134373779296874,0.3444754183292389,-0.007273285649716854,0.4508858919143677
1633782702748253000,9.1542529296875,0.5041760206222534,-0.19905726611614227,0.7842786908149719
1633782702768131800,9.1741318359375,0.4774540066719055,-0.21111910045146942,0.8816214799880981
1633782702788010000,9.194010009765625,0.33853963017463684,-0.048064544796943665,0.74164879322052
1633782702807888600,9.213888671875,0.21266157925128937,0.16774442791938782,0.41760653257369995
1633782702827767800,9.233767822265625,0.15269356966018677,0.24084927141666412,0.08689199388027191
1633782702847647000,9.25364697265625,0.16484498977661133,0.34655606746673584,-0.0561302974820137
1633782702867524900,9.27352490234375,0.30819106101989746,0.5452460050582886,-0.005172252655029297
1633782702887403500,9.293403564453126,0.5624456405639648,0.6804637908935547,0.13431689143180847
1633782702907282700,9.31328271484375,0.7392929792404175,0.5824850797653198,0.2466421276330948
1633782702927161300,9.333161376953125,0.7642775177955627,0.3361215591430664,0.2800162732601166
1633782702947039500,9.35303955078125,0.6217685341835022,0.16472342610359192,0.2480720430612564
1633782702966918400,9.37291845703125,0.3655496835708618,0.13987867534160614,0.2006099373102188
1633782702986797600,9.392797607421874,0.14524146914482117,0.14433954656124115,0.15625493228435516
1633782703006676500,9.412676513671874,0.06400429457426071,0.2128705233335495,0.14946088194847107
1633782703026555600,9.4325556640625,0.11893081665039062,0.2706204652786255,0.22687172889709473
1633782703046433500,9.45243359375,0.21947292983531952,0.25632911920547485,0.35671165585517883
1633782703066312400,9.4723125,0.23350724577903748,0.20227067172527313,0.4674440324306488
1633782703086191400,9.49219140625,0.14482374489307404,0.10709233582019806,0.52734375
1633782703106070500,9.512070556640625,0.016580581665039062,0.0138168353587389,0.5175161361694336
1633782703125948400,9.531948486328124,-0.10592813044786453,-0.1455567181110382,0.4701720178127289
1633782703145827600,9.55182763671875,-0.15701624751091003,-0.2209504097700119,0.4620792269706726
1633782703165706500,9.57170654296875,-0.09394421428442001,-0.21263539791107178,0.4738675057888031
1633782703185585400,9.59158544921875,0.02630159817636013,-0.23088209331035614,0.39976218342781067
1633782703205463300,9.61146337890625,0.19261881709098816,-0.22604379057884216,0.19595840573310852
1633782703225342500,9.631342529296875,0.22058245539665222,-0.18563905358314514,-0.13836930692195892
1633782703245221600,9.6512216796875,0.061940375715494156,-0.194942444562912,-0.5032711625099182
1633782703265100500,9.6711005859375,-0.05957649275660515,-0.23824667930603027,-0.6121902465820312
1633782703284978400,9.690978515625,0.11002349853515625,-0.2053193747997284,-0.39063629508018494
1633782703304857600,9.710857666015626,0.3550809621810913,-0.05951439589262009,0.04280427470803261
1633782703324736500,9.730736572265625,0.4294746518135071,0.1970631182193756,0.48674315214157104
1633782703344615400,9.750615478515625,0.34711459279060364,0.1461864709854126,0.7425866723060608
1633782703364494600,9.77049462890625,0.16419319808483124,-0.1688738465309143,0.7121551036834717
1633782703384372500,9.79037255859375,-0.07983266562223434,-0.3810912072658539,0.45188871026039124
1633782703404251600,9.810251708984374,-0.27733197808265686,-0.48526138067245483,0.06791799515485764
1633782703424130600,9.830130615234374,-0.3340858221054077,-0.4591025114059448,-0.2760384976863861
1633782703444009500,9.850009521484376,-0.25260698795318604,-0.30242636799812317,-0.47658640146255493
1633782703463887400,9.869887451171875,-0.11917521804571152,-0.08755474537611008,-0.48883309960365295
1633782703483766500,9.8897666015625,-0.03341974318027496,0.1143658384680748,-0.343336820602417
1633782703503645400,9.9096455078125,0.0026692228857427835,0.24202032387256622,-0.10306952148675919
1633782703523524600,9.929524658203125,0.09708388894796371,0.27778521180152893,0.19204680621623993
1633782703543402500,9.949402587890624,0.2658514976501465,0.22565306723117828,0.4567814767360687
1633782703563281700,9.96928173828125,0.41184523701667786,0.12904295325279236,0.5989475846290588
1633782703583160300,9.989160400390626,0.4875527322292328,0.015334447845816612,0.5260889530181885
1633782703603039500,10.00903955078125,0.42087382078170776,-0.006141221150755882,0.2812647819519043
1633782703622917400,10.02891748046875,0.19461719691753387,0.06041339039802551,0.01954566314816475
1633782703642796500,10.048796630859375,-0.051660630851984024,0.1933179795742035,-0.08227252960205078
1633782703662675700,10.06867578125,-0.1867453157901764,0.29280972480773926,-0.00657304935157299
1633782703682554400,10.088554443359374,-0.19736094772815704,0.22246800363063812,0.1081136092543602
1633782703702433500,10.10843359375,-0.20836064219474792,0.07064706832170486,0.18958860635757446
1633782703722311400,10.1283115234375,-0.28112077713012695,-0.04937397688627243,0.24906980991363525
1633782703742190600,10.148190673828125,-0.35484451055526733,-0.062204256653785706,0.3122815489768982
1633782703762069500,10.168069580078125,-0.36384716629981995,-0.0005997437983751297,0.34117573499679565
1633782703781948700,10.18794873046875,-0.21990573406219482,-0.00567750446498394,0.31079545617103577
1633782703801826600,10.20782666015625,-0.004296950064599514,-0.11344381421804428,0.23766838014125824
1633782703821705500,10.22770556640625,0.17227579653263092,-0.19215546548366547,0.0882193073630333
1633782703841584400,10.24758447265625,0.20717300474643707,-0.22698386013507843,-0.1491324007511139
1633782703861463600,10.267463623046876,0.2539808452129364,0.01598067581653595,-0.2695663571357727
1633782703881342200,10.28734228515625,0.46791964769363403,0.42146778106689453,-0.16028307378292084
1633782703901221400,10.307221435546875,0.7683704495429993,0.544047474861145,0.1357947736978531
1633782703921100000,10.32710009765625,0.9111442565917969,0.40066421031951904,0.43460044264793396
1633782703940979200,10.346979248046875,0.8886351585388184,0.23958194255828857,0.6071060299873352
1633782703960857000,10.366857177734374,0.7664075493812561,0.264947772026062,0.6590192317962646
1633782703980736300,10.386736328125,0.6208441853523254,0.43422311544418335,0.628172755241394
1633782704000615200,10.406615234375,0.5356171727180481,0.5820904970169067,0.5315936803817749
1633782704020494300,10.426494384765626,0.5587046146392822,0.6831018328666687,0.41153764724731445
1633782704040373200,10.446373291015625,0.6337481737136841,0.4696115553379059,0.22712355852127075
1633782704060251100,10.466251220703125,0.6794730424880981,-0.09495756030082703,0.024200277402997017
1633782704080130000,10.486130126953125,0.6193941235542297,-0.5822816491127014,-0.06556493788957596
1633782704100009200,10.50600927734375,0.42751404643058777,-0.709830105304718,-0.04836590588092804
1633782704119888400,10.525888427734374,0.21240346133708954,-0.6563917398452759,-0.09547744691371918
1633782704139766300,10.545766357421876,0.027615021914243698,-0.48115530610084534,-0.2607162892818451
1633782704159645400,10.5656455078125,-0.11182165145874023,-0.19500553607940674,-0.4051643908023834
1633782704179524000,10.585524169921875,-0.16051743924617767,0.13945940136909485,-0.4179254174232483
1633782704199403300,10.6054033203125,-0.10740838199853897,0.3569027781486511,-0.27825015783309937
1633782704219281200,10.62528125,-0.07138948142528534,0.38871684670448303,-0.10341852158308029
1633782704239160300,10.645160400390624,-0.11611673980951309,0.33229196071624756,0.02094418555498123
1633782704259039200,10.665039306640624,-0.23176957666873932,0.2282942831516266,0.04342260584235191
1633782704278918100,10.684918212890626,-0.364408940076828,0.054886866360902786,-0.062003739178180695
1633782704298796300,10.70479638671875,-0.4538937211036682,-0.04508515074849129,-0.23310087621212006
1633782704318675200,10.72467529296875,-0.49869504570961,0.028588296845555305,-0.308098703622818
1633782704338554000,10.74455419921875,-0.5043694376945496,0.04558303952217102,-0.306863933801651
1633782704358433300,10.764433349609375,-0.23503908514976501,-0.1692207008600235,-0.27723461389541626
1633782704378312200,10.784312255859374,0.3122777044773102,-0.30000418424606323,-0.18495135009288788
1633782704398190300,10.8041904296875,0.7781392931938171,-0.27586811780929565,-0.1315683275461197
1633782704418069200,10.8240693359375,0.9498804807662964,-0.29533156752586365,-0.218113973736763
1633782704437948200,10.8439482421875,0.6381910443305969,-0.4508942663669586,-0.5809587240219116
1633782704457827000,10.8638271484375,-0.01871652528643608,-0.6634289622306824,-1.188002586364746
1633782704477705200,10.883705322265625,-0.6915882229804993,-0.8140843510627747,-1.7270965576171875
1633782704497584000,10.903584228515625,-1.1771574020385742,-0.5938353538513184,-1.9200986623764038
1633782704517463300,10.92346337890625,-1.5372281074523926,-0.5422975420951843,-1.7306628227233887
1633782704537342200,10.94334228515625,-1.733843207359314,-0.5771975517272949,-1.3022818565368652
1633782704557220000,10.96322021484375,-1.645684003829956,-0.6122487187385559,-0.7702661752700806
1633782704577099300,10.983099365234375,-1.276665210723877,-0.5032110810279846,-0.218929722905159
1633782704596978200,11.002978271484375,-0.8217883110046387,-0.2128233015537262,0.2773006558418274
1633782704616857300,11.022857421875,-0.5419043302536011,0.1519445925951004,0.6406350135803223
1633782704636736300,11.042736328125,-0.48094335198402405,0.2997654378414154,0.7220363020896912
1633782704656614400,11.062614501953124,-0.482643187046051,0.25358662009239197,0.6206512451171875
1633782704676493000,11.0824931640625,-0.477585107088089,0.2575295567512512,0.5003584623336792
1633782704696372200,11.102372314453126,-0.4697694480419159,0.2976702153682709,0.39277681708335876
1633782704716251100,11.122251220703125,-0.4124387800693512,0.37084531784057617,0.313711017370224
1633782704736129300,11.14212939453125,-0.355098158121109,0.4328571856021881,0.2530093789100647
1633782704756008200,11.16200830078125,-0.29059842228889465,0.3403812348842621,0.189480260014534
1633782704775887400,11.181887451171875,-0.22138558328151703,0.12930287420749664,0.10801080614328384
1633782704795766000,11.20176611328125,-0.17742377519607544,0.02144649811089039,0.026581037789583206
1633782704815644200,11.22164404296875,-0.18939027190208435,-0.05400576442480087,-0.08838900923728943
1633782704835523000,11.241523193359376,-0.20885924994945526,-0.043277591466903687,-0.19612570106983185
1633782704855402200,11.26140234375,-0.18783263862133026,-0.009603723883628845,-0.27164262533187866
1633782704875281200,11.28128125,-0.12436434626579285,-0.026246938854455948,-0.30901551246643066
1633782704895163600,11.30116357421875,-0.02916533313691616,-0.12441322952508926,-0.2775229513645172
1633782704915041800,11.321041748046875,0.04655030742287636,-0.22477059066295624,-0.17137326300144196
1633782704934920400,11.34092041015625,0.06291718035936356,-0.561698317527771,-0.13157397508621216
1633782704954799600,11.360799560546875,0.007204180583357811,-0.9721295237541199,-0.2545916438102722
1633782704974678500,11.380678466796875,-0.079588882625103,-0.9354293942451477,-0.24657875299453735
1633782704994556700,11.400556640625,-0.10933265835046768,-0.5165612697601318,0.22443322837352753
1633782705014435600,11.420435546875,-0.10886144638061523,-0.007296068128198385,0.9537606835365295
1633782705034314800,11.440314697265626,-0.08382921665906906,0.28617924451828003,1.379837989807129
1633782705054193400,11.460193359375,-0.15729549527168274,0.12271063029766083,1.336073875427246
1633782705074071600,11.480071533203125,-0.42085790634155273,-0.07522106170654297,1.0787315368652344
1633782705093950500,11.499950439453125,-0.6818681359291077,-0.05588065832853317,0.8753394484519958
1633782705113829600,11.51982958984375,-0.6621426343917847,0.30576884746551514,0.8801481127738953
1633782705133708500,11.53970849609375,-0.4568938612937927,0.723384439945221,1.0177621841430664
1633782705153586700,11.559586669921876,-0.33131086826324463,0.9957794547080994,1.1795158386230469
1633782705173465600,11.579465576171875,-0.322762131690979,1.1370227336883545,1.3103057146072388
1633782705193344500,11.599344482421875,-0.3782365620136261,0.9965525269508362,1.2524927854537964
1633782705213223700,11.6192236328125,-0.413674920797348,0.48632410168647766,0.8732196688652039
1633782705233102600,11.6391025390625,-0.36508914828300476,0.05126739665865898,0.2912238538265228
1633782705252980500,11.65898046875,-0.20295614004135132,-0.11205228418111801,-0.17997750639915466
1633782705272859600,11.678859619140624,0.03667135164141655,0.09163375943899155,-0.3567214012145996
1633782705292738600,11.698738525390626,0.33769869804382324,0.30392128229141235,-0.3081527352333069
1633782705312617500,11.718617431640626,0.5960099697113037,0.31025534868240356,-0.1602800339460373
1633782705332495600,11.73849560546875,0.7097523212432861,-0.0035149473696947098,-0.10531153529882431
1633782705352374500,11.75837451171875,0.6438906788825989,-0.38181278109550476,-0.16821862757205963
1633782705372253700,11.778253662109375,0.4936229884624481,-0.3982730209827423,-0.15659429132938385
1633782705392132600,11.798132568359375,0.3002740442752838,-0.0814114362001419,-0.0722290650010109
1633782705412010800,11.8180107421875,0.12573173642158508,0.14515359699726105,-0.017128419131040573
1633782705431889400,11.837889404296876,-0.011286414228379726,0.22334548830986023,-0.008913412690162659
1633782705451768600,11.8577685546875,-0.10903795063495636,0.16268286108970642,-0.04720631614327431
1633782705471647500,11.8776474609375,-0.17548829317092896,0.07915114611387253,-0.08060140162706375
1633782705491526700,11.897526611328125,-0.1827840805053711,0.07390716671943665,-0.09955129027366638
1633782705511404500,11.917404541015625,-0.14603054523468018,0.14313261210918427,-0.09698435664176941
1633782705531283700,11.93728369140625,-0.13184799253940582,0.060593295842409134,-0.10075545310974121
1633782705551162400,11.957162353515624,-0.15117038786411285,-0.0811818316578865,-0.13627968728542328
1633782705571041500,11.97704150390625,-0.1541973352432251,-0.1488383561372757,-0.2316855639219284
1633782705590919400,11.99691943359375,-0.1450330764055252,-0.10052041709423065,-0.37935662269592285
1633782705610798600,12.016798583984375,-0.16258183121681213,-0.083417147397995,-0.6184243559837341
1633782705630677800,12.036677734375,-0.13803626596927643,-0.013321014121174812,-0.9600434899330139
1633782705650556700,12.056556640625,-0.1452151983976364,0.1488296091556549,-1.3133699893951416
1633782705670434600,12.0764345703125,-0.16306950151920319,0.39803341031074524,-1.672430396080017
1633782705690313500,12.0963134765625,-0.06407196819782257,0.8498606085777283,-1.915572166442871
1633782705710192600,12.116192626953126,0.23072920739650726,1.2927958965301514,-1.9679909944534302
1633782705730071600,12.136071533203125,0.6173639893531799,1.5312565565109253,-1.7920985221862793
1633782705749950700,12.15595068359375,0.8899150490760803,1.47538161277771,-1.3955676555633545
1633782705769828600,12.17582861328125,0.9033793210983276,1.2760809659957886,-0.8390748500823975
1633782705789707800,12.195707763671875,0.6168152093887329,0.7167015671730042,-0.2023043930530548
1633782705809586400,12.21558642578125,0.08831772953271866,-0.14134766161441803,0.45265406370162964
1633782705829465600,12.235465576171874,-0.46780362725257874,-0.9183623194694519,0.9833399057388306
1633782705849343500,12.255343505859376,-0.8291725516319275,-1.2588903903961182,1.2771716117858887
1633782705869222700,12.27522265625,-0.9397121667861938,-1.4017767906188965,1.3328222036361694
1633782705889101300,12.295101318359375,-0.8853209614753723,-1.4600943326950073,1.2707881927490234
1633782705908980200,12.314980224609375,-0.786506175994873,-1.4122155904769897,1.2042852640151978
1633782705928859100,12.334859130859375,-0.719249963760376,-1.248020887374878,1.110546350479126
1633782705948737000,12.354737060546874,-0.6609212160110474,-1.1154087781906128,0.9353446364402771
1633782705968616200,12.3746162109375,-0.5727428793907166,-1.0560365915298462,0.6724359393119812
1633782705988495000,12.3944951171875,-0.45092663168907166,-1.1084904670715332,0.358932226896286
1633782706008374300,12.414374267578125,-0.3397258222103119,-1.3225175142288208,0.11014396697282791
1633782706028252200,12.434252197265625,-0.3061401844024658,-1.547685146331787,0.11285465955734253
1633782706048131300,12.45413134765625,-0.37316614389419556,-1.3794066905975342,0.4717789590358734
1633782706068010000,12.474010009765625,-0.42764586210250854,-1.005174160003662,1.0044738054275513
1633782706087889200,12.49388916015625,-0.37060680985450745,-0.7416107058525085,1.3336822986602783
1633782706107768300,12.513768310546874,-0.17537760734558105,-0.5213942527770996,1.243161678314209
1633782706127646200,12.533646240234376,0.0744222104549408,-0.3280986547470093,0.8744137287139893
1633782706147525400,12.553525390625,0.34141480922698975,-0.09555362164974213,0.49736249446868896
1633782706167404300,12.573404296875,0.5133897662162781,0.32566550374031067,0.2757371664047241
1633782706187283200,12.593283203125,0.5458950996398926,0.7568079829216003,0.13318513333797455
1633782706207161000,12.6131611328125,0.49188393354415894,0.9573758840560913,0.0015253282617777586
1633782706227040300,12.633040283203124,0.4820883870124817,1.05624258518219,-0.16162681579589844
1633782706246919200,12.652919189453126,0.4887528121471405,0.8929564356803894,-0.48366495966911316
1633782706266798300,12.67279833984375,0.4160555601119995,0.4942325949668884,-0.8373497724533081
1633782706286677200,12.69267724609375,0.2205415964126587,0.46798864006996155,-0.907954752445221
1633782706306555400,12.712555419921875,0.055406760424375534,0.7346296310424805,-0.7237088084220886
1633782706326434000,12.73243408203125,0.06874823570251465,0.9495849609375,-0.3831501305103302
1633782706346313200,12.752313232421875,0.21923714876174927,0.9275245070457458,-0.021887032315135002
1633782706366192000,12.772192138671874,0.41866809129714966,0.7430477738380432,0.2840612530708313
1633782706386070300,12.7920703125,0.5432542562484741,0.5706760287284851,0.5185073614120483
1633782706405949200,12.81194921875,0.5255532264709473,0.4355195462703705,0.6768582463264465
1633782706425828000,12.831828125,0.42577317357063293,0.44790560007095337,0.7127370238304138
1633782706445707300,12.851707275390625,0.351125568151474,0.5204413533210754,0.5410060286521912
1633782706465586200,12.871586181640625,0.3616008758544922,0.5644617080688477,0.22985386848449707
1633782706485464000,12.891464111328125,0.4589223563671112,0.5379236340522766,-0.08479326963424683
1633782706505343200,12.91134326171875,0.5762408375740051,0.4844890236854553,-0.3027772009372711
1633782706525222400,12.931222412109374,0.6276642680168152,0.3571162819862366,-0.4350503385066986
1633782706545101000,12.95110107421875,0.5633697509765625,0.154843270778656,-0.5317541360855103
1633782706564979200,12.970979248046875,0.4206412434577942,-0.07420554757118225,-0.5929802060127258
1633782706584858000,12.990858154296875,0.2973119020462036,-0.13426920771598816,-0.6169993877410889
1633782706604737300,13.0107373046875,0.20585693418979645,-0.07094065099954605,-0.5844590067863464
1633782706624616200,13.0306162109375,0.16409051418304443,0.059927914291620255,-0.4734386205673218
1633782706644495400,13.050495361328124,0.155596524477005,0.02771475538611412,-0.30218830704689026
1633782706664373200,13.070373291015626,0.16085456311702728,-0.17410406470298767,-0.029220275580883026
1633782706684252200,13.090252197265626,0.09662289917469025,-0.3995305895805359,0.35652095079421997
1633782706704131000,13.110131103515625,-0.1251678615808487,-0.5997298955917358,0.7605462670326233
1633782706724010200,13.13001025390625,-0.4696374833583832,-0.41950759291648865,1.0529476404190063
1633782706743889200,13.14988916015625,-0.7691588401794434,-0.2503027021884918,1.1339547634124756
1633782706763767300,13.169767333984375,-0.9241340756416321,-0.21397478878498077,0.9931081533432007
1633782706783646200,13.189646240234374,-0.9805694222450256,-0.30850598216056824,0.6170569658279419
1633782706803525000,13.209525146484374,-1.0357133150100708,-0.4822796881198883,0.055104807019233704
1633782706823404300,13.229404296875,-1.0164830684661865,-0.690411388874054,-0.4613870084285736
1633782706843282200,13.2492822265625,-0.9128116369247437,-0.914042055606842,-0.8042243719100952
1633782706863161300,13.269161376953125,-0.889094889163971,-0.6456824541091919,-1.0781012773513794
1633782706883037000,13.289036865234374,-0.8231974244117737,-0.08537431061267853,-1.1404495239257812
1633782706902915800,13.308915771484376,-0.5434780120849609,0.33851414918899536,-0.9610921144485474
1633782706922795000,13.328794921875,-0.19583097100257874,0.4112979769706726,-0.6555036306381226
1633782706942673000,13.3486728515625,0.06742153316736221,0.2100936621427536,-0.2788738012313843
1633782706962552000,13.368552001953125,0.1541023850440979,-0.1765666902065277,0.09678372740745544
1633782706982431000,13.388430908203125,0.0384230874478817,-0.6058518886566162,0.29585739970207214
1633782707002310100,13.40831005859375,-0.17078877985477448,-0.7517131567001343,0.2644447386264801
1633782707022188800,13.428188720703124,-0.3071993887424469,-0.5508052706718445,0.10407326370477676
1633782707042067000,13.44806689453125,-0.29293155670166016,-0.15996716916561127,0.0006497733411379158
1633782707061945900,13.46794580078125,-0.17212505638599396,0.05729617923498154,-0.03305617719888687
1633782707081825000,13.487824951171875,-0.0650324746966362,0.011751391924917698,-0.08270005136728287
1633782707101704000,13.507703857421875,-0.04789550229907036,-0.05212029069662094,-0.15978452563285828
1633782707121583000,13.5275830078125,-0.08946830034255981,-0.05342573672533035,-0.26378780603408813
1633782707141461000,13.5474609375,-0.11692575365304947,-0.0004394538700580597,-0.3697208762168884
1633782707161340000,13.56733984375,-0.12840473651885986,0.11653263866901398,-0.4261262118816376
1633782707181218800,13.58721875,-0.07599803805351257,0.227145716547966,-0.4767477512359619
1633782707201098000,13.607097900390626,0.019490191712975502,0.243632510304451,-0.5471131205558777
1633782707220977200,13.62697705078125,0.07254908978939056,0.22841845452785492,-0.6187840104103088
1633782707240855000,13.64685498046875,0.10755527019500732,0.22476059198379517,-0.6649762988090515
1633782707260734000,13.66673388671875,0.12242885679006577,0.27096712589263916,-0.5986906886100769
1633782707280612900,13.68661279296875,0.1769895702600479,0.35449424386024475,-0.41161054372787476
1633782707300492000,13.706491943359374,0.2927072048187256,0.43728896975517273,-0.14288699626922607
1633782707320371000,13.726370849609374,0.382954478263855,0.41716134548187256,0.05231693014502525
1633782707340249000,13.7462490234375,0.3673602342605591,0.3050977885723114,0.13074034452438354
1633782707360128000,13.7661279296875,0.26200562715530396,0.4223274290561676,0.16528594493865967
1633782707380007000,13.7860068359375,0.1842181235551834,0.8128690719604492,0.16763560473918915
1633782707399885800,13.8058857421875,0.24485476315021515,1.0500255823135376,0.04058363288640976
1633782707419765000,13.825764892578125,0.3868747055530548,0.9631524682044983,-0.1842712014913559
1633782707439643000,13.845642822265624,0.5253978967666626,0.5256603956222534,-0.34432253241539
1633782707459522000,13.86552197265625,0.5791497826576233,0.34811651706695557,-0.36236679553985596
1633782707479401000,13.88540087890625,0.6065379977226257,0.45026522874832153,-0.25023922324180603
1633782707499280000,13.90527978515625,0.7126069664955139,0.49856987595558167,0.001625380595214665
1633782707519159000,13.925158935546875,0.8056620359420776,0.24994581937789917,0.31235742568969727
1633782707539037000,13.945036865234375,0.8023102283477783,-0.13705682754516602,0.5850138664245605
1633782707558915800,13.964915771484375,0.6670129299163818,-0.3929310739040375,0.709585964679718
1633782707578795000,13.984794921875,0.4340876340866089,-0.42515090107917786,0.5927360653877258
1633782707598674200,14.004674072265624,0.22036267817020416,-0.24452024698257446,0.3822699785232544
1633782707618552800,14.024552734375,0.1597677767276764,0.07657603174448013,0.2586990296840668
1633782707638431000,14.044430908203125,0.32614630460739136,0.3484691083431244,0.2549094259738922
1633782707658310000,14.064309814453125,0.5514781475067139,0.34196338057518005,0.218827024102211
1633782707678189000,14.08418896484375,0.6581971049308777,0.07460997998714447,0.10607118159532547
1633782707698068000,14.10406787109375,0.6266881227493286,-0.12860141694545746,0.017709996551275253
1633782707717947000,14.12394677734375,0.5039082169532776,-0.1401214897632599,-0.012322822585701942
1633782707737825000,14.143824951171876,0.3742523789405823,-0.061039358377456665,-0.0336444228887558
1633782707757704000,14.163703857421876,0.2997566759586334,-0.07345006614923477,-0.03232612460851669
1633782707777582800,14.183582763671875,0.2956525981426239,-0.17729933559894562,0.005622669588774443
1633782707797462000,14.2034619140625,0.3634432852268219,-0.19633528590202332,0.06126660481095314
1633782707817341000,14.2233408203125,0.43102386593818665,-0.1680239737033844,0.10804938524961472
1633782707837219000,14.243218994140625,0.40969622135162354,-0.15187908709049225,0.11995291709899902
1633782707857098000,14.263097900390624,0.309042364358902,-0.055667389184236526,0.1095893532037735
1633782707876977000,14.282976806640624,0.1576717495918274,0.010815761052072048,0.10178310424089432
1633782707896856300,14.302856201171876,0.02922205626964569,0.01554883923381567,0.10776104778051376
1633782707916735200,14.3227353515625,-0.02792537957429886,0.07339589297771454,0.12970709800720215
1633782707936613400,14.34261328125,0.012771885842084885,0.17391595244407654,0.15348057448863983
1633782707956492300,14.3624921875,0.09312557429075241,0.23606348037719727,0.190474271774292
1633782707976371200,14.38237109375,0.09087669104337692,0.19392597675323486,0.14843355119228363
1633782707996250000,14.40225,0.07231166958808899,0.1923239380121231,0.02588704414665699
1633782708016129300,14.42212939453125,-0.06380391865968704,0.14345422387123108,-0.21304568648338318
1633782708036007200,14.442007080078126,-0.3677000105381012,-0.06571166217327118,-0.566361129283905
1633782708055886300,14.46188623046875,-0.5695104598999023,0.00586303137242794,-0.7461012005805969
1633782708075765200,14.48176513671875,-0.5288701057434082,0.5241367816925049,-0.612061619758606
1633782708095644200,14.50164404296875,-0.2772306203842163,0.975419819355011,-0.22472359240055084
1633782708115523000,14.521523193359375,0.03822332248091698,1.125345230102539,0.3386538028717041
1633782708135401200,14.541401123046874,0.26584672927856445,0.9547425508499146,0.8917117118835449
1633782708155280100,14.561280029296874,0.3425371050834656,0.499503493309021,1.2895255088806152
1633782708175159300,14.5811591796875,0.23181623220443726,-0.054155994206666946,1.3900434970855713
1633782708195038200,14.6010380859375,-0.02082919143140316,-0.49238353967666626,1.1376667022705078
1633782708214917000,14.620917236328125,-0.23075535893440247,-0.6192782521247864,0.6052587628364563
1633782708234795000,14.640794921875,-0.31074073910713196,-0.5902056097984314,-0.03994419798254967
1633782708254674200,14.660674072265625,-0.22149786353111267,-0.31899574398994446,-0.5335683822631836
1633782708274553300,14.68055322265625,-0.06674778461456299,0.06519964337348938,-0.8026322722434998
1633782708294432300,14.700432373046874,0.09779255837202072,0.1905798316001892,-0.9006261229515076
1633782708314311200,14.720311279296874,0.20534484088420868,0.0633435770869255,-0.8384365439414978
1633782708334190000,14.740190185546876,0.22901111841201782,-0.16549396514892578,-0.6744493842124939
1633782708354068200,14.760068115234375,0.24142611026763916,-0.4115539491176605,-0.48287180066108704
1633782708373947100,14.779947021484375,0.2845627963542938,-0.7106976509094238,-0.27581363916397095
1633782708393826300,14.799826416015625,0.26485779881477356,-0.9289830923080444,-0.08124706149101257
1633782708413705200,14.819705322265625,0.17710354924201965,-0.950132429599762,0.0918283760547638
1633782708433584000,14.839584228515625,0.05947886407375336,-0.8245373964309692,0.20055042207241058
1633782708453462000,14.8594619140625,-0.12996190786361694,-0.7167603373527527,0.20122206211090088
1633782708473341200,14.879341064453126,-0.3592135012149811,-0.5608354806900024,0.11629117280244827
1633782708493220000,14.89922021484375,-0.564822256565094,-0.4978059232234955,0.024914944544434547
1633782708513099300,14.919099365234375,-0.6708170771598816,-0.4344160854816437,-0.006279563531279564
1633782708532978200,14.938978271484375,-0.6724965572357178,-0.2951987683773041,-0.0037095225416123867
1633782708552856300,14.958856201171875,-0.5279999375343323,-0.020327627658843994,0.02587278187274933
1633782708572735200,14.9787353515625,-0.18746617436408997,0.34562408924102783,0.055921465158462524
1633782708592614100,14.9986142578125,0.2730660140514374,0.5071053504943848,-0.03872912749648094
1633782708612493300,15.018493408203126,0.5572772026062012,0.19733020663261414,-0.23662197589874268
1633782708632372200,15.038372314453126,0.5403668880462646,-0.10255234688520432,-0.28725385665893555
1633782708652251100,15.058251220703125,0.39255332946777344,0.04671426862478256,-0.10938261449337006
1633782708672129300,15.07812939453125,0.32422828674316406,0.23652416467666626,0.17965207993984222
1633782708692008200,15.09800830078125,0.26799023151397705,0.18682995438575745,0.41138166189193726
1633782708711887000,15.11788720703125,0.20369550585746765,-0.01737627200782299,0.5126696825027466
1633782708731766300,15.137766357421874,0.1919810026884079,-0.1642780303955078,0.5016689896583557
1633782708751645400,15.1576455078125,0.2392805814743042,-0.14496742188930511,0.40446943044662476
1633782708771523300,15.1775234375,0.2949690520763397,-0.03805315122008324,0.2640807032585144
1633782708791402000,15.197402099609375,0.35718274116516113,0.17669740319252014,0.17696762084960938
1633782708811281200,15.21728125,0.4617297053337097,0.4286150634288788,0.17739814519882202
1633782708831160300,15.237160400390625,0.5617708563804626,0.5465203523635864,0.20150069892406464
1633782708851039200,15.257039306640625,0.6107116937637329,0.40405699610710144,0.20099808275699615
1633782708870918400,15.27691845703125,0.5591994524002075,0.18623022735118866,0.17844080924987793
1633782708890795500,15.29679541015625,0.43808427453041077,0.11027679592370987,0.15234042704105377
1633782708910674700,15.3166748046875,0.2561035454273224,0.0702500268816948,0.09500202536582947
1633782708930553300,15.33655322265625,0.05406169965863228,-0.04071740806102753,-0.028038403019309044
1633782708950432500,15.3564326171875,-0.0973837673664093,-0.15783683955669403,-0.16377708315849304
1633782708970311400,15.3763115234375,-0.13866591453552246,-0.20952007174491882,-0.2565697431564331
1633782708990189600,15.396189453125,-0.13191558420658112,-0.16883336007595062,-0.27132442593574524
1633782709010068500,15.416068359375,-0.14027823507785797,-0.07058851420879364,-0.21073144674301147
1633782709029947400,15.435947509765626,-0.15957078337669373,0.058912575244903564,-0.12227511405944824
1633782709049826300,15.455826416015626,-0.2049221694469452,0.094945028424263,-0.07127338647842407
1633782709069705500,15.47570556640625,-0.28413888812065125,0.03279557079076767,-0.07406622916460037
1633782709089584600,15.495584716796875,-0.3433583080768585,0.0057746293023228645,-0.09508375823497772
1633782709109462500,15.515462646484375,-0.3298198878765106,0.04830455034971237,-0.08998101204633713
1633782709129341700,15.535341796875,-0.29462310671806335,0.05329432338476181,-0.09867749363183975
1633782709149220400,15.555220458984374,-0.30733612179756165,0.03155802562832832,-0.15697668492794037
1633782709169099500,15.575099609375,-0.435637503862381,-0.007001477759331465,-0.286004900932312
1633782709188978400,15.594978515625,-0.6590979099273682,-0.059337224811315536,-0.4386386275291443
1633782709208856600,15.614856689453125,-0.7720252871513367,0.06348884850740433,-0.4836497902870178
1633782709228735500,15.634735595703125,-0.7259253263473511,0.3733472526073456,-0.3607436716556549
1633782709248614700,15.65461474609375,-0.5662841200828552,0.591580331325531,-0.12833043932914734
1633782709268493300,15.674493408203125,-0.41450902819633484,0.6267985701560974,0.09321150928735733
1633782709288372500,15.69437255859375,-0.3355581760406494,0.5150607228279114,0.2047860473394394
1633782709308251600,15.714251708984374,-0.3483130633831024,0.2961808443069458,0.15787330269813538
1633782709328129500,15.734129638671876,-0.403664767742157,-0.021883895620703697,-0.06318175792694092
1633782709348008400,15.754008544921875,-0.40220126509666443,-0.3021971583366394,-0.3316784203052521
1633782709367887600,15.7738876953125,-0.27416372299194336,-0.29557278752326965,-0.49328741431236267
1633782709387766500,15.7937666015625,-0.0751626193523407,-0.03474128246307373,-0.5042709708213806
1633782709407645400,15.8136455078125,0.15012875199317932,0.16523315012454987,-0.43828848004341125
1633782709427524600,15.833524658203125,0.33613261580467224,0.16005074977874756,-0.3529721796512604
1633782709447402500,15.853402587890624,0.3754013180732727,0.059060096740722656,-0.2990173399448395
1633782709467281700,15.87328173828125,0.23457543551921844,-0.10613599419593811,-0.2746940851211548
1633782709487160300,15.893160400390625,-0.016102900728583336,-0.3050117790699005,-0.1978137195110321
1633782709507039500,15.91303955078125,-0.19280967116355896,-0.39211615920066833,0.02033408358693123
1633782709526918400,15.93291845703125,-0.19117538630962372,-0.35592392086982727,0.29887694120407104
1633782709546796500,15.952796630859375,-0.07939603924751282,-0.21495814621448517,0.49559640884399414
1633782709566675500,15.972675537109374,0.07788999378681183,-0.0748945027589798,0.5407508611679077
1633782709586554600,15.9925546875,0.19103750586509705,0.035102903842926025,0.466787725687027
1633782709606433300,16.012433349609374,0.23895412683486938,0.13145877420902252,0.36823728680610657
1633782709626312400,16.0323125,0.2229258120059967,0.1597623974084854,0.3155137300491333
1633782709646191600,16.052191650390625,0.14132724702358246,0.1331133395433426,0.327980637550354
1633782709666069500,16.072069580078125,0.06818833202123642,0.1404990553855896,0.394940048456192
1633782709685948700,16.09194873046875,0.04524066671729088,0.2142031490802765,0.440544456243515
1633782709705827600,16.11182763671875,0.10014956444501877,0.2544841468334198,0.42978909611701965
1633782709725706500,16.13170654296875,0.2557680606842041,0.24281425774097443,0.37389200925827026
1633782709745585400,16.15158544921875,0.2789257764816284,0.12387596070766449,0.20903459191322327
1633782709765464600,16.171464599609376,0.10092446953058243,-0.01481039822101593,-0.09994261711835861
1633782709785342500,16.191342529296875,-0.14528627693653107,-0.1260230392217636,-0.47516122460365295
1633782709805221600,16.2112216796875,-0.14553523063659668,0.10458748787641525,-0.7016139030456543
1633782709825100500,16.2311005859375,0.02190394699573517,0.5463187098503113,-0.6542961597442627
1633782709844979500,16.2509794921875,0.12050334364175797,0.8131809234619141,-0.5126502513885498
1633782709864858400,16.2708583984375,0.17030006647109985,0.5697265863418579,-0.44843539595603943
1633782709884736500,16.290736572265626,0.16837570071220398,0.1293606162071228,-0.41890302300453186
1633782709904619000,16.310618896484375,0.08450176566839218,-0.17225028574466705,-0.3659248352050781
1633782709924498200,16.330498291015626,-0.026179572567343712,-0.3356894552707672,-0.29506242275238037
1633782709944377000,16.350377197265626,-0.049621522426605225,-0.2437126636505127,-0.18353359401226044
1633782709964256000,16.370256103515626,0.06871206313371658,-0.014278427697718143,-0.03595734015107155
1633782709984135200,16.39013525390625,0.3120291233062744,0.10142579674720764,0.10609300434589386
1633782710004013000,16.410012939453125,0.518318235874176,0.028450842946767807,0.18818728625774384
1633782710023892200,16.429892333984377,0.5691039562225342,-0.13810814917087555,0.19863037765026093
1633782710043771100,16.449771240234377,0.4781034290790558,-0.18842345476150513,0.16276222467422485
1633782710063650000,16.469650146484376,0.31162700057029724,-0.11019645631313324,0.14773927628993988
1633782710083529000,16.489529052734376,0.17840449512004852,-0.09992597252130508,0.17523056268692017
1633782710103407000,16.509406982421876,0.11414486169815063,-0.18014656007289886,0.225448340177536
1633782710123286000,16.5292861328125,0.09109380096197128,-0.21939855813980103,0.28621429204940796
1633782710143165200,16.549165283203124,0.07936989516019821,-0.1732245236635208,0.32315197587013245
1633782710163044000,16.569044189453123,0.027104519307613373,-0.07664947211742401,0.34221822023391724
1633782710182923000,16.588923095703127,-0.10526014119386673,-0.012420197017490864,0.31313201785087585
1633782710202802200,16.60880224609375,-0.27112144231796265,-0.09777273237705231,0.20573075115680695
1633782710222680000,16.62868017578125,-0.32801955938339233,-0.10741665959358215,0.07983588427305222
1633782710242559200,16.648559326171874,-0.29493463039398193,0.11791745573282242,0.0023334561847150326
1633782710262438100,16.668438232421874,-0.22956541180610657,0.34480300545692444,-0.029852712526917458
1633782710282317000,16.688317138671874,-0.27269408106803894,0.3262384831905365,-0.08682692795991898
1633782710302196000,16.708196044921873,-0.35698485374450684,0.2584425210952759,-0.2096397578716278
1633782710322075100,16.7280751953125,-0.5171159505844116,0.1816452294588089,-0.45799925923347473
1633782710341953000,16.747953125,-0.7226704359054565,-0.05022052675485611,-0.8095483183860779
1633782710361832200,16.767832275390624,-0.8310273885726929,-0.2610575258731842,-1.0620145797729492
1633782710381711000,16.787711181640624,-0.8001436591148376,-0.11570712178945541,-1.0039875507354736
1633782710401590000,16.807590087890624,-0.6866440176963806,0.13091200590133667,-0.6829753518104553
1633782710421469000,16.827468994140624,-0.5025579333305359,0.2808809280395508,-0.2509625256061554
1633782710441348000,16.84734814453125,-0.33292528986930847,0.3531591296195984,0.12451216578483582
1633782710461226000,16.86722607421875,-0.17032405734062195,0.11357179284095764,0.31842198967933655
1633782710481105200,16.887105224609375,0.053317438811063766,-0.1951736956834793,0.3609778881072998
1633782710500984000,16.906984130859374,0.3517840504646301,-0.31650522351264954,0.34715747833251953
1633782710520863000,16.926863037109374,0.6100782155990601,-0.1752156913280487,0.35278579592704773
1633782710540742100,16.9467421875,0.7122765779495239,-0.03105222061276436,0.3854147791862488
1633782710560621000,16.96662109375,0.6762734651565552,-0.04354529082775116,0.43677735328674316
1633782710580499200,16.986499267578125,0.5409772396087646,-0.13891929388046265,0.49880579113960266
1633782710600378000,17.006378173828125,0.3483755886554718,-0.23254436254501343,0.5151271820068359
1633782710620257000,17.026257080078125,0.13812842965126038,-0.37311115860939026,0.44672247767448425
1633782710640136000,17.046135986328125,-0.11733891814947128,-0.38371729850769043,0.3658660650253296
1633782710660015000,17.06601513671875,-0.31766459345817566,-0.15158283710479736,0.2347760796546936
1633782710679893000,17.08589306640625,-0.38446348905563354,-0.05638691782951355,0.029369719326496124
1633782710699772200,17.105772216796876,-0.3762919306755066,-0.10789182037115097,-0.09461410343647003
1633782710719651000,17.125651123046875,-0.3248143494129181,-0.018270350992679596,-0.0934501364827156
1633782710739530000,17.145530029296875,-0.1911323070526123,0.1323871910572052,-0.08455924689769745
1633782710759409200,17.1654091796875,-0.06484214961528778,0.244288831949234,-0.1486036479473114
1633782710779288000,17.1852880859375,0.0013629636960104108,0.32916271686553955,-0.21279357373714447
1633782710799166200,17.205166259765626,-0.011759862303733826,0.286544531583786,-0.20656022429466248
1633782710819045000,17.225045166015626,-0.06419528275728226,0.021891998127102852,-0.1835680603981018
1633782710838924300,17.24492431640625,-0.10251707583665848,-0.11528453975915909,-0.17872558534145355
1633782710858803000,17.264802978515625,-0.12552939355373383,-0.025755755603313446,-0.23884139955043793
1633782710878682000,17.28468212890625,-0.046535227447748184,0.06769587844610214,-0.3250139057636261
1633782710898558000,17.304557861328124,0.05057945474982262,-0.3275088369846344,-0.2805168330669403
1633782710918435800,17.324435791015624,-0.0033115551341325045,-0.9836447834968567,-0.017426034435629845
1633782710938315000,17.34431494140625,-0.1830645054578781,-1.346947431564331,0.35799822211265564
1633782710958193700,17.364193603515623,-0.2834649980068207,-1.0532901287078857,0.7863932251930237
1633782710978072800,17.38407275390625,-0.23781141638755798,-0.44013649225234985,1.1210949420928955
1633782710997951700,17.40395166015625,-0.029441609978675842,-0.1792202740907669,1.1595019102096558
1633782711017831000,17.423830810546875,0.20411339402198792,-0.28822964429855347,0.9217545390129089
1633782711037708800,17.443708740234374,0.35442715883255005,-0.28231436014175415,0.5906692743301392
1633782711057588000,17.463587890625,0.35621899366378784,-0.1329081505537033,0.23288944363594055
1633782711077466600,17.483466552734374,0.28520748019218445,0.02713891677558422,-0.06850976496934891
1633782711097345800,17.503345703125,0.2442215085029602,0.33066490292549133,-0.1559116095304489
1633782711117225000,17.523224853515625,0.2681962847709656,0.5869428515434265,-0.029811223968863487
1633782711137102800,17.543102783203125,0.33822229504585266,0.5970452427864075,0.12276393175125122
1633782711156982000,17.56298193359375,0.36466747522354126,0.36333179473876953,0.16503992676734924
1633782711176861000,17.58286083984375,0.3386361598968506,0.02218484878540039,0.10368426889181137
1633782711196739800,17.60273974609375,0.21851564943790436,-0.18062317371368408,-0.03215526416897774
1633782711216618800,17.62261865234375,0.04719346761703491,-0.1307227611541748,-0.15675298869609833
1633782711236498000,17.642497802734376,-0.11664433032274246,0.042829729616642,-0.2500758469104767
1633782711256375800,17.662375732421875,-0.22301392257213593,0.10370400547981262,-0.29983681440353394
1633782711276255000,17.6822548828125,-0.2540014088153839,-0.01577819138765335,-0.20016534626483917
1633782711296133600,17.702133544921875,-0.22892455756664276,-0.1085701659321785,0.03244549408555031
1633782711316012800,17.7220126953125,-0.2084713578224182,-0.19494831562042236,0.24490918219089508
1633782711335891700,17.7418916015625,-0.2143709361553192,-0.23187927901744843,0.3354346454143524
1633782711355771000,17.76177099609375,-0.2631661593914032,-0.15594111382961273,0.2810763120651245
1633782711375648800,17.781648681640625,-0.299746036529541,0.06989336013793945,0.14263321459293365
1633782711395528000,17.80152783203125,-0.2946125864982605,0.1890224665403366,0.009039457887411118
1633782711415406800,17.82140673828125,-0.21837849915027618,0.2280694544315338,-0.05669814348220825
1633782711435285800,17.84128564453125,-0.13227131962776184,0.242742121219635,-0.11224875599145889
1633782711455165000,17.8611650390625,-0.16893033683300018,0.08702157437801361,-0.26135504245758057
1633782711475043800,17.8810439453125,-0.21639977395534515,0.08918346464633942,-0.4547019600868225
1633782711494922000,17.900921875,-0.36515700817108154,0.18002468347549438,-0.6333096623420715
1633782711514801000,17.92080078125,-0.6514013409614563,0.035996172577142715,-0.82933509349823
1633782711534679800,17.9406796875,-0.8348888754844666,-0.05267694965004921,-0.8947223424911499
1633782711554558700,17.960558837890623,-0.8379847407341003,0.18833185732364655,-0.7138774394989014
1633782711574438000,17.98043798828125,-0.6708569526672363,0.5727021098136902,-0.3851892948150635
1633782711594316800,18.00031689453125,-0.40375304222106934,0.7853189706802368,-0.07759393006563187
1633782711614195000,18.02019482421875,-0.18793213367462158,0.6933037042617798,0.09636995941400528
1633782711634073900,18.040073974609374,-0.04466012120246887,0.31078335642814636,0.15695829689502716
1633782711653952800,18.059952880859374,0.0476435050368309,-0.08390781283378601,0.160024031996727
1633782711673832000,18.07983203125,0.11418971419334412,-0.39776715636253357,0.15138936042785645
1633782711693710800,18.0997109375,0.17601093649864197,-0.48119300603866577,0.16077841818332672
1633782711713590000,18.119590087890625,0.20627105236053467,-0.30607253313064575,0.21080254018306732
1633782711733468000,18.139468017578125,0.16441966593265533,-0.17650830745697021,0.2350514978170395
1633782711753346800,18.159346923828124,0.07603511214256287,-0.17947761714458466,0.20060622692108154
1633782711773225700,18.179225830078124,-0.030412044376134872,-0.2933202385902405,0.11597060412168503
1633782711793105000,18.19910498046875,-0.0816769003868103,-0.4163305461406708,0.04067113995552063
1633782711812983800,18.21898388671875,-0.12211868911981583,-0.3719792366027832,-0.014865400269627571
1633782711832863000,18.238863037109375,-0.15652960538864136,-0.23764488101005554,-0.06731637567281723
1633782711852740900,18.258740966796875,-0.19322475790977478,-0.10165590792894363,-0.071324422955513
1633782711872619800,18.278619873046875,-0.18828429281711578,0.09602036327123642,0.01808115653693676
1633782711892499500,18.29849951171875,-0.16915875673294067,0.16303130984306335,0.13122624158859253
1633782711912378600,18.318378662109374,-0.12279637902975082,0.10208918154239655,0.20433677732944489
1633782711932257500,18.338257568359374,-0.12080709636211395,-0.0011809030547738075,0.2210903912782669
1633782711952135700,18.3581357421875,-0.15195748209953308,0.0013082800433039665,0.1946781426668167
1633782711972014300,18.378014404296874,-0.1732545793056488,0.04876188933849335,0.11976014822721481
1633782711991893500,18.3978935546875,-0.20092026889324188,0.05805656313896179,-0.002465606899932027
1633782712011772400,18.4177724609375,-0.14535793662071228,0.1049092710018158,-0.14469143748283386
1633782712031651600,18.437651611328125,-0.151088684797287,0.06743582338094711,-0.3605637550354004
1633782712051530200,18.4575302734375,-0.32317236065864563,-0.3293748199939728,-0.6980215907096863
1633782712071408400,18.477408447265624,-0.409137099981308,-0.672196626663208,-0.9596437215805054
1633782712091287300,18.497287353515624,-0.24454987049102783,-0.2418552190065384,-0.8425121307373047
1633782712111166500,18.51716650390625,0.025242606177926064,0.22820107638835907,-0.49972236156463623
1633782712131045400,18.53704541015625,0.24883584678173065,0.22984574735164642,-0.16320618987083435
1633782712150924500,18.556924560546875,0.31929048895835876,-0.007602960802614689,0.06974273920059204
1633782712170803500,18.576803466796875,0.29180023074150085,-0.12123387306928635,0.23232457041740417
1633782712190681300,18.596681396484374,0.17755946516990662,-0.16853806376457214,0.230965718626976
1633782712210560500,18.616560546875,0.06129823252558708,-0.2572411596775055,0.09045697748661041
1633782712230439400,18.636439453125,0.0763622596859932,-0.04490344598889351,0.013693301938474178
1633782712250318600,18.656318603515626,0.22967354953289032,0.27761223912239075,0.06590177118778229
1633782712270197500,18.676197509765625,0.4519294500350952,0.39728090167045593,0.19252122938632965
1633782712290076400,18.696076416015625,0.6258028149604797,0.34696441888809204,0.31646209955215454
1633782712309954300,18.715954345703125,0.6670314073562622,0.2716001570224762,0.3906401991844177
1633782712329833500,18.73583349609375,0.5856878757476807,0.2147594839334488,0.36411941051483154
1633782712349712400,18.75571240234375,0.45848140120506287,0.1135740727186203,0.25774750113487244
1633782712369591600,18.775591552734376,0.3624083995819092,-0.004046042915433645,0.11403830349445343
1633782712389470500,18.795470458984376,0.3391682803630829,-0.061105530709028244,-0.007125056814402342
1633782712409349400,18.815349365234376,0.33132675290107727,0.03712555393576622,-0.031170831993222237
1633782712429227300,18.835227294921875,0.28279706835746765,0.17950314283370972,0.029352473095059395
1633782712449106400,18.8551064453125,0.16168147325515747,0.2104252278804779,0.11823461949825287
1633782712468985600,18.874985595703127,-0.03192232549190521,0.06562703102827072,0.15385344624519348
1633782712488864500,18.894864501953126,-0.22185522317886353,-0.06423809379339218,0.12819302082061768
1633782712508743400,18.914743408203126,-0.32557857036590576,-0.0660928264260292,0.026934219524264336
1633782712528622300,18.934622314453126,-0.32623091340065,-0.05922728776931763,-0.13421466946601868
1633782712548500500,18.95450048828125,-0.2243524193763733,-0.04585832357406616,-0.22692762315273285
1633782712568379400,18.97437939453125,-0.021629996597766876,-0.01096313539892435,-0.14341159164905548
1633782712588258600,18.994258544921873,0.10908441245555878,0.029890745878219604,0.05175220966339111
1633782712608137500,19.014137451171877,0.0757334902882576,0.08919765800237656,0.19509194791316986
1633782712628016400,19.034016357421876,-0.18697062134742737,-0.01761292852461338,0.12692810595035553
1633782712647895600,19.0538955078125,-0.4831179678440094,-0.3539127707481384,-0.13665036857128143
1633782712667773400,19.0737734375,-0.5685815215110779,-0.4933511018753052,-0.3812635838985443
1633782712687652400,19.09365234375,-0.45092055201530457,-0.2552025318145752,-0.3790321946144104
1633782712707531500,19.113531494140624,-0.2080800086259842,0.20160478353500366,-0.12022838741540909
1633782712727410400,19.133410400390623,0.03986777365207672,0.5401321649551392,0.2682003378868103
1633782712747289300,19.153289306640627,0.21739067137241364,0.5389483571052551,0.5908389687538147
1633782712767168500,19.17316845703125,0.27596190571784973,0.13612309098243713,0.700752854347229
1633782712787046400,19.19304638671875,0.21848931908607483,-0.3828336000442505,0.6134044528007507
1633782712806925600,19.212925537109374,0.05241037905216217,-0.7503591179847717,0.34918972849845886
1633782712826804500,19.232804443359374,-0.1553715467453003,-0.8852829337120056,-0.039239659905433655
1633782712846683400,19.252683349609374,-0.25926196575164795,-0.6690449118614197,-0.36277082562446594
1633782712866562300,19.272562255859373,-0.21075084805488586,-0.17372548580169678,-0.49091506004333496
1633782712886441500,19.29244140625,-0.06477483361959457,0.20569676160812378,-0.4396308660507202
1633782712906318800,19.31231884765625,0.022695066407322884,0.22975526750087738,-0.2681390345096588
1633782712926197800,19.33219775390625,-0.009401168674230576,0.07550664246082306,-0.09840597212314606
1633782712946077000,19.352076904296876,-0.06031940504908562,-0.07459451258182526,-0.00521246250718832
1633782712965955800,19.371955810546876,-0.07911548763513565,-0.19424232840538025,-0.037415970116853714
1633782712985834800,19.391834716796875,-0.05258335918188095,-0.2511403560638428,-0.13622529804706573
1633782713005714000,19.4117138671875,-0.0622493140399456,-0.15278366208076477,-0.16497600078582764
1633782713025591800,19.431591796875,-0.07976981997489929,0.08651076257228851,-0.11750919371843338
1633782713045471000,19.451470947265626,-0.06155635789036751,0.23839527368545532,-0.018671516329050064
1633782713065350000,19.471349853515626,-0.04812166839838028,0.22824186086654663,0.11566796898841858
1633782713085228800,19.491228759765626,-0.07750324159860611,0.11439809203147888,0.2706780731678009
1633782713105107700,19.511107666015626,-0.11109360307455063,0.08161743730306625,0.38487303256988525
1633782713124987000,19.53098681640625,-0.0722399652004242,0.19504176080226898,0.41037073731422424
1633782713144864800,19.55086474609375,-0.008994095958769321,0.24051465094089508,0.31995365023612976
1633782713164744000,19.570743896484377,0.042105767875909805,0.2799049913883209,0.13197362422943115
1633782713184622800,19.590622802734377,-0.03214510902762413,0.23469577729701996,-0.15841633081436157
1633782713204501800,19.610501708984376,-0.20908482372760773,-0.11624375730752945,-0.5815867185592651
1633782713224380700,19.630380615234376,-0.22927723824977875,-0.5215041637420654,-0.8758979439735413
1633782713244259800,19.650259765625,-0.04205896705389023,-0.14535464346408844,-0.7851697206497192
1633782713264137700,19.6701376953125,0.20918583869934082,0.29699477553367615,-0.45267173647880554
1633782713284017000,19.690016845703123,0.34102198481559753,0.2899157702922821,-0.12006568908691406
1633782713303896000,19.70989599609375,0.2841179668903351,-0.1112397089600563,0.056159861385822296
1633782713323774700,19.729774658203127,0.15840916335582733,-0.3386934995651245,0.05422436445951462
1633782713343654000,19.74965380859375,0.0702558159828186,-0.20503763854503632,-0.021739188581705093
1633782713363532800,19.76953271484375,0.029725950211286545,0.017269212752580643,-0.10136941075325012
1633782713383411000,19.789410888671874,0.1010863333940506,0.21534644067287445,-0.10080155730247498
1633782713403289900,19.809289794921874,0.30048224329948425,0.4029421806335449,-0.005595528520643711
1633782713423169000,19.8291689453125,0.4952961504459381,0.5997109413146973,0.045973509550094604
1633782713443047700,19.849047607421873,0.535341203212738,0.43940022587776184,-0.03491903468966484
1633782713462926800,19.8689267578125,0.42081376910209656,0.19706378877162933,-0.11215047538280487
1633782713482805800,19.8888056640625,0.21256177127361298,0.19006898999214172,-0.10105051845312119
1633782713502684000,19.908683837890624,0.09086480736732483,0.22347155213356018,-0.07172229140996933
1633782713522562800,19.928562744140624,0.07523616403341293,0.07026030868291855,0.04659562185406685
1633782713542441700,19.948441650390624,0.09168504178524017,0.004330147057771683,0.31492727994918823
1633782713562321000,19.96832080078125,0.12478131055831909,0.03328337520360947,0.4884713292121887
1633782713582199800,19.98819970703125,0.13498148322105408,-0.02137027122080326,0.4283722937107086
1633782713602079000,20.008078857421875,0.013959786854684353,-0.05083048343658447,0.24945610761642456
1633782713621956900,20.027956787109375,-0.20935595035552979,-0.18624544143676758,0.042623087763786316
1633782713641836000,20.0478359375,-0.3659764230251312,-0.3084595501422882,-0.09674184769392014
1633782713661714700,20.067714599609374,-0.44552484154701233,-0.20796886086463928,-0.1366325467824936
1633782713681593900,20.08759375,-0.4499330520629883,-0.030307920649647713,-0.05414877459406853
1633782713701472800,20.10747265625,-0.3749455213546753,0.057226650416851044,0.11334703117609024
1633782713721352000,20.12735205078125,-0.26282185316085815,-0.06005770340561867,0.29889991879463196
1633782713741229800,20.147229736328125,-0.20900985598564148,-0.09933842718601227,0.4037426710128784
1633782713761109000,20.16710888671875,-0.26242491602897644,-0.14693628251552582,0.28258225321769714
1633782713780987600,20.186987548828125,-0.4270944595336914,-0.2960216999053955,-0.059973493218421936
1633782713800866800,20.20686669921875,-0.5407013893127441,-0.24994029104709625,-0.4136667847633362
1633782713820746000,20.22674609375,-0.3700122535228729,0.016908997669816017,-0.5246837139129639
1633782713840625000,20.246625,-0.03249220550060272,0.3511897325515747,-0.35787051916122437
1633782713860502800,20.266502685546875,0.27673211693763733,0.6335813403129578,0.05401631444692612
1633782713880381700,20.286381591796875,0.3586055040359497,0.605499267578125,0.48675796389579773
1633782713900261600,20.30626171875,0.31240594387054443,0.3954572081565857,0.7778418660163879
1633782713920140800,20.326140869140627,0.07869045436382294,-0.2095203995704651,1.170721173286438
1633782713940019700,20.346019775390626,-0.11919078230857849,-0.882157564163208,0.9614165425300598
1633782713959898600,20.365898681640626,-0.18000087141990662,-1.0988118648529053,0.4362885653972626
