Acc_timestamp,Accx,Accy,Accz,Gyro_timestamp,Gyrox,Gyroy,Gyroz,Baro_timestamp,Pressure_Reading
 62571008.000000, -9.561719 , 0.112463, 2.397608, 1393817088.000000, 1.540000,  -0.070000,  -0.140000, 0.000000,  0.000000 
 62591104.000000, -9.542577 , 0.081356, 2.431108, 1393837056.000000, 0.490000,  0.070000,  0.140000, 0.000000,  0.000000 
 62611456.000000, -9.521042 , 0.114855, 2.414358, 1393857280.000000, -0.420000,  0.070000,  0.140000, 0.000000,  0.000000 
 62630784.000000, -9.585647 , 0.107677, 2.486143, 1393877504.000000, -0.350000,  0.210000,  0.070000, 0.000000,  0.000000 
 62650752.000000, -9.535398 , 0.102891, 2.488536, 1393896832.000000, -0.210000,  0.140000,  0.070000, 0.000000,  0.000000 
 62670720.000000, -9.568897 , 0.136391, 2.438286, 1393916800.000000, 0.630000,  -0.140000,  0.070000, 0.000000,  0.000000 
 62690944.000000, -9.518648 , 0.167498, 2.383251, 1393936768.000000, 1.680000,  -0.350000,  -0.070000, 0.000000,  0.000000 
 62711168.000000, -9.513863 , 0.150748, 2.419144, 1393956992.000000, 1.960000,  -0.350000,  -0.280000, 0.000000,  0.000000 
 62730624.000000, -9.566505 , 0.126820, 2.414358, 1393977216.000000, 1.610000,  -0.140000,  -0.280000, 0.000000,  0.000000 
 62750464.000000, -9.564112 , 0.145962, 2.373680, 1393996672.000000, 0.910000,  0.070000,  -0.140000, 0.000000,  0.000000 
 62770560.000000, -9.530612 , 0.143569, 2.385644, 1394016640.000000, 0.140000,  -0.210000,  -0.140000, 0.000000,  0.000000 
 62790784.000000, -9.542577 , 0.074178, 2.435893, 1394036608.000000, -0.490000,  -0.280000,  -0.210000, 0.000000,  0.000000 
 62811008.000000, -9.554541 , 0.110070, 2.414358, 1394056832.000000, -0.350000,  -0.070000,  -0.560000, 0.000000,  0.000000 
 62830336.000000, -9.576077 , 0.155533, 2.438286, 1394077056.000000, 0.630000,  -0.070000,  -0.280000, 0.000000,  0.000000 
 62850304.000000, -9.583255 , 0.184247, 2.395216, 1394096384.000000, 1.610000,  -0.070000,  -0.140000, 0.000000,  0.000000 
 62870272.000000, -9.590433 , 0.131605, 2.397608, 1394116352.000000, 1.190000,  -0.070000,  -0.280000, 0.000000,  0.000000 
 62890496.000000, -9.535398 , 0.150748, 2.447858, 1394136448.000000, -0.070000,  -0.210000,  -0.140000, 0.000000,  0.000000 
 62910720.000000, -9.537791 , 0.141177, 2.421536, 1394156672.000000, -0.770000,  -0.210000,  -0.070000, 0.000000,  0.000000 
 62930176.000000, -9.556933 , 0.138784, 2.423929, 1394176896.000000, -0.840000,  -0.140000,  -0.140000, 0.000000,  0.000000 
 62950144.000000, -9.549755 , 0.133998, 2.445465, 1394196224.000000, -0.630000,  0.070000,  -0.140000, 0.000000,  0.000000 
 62970112.000000, -9.533006 , 0.112463, 2.428715, 1394216192.000000, -0.420000,  0.070000,  0.140000, 0.000000,  0.000000 
 62990336.000000, -9.523434 , 0.088534, 2.395216, 1394236160.000000, -0.630000,  -0.140000,  0.140000, 0.000000,  0.000000 
 63010560.000000, -9.549755 , 0.157926, 2.421536, 1394256384.000000, -0.770000,  0.210000,  0.210000, 0.000000,  0.000000 
 63029888.000000, -9.523434 , 0.124427, 2.423929, 1394276608.000000, -1.190000,  0.350000,  0.280000, 0.000000,  0.000000 
 63049856.000000, -9.513863 , 0.133998, 2.438286, 1394295936.000000, -0.770000,  0.350000,  0.280000, 0.000000,  0.000000 
 63069952.000000, -9.504292 , 0.184247, 2.457429, 1394316032.000000, -0.280000,  0.630000,  -0.070000, 0.000000,  0.000000 
 63090176.000000, -9.590433 , 0.208176, 2.481357, 1394336000.000000, -0.420000,  0.910000,  0.140000, 0.000000,  0.000000 
 63112320.000000, -9.547362 , 0.141177, 2.435893, 1394356224.000000, -1.190000,  0.910000,  0.210000, 0.000000,  0.000000 
 63129728.000000, -9.528220 , 0.124427, 2.495714, 1394378368.000000, -1.680000,  0.630000,  0.420000, 0.000000,  0.000000 
 63149696.000000, -9.554541 , 0.112463, 2.483750, 1394395776.000000, -1.960000,  0.350000,  0.210000, 1391691008.000000,  1010.265503 
 63169792.000000, -9.607183 , 0.162712, 2.438286, 1394415744.000000, -1.400000,  0.280000,  0.140000, 0.000000,  0.000000 
 63190016.000000, -9.533006 , 0.198604, 2.452643, 1394435840.000000, -0.700000,  0.350000,  0.280000, 0.000000,  0.000000 
 63210240.000000, -9.525827 , 0.138784, 2.500499, 1394456064.000000, -1.820000,  0.070000,  0.420000, 0.000000,  0.000000 
 63229568.000000, -9.525827 , 0.071785, 2.490928, 1394476288.000000, -3.710000,  -0.420000,  0.630000, 0.000000,  0.000000 
 63249536.000000, -9.585647 , 0.081356, 2.519642, 1394495616.000000, -4.340000,  -0.210000,  0.490000, 0.000000,  0.000000 
 63269504.000000, -9.533006 , 0.131605, 2.495714, 1394515584.000000, -3.360000,  0.070000,  0.490000, 0.000000,  0.000000 
 63289728.000000, -9.528220 , 0.172283, 2.481357, 1394535552.000000, -1.960000,  -0.420000,  0.770000, 0.000000,  0.000000 
 63309952.000000, -9.554541 , 0.179462, 2.517249, 1394555776.000000, -1.120000,  -0.630000,  0.630000, 0.000000,  0.000000 
 63329408.000000, -9.588040 , 0.153141, 2.478964, 1394576128.000000, -0.980000,  -0.490000,  0.560000, 0.000000,  0.000000 
 63349248.000000, -9.549755 , 0.122034, 2.553142, 1394595456.000000, -0.980000,  -0.490000,  0.420000, 0.000000,  0.000000 
 63369344.000000, -9.523434 , 0.090927, 2.469393, 1394615296.000000, -0.910000,  -0.350000,  0.420000, 0.000000,  0.000000 
 63389440.000000, -9.461221 , 0.145962, 2.450250, 1394635392.000000, 0.140000,  -0.560000,  0.560000, 0.000000,  0.000000 
 63409792.000000, -9.525827 , 0.174676, 2.440679, 1394655616.000000, 0.840000,  -0.350000,  0.840000, 0.000000,  0.000000 
 63429120.000000, -9.554541 , 0.155533, 2.462214, 1394675840.000000, 0.280000,  -0.140000,  0.420000, 0.000000,  0.000000 
 63449088.000000, -9.583255 , 0.119641, 2.498107, 1394695168.000000, -1.050000,  -0.140000,  0.280000, 0.000000,  0.000000 
 63469056.000000, -9.540184 , 0.124427, 2.500499, 1394715136.000000, -1.750000,  -0.140000,  0.420000, 0.000000,  0.000000 
 63489280.000000, -9.533006 , 0.117248, 2.510071, 1394735104.000000, -1.680000,  -0.280000,  0.770000, 0.000000,  0.000000 
 63509632.000000, -9.528220 , 0.138784, 2.519642, 1394755328.000000, -1.470000,  -0.280000,  0.840000, 0.000000,  0.000000 
 63528960.000000, -9.485149 , 0.143569, 2.526821, 1394775680.000000, -1.190000,  -0.350000,  0.630000, 0.000000,  0.000000 
 63548800.000000, -9.506684 , 0.124427, 2.500499, 1394795008.000000, -0.980000,  -0.420000,  0.490000, 0.000000,  0.000000 
 63568896.000000, -9.537791 , 0.157926, 2.488536, 1394814976.000000, -0.980000,  -0.280000,  0.140000, 0.000000,  0.000000 
 63589120.000000, -9.578469 , 0.162712, 2.452643, 1394834944.000000, 0.910000,  -0.140000,  0.070000, 0.000000,  0.000000 
 63609472.000000, -9.544970 , 0.131605, 2.438286, 1394855168.000000, 0.840000,  0.140000,  0.140000, 0.000000,  0.000000 
 63628672.000000, -9.523434 , 0.145962, 2.416751, 1394875520.000000, -0.070000,  0.210000,  0.560000, 0.000000,  0.000000 
 63648640.000000, -9.525827 , 0.143569, 2.445465, 1394894720.000000, -1.050000,  0.490000,  0.630000, 0.000000,  0.000000 
 63668736.000000, -9.542577 , 0.114855, 2.510071, 1394914688.000000, -2.170000,  0.560000,  0.630000, 0.000000,  0.000000 
 63688832.000000, -9.521042 , 0.133998, 2.536392, 1394934784.000000, -3.010000,  0.490000,  0.420000, 0.000000,  0.000000 
 63709184.000000, -9.556933 , 0.169890, 2.538785, 1394954880.000000, -3.010000,  0.420000,  0.350000, 0.000000,  0.000000 
 63728512.000000, -9.611969 , 0.191426, 2.447858, 1394975232.000000, -2.240000,  0.350000,  0.490000, 0.000000,  0.000000 
 63748480.000000, -9.523434 , 0.150748, 2.476572, 1394994560.000000, -1.750000,  0.350000,  0.490000, 0.000000,  0.000000 
 63768448.000000, -9.525827 , 0.119641, 2.502892, 1395014528.000000, -2.450000,  0.070000,  0.980000, 0.000000,  0.000000 
 63788672.000000, -9.499505 , 0.122034, 2.486143, 1395034624.000000, -2.730000,  -0.070000,  1.120000, 0.000000,  0.000000 
 63809024.000000, -9.549755 , 0.143569, 2.467000, 1395054720.000000, -1.750000,  0.700000,  0.700000, 0.000000,  0.000000 
 63828352.000000, -9.473185 , 0.169890, 2.493321, 1395075072.000000, -1.330000,  0.700000,  0.420000, 0.000000,  0.000000 
 63848320.000000, -9.513863 , 0.112463, 2.483750, 1395094400.000000, -1.680000,  0.420000,  0.630000, 0.000000,  0.000000 
 63868288.000000, -9.597611 , 0.086142, 2.514857, 1395114368.000000, -2.590000,  0.490000,  0.840000, 0.000000,  0.000000 
 63888512.000000, -9.585647 , 0.119641, 2.545963, 1395134336.000000, -2.940000,  0.840000,  0.770000, 0.000000,  0.000000 
 63908736.000000, -9.566505 , 0.107677, 2.517249, 1395154560.000000, -2.660000,  0.840000,  0.700000, 0.000000,  0.000000 
 63928448.000000, -9.530612 , 0.160319, 2.519642, 1395174784.000000, -1.960000,  0.560000,  0.560000, 0.000000,  0.000000 
 63948032.000000, -9.518648 , 0.169890, 2.550749, 1395194624.000000, -1.820000,  0.280000,  0.420000, 0.000000,  0.000000 
 63968128.000000, -9.561719 , 0.186640, 2.471786, 1395214080.000000, -1.260000,  0.140000,  0.140000, 0.000000,  0.000000 
 63988224.000000, -9.537791 , 0.248854, 2.457429, 1395234176.000000, -0.490000,  0.140000,  0.140000, 0.000000,  0.000000 
 64008576.000000, -9.525827 , 0.217747, 2.323431, 1395254272.000000, -0.490000,  0.140000,  -0.140000, 0.000000,  0.000000 
 64027904.000000, -9.489935 , 0.165105, 2.423929, 1395274624.000000, -2.100000,  0.630000,  0.350000, 0.000000,  0.000000 
 64047872.000000, -9.410972 , 0.100499, 2.402394, 1395293952.000000, -4.060000,  0.700000,  0.770000, 0.000000,  0.000000 
 64068864.000000, -9.552148 , 0.126820, 2.416751, 1395313920.000000, -4.970000,  1.190000,  0.840000, 0.000000,  0.000000 
 64089088.000000, -9.533006 , 0.110070, 2.459821, 1395334912.000000, -5.530000,  2.170000,  0.350000, 0.000000,  0.000000 
 64111744.000000, -9.521042 , 0.162712, 2.490928, 1395355136.000000, -5.250000,  2.100000,  0.420000, 0.000000,  0.000000 
 64129024.000000, -9.513863 , 0.184247, 2.524428, 1395395200.000000, -2.800000,  1.750000,  0.350000, 1392690432.000000,  1010.265137 
 64148992.000000, -9.530612 , 0.208176, 2.522035, 0.000000, 0.000000,  0.000000,  0.000000, 0.000000,  0.000000 
 64169344.000000, -9.533006 , 0.184247, 2.512464, 1395415168.000000, -2.520000,  1.890000,  0.140000, 0.000000,  0.000000 
 64189696.000000, -9.535398 , 0.174676, 2.553142, 1395435520.000000, -3.780000,  1.540000,  0.070000, 0.000000,  0.000000 
 64210304.000000, -9.566505 , 0.098106, 2.648855, 1395455744.000000, -4.900000,  1.190000,  0.210000, 0.000000,  0.000000 
 64229632.000000, -9.611969 , 0.090927, 2.629712, 1395476352.000000, -4.760000,  1.260000,  0.420000, 0.000000,  0.000000 
 64249600.000000, -9.540184 , 0.122034, 2.632105, 1395495680.000000, -2.870000,  0.840000,  0.350000, 0.000000,  0.000000 
 64270720.000000, -9.525827 , 0.196211, 2.562713, 1395515648.000000, -0.630000,  0.630000,  0.210000, 0.000000,  0.000000 
 64291072.000000, -9.489935 , 0.181855, 2.605784, 1395536896.000000, 0.350000,  0.350000,  -0.070000, 0.000000,  0.000000 
 64311424.000000, -9.485149 , 0.174676, 2.526821, 1395557120.000000, 0.070000,  -0.070000,  0.140000, 0.000000,  0.000000 
 64330624.000000, -9.489935 , 0.119641, 2.579463, 1395577472.000000, -0.070000,  -0.070000,  -0.280000, 0.000000,  0.000000 
 64350592.000000, -9.578469 , 0.112463, 2.550749, 1395596800.000000, 1.330000,  0.350000,  -0.770000, 0.000000,  0.000000 
 64370560.000000, -9.494720 , 0.131605, 2.517249, 1395616768.000000, 3.570000,  0.630000,  -0.560000, 0.000000,  0.000000 
 64390784.000000, -9.516255 , 0.184247, 2.526821, 1395636608.000000, 4.620000,  0.280000,  -0.070000, 0.000000,  0.000000 
 64411136.000000, -9.535398 , 0.200997, 2.409572, 1395656960.000000, 4.550000,  0.210000,  -0.210000, 0.000000,  0.000000 
 64430464.000000, -9.571291 , 0.165105, 2.452643, 1395677312.000000, 3.920000,  0.350000,  -0.770000, 0.000000,  0.000000 
 64450432.000000, -9.537791 , 0.157926, 2.443072, 1395696512.000000, 3.360000,  0.070000,  -0.700000, 0.000000,  0.000000 
 64470400.000000, -9.504292 , 0.177069, 2.411965, 1395716480.000000, 2.520000,  -0.140000,  -0.070000, 0.000000,  0.000000 
 64490624.000000, -9.592826 , 0.162712, 2.392823, 1395736448.000000, 2.030000,  0.070000,  -0.070000, 0.000000,  0.000000 
 64510976.000000, -9.597611 , 0.189033, 2.407180, 1395756672.000000, 1.470000,  0.210000,  0.210000, 0.000000,  0.000000 
 64530304.000000, -9.580862 , 0.162712, 2.423929, 1395777024.000000, 0.490000,  0.140000,  0.490000, 0.000000,  0.000000 
 64550272.000000, -9.499505 , 0.157926, 2.407180, 1395796352.000000, -0.840000,  0.140000,  0.630000, 0.000000,  0.000000 
 64570240.000000, -9.537791 , 0.129212, 2.462214, 1395816320.000000, -1.610000,  0.140000,  0.700000, 0.000000,  0.000000 
 64590464.000000, -9.559326 , 0.153141, 2.457429, 1395836288.000000, -1.260000,  0.140000,  0.420000, 0.000000,  0.000000 
 64610816.000000, -9.530612 , 0.196211, 2.431108, 1395856512.000000, -0.420000,  0.840000,  0.420000, 0.000000,  0.000000 
 64630016.000000, -9.480364 , 0.157926, 2.447858, 1395876864.000000, 0.070000,  0.700000,  0.140000, 0.000000,  0.000000 
 64649984.000000, -9.583255 , 0.136391, 2.447858, 1395896064.000000, -0.140000,  0.490000,  0.140000, 0.000000,  0.000000 
 64669952.000000, -9.499505 , 0.157926, 2.481357, 1395916032.000000, -0.700000,  1.190000,  0.140000, 0.000000,  0.000000 
 64690176.000000, -9.466006 , 0.145962, 2.478964, 1395936000.000000, -0.630000,  0.840000,  -0.140000, 0.000000,  0.000000 
 64710528.000000, -9.549755 , 0.081356, 2.486143, 1395956224.000000, -0.420000,  0.490000,  -0.140000, 0.000000,  0.000000 
 64729856.000000, -9.525827 , 0.114855, 2.455036, 1395976576.000000, -0.630000,  0.560000,  -0.210000, 0.000000,  0.000000 
 64749824.000000, -9.506684 , 0.088534, 2.464607, 1395995904.000000, -0.350000,  0.350000,  -0.420000, 0.000000,  0.000000 
 64769792.000000, -9.530612 , 0.169890, 2.416751, 1396015872.000000, 0.420000,  0.490000,  -0.280000, 0.000000,  0.000000 
 64790016.000000, -9.554541 , 0.186640, 2.428715, 1396035840.000000, 0.700000,  0.700000,  -0.420000, 0.000000,  0.000000 
 64810368.000000, -9.540184 , 0.196211, 2.455036, 1396056064.000000, 0.700000,  0.980000,  -0.700000, 0.000000,  0.000000 
 64829696.000000, -9.619147 , 0.136391, 2.471786, 1396076416.000000, -0.630000,  1.190000,  -0.490000, 0.000000,  0.000000 
 64849536.000000, -9.580862 , 0.117248, 2.493321, 1396095744.000000, -0.770000,  1.260000,  -0.490000, 0.000000,  0.000000 
 64869504.000000, -9.537791 , 0.126820, 2.467000, 1396115584.000000, -0.560000,  0.910000,  -0.420000, 0.000000,  0.000000 
 64889856.000000, -9.537791 , 0.136391, 2.505285, 1396135680.000000, 0.420000,  0.350000,  -0.420000, 0.000000,  0.000000 
 64910080.000000, -9.590433 , 0.153141, 2.431108, 1396155904.000000, 1.260000,  0.350000,  -0.350000, 0.000000,  0.000000 
 64929408.000000, -9.528220 , 0.193819, 2.361716, 1396176256.000000, 1.050000,  0.490000,  -0.420000, 0.000000,  0.000000 
 64949376.000000, -9.588040 , 0.172283, 2.392823, 1396195456.000000, 0.350000,  0.210000,  -0.280000, 0.000000,  0.000000 
 64969344.000000, -9.583255 , 0.112463, 2.371287, 1396215424.000000, -1.190000,  0.210000,  -0.070000, 0.000000,  0.000000 
 64989568.000000, -9.554541 , 0.136391, 2.411965, 1396235392.000000, -2.730000,  0.140000,  0.140000, 0.000000,  0.000000 
 65009920.000000, -9.571291 , 0.179462, 2.457429, 1396255616.000000, -3.710000,  0.210000,  0.140000, 0.000000,  0.000000 
 65029248.000000, -9.542577 , 0.153141, 2.411965, 1396275968.000000, -3.290000,  0.770000,  0.140000, 0.000000,  0.000000 
 65049088.000000, -9.561719 , 0.181855, 2.440679, 1396295296.000000, -2.170000,  0.910000,  0.350000, 0.000000,  0.000000 
 65069184.000000, -9.513863 , 0.119641, 2.474179, 1396315264.000000, -2.380000,  0.770000,  0.700000, 0.000000,  0.000000 
 65096320.000000, -9.590433 , 0.086142, 2.467000, 1396335232.000000, -3.010000,  0.560000,  0.840000, 0.000000,  0.000000 
 65118464.000000, -9.633504 , 0.119641, 2.447858, 1396362368.000000, -3.360000,  0.420000,  0.770000, 0.000000,  0.000000 
 65135872.000000, -9.535398 , 0.095713, 2.488536, 1396384512.000000, -3.290000,  0.490000,  0.630000, 0.000000,  0.000000 
 65155968.000000, -9.544970 , 0.043071, 2.471786, 1396402048.000000, -2.800000,  0.140000,  0.490000, 1393697280.000000,  1010.265869 
 65175936.000000, -9.537791 , 0.098106, 2.452643, 1396422016.000000, -1.470000,  0.210000,  0.280000, 0.000000,  0.000000 
 65196160.000000, -9.576077 , 0.165105, 2.431108, 1396441984.000000, -0.210000,  0.420000,  0.490000, 0.000000,  0.000000 
 65216512.000000, -9.530612 , 0.181855, 2.402394, 1396462336.000000, 0.210000,  0.210000,  0.280000, 0.000000,  0.000000 
 65235840.000000, -9.480364 , 0.100499, 2.440679, 1396482560.000000, -0.280000,  0.420000,  0.210000, 0.000000,  0.000000 
 65255808.000000, -9.518648 , 0.074178, 2.476572, 1396501888.000000, -0.490000,  0.560000,  -0.070000, 0.000000,  0.000000 
 65275904.000000, -9.556933 , 0.098106, 2.400001, 1396521984.000000, -0.420000,  0.700000,  -0.280000, 0.000000,  0.000000 
 65296128.000000, -9.547362 , 0.148355, 2.404787, 1396541952.000000, 0.140000,  0.840000,  -0.140000, 0.000000,  0.000000 
 65316480.000000, -9.566505 , 0.169890, 2.423929, 1396562176.000000, -0.070000,  0.700000,  -0.140000, 0.000000,  0.000000 
 65335808.000000, -9.535398 , 0.076570, 2.435893, 1396582528.000000, -0.980000,  0.420000,  -0.140000, 0.000000,  0.000000 
 65355776.000000, -9.513863 , 0.098106, 2.423929, 1396601856.000000, -1.820000,  0.420000,  0.210000, 0.000000,  0.000000 
 65375744.000000, -9.556933 , 0.138784, 2.464607, 1396621824.000000, -1.960000,  0.630000,  0.280000, 0.000000,  0.000000 
 65396096.000000, -9.547362 , 0.145962, 2.411965, 1396641920.000000, -1.470000,  0.560000,  -0.210000, 0.000000,  0.000000 
 65416448.000000, -9.554541 , 0.153141, 2.457429, 1396662144.000000, -0.910000,  0.630000,  -0.280000, 0.000000,  0.000000 
 65435776.000000, -9.590433 , 0.100499, 2.445465, 1396682496.000000, -0.700000,  0.770000,  -0.210000, 0.000000,  0.000000 
 65455744.000000, -9.556933 , 0.122034, 2.478964, 1396701824.000000, -0.910000,  0.630000,  -0.210000, 0.000000,  0.000000 
 65475712.000000, -9.583255 , 0.105284, 2.483750, 1396721792.000000, -0.840000,  0.490000,  -0.280000, 0.000000,  0.000000 
 65496064.000000, -9.518648 , 0.064606, 2.421536, 1396741760.000000, -0.630000,  0.490000,  -0.140000, 0.000000,  0.000000 
 65516288.000000, -9.511470 , 0.138784, 2.423929, 1396762112.000000, -0.630000,  0.490000,  -0.210000, 0.000000,  0.000000 
 65535744.000000, -9.533006 , 0.088534, 2.457429, 1396782336.000000, -0.980000,  0.490000,  -0.350000, 0.000000,  0.000000 
 65555712.000000, -9.568897 , 0.076570, 2.493321, 1396801792.000000, -1.400000,  0.420000,  -0.210000, 0.000000,  0.000000 
 65575680.000000, -9.537791 , 0.107677, 2.452643, 1396821760.000000, -1.470000,  0.560000,  -0.070000, 0.000000,  0.000000 
 65596032.000000, -9.544970 , 0.090927, 2.447858, 1396841728.000000, -0.910000,  0.490000,  -0.070000, 0.000000,  0.000000 
 65616256.000000, -9.516255 , 0.074178, 2.433501, 1396862080.000000, -0.840000,  0.140000,  -0.070000, 0.000000,  0.000000 
 65635712.000000, -9.523434 , 0.095713, 2.426322, 1396882304.000000, -0.490000,  0.490000,  -0.420000, 0.000000,  0.000000 
 65655680.000000, -9.573684 , 0.098106, 2.445465, 1396901760.000000, 0.630000,  0.770000,  -0.560000, 0.000000,  0.000000 
 65675648.000000, -9.504292 , 0.090927, 2.440679, 1396921728.000000, 0.700000,  0.700000,  -0.280000, 0.000000,  0.000000 
 65696000.000000, -9.523434 , 0.081356, 2.462214, 1396941696.000000, 0.700000,  0.630000,  -0.280000, 0.000000,  0.000000 
 65716224.000000, -9.568897 , 0.040678, 2.440679, 1396962048.000000, -1.400000,  0.490000,  -0.560000, 0.000000,  0.000000 
 65735552.000000, -9.611969 , 0.052642, 2.474179, 1396982272.000000, -1.120000,  0.630000,  -0.630000, 0.000000,  0.000000 
 65755648.000000, -9.523434 , 0.071785, 2.414358, 1397001728.000000, -1.120000,  0.700000,  -0.560000, 0.000000,  0.000000 
 65775616.000000, -9.497113 , 0.124427, 2.433501, 1397021696.000000, 0.910000,  0.490000,  -0.560000, 0.000000,  0.000000 
 65795840.000000, -9.554541 , 0.102891, 2.404787, 1397041664.000000, 0.910000,  0.350000,  -0.280000, 0.000000,  0.000000 
 65816192.000000, -9.571291 , 0.114855, 2.445465, 1397061888.000000, 0.770000,  0.560000,  -0.700000, 0.000000,  0.000000 
 65835520.000000, -9.559326 , 0.059821, 2.416751, 1397082240.000000, 0.280000,  1.120000,  -0.490000, 0.000000,  0.000000 
 65855488.000000, -9.554541 , 0.110070, 2.397608, 1397101568.000000, 1.190000,  0.560000,  -0.210000, 0.000000,  0.000000 
 65875584.000000, -9.504292 , 0.126820, 2.388037, 1397121664.000000, 1.120000,  0.700000,  -0.210000, 0.000000,  0.000000 
 65895808.000000, -9.580862 , 0.083749, 2.443072, 1397141632.000000, 1.120000,  0.840000,  0.070000, 0.000000,  0.000000 
 65916160.000000, -9.556933 , 0.100499, 2.397608, 1397161856.000000, -0.840000,  0.490000,  -0.490000, 0.000000,  0.000000 
 65935488.000000, -9.604790 , 0.086142, 2.400001, 1397182208.000000, 0.070000,  0.560000,  -0.140000, 0.000000,  0.000000 
 65955456.000000, -9.556933 , 0.160319, 2.380858, 1397201536.000000, 1.190000,  0.560000,  -0.140000, 0.000000,  0.000000 
 65975424.000000, -9.597611 , 0.148355, 2.373680, 1397221504.000000, 1.050000,  0.560000,  0.490000, 0.000000,  0.000000 
 65996032.000000, -9.530612 , 0.100499, 2.376073, 1397241600.000000, -0.700000,  0.490000,  0.490000, 0.000000,  0.000000 
 66016000.000000, -9.554541 , 0.064606, 2.431108, 1397262080.000000, -2.520000,  0.490000,  0.420000, 0.000000,  0.000000 
 66035456.000000, -9.590433 , 0.133998, 2.411965, 1397282176.000000, -2.800000,  0.420000,  0.420000, 0.000000,  0.000000 
 66055424.000000, -9.549755 , 0.179462, 2.395216, 1397301504.000000, -1.680000,  0.490000,  0.560000, 0.000000,  0.000000 
 66075392.000000, -9.568897 , 0.122034, 2.385644, 1397321472.000000, -1.190000,  0.350000,  0.700000, 0.000000,  0.000000 
 66095744.000000, -9.540184 , 0.098106, 2.486143, 1397341440.000000, -1.820000,  0.140000,  0.910000, 0.000000,  0.000000 
 66117888.000000, -9.592826 , 0.043071, 2.414358, 1397361792.000000, -2.310000,  0.070000,  0.770000, 0.000000,  0.000000 
 66135424.000000, -9.559326 , 0.088534, 2.433501, 1397384064.000000, -1.960000,  0.070000,  0.770000, 0.000000,  0.000000 
 66155392.000000, -9.621540 , 0.047856, 2.423929, 1397401472.000000, -1.540000,  0.140000,  0.490000, 1394696704.000000,  1010.268188 
 66175360.000000, -9.595219 , 0.083749, 2.433501, 1397421440.000000, -0.630000,  0.210000,  0.420000, 0.000000,  0.000000 
 66195712.000000, -9.511470 , 0.105284, 2.455036, 1397441408.000000, 0.560000,  -0.070000,  0.490000, 0.000000,  0.000000 
 66215936.000000, -9.525827 , 0.093320, 2.416751, 1397461760.000000, 0.770000,  -0.280000,  0.630000, 0.000000,  0.000000 
 66235392.000000, -9.573684 , 0.114855, 2.371287, 1397481984.000000, 0.700000,  -0.280000,  0.350000, 0.000000,  0.000000 
 66255360.000000, -9.547362 , 0.129212, 2.388037, 1397501440.000000, 0.070000,  -0.210000,  0.280000, 0.000000,  0.000000 
 66275328.000000, -9.537791 , 0.114855, 2.409572, 1397521408.000000, -1.050000,  -0.210000,  0.630000, 0.000000,  0.000000 
 66295552.000000, -9.578469 , 0.071785, 2.376073, 1397541376.000000, -2.240000,  -0.280000,  0.770000, 0.000000,  0.000000 
 66315904.000000, -9.580862 , 0.088534, 2.411965, 1397561728.000000, -3.640000,  -0.210000,  0.770000, 0.000000,  0.000000 
 66335232.000000, -9.580862 , 0.090927, 2.452643, 1397581952.000000, -4.690000,  -0.350000,  0.630000, 0.000000,  0.000000 
 66355328.000000, -9.571291 , 0.088534, 2.445465, 1397601408.000000, -4.410000,  -0.630000,  0.630000, 0.000000,  0.000000 
 66375296.000000, -9.530612 , 0.066999, 2.423929, 1397621376.000000, -2.800000,  -0.700000,  0.980000, 0.000000,  0.000000 
 66395520.000000, -9.544970 , 0.119641, 2.450250, 1397641344.000000, -1.610000,  -0.490000,  0.770000, 0.000000,  0.000000 
 66415872.000000, -9.580862 , 0.129212, 2.450250, 1397661568.000000, -0.980000,  -0.210000,  0.490000, 0.000000,  0.000000 
 66435200.000000, -9.513863 , 0.129212, 2.459821, 1397681920.000000, -1.260000,  -0.350000,  0.420000, 0.000000,  0.000000 
 66455168.000000, -9.521042 , 0.081356, 2.488536, 1397701248.000000, -1.820000,  -0.770000,  0.490000, 0.000000,  0.000000 
 66475136.000000, -9.554541 , 0.129212, 2.498107, 1397721216.000000, -1.680000,  -0.350000,  0.560000, 0.000000,  0.000000 
 66495488.000000, -9.547362 , 0.074178, 2.490928, 1397741312.000000, -0.980000,  -0.140000,  0.210000, 0.000000,  0.000000 
 66515712.000000, -9.578469 , 0.047856, 2.498107, 1397761536.000000, -0.420000,  -0.210000,  0.210000, 0.000000,  0.000000 
 66535168.000000, -9.537791 , 0.052642, 2.490928, 1397781888.000000, -0.140000,  -0.280000,  0.350000, 0.000000,  0.000000 
 66555136.000000, -9.521042 , 0.105284, 2.423929, 1397801216.000000, 1.120000,  -0.210000,  0.210000, 0.000000,  0.000000 
 66575104.000000, -9.523434 , 0.181855, 2.397608, 1397821184.000000, 2.520000,  -0.210000,  0.140000, 0.000000,  0.000000 
 66595456.000000, -9.518648 , 0.177069, 2.416751, 1397841152.000000, 2.240000,  -0.070000,  -0.140000, 0.000000,  0.000000 
 66615680.000000, -9.485149 , 0.093320, 2.457429, 1397861504.000000, 0.840000,  -0.070000,  -0.350000, 0.000000,  0.000000 
 66635136.000000, -9.480364 , 0.133998, 2.445465, 1397881728.000000, -0.140000,  0.140000,  -0.280000, 0.000000,  0.000000 
 66655488.000000, -9.544970 , 0.064606, 2.421536, 1397901184.000000, 0.070000,  0.280000,  -0.070000, 0.000000,  0.000000 
 66675072.000000, -9.513863 , 0.088534, 2.435893, 1397921536.000000, 0.490000,  0.350000,  -0.560000, 0.000000,  0.000000 
 66695424.000000, -9.513863 , 0.095713, 2.419144, 1397941120.000000, 0.140000,  0.420000,  -0.630000, 0.000000,  0.000000 
 66715648.000000, -9.561719 , 0.047856, 2.464607, 1397961472.000000, -0.280000,  0.350000,  -0.770000, 0.000000,  0.000000 
 66735104.000000, -9.640682 , 0.114855, 2.428715, 1397981696.000000, 0.350000,  0.630000,  -0.910000, 0.000000,  0.000000 
 66755072.000000, -9.554541 , 0.141177, 2.395216, 1398001152.000000, 1.120000,  0.980000,  -0.770000, 0.000000,  0.000000 
 66775040.000000, -9.492328 , 0.143569, 2.421536, 1398021120.000000, 0.980000,  0.700000,  -0.490000, 0.000000,  0.000000 
 66795392.000000, -9.461221 , 0.078963, 2.452643, 1398041088.000000, -0.280000,  0.560000,  -0.280000, 0.000000,  0.000000 
 66815616.000000, -9.521042 , 0.076570, 2.443072, 1398061440.000000, -0.490000,  0.630000,  -0.420000, 0.000000,  0.000000 
 66834944.000000, -9.554541 , 0.150748, 2.483750, 1398081664.000000, 0.630000,  0.840000,  -0.350000, 0.000000,  0.000000 
 66855040.000000, -9.554541 , 0.150748, 2.443072, 1398101120.000000, 1.190000,  0.980000,  -0.420000, 0.000000,  0.000000 
 66875008.000000, -9.568897 , 0.105284, 2.438286, 1398121088.000000, 0.280000,  0.770000,  -0.140000, 0.000000,  0.000000 
 66895232.000000, -9.544970 , 0.102891, 2.478964, 1398141056.000000, -0.280000,  0.630000,  -0.210000, 0.000000,  0.000000 
 66915584.000000, -9.600004 , 0.078963, 2.505285, 1398161408.000000, -1.190000,  0.700000,  -0.210000, 0.000000,  0.000000 
 66934912.000000, -9.595219 , 0.095713, 2.467000, 1398181632.000000, -1.470000,  0.630000,  0.070000, 0.000000,  0.000000 
 66954880.000000, -9.540184 , 0.093320, 2.488536, 1398200960.000000, -0.910000,  0.280000,  0.070000, 0.000000,  0.000000 
 66974976.000000, -9.540184 , 0.172283, 2.474179, 1398221056.000000, -0.420000,  0.280000,  0.700000, 0.000000,  0.000000 
 66995200.000000, -9.521042 , 0.117248, 2.455036, 1398241024.000000, -0.420000,  0.140000,  1.260000, 0.000000,  0.000000 
 67015552.000000, -9.542577 , 0.167498, 2.467000, 1398261248.000000, 0.070000,  0.280000,  0.910000, 0.000000,  0.000000 
 67034880.000000, -9.568897 , 0.136391, 2.471786, 1398281600.000000, 0.070000,  0.070000,  0.490000, 0.000000,  0.000000 
 67054848.000000, -9.530612 , 0.133998, 2.512464, 1398300928.000000, 0.280000,  -0.070000,  0.630000, 0.000000,  0.000000 
 67074816.000000, -9.528220 , 0.102891, 2.457429, 1398320896.000000, 0.490000,  0.210000,  0.770000, 0.000000,  0.000000 
 67095168.000000, -9.556933 , 0.112463, 2.478964, 1398340992.000000, 0.420000,  0.210000,  0.560000, 0.000000,  0.000000 
 67117440.000000, -9.568897 , 0.098106, 2.481357, 1398361216.000000, -0.350000,  0.280000,  0.420000, 0.000000,  0.000000 
 67134848.000000, -9.549755 , 0.088534, 2.502892, 1398383488.000000, -0.490000,  0.350000,  0.070000, 0.000000,  0.000000 
 67154816.000000, -9.552148 , 0.138784, 2.498107, 1398400896.000000, 0.280000,  0.070000,  0.140000, 1395696128.000000,  1010.266968 
 67174784.000000, -9.595219 , 0.169890, 2.502892, 1398420864.000000, 0.980000,  0.140000,  0.210000, 0.000000,  0.000000 
 67195136.000000, -9.506684 , 0.145962, 2.490928, 1398440832.000000, 0.840000,  -0.070000,  0.210000, 0.000000,  0.000000 
 67215360.000000, -9.513863 , 0.131605, 2.474179, 1398461184.000000, 0.350000,  -0.350000,  -0.140000, 0.000000,  0.000000 
 67234816.000000, -9.528220 , 0.124427, 2.471786, 1398481408.000000, 0.070000,  -0.210000,  -0.350000, 0.000000,  0.000000 
 67254784.000000, -9.547362 , 0.143569, 2.517249, 1398500864.000000, 0.420000,  -0.070000,  -0.490000, 0.000000,  0.000000 
 67274752.000000, -9.619147 , 0.133998, 2.510071, 1398520832.000000, 1.050000,  -0.210000,  -0.070000, 0.000000,  0.000000 
 67295104.000000, -9.556933 , 0.114855, 2.457429, 1398540800.000000, 0.980000,  -0.280000,  -0.070000, 0.000000,  0.000000 
 67315328.000000, -9.537791 , 0.098106, 2.507678, 1398561152.000000, 0.210000,  -0.280000,  -0.070000, 0.000000,  0.000000 
 67334784.000000, -9.521042 , 0.090927, 2.512464, 1398581376.000000, -0.210000,  -0.350000,  -0.490000, 0.000000,  0.000000 
 67354752.000000, -9.499505 , 0.095713, 2.450250, 1398600832.000000, 0.280000,  -0.350000,  -0.630000, 0.000000,  0.000000 
 67374720.000000, -9.547362 , 0.129212, 2.493321, 1398620800.000000, 1.260000,  -0.280000,  -0.560000, 0.000000,  0.000000 
 67394944.000000, -9.492328 , 0.150748, 2.459821, 1398640768.000000, 1.470000,  -0.350000,  -0.560000, 0.000000,  0.000000 
 67415296.000000, -9.535398 , 0.100499, 2.450250, 1398661120.000000, 1.960000,  -0.350000,  -0.840000, 0.000000,  0.000000 
 67434624.000000, -9.482756 , 0.131605, 2.433501, 1398681344.000000, 1.680000,  -0.350000,  -0.560000, 0.000000,  0.000000 
 67454848.000000, -9.475577 , 0.141177, 2.457429, 1398700800.000000, 0.980000,  -0.350000,  -0.210000, 0.000000,  0.000000 
 67474688.000000, -9.544970 , 0.098106, 2.421536, 1398720896.000000, 0.140000,  -0.140000,  -0.490000, 0.000000,  0.000000 
 67494912.000000, -9.544970 , 0.136391, 2.478964, 1398740736.000000, -0.420000,  0.070000,  -0.490000, 0.000000,  0.000000 
 67515264.000000, -9.559326 , 0.117248, 2.505285, 1398760960.000000, -0.350000,  0.210000,  -0.490000, 0.000000,  0.000000 
 67534592.000000, -9.506684 , 0.119641, 2.467000, 1398781312.000000, 0.420000,  0.140000,  -0.490000, 0.000000,  0.000000 
 67554560.000000, -9.468399 , 0.133998, 2.443072, 1398800640.000000, 1.190000,  -0.070000,  -0.280000, 0.000000,  0.000000 
 67574656.000000, -9.518648 , 0.129212, 2.467000, 1398820736.000000, 0.840000,  0.140000,  -0.210000, 0.000000,  0.000000 
 67594880.000000, -9.537791 , 0.064606, 2.476572, 1398840704.000000, 0.280000,  0.490000,  -0.420000, 0.000000,  0.000000 
 67615104.000000, -9.561719 , 0.124427, 2.483750, 1398860928.000000, -0.140000,  0.630000,  -0.490000, 0.000000,  0.000000 
 67634560.000000, -9.544970 , 0.076570, 2.531606, 1398881280.000000, -0.280000,  0.420000,  -0.490000, 0.000000,  0.000000 
 67654528.000000, -9.585647 , 0.129212, 2.531606, 1398900608.000000, -0.280000,  0.490000,  -0.490000, 0.000000,  0.000000 
 67674496.000000, -9.521042 , 0.071785, 2.486143, 1398920704.000000, 0.910000,  0.700000,  -0.210000, 0.000000,  0.000000 
 67694848.000000, -9.523434 , 0.112463, 2.488536, 1398940672.000000, 1.190000,  0.490000,  -0.350000, 0.000000,  0.000000 
 67715072.000000, -9.547362 , 0.059821, 2.514857, 1398960896.000000, 0.490000,  0.350000,  -0.560000, 0.000000,  0.000000 
 67734528.000000, -9.475577 , 0.119641, 2.467000, 1398981120.000000, -0.280000,  0.280000,  -0.630000, 0.000000,  0.000000 
 67754496.000000, -9.556933 , 0.119641, 2.464607, 1399000576.000000, 0.070000,  0.280000,  -0.490000, 0.000000,  0.000000 
 67774464.000000, -9.571291 , 0.090927, 2.457429, 1399020544.000000, 0.980000,  0.210000,  -0.420000, 0.000000,  0.000000 
 67794816.000000, -9.571291 , 0.138784, 2.450250, 1399040512.000000, 1.050000,  0.350000,  -0.210000, 0.000000,  0.000000 
 67815040.000000, -9.516255 , 0.124427, 2.467000, 1399060864.000000, 0.420000,  0.280000,  -0.140000, 0.000000,  0.000000 
 67834496.000000, -9.485149 , 0.133998, 2.457429, 1399081088.000000, -0.350000,  0.280000,  0.070000, 0.000000,  0.000000 
 67854464.000000, -9.494720 , 0.110070, 2.426322, 1399100544.000000, -0.700000,  0.350000,  0.070000, 0.000000,  0.000000 
 67874432.000000, -9.521042 , 0.105284, 2.440679, 1399120512.000000, -0.910000,  0.210000,  0.070000, 0.000000,  0.000000 
 67894784.000000, -9.554541 , 0.107677, 2.459821, 1399140480.000000, -0.700000,  0.350000,  0.210000, 0.000000,  0.000000 
 67915008.000000, -9.528220 , 0.126820, 2.440679, 1399160832.000000, -0.490000,  0.700000,  0.350000, 0.000000,  0.000000 
 67934464.000000, -9.482756 , 0.114855, 2.464607, 1399181056.000000, -0.280000,  0.770000,  0.560000, 0.000000,  0.000000 
 67954432.000000, -9.523434 , 0.098106, 2.464607, 1399200512.000000, -1.260000,  0.770000,  0.630000, 0.000000,  0.000000 
 67974400.000000, -9.552148 , 0.062213, 2.435893, 1399220480.000000, -2.170000,  0.420000,  0.350000, 0.000000,  0.000000 
 67994624.000000, -9.506684 , 0.131605, 2.471786, 1399240448.000000, -1.820000,  0.770000,  0.490000, 0.000000,  0.000000 
 68014976.000000, -9.458827 , 0.131605, 2.457429, 1399260800.000000, -0.910000,  0.770000,  0.770000, 0.000000,  0.000000 
 68034304.000000, -9.497113 , 0.138784, 2.435893, 1399281024.000000, -0.910000,  0.560000,  0.700000, 0.000000,  0.000000 
 68054400.000000, -9.597611 , 0.100499, 2.421536, 1399300480.000000, -2.240000,  0.980000,  0.840000, 0.000000,  0.000000 
 68074368.000000, -9.547362 , 0.055035, 2.490928, 1399320448.000000, -3.990000,  1.050000,  1.050000, 0.000000,  0.000000 
 68094592.000000, -9.528220 , 0.021535, 2.502892, 1399340416.000000, -4.970000,  0.700000,  1.120000, 0.000000,  0.000000 
 68116864.000000, -9.516255 , 0.057428, 2.486143, 1399360640.000000, -3.990000,  0.560000,  1.190000, 0.000000,  0.000000 
 68134272.000000, -9.542577 , 0.126820, 2.495714, 1399382912.000000, -1.960000,  0.770000,  0.910000, 0.000000,  0.000000 
 68154240.000000, -9.525827 , 0.114855, 2.483750, 1399400320.000000, -0.630000,  0.910000,  0.350000, 1396695680.000000,  1010.264771 
 68174208.000000, -9.468399 , 0.155533, 2.462214, 1399420416.000000, -0.840000,  0.980000,  0.280000, 0.000000,  0.000000 
 68194688.000000, -9.516255 , 0.117248, 2.524428, 1399440384.000000, -2.030000,  0.770000,  0.490000, 0.000000,  0.000000 
 68214784.000000, -9.530612 , 0.095713, 2.505285, 1399460736.000000, -3.080000,  0.700000,  0.490000, 0.000000,  0.000000 
 68234240.000000, -9.554541 , 0.093320, 2.512464, 1399480960.000000, -2.940000,  0.980000,  0.490000, 0.000000,  0.000000 
 68254208.000000, -9.573684 , 0.129212, 2.514857, 1399500288.000000, -1.960000,  0.910000,  0.490000, 0.000000,  0.000000 
 68274176.000000, -9.499505 , 0.052642, 2.498107, 1399520256.000000, -1.190000,  0.630000,  0.350000, 0.000000,  0.000000 
 68294528.000000, -9.518648 , 0.090927, 2.481357, 1399540224.000000, -1.190000,  0.490000,  0.350000, 0.000000,  0.000000 
 68314752.000000, -9.499505 , 0.110070, 2.553142, 1399560576.000000, -1.470000,  0.280000,  0.140000, 0.000000,  0.000000 
 68334208.000000, -9.554541 , 0.050249, 2.536392, 1399580800.000000, -1.610000,  0.350000,  -0.070000, 0.000000,  0.000000 
 68354176.000000, -9.499505 , 0.112463, 2.548356, 1399600256.000000, -1.190000,  0.420000,  -0.070000, 0.000000,  0.000000 
 68374144.000000, -9.525827 , 0.133998, 2.514857, 1399620224.000000, -0.350000,  0.420000,  -0.070000, 0.000000,  0.000000 
 68394496.000000, -9.552148 , 0.081356, 2.517249, 1399640192.000000, 0.420000,  0.420000,  -0.140000, 0.000000,  0.000000 
 68414720.000000, -9.542577 , 0.126820, 2.493321, 1399660544.000000, 0.630000,  0.350000,  -0.280000, 0.000000,  0.000000 
 68434176.000000, -9.571291 , 0.064606, 2.490928, 1399680768.000000, 0.840000,  0.210000,  -0.560000, 0.000000,  0.000000 
 68454144.000000, -9.516255 , 0.090927, 2.476572, 1399700224.000000, 1.190000,  0.210000,  -0.560000, 0.000000,  0.000000 
 68474112.000000, -9.611969 , 0.107677, 2.443072, 1399720192.000000, 1.470000,  0.350000,  -0.560000, 0.000000,  0.000000 
 68494464.000000, -9.540184 , 0.126820, 2.443072, 1399740160.000000, 1.890000,  0.280000,  -0.420000, 0.000000,  0.000000 
 68514688.000000, -9.516255 , 0.143569, 2.490928, 1399760512.000000, 1.680000,  0.140000,  -0.420000, 0.000000,  0.000000 
 68534016.000000, -9.525827 , 0.141177, 2.450250, 1399780736.000000, 1.120000,  0.140000,  -0.420000, 0.000000,  0.000000 
 68554112.000000, -9.542577 , 0.112463, 2.419144, 1399800192.000000, 0.770000,  0.280000,  -0.630000, 0.000000,  0.000000 
 68574080.000000, -9.492328 , 0.129212, 2.445465, 1399820160.000000, 0.630000,  0.350000,  -0.280000, 0.000000,  0.000000 
 68594304.000000, -9.573684 , 0.095713, 2.419144, 1399840128.000000, 0.280000,  0.140000,  -0.070000, 0.000000,  0.000000 
 68614656.000000, -9.559326 , 0.126820, 2.428715, 1399860480.000000, -0.140000,  0.280000,  -0.350000, 0.000000,  0.000000 
 68633984.000000, -9.564112 , 0.076570, 2.476572, 1399880704.000000, -0.490000,  0.420000,  -0.210000, 0.000000,  0.000000 
 68654080.000000, -9.568897 , 0.098106, 2.490928, 1399900032.000000, -0.210000,  0.350000,  -0.210000, 0.000000,  0.000000 
 68674048.000000, -9.535398 , 0.105284, 2.431108, 1399920128.000000, 0.210000,  0.210000,  -0.140000, 0.000000,  0.000000 
 68694272.000000, -9.571291 , 0.071785, 2.455036, 1399940096.000000, 0.560000,  0.070000,  0.140000, 0.000000,  0.000000 
 68714496.000000, -9.549755 , 0.136391, 2.404787, 1399960320.000000, 0.490000,  0.280000,  0.140000, 0.000000,  0.000000 
 68733952.000000, -9.559326 , 0.119641, 2.421536, 1399980672.000000, 0.140000,  0.420000,  -0.070000, 0.000000,  0.000000 
 68753920.000000, -9.561719 , 0.136391, 2.443072, 1400000000.000000, -0.350000,  0.210000,  -0.070000, 0.000000,  0.000000 
 68773888.000000, -9.578469 , 0.145962, 2.464607, 1400019968.000000, -0.630000,  0.280000,  0.070000, 0.000000,  0.000000 
 68794240.000000, -9.535398 , 0.088534, 2.447858, 1400040064.000000, -1.050000,  0.350000,  0.070000, 0.000000,  0.000000 
 68814464.000000, -9.552148 , 0.093320, 2.447858, 1400060288.000000, -0.840000,  0.420000,  0.280000, 0.000000,  0.000000 
 68833920.000000, -9.547362 , 0.102891, 2.431108, 1400080640.000000, -0.630000,  0.280000,  0.350000, 0.000000,  0.000000 
 68853888.000000, -9.542577 , 0.081356, 2.445465, 1400099968.000000, -1.050000,  0.280000,  0.420000, 0.000000,  0.000000 
 68873856.000000, -9.504292 , 0.062213, 2.488536, 1400119936.000000, -1.470000,  0.420000,  0.280000, 0.000000,  0.000000 
 68894208.000000, -9.542577 , 0.107677, 2.443072, 1400139904.000000, -1.400000,  0.420000,  0.140000, 0.000000,  0.000000 
 68914432.000000, -9.528220 , 0.153141, 2.445465, 1400160256.000000, -0.910000,  0.630000,  0.210000, 0.000000,  0.000000 
 68933888.000000, -9.564112 , 0.157926, 2.400001, 1400180480.000000, -0.840000,  0.630000,  0.350000, 0.000000,  0.000000 
 68953856.000000, -9.578469 , 0.141177, 2.464607, 1400199936.000000, -0.980000,  0.560000,  0.420000, 0.000000,  0.000000 
 68973824.000000, -9.544970 , 0.124427, 2.464607, 1400219904.000000, -1.540000,  0.490000,  0.490000, 0.000000,  0.000000 
 68994176.000000, -9.571291 , 0.090927, 2.457429, 1400239872.000000, -2.100000,  0.350000,  0.350000, 0.000000,  0.000000 
 69014400.000000, -9.549755 , 0.100499, 2.421536, 1400260224.000000, -2.100000,  0.420000,  0.280000, 0.000000,  0.000000 
 69033728.000000, -9.585647 , 0.129212, 2.459821, 1400280448.000000, -1.540000,  0.420000,  0.350000, 0.000000,  0.000000 
 69053824.000000, -9.516255 , 0.117248, 2.447858, 1400299904.000000, -1.050000,  0.350000,  0.280000, 0.000000,  0.000000 
 69073792.000000, -9.516255 , 0.110070, 2.467000, 1400319872.000000, -0.840000,  0.350000,  0.210000, 0.000000,  0.000000 
 69094016.000000, -9.552148 , 0.064606, 2.476572, 1400339840.000000, -1.540000,  0.280000,  0.280000, 0.000000,  0.000000 
 69116288.000000, -9.559326 , 0.129212, 2.452643, 1400360192.000000, -1.540000,  0.490000,  0.280000, 0.000000,  0.000000 
 69133696.000000, -9.525827 , 0.098106, 2.507678, 1400399872.000000, -1.190000,  0.630000,  0.420000, 1397695104.000000,  1010.266052 
 69153664.000000, -9.470792 , 0.145962, 2.447858, 0.000000, 0.000000,  0.000000,  0.000000, 0.000000,  0.000000 
 69173760.000000, -9.516255 , 0.090927, 2.490928, 1400419840.000000, -1.330000,  0.420000,  0.210000, 0.000000,  0.000000 
 69193984.000000, -9.583255 , 0.102891, 2.498107, 1400439808.000000, -1.400000,  0.490000,  0.070000, 0.000000,  0.000000 
 69214336.000000, -9.561719 , 0.129212, 2.505285, 1400460032.000000, -0.910000,  0.700000,  0.070000, 0.000000,  0.000000 
 69233664.000000, -9.580862 , 0.100499, 2.445465, 1400480384.000000, -0.350000,  0.560000,  0.070000, 0.000000,  0.000000 
 69253632.000000, -9.513863 , 0.107677, 2.459821, 1400499712.000000, -0.420000,  0.210000,  0.350000, 0.000000,  0.000000 
 69273600.000000, -9.540184 , 0.095713, 2.471786, 1400519680.000000, -1.120000,  0.210000,  0.490000, 0.000000,  0.000000 
 69293952.000000, -9.540184 , 0.083749, 2.481357, 1400539776.000000, -1.400000,  0.210000,  0.210000, 0.000000,  0.000000 
 69314176.000000, -9.521042 , 0.069392, 2.481357, 1400560000.000000, -0.490000,  0.350000,  0.210000, 0.000000,  0.000000 
 69333632.000000, -9.549755 , 0.129212, 2.435893, 1400580352.000000, 0.490000,  0.420000,  0.140000, 0.000000,  0.000000 
 69353600.000000, -9.547362 , 0.129212, 2.440679, 1400599680.000000, 0.630000,  0.630000,  0.210000, 0.000000,  0.000000 
 69373568.000000, -9.609575 , 0.138784, 2.423929, 1400619648.000000, -0.280000,  0.770000,  0.560000, 0.000000,  0.000000 
 69393920.000000, -9.540184 , 0.069392, 2.467000, 1400639616.000000, -1.540000,  0.490000,  0.560000, 0.000000,  0.000000 
 69414144.000000, -9.552148 , 0.083749, 2.483750, 1400659968.000000, -2.240000,  0.280000,  0.630000, 0.000000,  0.000000 
 69433600.000000, -9.535398 , 0.066999, 2.469393, 1400680192.000000, -1.890000,  0.350000,  0.630000, 0.000000,  0.000000 
 69453568.000000, -9.535398 , 0.112463, 2.462214, 1400699648.000000, -1.330000,  0.350000,  0.700000, 0.000000,  0.000000 
 69473536.000000, -9.485149 , 0.136391, 2.440679, 1400719616.000000, -0.910000,  0.350000,  0.350000, 0.000000,  0.000000 
 69493888.000000, -9.564112 , 0.114855, 2.495714, 1400739584.000000, -0.840000,  0.350000,  0.560000, 0.000000,  0.000000 
 69514112.000000, -9.509077 , 0.126820, 2.469393, 1400759936.000000, -1.120000,  0.420000,  0.630000, 0.000000,  0.000000 
 69533568.000000, -9.511470 , 0.093320, 2.443072, 1400780160.000000, -1.400000,  0.280000,  0.560000, 0.000000,  0.000000 
 69553536.000000, -9.540184 , 0.078963, 2.474179, 1400799616.000000, -1.750000,  0.210000,  0.420000, 0.000000,  0.000000 
 69573504.000000, -9.516255 , 0.071785, 2.469393, 1400819584.000000, -1.820000,  0.140000,  0.140000, 0.000000,  0.000000 
 69593856.000000, -9.528220 , 0.129212, 2.514857, 1400839552.000000, -1.120000,  0.210000,  0.140000, 0.000000,  0.000000 
 69614080.000000, -9.542577 , 0.129212, 2.474179, 1400859904.000000, -0.560000,  0.420000,  0.140000, 0.000000,  0.000000 
 69633408.000000, -9.482756 , 0.081356, 2.522035, 1400880128.000000, 0.280000,  0.490000,  -0.140000, 0.000000,  0.000000 
 69653504.000000, -9.499505 , 0.119641, 2.486143, 1400899584.000000, 0.280000,  0.350000,  -0.140000, 0.000000,  0.000000 
 69673472.000000, -9.535398 , 0.141177, 2.455036, 1400919552.000000, -0.700000,  0.350000,  -0.070000, 0.000000,  0.000000 
 69693696.000000, -9.523434 , 0.107677, 2.474179, 1400939520.000000, -0.770000,  0.490000,  -0.350000, 0.000000,  0.000000 
 69714048.000000, -9.501899 , 0.126820, 2.502892, 1400959872.000000, -0.630000,  0.210000,  -0.280000, 0.000000,  0.000000 
 69733376.000000, -9.535398 , 0.066999, 2.502892, 1400980096.000000, -0.630000,  0.070000,  0.140000, 0.000000,  0.000000 
 69753344.000000, -9.559326 , 0.076570, 2.459821, 1400999424.000000, -0.770000,  0.070000,  -0.070000, 0.000000,  0.000000 
 69773440.000000, -9.576077 , 0.129212, 2.526821, 1401019520.000000, -0.840000,  0.280000,  -0.280000, 0.000000,  0.000000 
 69793664.000000, -9.516255 , 0.105284, 2.505285, 1401039488.000000, -0.840000,  0.280000,  -0.490000, 0.000000,  0.000000 
 69814016.000000, -9.521042 , 0.098106, 2.481357, 1401059712.000000, -0.350000,  0.140000,  -0.210000, 0.000000,  0.000000 
 69833344.000000, -9.549755 , 0.136391, 2.486143, 1401080064.000000, 0.490000,  0.140000,  -0.210000, 0.000000,  0.000000 
 69853312.000000, -9.518648 , 0.095713, 2.486143, 1401099392.000000, 1.330000,  0.210000,  -0.630000, 0.000000,  0.000000 
 69873280.000000, -9.489935 , 0.141177, 2.440679, 1401119360.000000, 2.380000,  0.420000,  -0.770000, 0.000000,  0.000000 
 69893632.000000, -9.571291 , 0.088534, 2.438286, 1401159680.000000, 2.660000,  0.490000,  -0.560000, 0.000000,  0.000000 
 69913856.000000, -9.568897 , 0.114855, 2.462214, 0.000000, 0.000000,  0.000000,  0.000000, 0.000000,  0.000000 
 69933312.000000, -9.604790 , 0.117248, 2.433501, 1401180032.000000, 1.960000,  0.490000,  -0.420000, 0.000000,  0.000000 
 69953280.000000, -9.578469 , 0.095713, 2.407180, 1401199360.000000, 1.330000,  0.420000,  -0.140000, 0.000000,  0.000000 
 69973248.000000, -9.552148 , 0.119641, 2.421536, 1401219328.000000, 0.910000,  0.350000,  -0.210000, 0.000000,  0.000000 
 69993600.000000, -9.542577 , 0.167498, 2.416751, 1401239296.000000, 0.420000,  0.280000,  -0.140000, 0.000000,  0.000000 
 70013824.000000, -9.583255 , 0.131605, 2.428715, 1401259648.000000, -0.070000,  0.350000,  -0.280000, 0.000000,  0.000000 
 70033280.000000, -9.521042 , 0.157926, 2.419144, 1401279872.000000, -0.070000,  0.350000,  -0.140000, 0.000000,  0.000000 
 70053248.000000, -9.571291 , 0.124427, 2.423929, 1401299328.000000, 0.070000,  0.490000,  -0.140000, 0.000000,  0.000000 
 70073216.000000, -9.549755 , 0.160319, 2.414358, 1401319296.000000, -0.350000,  0.560000,  -0.140000, 0.000000,  0.000000 
 70093568.000000, -9.554541 , 0.081356, 2.404787, 1401339264.000000, -1.190000,  0.630000,  0.280000, 0.000000,  0.000000 
 70115712.000000, -9.573684 , 0.059821, 2.443072, 1401359616.000000, -1.680000,  0.630000,  0.420000, 0.000000,  0.000000 
 70133248.000000, -9.576077 , 0.102891, 2.455036, 1401399296.000000, -1.890000,  0.630000,  0.420000, 1398694528.000000,  1010.266968 
 70153216.000000, -9.511470 , 0.086142, 2.400001, 0.000000, 0.000000,  0.000000,  0.000000, 0.000000,  0.000000 
 70173184.000000, -9.568897 , 0.031107, 2.471786, 1401419264.000000, -1.680000,  0.560000,  0.420000, 0.000000,  0.000000 
 70193536.000000, -9.595219 , 0.107677, 2.455036, 1401439232.000000, -1.680000,  0.840000,  0.420000, 0.000000,  0.000000 
 70213760.000000, -9.516255 , 0.093320, 2.385644, 1401459584.000000, -1.750000,  0.840000,  0.350000, 0.000000,  0.000000 
 70233088.000000, -9.523434 , 0.143569, 2.457429, 1401479808.000000, -1.890000,  0.700000,  0.700000, 0.000000,  0.000000 
 70253056.000000, -9.568897 , 0.110070, 2.474179, 1401499264.000000, -2.660000,  0.560000,  0.770000, 0.000000,  0.000000 
 70273152.000000, -9.537791 , 0.107677, 2.411965, 1401519232.000000, -2.450000,  0.840000,  0.630000, 0.000000,  0.000000 
 70293376.000000, -9.530612 , 0.081356, 2.467000, 1401539200.000000, -2.310000,  0.910000,  0.560000, 0.000000,  0.000000 
 70313728.000000, -9.463614 , 0.052642, 2.443072, 1401559552.000000, -2.940000,  0.980000,  0.770000, 0.000000,  0.000000 
 70333056.000000, -9.571291 , 0.062213, 2.435893, 1401579776.000000, -3.710000,  0.700000,  0.840000, 0.000000,  0.000000 
 70353024.000000, -9.554541 , 0.090927, 2.440679, 1401599104.000000, -3.640000,  0.840000,  0.700000, 0.000000,  0.000000 
 70372992.000000, -9.568897 , 0.059821, 2.476572, 1401619072.000000, -3.010000,  0.840000,  0.490000, 0.000000,  0.000000 
 70393344.000000, -9.542577 , 0.095713, 2.467000, 1401639168.000000, -2.170000,  0.700000,  0.560000, 0.000000,  0.000000 
 70413696.000000, -9.525827 , 0.126820, 2.481357, 1401659392.000000, -1.540000,  0.630000,  0.840000, 0.000000,  0.000000 
 70433024.000000, -9.506684 , 0.107677, 2.493321, 1401679744.000000, -1.400000,  0.420000,  0.840000, 0.000000,  0.000000 
 70452992.000000, -9.525827 , 0.114855, 2.476572, 1401699072.000000, -1.680000,  0.560000,  0.560000, 0.000000,  0.000000 
 70472960.000000, -9.530612 , 0.090927, 2.493321, 1401719040.000000, -1.820000,  0.560000,  0.700000, 0.000000,  0.000000 
 70493312.000000, -9.506684 , 0.081356, 2.483750, 1401739008.000000, -1.820000,  0.490000,  0.700000, 0.000000,  0.000000 
 70513536.000000, -9.501899 , 0.031107, 2.526821, 1401759360.000000, -1.540000,  0.630000,  0.560000, 0.000000,  0.000000 
 70532992.000000, -9.521042 , 0.083749, 2.459821, 1401779584.000000, -0.910000,  0.490000,  0.420000, 0.000000,  0.000000 
 70552960.000000, -9.561719 , 0.078963, 2.469393, 1401799040.000000, -0.420000,  0.420000,  0.420000, 0.000000,  0.000000 
 70572928.000000, -9.552148 , 0.090927, 2.476572, 1401819008.000000, -0.560000,  0.420000,  0.350000, 0.000000,  0.000000 
 70593280.000000, -9.544970 , 0.093320, 2.495714, 1401838976.000000, -0.560000,  0.280000,  0.350000, 0.000000,  0.000000 
 70613504.000000, -9.528220 , 0.133998, 2.502892, 1401859328.000000, -0.070000,  0.210000,  0.210000, 0.000000,  0.000000 
 70632960.000000, -9.523434 , 0.117248, 2.459821, 1401879552.000000, 0.630000,  0.280000,  0.070000, 0.000000,  0.000000 
 70652928.000000, -9.530612 , 0.122034, 2.478964, 1401899008.000000, 0.910000,  0.280000,  0.070000, 0.000000,  0.000000 
 70672896.000000, -9.542577 , 0.076570, 2.440679, 1401918976.000000, 0.700000,  0.140000,  -0.210000, 0.000000,  0.000000 
 70693248.000000, -9.528220 , 0.086142, 2.431108, 1401938944.000000, 0.210000,  0.140000,  -0.350000, 0.000000,  0.000000 
 70713472.000000, -9.528220 , 0.062213, 2.414358, 1401959296.000000, 0.630000,  0.210000,  -0.210000, 0.000000,  0.000000 
 70732800.000000, -9.470792 , 0.110070, 2.421536, 1401979520.000000, 1.540000,  0.140000,  -0.350000, 0.000000,  0.000000 
 70752896.000000, -9.547362 , 0.179462, 2.428715, 1401998976.000000, 1.820000,  0.140000,  -0.280000, 0.000000,  0.000000 
 70772864.000000, -9.528220 , 0.117248, 2.414358, 1402018944.000000, 0.770000,  0.280000,  -0.280000, 0.000000,  0.000000 
 70793088.000000, -9.544970 , 0.081356, 2.467000, 1402038912.000000, 0.770000,  0.350000,  -0.910000, 0.000000,  0.000000 
 70813440.000000, -9.578469 , 0.076570, 2.462214, 1402059264.000000, 0.490000,  0.420000,  -0.420000, 0.000000,  0.000000 
 70832768.000000, -9.576077 , 0.141177, 2.400001, 1402079488.000000, 1.400000,  0.490000,  -0.700000, 0.000000,  0.000000 
 70852736.000000, -9.499505 , 0.131605, 2.519642, 1402098816.000000, 1.680000,  0.350000,  -0.630000, 0.000000,  0.000000 
 70872832.000000, -9.530612 , 0.145962, 2.428715, 1402118912.000000, 1.120000,  0.140000,  -0.630000, 0.000000,  0.000000 
 70893056.000000, -9.544970 , 0.143569, 2.371287, 1402138880.000000, 1.540000,  0.350000,  -0.490000, 0.000000,  0.000000 
 70913408.000000, -9.487542 , 0.124427, 2.414358, 1402159104.000000, 1.540000,  0.280000,  -0.560000, 0.000000,  0.000000 
 70932736.000000, -9.533006 , 0.081356, 2.395216, 1402179456.000000, 0.210000,  0.140000,  -0.280000, 0.000000,  0.000000 
 70952704.000000, -9.540184 , 0.062213, 2.407180, 1402198784.000000, -0.770000,  0.070000,  -0.140000, 0.000000,  0.000000 
 70972672.000000, -9.573684 , 0.102891, 2.411965, 1402218752.000000, -0.770000,  0.420000,  -0.210000, 0.000000,  0.000000 
 70993024.000000, -9.578469 , 0.129212, 2.435893, 1402238848.000000, -0.630000,  0.560000,  -0.350000, 0.000000,  0.000000 
 71013248.000000, -9.568897 , 0.090927, 2.397608, 1402259072.000000, -0.630000,  0.350000,  -0.350000, 0.000000,  0.000000 
 71032704.000000, -9.533006 , 0.119641, 2.426322, 1402279424.000000, -0.770000,  0.280000,  0.280000, 0.000000,  0.000000 
 71052672.000000, -9.525827 , 0.095713, 2.433501, 1402298752.000000, -0.770000,  0.350000,  0.280000, 0.000000,  0.000000 
 71072640.000000, -9.511470 , 0.083749, 2.443072, 1402318720.000000, -0.630000,  0.490000,  0.140000, 0.000000,  0.000000 
 71092992.000000, -9.535398 , 0.155533, 2.395216, 1402338688.000000, -0.490000,  0.350000,  0.280000, 0.000000,  0.000000 
 71115136.000000, -9.568897 , 0.138784, 2.395216, 1402359040.000000, -0.980000,  0.280000,  0.560000, 0.000000,  0.000000 
 71132672.000000, -9.580862 , 0.078963, 2.435893, 1402398720.000000, -2.800000,  0.280000,  0.350000, 1399693952.000000,  1010.265930 
 71152640.000000, -9.504292 , 0.045464, 2.478964, 0.000000, 0.000000,  0.000000,  0.000000, 0.000000,  0.000000 
 71172608.000000, -9.549755 , 0.055035, 2.428715, 1402418688.000000, -2.450000,  0.210000,  0.490000, 0.000000,  0.000000 
 71192960.000000, -9.525827 , 0.071785, 2.450250, 1402438656.000000, -1.470000,  0.280000,  0.350000, 0.000000,  0.000000 
 71213184.000000, -9.544970 , 0.102891, 2.416751, 1402459008.000000, -0.630000,  0.070000,  0.490000, 0.000000,  0.000000 
 71232640.000000, -9.559326 , 0.119641, 2.440679, 1402479232.000000, -0.280000,  0.140000,  0.490000, 0.000000,  0.000000 
 71252608.000000, -9.530612 , 0.133998, 2.452643, 1402498688.000000, -0.490000,  0.210000,  0.140000, 0.000000,  0.000000 
 71272576.000000, -9.580862 , 0.138784, 2.443072, 1402518656.000000, -0.980000,  0.210000,  -0.070000, 0.000000,  0.000000 
 71292800.000000, -9.518648 , 0.102891, 2.459821, 1402538624.000000, -0.910000,  0.210000,  -0.070000, 0.000000,  0.000000 
 71313152.000000, -9.540184 , 0.090927, 2.423929, 1402558976.000000, -0.420000,  0.280000,  0.070000, 0.000000,  0.000000 
 71332480.000000, -9.533006 , 0.093320, 2.440679, 1402579200.000000, -0.420000,  0.350000,  0.070000, 0.000000,  0.000000 
 71352576.000000, -9.590433 , 0.093320, 2.474179, 1402598656.000000, -0.770000,  0.210000,  0.070000, 0.000000,  0.000000 
 71372544.000000, -9.477970 , 0.081356, 2.423929, 1402618624.000000, -0.700000,  0.140000,  -0.140000, 0.000000,  0.000000 
 71392768.000000, -9.540184 , 0.122034, 2.409572, 1402638592.000000, -0.770000,  0.140000,  0.280000, 0.000000,  0.000000 
 71413120.000000, -9.540184 , 0.071785, 2.423929, 1402658816.000000, -1.050000,  0.280000,  0.070000, 0.000000,  0.000000 
 71432448.000000, -9.592826 , 0.112463, 2.467000, 1402679168.000000, -1.470000,  0.210000,  0.140000, 0.000000,  0.000000 
 71452672.000000, -9.580862 , 0.040678, 2.423929, 1402698496.000000, -1.120000,  0.210000,  -0.140000, 0.000000,  0.000000 
 71472512.000000, -9.528220 , 0.114855, 2.392823, 1402718720.000000, 0.070000,  0.280000,  0.210000, 0.000000,  0.000000 
 71492736.000000, -9.533006 , 0.136391, 2.498107, 1402738560.000000, 0.070000,  0.210000,  0.350000, 0.000000,  0.000000 
 71513088.000000, -9.556933 , 0.107677, 2.433501, 1402758784.000000, -0.350000,  0.140000,  0.280000, 0.000000,  0.000000 
 71532416.000000, -9.506684 , 0.126820, 2.428715, 1402779136.000000, -0.140000,  0.350000,  0.280000, 0.000000,  0.000000 
 71552384.000000, -9.564112 , 0.100499, 2.428715, 1402798464.000000, -0.980000,  0.490000,  0.280000, 0.000000,  0.000000 
 71572352.000000, -9.552148 , 0.035892, 2.490928, 1402818432.000000, -1.960000,  0.560000,  0.490000, 0.000000,  0.000000 
 71592704.000000, -9.590433 , 0.035892, 2.490928, 1402838528.000000, -2.730000,  0.560000,  0.420000, 0.000000,  0.000000 
 71612928.000000, -9.566505 , 0.071785, 2.498107, 1402858752.000000, -2.240000,  0.630000,  0.350000, 0.000000,  0.000000 
 71632384.000000, -9.547362 , 0.093320, 2.467000, 1402879104.000000, -1.190000,  0.630000,  0.350000, 0.000000,  0.000000 
 71652352.000000, -9.542577 , 0.136391, 2.440679, 1402898432.000000, -0.070000,  0.490000,  0.630000, 0.000000,  0.000000 
 71672320.000000, -9.544970 , 0.110070, 2.445465, 1402918528.000000, 0.350000,  0.490000,  0.700000, 0.000000,  0.000000 
 71692672.000000, -9.521042 , 0.102891, 2.443072, 1402938368.000000, 0.910000,  0.490000,  0.560000, 0.000000,  0.000000 
 71712896.000000, -9.518648 , 0.172283, 2.435893, 1402958720.000000, 1.190000,  0.770000,  0.700000, 0.000000,  0.000000 
 71732352.000000, -9.559326 , 0.083749, 2.464607, 1402978944.000000, 0.910000,  0.840000,  0.560000, 0.000000,  0.000000 
 71752320.000000, -9.566505 , 0.074178, 2.464607, 1402998400.000000, -0.140000,  0.980000,  0.560000, 0.000000,  0.000000 
 71772288.000000, -9.566505 , 0.055035, 2.505285, 1403018368.000000, -0.910000,  0.980000,  0.420000, 0.000000,  0.000000 
 71792640.000000, -9.595219 , 0.050249, 2.495714, 1403038336.000000, -0.280000,  0.840000,  0.490000, 0.000000,  0.000000 
 71812864.000000, -9.561719 , 0.086142, 2.459821, 1403058688.000000, 1.050000,  0.700000,  0.420000, 0.000000,  0.000000 
 71832320.000000, -9.504292 , 0.107677, 2.428715, 1403078912.000000, 1.750000,  0.700000,  0.210000, 0.000000,  0.000000 
 71852288.000000, -9.559326 , 0.157926, 2.435893, 1403098368.000000, 1.610000,  0.560000,  -0.070000, 0.000000,  0.000000 
 71872256.000000, -9.525827 , 0.145962, 2.423929, 1403118336.000000, 1.400000,  0.630000,  -0.280000, 0.000000,  0.000000 
 71892480.000000, -9.561719 , 0.126820, 2.462214, 1403138304.000000, 1.050000,  0.630000,  -0.350000, 0.000000,  0.000000 
 71912832.000000, -9.501899 , 0.157926, 2.469393, 1403158656.000000, 0.630000,  0.490000,  -0.280000, 0.000000,  0.000000 
 71932160.000000, -9.552148 , 0.122034, 2.457429, 1403178880.000000, 0.280000,  0.350000,  -0.140000, 0.000000,  0.000000 
 71952128.000000, -9.561719 , 0.069392, 2.459821, 1403198208.000000, 0.140000,  0.210000,  -0.140000, 0.000000,  0.000000 
 71972224.000000, -9.516255 , 0.131605, 2.452643, 1403218304.000000, 0.140000,  0.070000,  -0.140000, 0.000000,  0.000000 
 71992448.000000, -9.521042 , 0.081356, 2.459821, 1403238272.000000, -0.280000,  0.070000,  -0.210000, 0.000000,  0.000000 
 72012800.000000, -9.509077 , 0.064606, 2.457429, 1403258496.000000, -0.420000,  -0.210000,  -0.280000, 0.000000,  0.000000 
 72032128.000000, -9.523434 , 0.088534, 2.423929, 1403278848.000000, -0.140000,  -0.210000,  -0.280000, 0.000000,  0.000000 
 72052096.000000, -9.521042 , 0.136391, 2.495714, 1403298176.000000, 0.140000,  -0.140000,  -0.280000, 0.000000,  0.000000 
 72072064.000000, -9.554541 , 0.126820, 2.522035, 1403318144.000000, 0.140000,  0.070000,  -0.070000, 0.000000,  0.000000 
 72092416.000000, -9.573684 , 0.129212, 2.471786, 1403338240.000000, -0.280000,  0.070000,  -0.140000, 0.000000,  0.000000 
 72114688.000000, -9.576077 , 0.105284, 2.488536, 1403358464.000000, -0.210000,  -0.140000,  -0.350000, 0.000000,  0.000000 
 72132096.000000, -9.571291 , 0.133998, 2.474179, 1403380736.000000, -0.280000,  -0.140000,  -0.350000, 0.000000,  0.000000 
 72152064.000000, -9.583255 , 0.114855, 2.426322, 1403398144.000000, 0.210000,  -0.070000,  -0.560000, 1400693376.000000,  1010.267944 
 72172032.000000, -9.537791 , 0.157926, 2.447858, 1403418112.000000, 0.700000,  -0.070000,  -0.560000, 0.000000,  0.000000 
 72192384.000000, -9.542577 , 0.114855, 2.462214, 1403438080.000000, 0.280000,  -0.140000,  -0.280000, 0.000000,  0.000000 
 72212608.000000, -9.521042 , 0.083749, 2.440679, 1403458432.000000, -0.280000,  -0.350000,  -0.350000, 0.000000,  0.000000 
 72232064.000000, -9.568897 , 0.052642, 2.517249, 1403478656.000000, -0.770000,  -0.210000,  -0.630000, 0.000000,  0.000000 
 72252032.000000, -9.564112 , 0.088534, 2.476572, 1403498112.000000, -0.350000,  -0.210000,  -0.560000, 0.000000,  0.000000 
 72272000.000000, -9.571291 , 0.143569, 2.416751, 1403518080.000000, 0.280000,  -0.070000,  -0.490000, 0.000000,  0.000000 
 72292352.000000, -9.525827 , 0.100499, 2.467000, 1403538048.000000, 0.490000,  -0.140000,  -0.070000, 0.000000,  0.000000 
 72312576.000000, -9.506684 , 0.119641, 2.481357, 1403558400.000000, -0.210000,  -0.280000,  -0.070000, 0.000000,  0.000000 
 72332032.000000, -9.516255 , 0.136391, 2.467000, 1403578624.000000, -0.700000,  -0.210000,  -0.140000, 0.000000,  0.000000 
 72352000.000000, -9.547362 , 0.117248, 2.431108, 1403598080.000000, -0.560000,  -0.070000,  -0.280000, 0.000000,  0.000000 
 72371968.000000, -9.535398 , 0.086142, 2.488536, 1403618048.000000, -0.280000,  -0.070000,  -0.350000, 0.000000,  0.000000 
 72392320.000000, -9.525827 , 0.088534, 2.488536, 1403638016.000000, -0.210000,  0.280000,  -0.280000, 0.000000,  0.000000 
 72412544.000000, -9.525827 , 0.105284, 2.462214, 1403658368.000000, -0.280000,  0.420000,  -0.280000, 0.000000,  0.000000 
 72431872.000000, -9.533006 , 0.086142, 2.452643, 1403678592.000000, -0.140000,  0.070000,  -0.140000, 0.000000,  0.000000 
 72451968.000000, -9.564112 , 0.059821, 2.543570, 1403698048.000000, -0.210000,  0.070000,  -0.210000, 0.000000,  0.000000 
 72471936.000000, -9.513863 , 0.083749, 2.433501, 1403718016.000000, -0.350000,  0.070000,  -0.350000, 0.000000,  0.000000 
 72492160.000000, -9.537791 , 0.095713, 2.483750, 1403737984.000000, -0.070000,  0.070000,  -0.350000, 0.000000,  0.000000 
 72512512.000000, -9.549755 , 0.131605, 2.455036, 1403758336.000000, 0.420000,  0.210000,  -0.560000, 0.000000,  0.000000 
 72531840.000000, -9.544970 , 0.076570, 2.440679, 1403778560.000000, 0.420000,  0.210000,  -0.420000, 0.000000,  0.000000 
 72551808.000000, -9.506684 , 0.095713, 2.455036, 1403797888.000000, 0.210000,  0.280000,  -0.280000, 0.000000,  0.000000 
 72571904.000000, -9.552148 , 0.078963, 2.414358, 1403817984.000000, 0.070000,  0.350000,  -0.070000, 0.000000,  0.000000 
 72592128.000000, -9.544970 , 0.062213, 2.409572, 1403837952.000000, 0.210000,  0.490000,  -0.070000, 0.000000,  0.000000 
 72612480.000000, -9.542577 , 0.160319, 2.376073, 1403858176.000000, 0.350000,  0.700000,  -0.070000, 0.000000,  0.000000 
 72631808.000000, -9.523434 , 0.076570, 2.378466, 1403878528.000000, 0.350000,  0.980000,  -0.140000, 0.000000,  0.000000 
 72651776.000000, -9.571291 , 0.126820, 2.404787, 1403897856.000000, -0.420000,  0.910000,  0.140000, 0.000000,  0.000000 
 72671744.000000, -9.513863 , 0.117248, 2.400001, 1403917952.000000, -0.560000,  1.050000,  0.210000, 0.000000,  0.000000 
 72692096.000000, -9.554541 , 0.133998, 2.373680, 1403937920.000000, -0.630000,  1.120000,  0.210000, 0.000000,  0.000000 
 72712320.000000, -9.561719 , 0.102891, 2.421536, 1403958144.000000, -0.980000,  1.400000,  0.350000, 0.000000,  0.000000 
 72731776.000000, -9.537791 , 0.045464, 2.378466, 1403978496.000000, -1.540000,  1.470000,  0.140000, 0.000000,  0.000000 
 72751744.000000, -9.554541 , 0.078963, 2.426322, 1403997824.000000, -1.820000,  1.540000,  0.490000, 0.000000,  0.000000 
 72771712.000000, -9.544970 , 0.110070, 2.373680, 1404017792.000000, -2.170000,  1.540000,  0.560000, 0.000000,  0.000000 
 72792064.000000, -9.566505 , 0.114855, 2.383251, 1404037760.000000, -1.960000,  1.610000,  0.560000, 0.000000,  0.000000 
 72812288.000000, -9.482756 , 0.107677, 2.373680, 1404058112.000000, -1.820000,  1.960000,  0.490000, 0.000000,  0.000000 
 72831744.000000, -9.487542 , 0.100499, 2.397608, 1404078336.000000, -2.730000,  2.030000,  0.910000, 0.000000,  0.000000 
 72851712.000000, -9.492328 , 0.050249, 2.443072, 1404097792.000000, -4.060000,  1.820000,  0.840000, 0.000000,  0.000000 
 72871680.000000, -9.561719 , 0.021535, 2.493321, 1404117760.000000, -4.760000,  2.100000,  0.700000, 0.000000,  0.000000 
 72892032.000000, -9.549755 , 0.052642, 2.462214, 1404137728.000000, -4.340000,  2.170000,  0.560000, 0.000000,  0.000000 
 72912256.000000, -9.580862 , 0.076570, 2.447858, 1404158080.000000, -3.290000,  1.890000,  0.630000, 0.000000,  0.000000 
 72931712.000000, -9.523434 , 0.105284, 2.450250, 1404178304.000000, -2.730000,  1.680000,  0.700000, 0.000000,  0.000000 
 72951680.000000, -9.571291 , 0.040678, 2.455036, 1404197760.000000, -3.080000,  1.470000,  0.700000, 0.000000,  0.000000 
 72971648.000000, -9.535398 , 0.105284, 2.488536, 1404217728.000000, -3.360000,  1.190000,  0.420000, 0.000000,  0.000000 
 72991872.000000, -9.475577 , 0.117248, 2.459821, 1404237696.000000, -3.220000,  1.120000,  0.350000, 0.000000,  0.000000 
 73012224.000000, -9.523434 , 0.117248, 2.455036, 1404258048.000000, -2.870000,  1.050000,  0.420000, 0.000000,  0.000000 
 73031552.000000, -9.497113 , 0.081356, 2.490928, 1404278272.000000, -2.590000,  0.910000,  0.490000, 0.000000,  0.000000 
 73051520.000000, -9.540184 , 0.047856, 2.464607, 1404297728.000000, -2.590000,  1.050000,  0.420000, 0.000000,  0.000000 
 73071616.000000, -9.571291 , 0.045464, 2.478964, 1404317696.000000, -2.380000,  0.840000,  0.490000, 0.000000,  0.000000 
 73091840.000000, -9.549755 , 0.035892, 2.462214, 1404337664.000000, -2.100000,  0.560000,  0.630000, 0.000000,  0.000000 
 73114112.000000, -9.494720 , 0.040678, 2.457429, 1404357888.000000, -1.750000,  0.420000,  0.490000, 0.000000,  0.000000 
 73131520.000000, -9.509077 , 0.045464, 2.474179, 1404380160.000000, -1.190000,  0.210000,  0.420000, 0.000000,  0.000000 
 73151488.000000, -9.571291 , 0.098106, 2.481357, 1404397568.000000, -0.420000,  0.070000,  -0.070000, 1401692928.000000,  1010.267456 
 73171456.000000, -9.559326 , 0.119641, 2.478964, 1404417536.000000, 0.280000,  -0.210000,  -0.140000, 0.000000,  0.000000 
 73191936.000000, -9.533006 , 0.169890, 2.459821, 1404437632.000000, 0.840000,  -0.350000,  -0.140000, 0.000000,  0.000000 
 73212032.000000, -9.566505 , 0.133998, 2.409572, 1404457984.000000, 0.700000,  -0.350000,  0.140000, 0.000000,  0.000000 
 73231488.000000, -9.566505 , 0.078963, 2.383251, 1404478208.000000, -0.210000,  -0.490000,  0.140000, 0.000000,  0.000000 
 73251456.000000, -9.568897 , 0.059821, 2.404787, 1404497536.000000, -0.910000,  -0.700000,  0.210000, 0.000000,  0.000000 
 73271424.000000, -9.554541 , 0.081356, 2.392823, 1404517504.000000, -0.770000,  -0.700000,  0.070000, 0.000000,  0.000000 
 73291776.000000, -9.528220 , 0.112463, 2.371287, 1404537600.000000, -0.280000,  -0.420000,  0.070000, 0.000000,  0.000000 
 73312000.000000, -9.561719 , 0.076570, 2.376073, 1404557824.000000, -0.560000,  -0.280000,  0.350000, 0.000000,  0.000000 
 73331456.000000, -9.571291 , 0.064606, 2.431108, 1404578048.000000, -1.400000,  -0.210000,  0.420000, 0.000000,  0.000000 
 73351424.000000, -9.566505 , 0.069392, 2.431108, 1404597504.000000, -1.960000,  -0.070000,  0.420000, 0.000000,  0.000000 
 73371392.000000, -9.564112 , 0.043071, 2.409572, 1404617472.000000, -1.400000,  -0.140000,  0.140000, 0.000000,  0.000000 
 73391744.000000, -9.533006 , 0.093320, 2.438286, 1404637440.000000, -0.420000,  -0.140000,  0.210000, 0.000000,  0.000000 
 73411968.000000, -9.540184 , 0.083749, 2.431108, 1404657792.000000, 0.070000,  -0.140000,  0.070000, 0.000000,  0.000000 
 73431424.000000, -9.564112 , 0.064606, 2.388037, 1404678016.000000, 0.980000,  0.210000,  -0.350000, 0.000000,  0.000000 
 73451392.000000, -9.549755 , 0.095713, 2.385644, 1404697472.000000, 1.400000,  0.280000,  -0.350000, 0.000000,  0.000000 
 73471360.000000, -9.592826 , 0.083749, 2.364109, 1404717440.000000, 0.980000,  0.140000,  -0.070000, 0.000000,  0.000000 
 73491712.000000, -9.561719 , 0.066999, 2.373680, 1404737408.000000, 0.070000,  0.140000,  -0.070000, 0.000000,  0.000000 
 73511936.000000, -9.556933 , 0.007178, 2.400001, 1404757760.000000, -1.050000,  0.280000,  0.070000, 0.000000,  0.000000 
 73531264.000000, -9.592826 , 0.011964, 2.431108, 1404777984.000000, -1.260000,  0.350000,  -0.210000, 0.000000,  0.000000 
 73551360.000000, -9.592826 , 0.081356, 2.390430, 1404797440.000000, -0.490000,  0.350000,  -0.070000, 0.000000,  0.000000 
 73571328.000000, -9.521042 , 0.148355, 2.354537, 1404817408.000000, 0.770000,  0.490000,  -0.070000, 0.000000,  0.000000 
 73591552.000000, -9.583255 , 0.122034, 2.404787, 1404837376.000000, 0.700000,  0.630000,  0.070000, 0.000000,  0.000000 
 73611904.000000, -9.578469 , 0.088534, 2.407180, 1404857728.000000, 0.700000,  0.700000,  -0.070000, 0.000000,  0.000000 
 73631232.000000, -9.516255 , 0.136391, 2.371287, 1404877952.000000, -0.280000,  0.630000,  -0.070000, 0.000000,  0.000000 
 73651328.000000, -9.561719 , 0.112463, 2.366502, 1404897280.000000, -0.070000,  0.770000,  0.070000, 0.000000,  0.000000 
 73671296.000000, -9.597611 , 0.057428, 2.423929, 1404917376.000000, -0.210000,  0.910000,  0.070000, 0.000000,  0.000000 
 73691520.000000, -9.583255 , 0.059821, 2.392823, 1404937344.000000, -0.700000,  0.980000,  0.350000, 0.000000,  0.000000 
 73711872.000000, -9.616754 , 0.019143, 2.404787, 1404957568.000000, -0.840000,  0.910000,  0.420000, 0.000000,  0.000000 
 73731200.000000, -9.573684 , 0.045464, 2.423929, 1404977920.000000, -0.980000,  0.910000,  0.490000, 0.000000,  0.000000 
 73751168.000000, -9.561719 , 0.086142, 2.409572, 1404997248.000000, -1.050000,  0.770000,  0.420000, 0.000000,  0.000000 
 73771136.000000, -9.549755 , 0.071785, 2.419144, 1405017216.000000, -0.910000,  0.630000,  0.280000, 0.000000,  0.000000 
 73791488.000000, -9.549755 , 0.160319, 2.443072, 1405037312.000000, -0.840000,  0.630000,  0.350000, 0.000000,  0.000000 
 73811712.000000, -9.585647 , 0.129212, 2.368894, 1405057536.000000, -0.770000,  0.630000,  0.630000, 0.000000,  0.000000 
 73831168.000000, -9.588040 , 0.105284, 2.411965, 1405077888.000000, -1.050000,  0.490000,  0.490000, 0.000000,  0.000000 
 73851136.000000, -9.559326 , 0.066999, 2.380858, 1405097216.000000, -1.610000,  0.420000,  0.630000, 0.000000,  0.000000 
 73871104.000000, -9.559326 , 0.090927, 2.440679, 1405117184.000000, -2.240000,  0.420000,  0.700000, 0.000000,  0.000000 
 73891456.000000, -9.518648 , 0.002393, 2.428715, 1405137152.000000, -2.170000,  0.420000,  0.770000, 0.000000,  0.000000 
 73911680.000000, -9.564112 , 0.098106, 2.421536, 1405157504.000000, -1.540000,  0.280000,  0.560000, 0.000000,  0.000000 
 73931136.000000, -9.516255 , 0.069392, 2.445465, 1405177728.000000, -0.840000,  0.280000,  0.420000, 0.000000,  0.000000 
 73951104.000000, -9.535398 , 0.105284, 2.419144, 1405197184.000000, -0.630000,  0.280000,  0.280000, 0.000000,  0.000000 
 73971072.000000, -9.533006 , 0.045464, 2.478964, 1405217152.000000, -0.630000,  0.420000,  0.210000, 0.000000,  0.000000 
 73991424.000000, -9.549755 , 0.045464, 2.476572, 1405237120.000000, -0.910000,  0.420000,  0.140000, 0.000000,  0.000000 
 74011648.000000, -9.544970 , 0.086142, 2.423929, 1405257472.000000, -0.700000,  0.280000,  -0.070000, 0.000000,  0.000000 
 74031104.000000, -9.504292 , 0.107677, 2.431108, 1405277696.000000, -0.070000,  0.140000,  -0.070000, 0.000000,  0.000000 
 74051072.000000, -9.542577 , 0.093320, 2.409572, 1405297152.000000, 0.420000,  -0.070000,  0.070000, 0.000000,  0.000000 
 74071040.000000, -9.511470 , 0.131605, 2.395216, 1405317120.000000, 1.050000,  -0.070000,  -0.280000, 0.000000,  0.000000 
 74091392.000000, -9.518648 , 0.081356, 2.414358, 1405337088.000000, 0.840000,  -0.070000,  -0.350000, 0.000000,  0.000000 
 74113536.000000, -9.585647 , 0.066999, 2.376073, 1405357440.000000, -0.070000,  -0.280000,  0.070000, 0.000000,  0.000000 
 74130944.000000, -9.561719 , 0.119641, 2.380858, 1405379584.000000, -0.560000,  -0.210000,  0.070000, 0.000000,  0.000000 
 74151040.000000, -9.588040 , 0.086142, 2.390430, 1405397120.000000, -0.770000,  0.070000,  0.140000, 1402692352.000000,  1010.266541 
 74171008.000000, -9.602397 , 0.102891, 2.443072, 1405417088.000000, -1.190000,  0.140000,  0.140000, 0.000000,  0.000000 
 74191232.000000, -9.540184 , 0.093320, 2.404787, 1405437056.000000, -1.260000,  0.140000,  0.140000, 0.000000,  0.000000 
 74211584.000000, -9.549755 , 0.117248, 2.409572, 1405457408.000000, -0.560000,  -0.070000,  0.210000, 0.000000,  0.000000 
 74230912.000000, -9.521042 , 0.160319, 2.404787, 1405477632.000000, 0.070000,  -0.070000,  0.280000, 0.000000,  0.000000 
 74250880.000000, -9.542577 , 0.143569, 2.421536, 1405496960.000000, 0.210000,  0.140000,  0.280000, 0.000000,  0.000000 
 74270848.000000, -9.576077 , 0.050249, 2.459821, 1405517056.000000, -0.210000,  0.210000,  0.140000, 0.000000,  0.000000 
 74291200.000000, -9.564112 , 0.069392, 2.435893, 1405537024.000000, -0.490000,  0.140000,  0.210000, 0.000000,  0.000000 
 74311424.000000, -9.537791 , 0.100499, 2.443072, 1405557248.000000, -0.420000,  0.070000,  0.280000, 0.000000,  0.000000 
 74330880.000000, -9.559326 , 0.074178, 2.400001, 1405577600.000000, 0.070000,  0.070000,  0.210000, 0.000000,  0.000000 
 74350848.000000, -9.549755 , 0.057428, 2.402394, 1405596928.000000, 0.770000,  0.070000,  0.420000, 0.000000,  0.000000 
 74370816.000000, -9.561719 , 0.133998, 2.433501, 1405616896.000000, 0.840000,  0.140000,  0.140000, 0.000000,  0.000000 
 74391168.000000, -9.554541 , 0.131605, 2.433501, 1405636864.000000, 0.630000,  0.210000,  0.140000, 0.000000,  0.000000 
 74411392.000000, -9.547362 , 0.131605, 2.435893, 1405657216.000000, 0.840000,  0.140000,  0.140000, 0.000000,  0.000000 
 74430848.000000, -9.535398 , 0.179462, 2.400001, 1405677440.000000, 1.400000,  0.140000,  0.280000, 0.000000,  0.000000 
 74450816.000000, -9.590433 , 0.155533, 2.431108, 1405696896.000000, 1.400000,  0.140000,  0.280000, 0.000000,  0.000000 
 74470784.000000, -9.602397 , 0.138784, 2.371287, 1405716864.000000, 1.190000,  0.070000,  0.280000, 0.000000,  0.000000 
 74491136.000000, -9.568897 , 0.126820, 2.392823, 1405736832.000000, 0.280000,  0.210000,  0.560000, 0.000000,  0.000000 
 74511360.000000, -9.537791 , 0.119641, 2.373680, 1405757184.000000, -0.350000,  0.280000,  0.770000, 0.000000,  0.000000 
 74530816.000000, -9.506684 , 0.098106, 2.409572, 1405777408.000000, -0.630000,  0.210000,  0.840000, 0.000000,  0.000000 
 74550784.000000, -9.535398 , 0.145962, 2.409572, 1405796864.000000, -0.700000,  0.280000,  0.980000, 0.000000,  0.000000 
 74570752.000000, -9.544970 , 0.119641, 2.423929, 1405816832.000000, -1.120000,  0.420000,  0.980000, 0.000000,  0.000000 
 74591104.000000, -9.521042 , 0.126820, 2.421536, 1405836800.000000, -1.540000,  0.490000,  0.910000, 0.000000,  0.000000 
 74611328.000000, -9.559326 , 0.071785, 2.400001, 1405857152.000000, -1.750000,  0.490000,  0.490000, 0.000000,  0.000000 
 74630656.000000, -9.535398 , 0.131605, 2.462214, 1405896832.000000, -1.190000,  0.560000,  0.560000, 0.000000,  0.000000 
 74650752.000000, -9.573684 , 0.136391, 2.464607, 0.000000, 0.000000,  0.000000,  0.000000, 0.000000,  0.000000 
 74670720.000000, -9.540184 , 0.100499, 2.366502, 1405916800.000000, -0.630000,  0.700000,  0.350000, 0.000000,  0.000000 
 74690944.000000, -9.554541 , 0.114855, 2.433501, 1405936768.000000, -0.070000,  0.490000,  0.350000, 0.000000,  0.000000 
 74711296.000000, -9.552148 , 0.153141, 2.416751, 1405957120.000000, -0.140000,  0.420000,  0.630000, 0.000000,  0.000000 
 74730624.000000, -9.592826 , 0.136391, 2.409572, 1405977344.000000, -0.070000,  0.630000,  0.140000, 0.000000,  0.000000 
 74750592.000000, -9.518648 , 0.157926, 2.433501, 1405996672.000000, -0.350000,  0.560000,  0.140000, 0.000000,  0.000000 
 74770688.000000, -9.513863 , 0.141177, 2.435893, 1406016768.000000, -1.470000,  0.630000,  0.350000, 0.000000,  0.000000 
 74790912.000000, -9.547362 , 0.133998, 2.416751, 1406036736.000000, -2.100000,  0.350000,  0.350000, 0.000000,  0.000000 
 74811264.000000, -9.616754 , 0.136391, 2.471786, 1406056960.000000, -2.240000,  0.350000,  0.210000, 0.000000,  0.000000 
 74830592.000000, -9.566505 , 0.167498, 2.498107, 1406077312.000000, -2.170000,  0.630000,  -0.070000, 0.000000,  0.000000 
 74850560.000000, -9.554541 , 0.133998, 2.443072, 1406096640.000000, -1.540000,  0.280000,  -0.140000, 0.000000,  0.000000 
 74870528.000000, -9.523434 , 0.155533, 2.443072, 1406116608.000000, -0.560000,  0.280000,  -0.140000, 0.000000,  0.000000 
 74890880.000000, -9.556933 , 0.112463, 2.464607, 1406136704.000000, -0.350000,  0.070000,  0.350000, 0.000000,  0.000000 
 74911104.000000, -9.540184 , 0.191426, 2.433501, 1406156928.000000, -0.630000,  0.070000,  0.490000, 0.000000,  0.000000 
 74930560.000000, -9.528220 , 0.078963, 2.486143, 1406177280.000000, -1.050000,  0.140000,  0.210000, 0.000000,  0.000000 
 74950528.000000, -9.533006 , 0.093320, 2.426322, 1406196608.000000, -1.400000,  0.140000,  -0.070000, 0.000000,  0.000000 
 74970496.000000, -9.559326 , 0.122034, 2.433501, 1406216576.000000, -1.120000,  0.140000,  0.070000, 0.000000,  0.000000 
 74990848.000000, -9.556933 , 0.143569, 2.438286, 1406236544.000000, -0.630000,  0.070000,  0.350000, 0.000000,  0.000000 
 75011072.000000, -9.564112 , 0.110070, 2.445465, 1406256896.000000, -0.420000,  -0.070000,  0.350000, 0.000000,  0.000000 
 75030528.000000, -9.559326 , 0.100499, 2.476572, 1406277120.000000, -0.420000,  -0.070000,  0.070000, 0.000000,  0.000000 
 75050496.000000, -9.525827 , 0.150748, 2.409572, 1406296576.000000, -0.490000,  0.140000,  0.070000, 0.000000,  0.000000 
 75070464.000000, -9.513863 , 0.138784, 2.467000, 1406316544.000000, -0.140000,  0.140000,  0.070000, 0.000000,  0.000000 
 75090816.000000, -9.504292 , 0.150748, 2.392823, 1406336512.000000, 0.350000,  0.140000,  -0.210000, 0.000000,  0.000000 
 75112960.000000, -9.544970 , 0.129212, 2.431108, 1406356864.000000, 0.840000,  0.210000,  -0.420000, 0.000000,  0.000000 
 75130496.000000, -9.556933 , 0.131605, 2.376073, 1406379136.000000, 1.260000,  0.350000,  -0.350000, 0.000000,  0.000000 
 75150464.000000, -9.564112 , 0.126820, 2.426322, 1406396544.000000, 1.120000,  0.560000,  -0.280000, 1403691776.000000,  1010.267822 
 75170432.000000, -9.540184 , 0.126820, 2.407180, 1406416512.000000, 0.630000,  0.700000,  -0.350000, 0.000000,  0.000000 
 75190656.000000, -9.571291 , 0.098106, 2.404787, 1406436480.000000, 0.350000,  0.980000,  -0.210000, 0.000000,  0.000000 
 75211008.000000, -9.549755 , 0.189033, 2.395216, 1406456832.000000, -0.070000,  0.980000,  -0.140000, 0.000000,  0.000000 
 75230336.000000, -9.540184 , 0.148355, 2.443072, 1406477056.000000, -0.840000,  0.910000,  -0.140000, 0.000000,  0.000000 
 75250432.000000, -9.489935 , 0.150748, 2.476572, 1406496512.000000, -1.400000,  0.770000,  0.210000, 0.000000,  0.000000 
 75270400.000000, -9.509077 , 0.112463, 2.440679, 1406516480.000000, -1.470000,  0.630000,  0.210000, 0.000000,  0.000000 
 75290624.000000, -9.583255 , 0.133998, 2.411965, 1406536448.000000, -0.980000,  0.700000,  -0.070000, 0.000000,  0.000000 
 75310976.000000, -9.595219 , 0.102891, 2.483750, 1406556672.000000, -0.630000,  0.770000,  0.140000, 0.000000,  0.000000 
 75330304.000000, -9.533006 , 0.122034, 2.428715, 1406577024.000000, -0.560000,  0.560000,  0.210000, 0.000000,  0.000000 
 75350272.000000, -9.525827 , 0.129212, 2.450250, 1406596352.000000, -0.490000,  0.280000,  0.280000, 0.000000,  0.000000 
 75370368.000000, -9.463614 , 0.143569, 2.450250, 1406616448.000000, -0.770000,  0.210000,  0.490000, 0.000000,  0.000000 
 75390592.000000, -9.542577 , 0.131605, 2.423929, 1406636416.000000, -0.280000,  0.140000,  0.210000, 0.000000,  0.000000 
 75410944.000000, -9.509077 , 0.124427, 2.514857, 1406656640.000000, -0.420000,  0.070000,  0.210000, 0.000000,  0.000000 
 75430272.000000, -9.533006 , 0.129212, 2.445465, 1406676992.000000, -1.120000,  0.070000,  0.350000, 0.000000,  0.000000 
 75450496.000000, -9.518648 , 0.071785, 2.416751, 1406696320.000000, -1.190000,  -0.210000,  0.210000, 0.000000,  0.000000 
 75470208.000000, -9.592826 , 0.126820, 2.471786, 1406716544.000000, -0.770000,  -0.070000,  -0.210000, 0.000000,  0.000000 
 75490560.000000, -9.573684 , 0.074178, 2.445465, 1406736384.000000, -0.350000,  0.070000,  -0.420000, 0.000000,  0.000000 
 75510784.000000, -9.559326 , 0.050249, 2.435893, 1406756608.000000, -0.350000,  -0.140000,  -0.140000, 0.000000,  0.000000 
 75530240.000000, -9.566505 , 0.119641, 2.416751, 1406776832.000000, 0.630000,  -0.350000,  0.210000, 0.000000,  0.000000 
 75550208.000000, -9.554541 , 0.162712, 2.416751, 1406796288.000000, 1.190000,  -0.420000,  0.490000, 0.000000,  0.000000 
 75570176.000000, -9.535398 , 0.117248, 2.356930, 1406816256.000000, 1.540000,  -0.280000,  0.280000, 0.000000,  0.000000 
 75590528.000000, -9.501899 , 0.129212, 2.356930, 1406836224.000000, 1.400000,  -0.070000,  0.280000, 0.000000,  0.000000 
 75610752.000000, -9.540184 , 0.174676, 2.378466, 1406856576.000000, 0.980000,  -0.070000,  0.420000, 0.000000,  0.000000 
 75630208.000000, -9.590433 , 0.174676, 2.390430, 1406876800.000000, 0.280000,  0.210000,  0.350000, 0.000000,  0.000000 
 75650176.000000, -9.585647 , 0.126820, 2.421536, 1406896256.000000, -0.630000,  0.350000,  0.280000, 0.000000,  0.000000 
 75670144.000000, -9.556933 , 0.100499, 2.376073, 1406916224.000000, -1.400000,  0.280000,  0.210000, 0.000000,  0.000000 
 75690496.000000, -9.592826 , 0.150748, 2.385644, 1406936192.000000, -1.750000,  0.420000,  0.350000, 0.000000,  0.000000 
 75710720.000000, -9.525827 , 0.088534, 2.435893, 1406956544.000000, -1.750000,  0.420000,  0.490000, 0.000000,  0.000000 
 75730048.000000, -9.542577 , 0.167498, 2.404787, 1406976768.000000, -1.540000,  0.350000,  0.350000, 0.000000,  0.000000 
 75750144.000000, -9.533006 , 0.150748, 2.421536, 1406996224.000000, -1.260000,  0.420000,  0.280000, 0.000000,  0.000000 
 75770112.000000, -9.556933 , 0.160319, 2.400001, 1407016192.000000, -1.260000,  0.560000,  0.070000, 0.000000,  0.000000 
 75790336.000000, -9.542577 , 0.141177, 2.452643, 1407036160.000000, -1.470000,  0.630000,  0.210000, 0.000000,  0.000000 
 75810688.000000, -9.547362 , 0.059821, 2.416751, 1407056512.000000, -1.890000,  0.700000,  0.140000, 0.000000,  0.000000 
 75830016.000000, -9.523434 , 0.093320, 2.445465, 1407076736.000000, -2.240000,  0.700000,  0.140000, 0.000000,  0.000000 
 75849984.000000, -9.556933 , 0.107677, 2.435893, 1407096064.000000, -2.030000,  0.700000,  0.070000, 0.000000,  0.000000 
 75870080.000000, -9.544970 , 0.086142, 2.445465, 1407116160.000000, -1.400000,  0.700000,  0.070000, 0.000000,  0.000000 
 75890304.000000, -9.489935 , 0.133998, 2.443072, 1407136128.000000, -0.980000,  0.630000,  0.140000, 0.000000,  0.000000 
 75910656.000000, -9.518648 , 0.150748, 2.464607, 1407156352.000000, -0.770000,  0.560000,  -0.070000, 0.000000,  0.000000 
 75929984.000000, -9.501899 , 0.126820, 2.455036, 1407196032.000000, -0.980000,  0.700000,  -0.140000, 0.000000,  0.000000 
 75949952.000000, -9.604790 , 0.100499, 2.469393, 0.000000, 0.000000,  0.000000,  0.000000, 0.000000,  0.000000 
 75969920.000000, -9.585647 , 0.131605, 2.481357, 1407216000.000000, -1.190000,  0.630000,  -0.140000, 0.000000,  0.000000 
 75990272.000000, -9.566505 , 0.100499, 2.400001, 1407236096.000000, -0.700000,  0.560000,  0.070000, 0.000000,  0.000000 
 76010496.000000, -9.475577 , 0.098106, 2.498107, 1407256320.000000, -0.210000,  0.420000,  0.350000, 0.000000,  0.000000 
 76029952.000000, -9.566505 , 0.066999, 2.423929, 1407276672.000000, 0.210000,  0.210000,  0.210000, 0.000000,  0.000000 
 76049920.000000, -9.544970 , 0.110070, 2.419144, 1407296000.000000, 1.960000,  0.350000,  -0.350000, 0.000000,  0.000000 
 76069888.000000, -9.509077 , 0.198604, 2.421536, 1407315968.000000, 3.220000,  0.420000,  -0.280000, 0.000000,  0.000000 
 76090240.000000, -9.480364 , 0.162712, 2.400001, 1407335936.000000, 2.450000,  0.560000,  -0.280000, 0.000000,  0.000000 
 76112512.000000, -9.564112 , 0.133998, 2.450250, 1407356288.000000, 0.980000,  0.420000,  -0.140000, 0.000000,  0.000000 
 76129920.000000, -9.600004 , 0.131605, 2.443072, 1407378560.000000, -0.140000,  0.490000,  -0.560000, 0.000000,  0.000000 
 76149888.000000, -9.600004 , 0.098106, 2.447858, 1407395968.000000, -0.210000,  0.490000,  -0.560000, 1404691200.000000,  1010.267761 
 76169856.000000, -9.585647 , 0.098106, 2.419144, 1407415936.000000, 0.350000,  0.140000,  -0.140000, 0.000000,  0.000000 
 76190208.000000, -9.556933 , 0.162712, 2.423929, 1407435904.000000, 1.120000,  -0.070000,  0.420000, 0.000000,  0.000000 
 76210432.000000, -9.552148 , 0.150748, 2.400001, 1407456256.000000, 1.610000,  -0.070000,  0.350000, 0.000000,  0.000000 
 76229888.000000, -9.561719 , 0.179462, 2.337788, 1407476480.000000, 1.890000,  0.280000,  0.140000, 0.000000,  0.000000 
 76249856.000000, -9.552148 , 0.141177, 2.352145, 1407495936.000000, 1.260000,  0.490000,  0.140000, 0.000000,  0.000000 
 76269824.000000, -9.576077 , 0.122034, 2.414358, 1407515904.000000, 0.280000,  0.350000,  0.140000, 0.000000,  0.000000 
 76290176.000000, -9.535398 , 0.081356, 2.428715, 1407535872.000000, -1.120000,  0.700000,  0.140000, 0.000000,  0.000000 
 76310400.000000, -9.525827 , 0.100499, 2.459821, 1407556224.000000, -1.610000,  0.700000,  0.070000, 0.000000,  0.000000 
 76329728.000000, -9.549755 , 0.083749, 2.455036, 1407576448.000000, -1.330000,  0.490000,  -0.280000, 0.000000,  0.000000 
 76349824.000000, -9.549755 , 0.105284, 2.469393, 1407615872.000000, -0.980000,  0.910000,  -0.560000, 0.000000,  0.000000 
 76369792.000000, -9.566505 , 0.169890, 2.483750, 0.000000, 0.000000,  0.000000,  0.000000, 0.000000,  0.000000 
 76390016.000000, -9.559326 , 0.155533, 2.440679, 1407635840.000000, 0.910000,  0.420000,  -0.420000, 0.000000,  0.000000 
 76410368.000000, -9.528220 , 0.155533, 2.402394, 1407656192.000000, 1.190000,  0.350000,  -0.350000, 0.000000,  0.000000 
 76429696.000000, -9.513863 , 0.141177, 2.452643, 1407676416.000000, 0.700000,  0.210000,  -0.350000, 0.000000,  0.000000 
 76449664.000000, -9.540184 , 0.155533, 2.476572, 1407695744.000000, -0.210000,  0.070000,  -0.140000, 0.000000,  0.000000 
 76469760.000000, -9.626326 , 0.114855, 2.462214, 1407715840.000000, -0.980000,  0.210000,  -0.070000, 0.000000,  0.000000 
 76489984.000000, -9.552148 , 0.098106, 2.407180, 1407735808.000000, -1.120000,  0.140000,  0.070000, 0.000000,  0.000000 
 76510336.000000, -9.585647 , 0.145962, 2.395216, 1407756032.000000, -0.490000,  -0.070000,  0.420000, 0.000000,  0.000000 
 76529664.000000, -9.504292 , 0.148355, 2.390430, 1407776384.000000, -0.140000,  -0.210000,  0.700000, 0.000000,  0.000000 
 76549632.000000, -9.549755 , 0.126820, 2.423929, 1407795712.000000, -0.350000,  -0.140000,  0.630000, 0.000000,  0.000000 
 76569600.000000, -9.568897 , 0.133998, 2.476572, 1407815680.000000, -1.050000,  0.280000,  0.420000, 0.000000,  0.000000 
 76589952.000000, -9.559326 , 0.172283, 2.443072, 1407835776.000000, -1.470000,  0.420000,  0.210000, 0.000000,  0.000000 
 76610176.000000, -9.540184 , 0.141177, 2.440679, 1407856000.000000, -0.910000,  0.490000,  0.560000, 0.000000,  0.000000 
 76629632.000000, -9.568897 , 0.167498, 2.462214, 1407876352.000000, -0.490000,  0.350000,  0.560000, 0.000000,  0.000000 
 76649600.000000, -9.544970 , 0.196211, 2.440679, 1407895680.000000, -0.420000,  0.350000,  0.630000, 0.000000,  0.000000 
 76669568.000000, -9.578469 , 0.119641, 2.524428, 1407915776.000000, -0.560000,  0.070000,  0.420000, 0.000000,  0.000000 
 76689920.000000, -9.559326 , 0.114855, 2.545963, 1407935616.000000, -1.680000,  0.140000,  0.210000, 0.000000,  0.000000 
 76710144.000000, -9.487542 , 0.086142, 2.426322, 1407955968.000000, -1.610000,  0.140000,  0.140000, 0.000000,  0.000000 
 76729600.000000, -9.494720 , 0.162712, 2.455036, 1407976192.000000, -0.770000,  -0.210000,  0.140000, 0.000000,  0.000000 
 76749568.000000, -9.439686 , 0.102891, 2.455036, 1407995648.000000, -0.350000,  -0.070000,  0.350000, 0.000000,  0.000000 
 76769536.000000, -9.552148 , 0.126820, 2.443072, 1408015616.000000, -0.140000,  -0.280000,  0.140000, 0.000000,  0.000000 
 76789888.000000, -9.552148 , 0.150748, 2.464607, 1408035584.000000, -0.350000,  0.070000,  0.140000, 0.000000,  0.000000 
 76810112.000000, -9.607183 , 0.133998, 2.481357, 1408055936.000000, -0.350000,  0.560000,  0.210000, 0.000000,  0.000000 
 76829568.000000, -9.521042 , 0.126820, 2.445465, 1408076160.000000, -0.350000,  0.350000,  0.490000, 0.000000,  0.000000 
 76849536.000000, -9.516255 , 0.126820, 2.471786, 1408095616.000000, -0.490000,  0.140000,  0.490000, 0.000000,  0.000000 
 76869504.000000, -9.530612 , 0.098106, 2.440679, 1408115584.000000, -0.910000,  0.140000,  0.490000, 0.000000,  0.000000 
 76889728.000000, -9.516255 , 0.155533, 2.526821, 1408135552.000000, -0.700000,  0.070000,  0.140000, 0.000000,  0.000000 
 76910080.000000, -9.516255 , 0.155533, 2.483750, 1408155904.000000, -0.070000,  0.280000,  -0.070000, 0.000000,  0.000000 
 76929408.000000, -9.518648 , 0.198604, 2.471786, 1408176128.000000, 0.070000,  0.140000,  0.070000, 0.000000,  0.000000 
 76949504.000000, -9.556933 , 0.157926, 2.507678, 1408195584.000000, -0.560000,  0.140000,  0.350000, 0.000000,  0.000000 
 76969472.000000, -9.521042 , 0.107677, 2.555535, 1408215552.000000, -1.750000,  0.210000,  0.350000, 0.000000,  0.000000 
 76989696.000000, -9.521042 , 0.069392, 2.512464, 1408235520.000000, -1.890000,  0.140000,  0.070000, 0.000000,  0.000000 
 77010048.000000, -9.475577 , 0.093320, 2.478964, 1408255744.000000, -0.770000,  0.140000,  -0.280000, 0.000000,  0.000000 
 77029376.000000, -9.513863 , 0.167498, 2.483750, 1408276096.000000, 0.770000,  0.140000,  -0.420000, 0.000000,  0.000000 
 77049344.000000, -9.561719 , 0.193819, 2.498107, 1408295424.000000, 1.750000,  0.140000,  -0.420000, 0.000000,  0.000000 
 77069440.000000, -9.499505 , 0.157926, 2.486143, 1408315520.000000, 1.470000,  0.210000,  -0.630000, 0.000000,  0.000000 
 77089664.000000, -9.516255 , 0.157926, 2.498107, 1408335488.000000, 0.700000,  0.070000,  -0.420000, 0.000000,  0.000000 
 77111936.000000, -9.566505 , 0.148355, 2.409572, 1408355712.000000, -0.210000,  0.350000,  -0.490000, 0.000000,  0.000000 
 77129344.000000, -9.489935 , 0.210568, 2.474179, 1408395392.000000, -0.210000,  0.280000,  -0.280000, 1405690624.000000,  1010.268494 
 77149312.000000, -9.528220 , 0.112463, 2.476572, 0.000000, 0.000000,  0.000000,  0.000000, 0.000000,  0.000000 
 77169280.000000, -9.511470 , 0.133998, 2.476572, 1408415360.000000, 0.280000,  0.280000,  -0.280000, 0.000000,  0.000000 
 77189632.000000, -9.544970 , 0.172283, 2.457429, 1408435456.000000, 0.280000,  0.420000,  -0.560000, 0.000000,  0.000000 
 77209856.000000, -9.513863 , 0.155533, 2.457429, 1408455680.000000, 0.770000,  0.210000,  -0.560000, 0.000000,  0.000000 
 77229312.000000, -9.559326 , 0.189033, 2.476572, 1408475904.000000, 0.490000,  0.630000,  -0.560000, 0.000000,  0.000000 
 77249280.000000, -9.566505 , 0.088534, 2.445465, 1408495360.000000, -0.280000,  -0.070000,  -0.350000, 0.000000,  0.000000 
 77269248.000000, -9.556933 , 0.074178, 2.464607, 1408515328.000000, -0.700000,  0.280000,  -0.350000, 0.000000,  0.000000 
 77289600.000000, -9.611969 , 0.055035, 2.438286, 1408535296.000000, -0.770000,  0.210000,  -0.140000, 0.000000,  0.000000 
 77309824.000000, -9.547362 , 0.169890, 2.426322, 1408555648.000000, 0.350000,  0.070000,  -0.140000, 0.000000,  0.000000 
 77329280.000000, -9.521042 , 0.098106, 2.395216, 1408575872.000000, 0.420000,  0.420000,  0.070000, 0.000000,  0.000000 
 77349248.000000, -9.528220 , 0.184247, 2.409572, 1408595328.000000, 0.420000,  0.420000,  -0.210000, 0.000000,  0.000000 
 77369216.000000, -9.573684 , 0.198604, 2.455036, 1408615296.000000, -0.630000,  0.350000,  -0.210000, 0.000000,  0.000000 
 77389568.000000, -9.485149 , 0.143569, 2.435893, 1408635264.000000, -1.330000,  0.140000,  0.070000, 0.000000,  0.000000 
 77409792.000000, -9.537791 , 0.105284, 2.507678, 1408655616.000000, -1.750000,  -0.140000,  0.210000, 0.000000,  0.000000 
 77429120.000000, -9.528220 , 0.062213, 2.469393, 1408675840.000000, -1.890000,  -0.140000,  0.350000, 0.000000,  0.000000 
 77449216.000000, -9.597611 , 0.083749, 2.505285, 1408695296.000000, -1.260000,  0.280000,  0.140000, 0.000000,  0.000000 
 77469184.000000, -9.614362 , 0.062213, 2.505285, 1408715264.000000, -0.210000,  0.280000,  0.140000, 0.000000,  0.000000 
 77489408.000000, -9.552148 , 0.059821, 2.457429, 1408735232.000000, 0.840000,  0.070000,  0.140000, 0.000000,  0.000000 
 77509760.000000, -9.535398 , 0.169890, 2.469393, 1408755584.000000, 1.330000,  0.070000,  0.070000, 0.000000,  0.000000 
 77529088.000000, -9.568897 , 0.181855, 2.452643, 1408775808.000000, 1.680000,  -0.140000,  0.140000, 0.000000,  0.000000 
 77549056.000000, -9.509077 , 0.160319, 2.395216, 1408795136.000000, 1.820000,  -0.140000,  -0.140000, 0.000000,  0.000000 
 77569152.000000, -9.556933 , 0.160319, 2.390430, 1408815232.000000, 1.610000,  0.070000,  -0.070000, 0.000000,  0.000000 
 77589376.000000, -9.580862 , 0.148355, 2.414358, 1408835200.000000, 1.400000,  0.070000,  -0.070000, 0.000000,  0.000000 
 77609728.000000, -9.602397 , 0.174676, 2.409572, 1408855424.000000, 1.120000,  0.350000,  0.070000, 0.000000,  0.000000 
 77629056.000000, -9.583255 , 0.138784, 2.373680, 1408875776.000000, 0.910000,  0.420000,  0.350000, 0.000000,  0.000000 
 77649152.000000, -9.554541 , 0.138784, 2.354537, 1408895104.000000, 0.280000,  0.420000,  0.490000, 0.000000,  0.000000 
 77668992.000000, -9.578469 , 0.133998, 2.419144, 1408915200.000000, -0.770000,  0.420000,  0.630000, 0.000000,  0.000000 
 77689344.000000, -9.592826 , 0.193819, 2.390430, 1408935168.000000, -1.680000,  0.560000,  0.700000, 0.000000,  0.000000 
 77709568.000000, -9.489935 , 0.177069, 2.395216, 1408955392.000000, -2.100000,  0.700000,  0.700000, 0.000000,  0.000000 
 77729024.000000, -9.537791 , 0.117248, 2.443072, 1408975744.000000, -2.310000,  0.560000,  0.630000, 0.000000,  0.000000 
 77748992.000000, -9.521042 , 0.162712, 2.469393, 1408995072.000000, -2.520000,  0.700000,  0.630000, 0.000000,  0.000000 
 77768960.000000, -9.533006 , 0.095713, 2.502892, 1409015040.000000, -2.450000,  0.770000,  0.560000, 0.000000,  0.000000 
 77789312.000000, -9.544970 , 0.114855, 2.435893, 1409035008.000000, -1.960000,  0.630000,  0.630000, 0.000000,  0.000000 
 77809536.000000, -9.583255 , 0.126820, 2.478964, 1409055360.000000, -1.540000,  0.700000,  0.560000, 0.000000,  0.000000 
 77828992.000000, -9.511470 , 0.160319, 2.467000, 1409075584.000000, -1.190000,  0.420000,  0.420000, 0.000000,  0.000000 
 77848960.000000, -9.530612 , 0.174676, 2.478964, 1409095040.000000, -0.910000,  0.350000,  0.630000, 0.000000,  0.000000 
 77868928.000000, -9.544970 , 0.179462, 2.459821, 1409115008.000000, -0.910000,  0.420000,  0.350000, 0.000000,  0.000000 
 77889280.000000, -9.530612 , 0.114855, 2.505285, 1409134976.000000, -0.910000,  0.420000,  0.350000, 0.000000,  0.000000 
 77909504.000000, -9.576077 , 0.110070, 2.457429, 1409155328.000000, -1.120000,  0.490000,  0.350000, 0.000000,  0.000000 
 77928960.000000, -9.518648 , 0.148355, 2.447858, 1409175552.000000, -0.140000,  0.420000,  0.070000, 0.000000,  0.000000 
 77948928.000000, -9.528220 , 0.162712, 2.447858, 1409195008.000000, 0.280000,  0.350000,  0.280000, 0.000000,  0.000000 
 77968896.000000, -9.506684 , 0.162712, 2.421536, 1409214976.000000, -0.070000,  0.490000,  0.280000, 0.000000,  0.000000 
 77989120.000000, -9.528220 , 0.165105, 2.428715, 1409234944.000000, -0.210000,  0.700000,  0.140000, 0.000000,  0.000000 
 78009472.000000, -9.533006 , 0.174676, 2.457429, 1409255296.000000, -0.840000,  0.770000,  0.140000, 0.000000,  0.000000 
 78028800.000000, -9.492328 , 0.157926, 2.416751, 1409275520.000000, -1.400000,  0.630000,  -0.070000, 0.000000,  0.000000 
 78048896.000000, -9.533006 , 0.110070, 2.447858, 1409294976.000000, -1.260000,  0.630000,  -0.070000, 0.000000,  0.000000 
 78068864.000000, -9.628718 , 0.126820, 2.443072, 1409314944.000000, -0.490000,  0.980000,  0.070000, 0.000000,  0.000000 
 78089088.000000, -9.544970 , 0.145962, 2.431108, 1409334912.000000, -0.140000,  0.840000,  0.070000, 0.000000,  0.000000 
 78111360.000000, -9.571291 , 0.143569, 2.385644, 1409355136.000000, -0.280000,  0.700000,  0.280000, 0.000000,  0.000000 
 78128768.000000, -9.506684 , 0.107677, 2.402394, 1409377408.000000, -0.350000,  0.630000,  0.490000, 0.000000,  0.000000 
 78148736.000000, -9.487542 , 0.157926, 2.402394, 1409394816.000000, -0.070000,  0.770000,  0.420000, 1406690176.000000,  1010.265198 
 78168832.000000, -9.549755 , 0.169890, 2.404787, 1409414912.000000, 0.560000,  1.260000,  0.210000, 0.000000,  0.000000 
 78189184.000000, -9.571291 , 0.224925, 2.402394, 1409434880.000000, 0.700000,  1.260000,  0.070000, 0.000000,  0.000000 
 78209408.000000, -9.552148 , 0.167498, 2.364109, 1409455232.000000, 0.070000,  1.330000,  0.070000, 0.000000,  0.000000 
 78228736.000000, -9.578469 , 0.122034, 2.414358, 1409475456.000000, -1.400000,  1.470000,  0.350000, 0.000000,  0.000000 
 78248704.000000, -9.580862 , 0.105284, 2.469393, 1409494784.000000, -2.170000,  1.260000,  0.560000, 0.000000,  0.000000 
 78268672.000000, -9.513863 , 0.148355, 2.411965, 1409514752.000000, -3.360000,  1.190000,  0.840000, 0.000000,  0.000000 
 78289024.000000, -9.511470 , 0.155533, 2.476572, 1409534720.000000, -4.060000,  1.050000,  0.910000, 0.000000,  0.000000 
 78309248.000000, -9.571291 , 0.160319, 2.471786, 1409555072.000000, -4.270000,  0.840000,  0.980000, 0.000000,  0.000000 
 78328704.000000, -9.525827 , 0.107677, 2.510071, 1409575424.000000, -4.060000,  0.980000,  0.980000, 0.000000,  0.000000 
 78348672.000000, -9.511470 , 0.145962, 2.459821, 1409594752.000000, -3.710000,  0.840000,  0.840000, 0.000000,  0.000000 
 78368640.000000, -9.556933 , 0.179462, 2.488536, 1409614720.000000, -3.220000,  0.770000,  0.630000, 0.000000,  0.000000 
 78388992.000000, -9.535398 , 0.153141, 2.541178, 1409634688.000000, -2.940000,  0.840000,  0.490000, 0.000000,  0.000000 
 78409216.000000, -9.549755 , 0.131605, 2.545963, 1409655040.000000, -2.310000,  0.910000,  0.280000, 0.000000,  0.000000 
 78428672.000000, -9.516255 , 0.141177, 2.490928, 1409675264.000000, -1.120000,  0.840000,  0.490000, 0.000000,  0.000000 
 78448640.000000, -9.506684 , 0.160319, 2.510071, 1409694720.000000, -0.140000,  0.770000,  0.420000, 0.000000,  0.000000 
 78468608.000000, -9.516255 , 0.169890, 2.519642, 1409714688.000000, 0.280000,  0.700000,  -0.140000, 0.000000,  0.000000 
 78488960.000000, -9.494720 , 0.148355, 2.450250, 1409734656.000000, 0.980000,  0.630000,  -0.280000, 0.000000,  0.000000 
 78509184.000000, -9.540184 , 0.196211, 2.450250, 1409755008.000000, 1.750000,  0.490000,  -0.280000, 0.000000,  0.000000 
 78528512.000000, -9.564112 , 0.148355, 2.447858, 1409775232.000000, 1.820000,  0.420000,  -0.420000, 0.000000,  0.000000 
 78548608.000000, -9.580862 , 0.160319, 2.404787, 1409794688.000000, 1.330000,  0.420000,  -0.280000, 0.000000,  0.000000 
 78568576.000000, -9.571291 , 0.193819, 2.419144, 1409814656.000000, 1.400000,  0.630000,  -0.350000, 0.000000,  0.000000 
 78588800.000000, -9.556933 , 0.205783, 2.438286, 1409834624.000000, 1.610000,  0.630000,  -0.070000, 0.000000,  0.000000 
 78609152.000000, -9.530612 , 0.181855, 2.364109, 1409854976.000000, 0.910000,  0.280000,  0.210000, 0.000000,  0.000000 
 78628480.000000, -9.547362 , 0.220140, 2.376073, 1409875200.000000, 0.560000,  0.280000,  0.140000, 0.000000,  0.000000 
 78648576.000000, -9.542577 , 0.234497, 2.452643, 1409894528.000000, 0.560000,  0.280000,  0.140000, 0.000000,  0.000000 
 78668544.000000, -9.492328 , 0.131605, 2.402394, 1409914624.000000, -1.260000,  0.350000,  0.210000, 0.000000,  0.000000 
 78688768.000000, -9.552148 , 0.110070, 2.431108, 1409934592.000000, -2.170000,  0.140000,  0.280000, 0.000000,  0.000000 
 78709120.000000, -9.559326 , 0.100499, 2.467000, 1409954816.000000, -2.520000,  0.210000,  0.280000, 0.000000,  0.000000 
 78728448.000000, -9.564112 , 0.071785, 2.452643, 1409975168.000000, -2.310000,  0.210000,  0.140000, 0.000000,  0.000000 
 78748416.000000, -9.561719 , 0.165105, 2.464607, 1409994496.000000, -1.540000,  -0.210000,  0.210000, 0.000000,  0.000000 
 78768384.000000, -9.540184 , 0.210568, 2.457429, 1410014592.000000, -0.560000,  -0.350000,  0.210000, 0.000000,  0.000000 
 78788736.000000, -9.542577 , 0.215354, 2.435893, 1410034560.000000, -0.560000,  -0.350000,  0.140000, 0.000000,  0.000000 
 78808960.000000, -9.564112 , 0.215354, 2.426322, 1410054784.000000, 0.350000,  -0.140000,  -0.070000, 0.000000,  0.000000 
 78828416.000000, -9.549755 , 0.198604, 2.416751, 1410075136.000000, 0.070000,  -0.140000,  -0.070000, 0.000000,  0.000000 
 78848384.000000, -9.533006 , 0.172283, 2.440679, 1410094464.000000, -0.350000,  -0.070000,  0.140000, 0.000000,  0.000000 
 78868352.000000, -9.544970 , 0.141177, 2.421536, 1410114432.000000, -0.700000,  -0.280000,  0.210000, 0.000000,  0.000000 
 78888704.000000, -9.559326 , 0.110070, 2.435893, 1410134528.000000, -0.560000,  -0.280000,  -0.070000, 0.000000,  0.000000 
 78908928.000000, -9.556933 , 0.119641, 2.462214, 1410174976.000000, 0.280000,  -0.280000,  0.070000, 0.000000,  0.000000 
 78928384.000000, -9.516255 , 0.122034, 2.388037, 0.000000, 0.000000,  0.000000,  0.000000, 0.000000,  0.000000 
 78948352.000000, -9.494720 , 0.122034, 2.435893, 1410194432.000000, 0.280000,  -0.070000,  0.070000, 0.000000,  0.000000 
 78968320.000000, -9.544970 , 0.162712, 2.428715, 1410214400.000000, 0.140000,  0.070000,  -0.070000, 0.000000,  0.000000 
 78988672.000000, -9.588040 , 0.215354, 2.392823, 1410234368.000000, 0.420000,  0.210000,  -0.420000, 0.000000,  0.000000 
 79008896.000000, -9.573684 , 0.224925, 2.409572, 1410254720.000000, 0.490000,  0.350000,  -0.210000, 0.000000,  0.000000 
 79028352.000000, -9.559326 , 0.174676, 2.421536, 1410274944.000000, 0.210000,  0.280000,  0.140000, 0.000000,  0.000000 
 79048320.000000, -9.537791 , 0.162712, 2.435893, 1410294400.000000, -0.280000,  0.420000,  0.140000, 0.000000,  0.000000 
 79068288.000000, -9.497113 , 0.153141, 2.414358, 1410314368.000000, -0.280000,  0.210000,  0.070000, 0.000000,  0.000000 
 79088640.000000, -9.559326 , 0.179462, 2.400001, 1410334336.000000, 0.140000,  0.420000,  0.140000, 0.000000,  0.000000 
 79110784.000000, -9.554541 , 0.200997, 2.407180, 1410354688.000000, -0.280000,  0.560000,  0.070000, 0.000000,  0.000000 
 79128192.000000, -9.513863 , 0.124427, 2.450250, 1410376832.000000, -0.910000,  0.420000,  0.070000, 0.000000,  0.000000 
 79148288.000000, -9.516255 , 0.136391, 2.426322, 1410394368.000000, -1.120000,  0.560000,  0.070000, 1407689600.000000,  1010.264771 
 79168256.000000, -9.583255 , 0.138784, 2.435893, 1410414336.000000, -0.840000,  0.560000,  -0.210000, 0.000000,  0.000000 
 79188480.000000, -9.611969 , 0.145962, 2.464607, 1410434304.000000, -0.490000,  0.630000,  -0.350000, 0.000000,  0.000000 
 79208832.000000, -9.611969 , 0.150748, 2.388037, 1410454656.000000, -0.280000,  0.560000,  -0.350000, 0.000000,  0.000000 
 79228160.000000, -9.542577 , 0.160319, 2.440679, 1410474880.000000, 0.420000,  0.420000,  -0.280000, 0.000000,  0.000000 
 79248128.000000, -9.504292 , 0.145962, 2.414358, 1410494208.000000, 0.700000,  0.210000,  -0.070000, 0.000000,  0.000000 
 79268224.000000, -9.537791 , 0.184247, 2.368894, 1410514304.000000, 1.470000,  0.420000,  -0.280000, 0.000000,  0.000000 
 79288448.000000, -9.566505 , 0.167498, 2.392823, 1410534272.000000, 1.890000,  0.770000,  -0.490000, 0.000000,  0.000000 
 79308800.000000, -9.530612 , 0.145962, 2.368894, 1410554496.000000, 1.330000,  0.840000,  -0.070000, 0.000000,  0.000000 
 79328128.000000, -9.564112 , 0.172283, 2.354537, 1410574848.000000, 0.910000,  0.770000,  0.350000, 0.000000,  0.000000 
 79348096.000000, -9.592826 , 0.117248, 2.376073, 1410594176.000000, 0.210000,  1.120000,  0.490000, 0.000000,  0.000000 
 79368064.000000, -9.580862 , 0.174676, 2.445465, 1410614144.000000, -1.190000,  1.190000,  0.350000, 0.000000,  0.000000 
 79388416.000000, -9.600004 , 0.122034, 2.407180, 1410634240.000000, -2.170000,  1.050000,  0.350000, 0.000000,  0.000000 
 79408640.000000, -9.516255 , 0.177069, 2.447858, 1410654464.000000, -1.750000,  1.190000,  0.560000, 0.000000,  0.000000 
 79428096.000000, -9.540184 , 0.191426, 2.397608, 1410674816.000000, -1.330000,  1.400000,  0.700000, 0.000000,  0.000000 
 79448192.000000, -9.547362 , 0.153141, 2.450250, 1410694144.000000, -1.680000,  1.400000,  0.910000, 0.000000,  0.000000 
 79468032.000000, -9.528220 , 0.153141, 2.445465, 1410714240.000000, -2.520000,  1.330000,  0.770000, 0.000000,  0.000000 
 79488384.000000, -9.540184 , 0.107677, 2.483750, 1410734080.000000, -3.010000,  0.980000,  0.700000, 0.000000,  0.000000 
 79508608.000000, -9.552148 , 0.172283, 2.476572, 1410754432.000000, -2.660000,  0.770000,  0.560000, 0.000000,  0.000000 
 79528064.000000, -9.521042 , 0.141177, 2.483750, 1410774656.000000, -1.960000,  0.700000,  0.350000, 0.000000,  0.000000 
 79548032.000000, -9.597611 , 0.138784, 2.452643, 1410794112.000000, -1.120000,  0.350000,  0.280000, 0.000000,  0.000000 
 79568000.000000, -9.554541 , 0.141177, 2.464607, 1410814080.000000, -0.840000,  0.140000,  0.350000, 0.000000,  0.000000 
 79588352.000000, -9.540184 , 0.095713, 2.471786, 1410834048.000000, -0.980000,  -0.070000,  0.420000, 0.000000,  0.000000 
 79608576.000000, -9.544970 , 0.133998, 2.378466, 1410854400.000000, -1.120000,  -0.350000,  0.490000, 0.000000,  0.000000 
 79627904.000000, -9.482756 , 0.138784, 2.388037, 1410874624.000000, -1.120000,  -0.560000,  0.350000, 0.000000,  0.000000 
 79648000.000000, -9.547362 , 0.148355, 2.483750, 1410894080.000000, -0.560000,  -0.630000,  0.070000, 0.000000,  0.000000 
 79667968.000000, -9.542577 , 0.181855, 2.411965, 1410914048.000000, 0.140000,  -0.350000,  -0.140000, 0.000000,  0.000000 
 79688192.000000, -9.521042 , 0.086142, 2.450250, 1410934016.000000, 0.420000,  -0.210000,  -0.210000, 0.000000,  0.000000 
 79708544.000000, -9.556933 , 0.157926, 2.407180, 1410954368.000000, 0.560000,  -0.280000,  -0.140000, 0.000000,  0.000000 
 79727872.000000, -9.585647 , 0.160319, 2.392823, 1410974592.000000, 0.630000,  -0.140000,  -0.350000, 0.000000,  0.000000 
 79747840.000000, -9.528220 , 0.141177, 2.443072, 1410993920.000000, 0.910000,  -0.140000,  -0.420000, 0.000000,  0.000000 
 79767936.000000, -9.585647 , 0.172283, 2.395216, 1411014016.000000, 1.400000,  -0.140000,  -0.280000, 0.000000,  0.000000 
 79788160.000000, -9.564112 , 0.157926, 2.376073, 1411033984.000000, 1.190000,  -0.140000,  -0.350000, 0.000000,  0.000000 
 79808512.000000, -9.564112 , 0.184247, 2.378466, 1411054208.000000, 0.490000,  -0.140000,  -0.280000, 0.000000,  0.000000 
 79827840.000000, -9.533006 , 0.153141, 2.376073, 1411074560.000000, -0.210000,  -0.070000,  -0.350000, 0.000000,  0.000000 
 79847808.000000, -9.590433 , 0.162712, 2.416751, 1411093888.000000, -0.560000,  0.210000,  -0.210000, 0.000000,  0.000000 
 79867776.000000, -9.628718 , 0.172283, 2.376073, 1411113856.000000, -0.350000,  0.560000,  -0.210000, 0.000000,  0.000000 
 79888128.000000, -9.580862 , 0.193819, 2.397608, 1411133952.000000, -0.210000,  0.700000,  0.070000, 0.000000,  0.000000 
 79908352.000000, -9.530612 , 0.105284, 2.380858, 1411154176.000000, -0.490000,  0.560000,  0.280000, 0.000000,  0.000000 
 79927808.000000, -9.571291 , 0.224925, 2.376073, 1411174528.000000, -0.350000,  0.630000,  0.280000, 0.000000,  0.000000 
 79947776.000000, -9.511470 , 0.220140, 2.411965, 1411193856.000000, -0.350000,  1.050000,  0.280000, 0.000000,  0.000000 
 79967744.000000, -9.497113 , 0.138784, 2.440679, 1411213824.000000, -1.120000,  0.700000,  0.420000, 0.000000,  0.000000 
 79988096.000000, -9.561719 , 0.098106, 2.411965, 1411233792.000000, -1.680000,  0.700000,  0.420000, 0.000000,  0.000000 
 80008320.000000, -9.585647 , 0.093320, 2.366502, 1411254144.000000, -1.470000,  1.190000,  0.420000, 0.000000,  0.000000 
 80027776.000000, -9.592826 , 0.165105, 2.383251, 1411274368.000000, -0.140000,  1.190000,  0.490000, 0.000000,  0.000000 
 80047744.000000, -9.573684 , 0.222532, 2.364109, 1411293824.000000, 0.840000,  0.980000,  0.350000, 0.000000,  0.000000 
 80067712.000000, -9.516255 , 0.277567, 2.340181, 1411313792.000000, 0.350000,  0.980000,  0.770000, 0.000000,  0.000000 
 80088064.000000, -9.544970 , 0.196211, 2.419144, 1411333760.000000, -1.680000,  0.980000,  1.050000, 0.000000,  0.000000 
 80110208.000000, -9.547362 , 0.141177, 2.438286, 1411354112.000000, -3.290000,  1.050000,  1.120000, 0.000000,  0.000000 
 80127744.000000, -9.506684 , 0.191426, 2.431108, 1411376384.000000, -3.430000,  1.190000,  1.120000, 0.000000,  0.000000 
 80147712.000000, -9.511470 , 0.239282, 2.419144, 1411393792.000000, -2.940000,  1.050000,  1.330000, 1408689024.000000,  1010.266418 
 80167680.000000, -9.506684 , 0.220140, 2.450250, 1411413760.000000, -2.100000,  0.910000,  1.400000, 0.000000,  0.000000 
 80188032.000000, -9.564112 , 0.145962, 2.548356, 1411433728.000000, -2.940000,  0.910000,  1.120000, 0.000000,  0.000000 
 80208256.000000, -9.597611 , 0.110070, 2.512464, 1411454080.000000, -4.690000,  0.560000,  1.190000, 0.000000,  0.000000 
 80227584.000000, -9.578469 , 0.064606, 2.562713, 1411474304.000000, -5.460000,  0.210000,  1.190000, 0.000000,  0.000000 
 80247680.000000, -9.549755 , 0.064606, 2.555535, 1411493760.000000, -4.620000,  0.070000,  1.470000, 0.000000,  0.000000 
 80267648.000000, -9.487542 , 0.107677, 2.531606, 1411513728.000000, -2.450000,  -0.490000,  1.470000, 0.000000,  0.000000 
 80287872.000000, -9.485149 , 0.186640, 2.502892, 1411533696.000000, -0.140000,  -0.630000,  0.980000, 0.000000,  0.000000 
 80308224.000000, -9.489935 , 0.224925, 2.457429, 1411554048.000000, 1.750000,  -0.420000,  0.280000, 0.000000,  0.000000 
 80327552.000000, -9.542577 , 0.229711, 2.457429, 1411574272.000000, 3.080000,  -0.420000,  -0.070000, 0.000000,  0.000000 
 80347520.000000, -9.585647 , 0.253639, 2.414358, 1411593600.000000, 3.780000,  -0.420000,  -0.560000, 0.000000,  0.000000 
 80367616.000000, -9.547362 , 0.236889, 2.438286, 1411613696.000000, 3.780000,  0.070000,  -0.630000, 0.000000,  0.000000 
 80387840.000000, -9.585647 , 0.224925, 2.421536, 1411633664.000000, 3.360000,  0.070000,  -0.560000, 0.000000,  0.000000 
 80408192.000000, -9.561719 , 0.220140, 2.407180, 1411653888.000000, 2.310000,  0.070000,  -0.420000, 0.000000,  0.000000 
 80427520.000000, -9.521042 , 0.200997, 2.443072, 1411674240.000000, 1.050000,  -0.350000,  -0.490000, 0.000000,  0.000000 
 80447488.000000, -9.525827 , 0.145962, 2.385644, 1411693568.000000, 0.350000,  -0.420000,  -0.630000, 0.000000,  0.000000 
 80467456.000000, -9.544970 , 0.174676, 2.380858, 1411713536.000000, 0.490000,  -0.350000,  -0.560000, 0.000000,  0.000000 
 80487808.000000, -9.571291 , 0.179462, 2.388037, 1411733632.000000, 0.910000,  -0.280000,  -0.420000, 0.000000,  0.000000 
 80508032.000000, -9.559326 , 0.217747, 2.459821, 1411753856.000000, 0.630000,  -0.280000,  -0.280000, 0.000000,  0.000000 
 80527488.000000, -9.564112 , 0.189033, 2.428715, 1411774208.000000, -0.210000,  0.280000,  -0.210000, 0.000000,  0.000000 
 80547456.000000, -9.571291 , 0.177069, 2.443072, 1411793536.000000, 0.070000,  0.210000,  -0.420000, 0.000000,  0.000000 
 80567424.000000, -9.552148 , 0.196211, 2.459821, 1411813504.000000, 0.630000,  0.350000,  -0.420000, 0.000000,  0.000000 
 80587776.000000, -9.564112 , 0.165105, 2.426322, 1411833472.000000, 1.330000,  0.350000,  -0.560000, 0.000000,  0.000000 
 80608000.000000, -9.559326 , 0.181855, 2.443072, 1411853824.000000, 1.890000,  0.140000,  -0.770000, 0.000000,  0.000000 
 80627456.000000, -9.544970 , 0.193819, 2.459821, 1411874048.000000, 1.750000,  0.210000,  -0.630000, 0.000000,  0.000000 
 80647424.000000, -9.499505 , 0.136391, 2.428715, 1411893504.000000, 0.770000,  0.140000,  -0.420000, 0.000000,  0.000000 
 80667392.000000, -9.556933 , 0.179462, 2.462214, 1411913472.000000, -0.070000,  -0.140000,  -0.560000, 0.000000,  0.000000 
 80687744.000000, -9.552148 , 0.117248, 2.443072, 1411933440.000000, -0.280000,  0.210000,  -0.560000, 0.000000,  0.000000 
 80707968.000000, -9.537791 , 0.179462, 2.392823, 1411953792.000000, 0.420000,  0.070000,  -0.490000, 0.000000,  0.000000 
 80727424.000000, -9.564112 , 0.208176, 2.354537, 1411974016.000000, 1.400000,  -0.070000,  -0.420000, 0.000000,  0.000000 
 80747392.000000, -9.568897 , 0.189033, 2.388037, 1411993472.000000, 1.540000,  -0.070000,  -0.210000, 0.000000,  0.000000 
 80767360.000000, -9.549755 , 0.198604, 2.402394, 1412013440.000000, 0.770000,  0.140000,  -0.070000, 0.000000,  0.000000 
 80787584.000000, -9.588040 , 0.196211, 2.431108, 1412033408.000000, 0.210000,  0.280000,  0.070000, 0.000000,  0.000000 
 80807936.000000, -9.571291 , 0.253639, 2.380858, 1412053760.000000, -0.280000,  0.280000,  -0.070000, 0.000000,  0.000000 
 80827264.000000, -9.540184 , 0.227318, 2.409572, 1412073984.000000, -0.420000,  0.210000,  0.140000, 0.000000,  0.000000 
 80847360.000000, -9.559326 , 0.150748, 2.474179, 1412093440.000000, -1.120000,  0.420000,  0.280000, 0.000000,  0.000000 
 80867328.000000, -9.537791 , 0.143569, 2.447858, 1412113408.000000, -1.680000,  0.420000,  0.420000, 0.000000,  0.000000 
 80887552.000000, -9.566505 , 0.141177, 2.435893, 1412133376.000000, -1.680000,  0.210000,  0.280000, 0.000000,  0.000000 
 80907904.000000, -9.540184 , 0.196211, 2.457429, 1412153600.000000, -1.190000,  0.140000,  0.350000, 0.000000,  0.000000 
 80927232.000000, -9.489935 , 0.215354, 2.431108, 1412173952.000000, -0.630000,  0.140000,  0.280000, 0.000000,  0.000000 
 80947200.000000, -9.523434 , 0.191426, 2.416751, 1412213376.000000, -0.490000,  -0.070000,  0.210000, 0.000000,  0.000000 
 80967168.000000, -9.494720 , 0.186640, 2.438286, 0.000000, 0.000000,  0.000000,  0.000000, 0.000000,  0.000000 
 80987520.000000, -9.528220 , 0.153141, 2.428715, 1412233344.000000, -0.700000,  -0.070000,  0.350000, 0.000000,  0.000000 
 81007744.000000, -9.540184 , 0.200997, 2.402394, 1412253568.000000, -0.980000,  0.070000,  0.420000, 0.000000,  0.000000 
 81027200.000000, -9.554541 , 0.160319, 2.404787, 1412273920.000000, -1.610000,  0.070000,  0.420000, 0.000000,  0.000000 
 81047168.000000, -9.511470 , 0.133998, 2.421536, 1412293248.000000, -1.960000,  -0.140000,  0.490000, 0.000000,  0.000000 
 81067136.000000, -9.549755 , 0.117248, 2.419144, 1412313216.000000, -1.960000,  -0.140000,  0.490000, 0.000000,  0.000000 
 81087488.000000, -9.530612 , 0.189033, 2.428715, 1412333184.000000, -1.680000,  0.140000,  0.490000, 0.000000,  0.000000 
 81109760.000000, -9.528220 , 0.193819, 2.421536, 1412353536.000000, -2.030000,  0.280000,  0.560000, 0.000000,  0.000000 
 81127168.000000, -9.530612 , 0.145962, 2.447858, 1412375808.000000, -3.150000,  0.420000,  0.420000, 0.000000,  0.000000 
 81147136.000000, -9.544970 , 0.098106, 2.498107, 1412393216.000000, -3.920000,  0.490000,  0.420000, 1409688448.000000,  1010.268555 
 81167104.000000, -9.549755 , 0.129212, 2.428715, 1412413184.000000, -3.780000,  0.560000,  0.420000, 0.000000,  0.000000 
 81187456.000000, -9.501899 , 0.126820, 2.443072, 1412433152.000000, -2.590000,  0.700000,  0.140000, 0.000000,  0.000000 
 81207680.000000, -9.511470 , 0.162712, 2.483750, 1412453504.000000, -1.610000,  0.700000,  0.070000, 0.000000,  0.000000 
 81227136.000000, -9.533006 , 0.177069, 2.414358, 1412473728.000000, -1.190000,  0.630000,  0.070000, 0.000000,  0.000000 
 81247104.000000, -9.506684 , 0.200997, 2.455036, 1412493184.000000, -0.210000,  0.840000,  -0.210000, 0.000000,  0.000000 
 81267072.000000, -9.494720 , 0.232104, 2.443072, 1412513152.000000, 0.140000,  0.910000,  -0.350000, 0.000000,  0.000000 
 81287424.000000, -9.511470 , 0.143569, 2.469393, 1412533120.000000, -0.490000,  0.770000,  -0.210000, 0.000000,  0.000000 
 81307648.000000, -9.559326 , 0.148355, 2.478964, 1412553472.000000, -1.330000,  0.840000,  -0.350000, 0.000000,  0.000000 
 81326976.000000, -9.559326 , 0.133998, 2.469393, 1412573696.000000, -1.190000,  1.050000,  -0.490000, 0.000000,  0.000000 
 81347072.000000, -9.544970 , 0.177069, 2.471786, 1412593152.000000, -0.070000,  1.120000,  -0.420000, 0.000000,  0.000000 
 81367040.000000, -9.537791 , 0.215354, 2.447858, 1412613120.000000, 0.490000,  0.910000,  -0.350000, 0.000000,  0.000000 
 81387264.000000, -9.552148 , 0.157926, 2.483750, 1412633088.000000, 0.140000,  0.840000,  -0.140000, 0.000000,  0.000000 
 81407616.000000, -9.537791 , 0.181855, 2.471786, 1412653440.000000, -0.700000,  0.770000,  -0.210000, 0.000000,  0.000000 
 81426944.000000, -9.564112 , 0.165105, 2.455036, 1412673664.000000, -0.770000,  0.770000,  -0.140000, 0.000000,  0.000000 
 81446912.000000, -9.559326 , 0.179462, 2.462214, 1412692992.000000, -0.630000,  0.770000,  -0.140000, 0.000000,  0.000000 
 81467008.000000, -9.489935 , 0.169890, 2.462214, 1412713088.000000, -0.560000,  0.490000,  -0.140000, 0.000000,  0.000000 
 81487232.000000, -9.554541 , 0.131605, 2.486143, 1412733056.000000, -0.420000,  0.490000,  0.070000, 0.000000,  0.000000 
 81507584.000000, -9.564112 , 0.114855, 2.452643, 1412753280.000000, -0.210000,  0.630000,  0.070000, 0.000000,  0.000000 
 81526912.000000, -9.559326 , 0.100499, 2.452643, 1412773632.000000, 0.560000,  0.420000,  -0.350000, 0.000000,  0.000000 
 81546880.000000, -9.501899 , 0.124427, 2.409572, 1412792960.000000, 1.400000,  0.420000,  -0.210000, 0.000000,  0.000000 
 81566848.000000, -9.566505 , 0.160319, 2.423929, 1412812928.000000, 1.820000,  0.630000,  -0.280000, 0.000000,  0.000000 
 81587200.000000, -9.578469 , 0.172283, 2.383251, 1412833024.000000, 1.540000,  0.560000,  -0.140000, 0.000000,  0.000000 
 81607424.000000, -9.568897 , 0.167498, 2.416751, 1412853248.000000, 0.770000,  0.420000,  0.070000, 0.000000,  0.000000 
 81626880.000000, -9.559326 , 0.112463, 2.435893, 1412873600.000000, -0.420000,  0.350000,  0.070000, 0.000000,  0.000000 
 81646848.000000, -9.559326 , 0.155533, 2.400001, 1412892928.000000, -0.630000,  0.210000,  0.070000, 0.000000,  0.000000 
 81666816.000000, -9.616754 , 0.153141, 2.414358, 1412913024.000000, 0.070000,  0.280000,  0.070000, 0.000000,  0.000000 
 81687168.000000, -9.566505 , 0.196211, 2.388037, 1412932864.000000, 0.560000,  0.420000,  0.070000, 0.000000,  0.000000 
 81707392.000000, -9.614362 , 0.160319, 2.352145, 1412953216.000000, 0.280000,  0.420000,  0.210000, 0.000000,  0.000000 
 81726848.000000, -9.611969 , 0.205783, 2.368894, 1412973440.000000, -0.630000,  0.560000,  0.560000, 0.000000,  0.000000 
 81746816.000000, -9.518648 , 0.145962, 2.402394, 1412992896.000000, -1.610000,  0.700000,  0.350000, 0.000000,  0.000000 
 81766784.000000, -9.521042 , 0.131605, 2.404787, 1413012864.000000, -1.960000,  0.770000,  0.490000, 0.000000,  0.000000 
 81787136.000000, -9.561719 , 0.177069, 2.404787, 1413032832.000000, -1.540000,  0.770000,  0.560000, 0.000000,  0.000000 
 81807360.000000, -9.580862 , 0.208176, 2.395216, 1413053184.000000, -1.050000,  0.840000,  0.560000, 0.000000,  0.000000 
 81826816.000000, -9.571291 , 0.224925, 2.402394, 1413073408.000000, -0.980000,  0.840000,  0.770000, 0.000000,  0.000000 
 81846784.000000, -9.559326 , 0.165105, 2.431108, 1413092864.000000, -1.750000,  0.700000,  0.840000, 0.000000,  0.000000 
 81866752.000000, -9.554541 , 0.165105, 2.361716, 1413112832.000000, -2.170000,  0.700000,  0.840000, 0.000000,  0.000000 
 81886976.000000, -9.509077 , 0.200997, 2.419144, 1413132800.000000, -1.610000,  0.630000,  0.770000, 0.000000,  0.000000 
 81907328.000000, -9.494720 , 0.153141, 2.404787, 1413153152.000000, -1.540000,  0.700000,  0.910000, 0.000000,  0.000000 
 81926656.000000, -9.518648 , 0.126820, 2.400001, 1413173376.000000, -2.030000,  0.700000,  0.910000, 0.000000,  0.000000 
 81946752.000000, -9.585647 , 0.191426, 2.380858, 1413192832.000000, -2.590000,  0.770000,  0.910000, 0.000000,  0.000000 
 81966720.000000, -9.585647 , 0.157926, 2.467000, 1413212800.000000, -2.870000,  1.120000,  0.770000, 0.000000,  0.000000 
 81986944.000000, -9.564112 , 0.186640, 2.467000, 1413232768.000000, -2.730000,  0.910000,  0.700000, 0.000000,  0.000000 
