 Acc_timestamp,Accx,Accy,Accz,Gyro_timestamp,Gyrox,Gyroy,Gyroz,Baro_timestamp,Pressure_Reading
 208468464.000000, -0.356531 , 3.847659, 8.879765, 339998016.000000, -0.350000,  0.280000,  0.210000, 0.000000,  0.000000 
 208488144.000000, -0.346959 , 3.893122, 8.910872, 340018336.000000, -0.140000,  0.210000,  0.210000, 0.000000,  0.000000 
 208508112.000000, -0.334995 , 3.902694, 8.925228, 340038016.000000, -0.140000,  0.350000,  0.140000, 0.000000,  0.000000 
 208528112.000000, -0.373280 , 3.871587, 8.908479, 340057984.000000, -0.070000,  0.420000,  0.070000, 0.000000,  0.000000 
 208548112.000000, -0.368495 , 3.876373, 8.863015, 340077984.000000, -0.210000,  0.420000,  -0.070000, 0.000000,  0.000000 
 208568400.000000, -0.370888 , 3.885944, 8.886944, 340097984.000000, -0.420000,  0.350000,  -0.070000, 0.000000,  0.000000 
 208588080.000000, -0.378066 , 3.873980, 8.913264, 340118272.000000, -0.560000,  0.350000,  0.070000, 0.000000,  0.000000 
 208608048.000000, -0.366102 , 3.804588, 8.886944, 340137952.000000, -0.770000,  0.420000,  0.070000, 0.000000,  0.000000 
 208628048.000000, -0.330210 , 3.835695, 8.894121, 340157952.000000, -0.770000,  0.280000,  0.070000, 0.000000,  0.000000 
 208648048.000000, -0.368495 , 3.871587, 8.877372, 340177920.000000, -0.350000,  0.350000,  0.070000, 0.000000,  0.000000 
 208668336.000000, -0.356531 , 3.850052, 8.941978, 340197920.000000, -0.070000,  0.350000,  0.070000, 0.000000,  0.000000 
 208688016.000000, -0.409173 , 3.845266, 8.906086, 340218208.000000, -0.210000,  0.420000,  0.070000, 0.000000,  0.000000 
 208708016.000000, -0.332602 , 3.890730, 8.920443, 340237888.000000, -0.280000,  0.350000,  0.140000, 0.000000,  0.000000 
 208727984.000000, -0.425922 , 3.909872, 8.889337, 340257888.000000, -0.140000,  0.350000,  0.070000, 0.000000,  0.000000 
 208747984.000000, -0.437887 , 3.964907, 8.918050, 340277888.000000, -0.140000,  0.420000,  0.070000, 0.000000,  0.000000 
 208768272.000000, -0.387637 , 3.862016, 8.886944, 340297856.000000, -0.140000,  0.350000,  0.070000, 0.000000,  0.000000 
 208787984.000000, -0.361316 , 3.811767, 8.882158, 340318176.000000, -0.490000,  0.350000,  0.070000, 0.000000,  0.000000 
 208807952.000000, -0.445065 , 3.869194, 8.889337, 340337856.000000, -0.700000,  0.420000,  0.070000, 0.000000,  0.000000 
 208827952.000000, -0.409173 , 3.838088, 8.910872, 340357824.000000, -0.630000,  0.490000,  0.070000, 0.000000,  0.000000 
 208847920.000000, -0.382852 , 3.857230, 8.906086, 340377824.000000, -0.560000,  0.490000,  0.070000, 0.000000,  0.000000 
 208868240.000000, -0.397209 , 3.888337, 8.891729, 340397824.000000, -0.140000,  0.420000,  0.070000, 0.000000,  0.000000 
 208887920.000000, -0.368495 , 3.895515, 8.925228, 340418112.000000, -0.140000,  0.420000,  0.140000, 0.000000,  0.000000 
 208907888.000000, -0.392423 , 3.873980, 8.908479, 340437792.000000, 0.070000,  0.420000,  0.070000, 0.000000,  0.000000 
 208927888.000000, -0.435494 , 3.933800, 8.841480, 340457792.000000, 0.280000,  0.560000,  -0.210000, 0.000000,  0.000000 
 208947888.000000, -0.378066 , 3.926622, 8.843873, 340477760.000000, 0.280000,  0.420000,  -0.140000, 0.000000,  0.000000 
 208968176.000000, -0.366102 , 3.780660, 8.932407, 340497760.000000, -1.400000,  0.210000,  0.280000, 0.000000,  0.000000 
 208987856.000000, -0.358923 , 3.749553, 8.939585, 340518048.000000, -2.170000,  0.210000,  0.280000, 0.000000,  0.000000 
 209007856.000000, -0.370888 , 3.826123, 8.937192, 340537728.000000, -0.840000,  0.280000,  0.140000, 0.000000,  0.000000 
 209027856.000000, -0.404387 , 3.955336, 8.843873, 340557728.000000, 1.190000,  0.280000,  0.210000, 0.000000,  0.000000 
 209047824.000000, -0.406780 , 3.952943, 8.853443, 340577728.000000, 1.540000,  0.420000,  -0.070000, 0.000000,  0.000000 
 209068112.000000, -0.409173 , 3.890730, 8.865408, 340597696.000000, 0.420000,  0.490000,  -0.070000, 0.000000,  0.000000 
 209087824.000000, -0.399601 , 3.821337, 8.889337, 340617984.000000, -1.120000,  0.490000,  -0.070000, 0.000000,  0.000000 
 209107792.000000, -0.399601 , 3.818945, 8.927622, 340637696.000000, -1.960000,  0.420000,  0.070000, 0.000000,  0.000000 
 209127792.000000, -0.421137 , 3.778267, 8.920443, 340677664.000000, -0.910000,  0.350000,  -0.070000, 340676928.000000,  1008.912537 
 209147760.000000, -0.390030 , 3.814159, 8.867801, 0.000000, 0.000000,  0.000000,  0.000000, 0.000000,  0.000000 
 209168080.000000, -0.387637 , 3.878766, 8.906086, 340697664.000000, 0.210000,  0.350000,  -0.070000, 0.000000,  0.000000 
 209187760.000000, -0.385244 , 3.945765, 8.915657, 340717952.000000, 0.700000,  0.350000,  0.070000, 0.000000,  0.000000 
 209207728.000000, -0.390030 , 3.828516, 8.879765, 340737632.000000, 0.700000,  0.280000,  0.070000, 0.000000,  0.000000 
 209227760.000000, -0.399601 , 3.857230, 8.882158, 340757632.000000, -0.560000,  0.280000,  0.070000, 0.000000,  0.000000 
 209247728.000000, -0.425922 , 3.866802, 8.898908, 340777632.000000, -0.560000,  0.420000,  0.070000, 0.000000,  0.000000 
 209268016.000000, -0.404387 , 3.857230, 8.913264, 340797600.000000, -0.490000,  0.420000,  0.070000, 0.000000,  0.000000 
 209287696.000000, -0.358923 , 3.799802, 8.860621, 340817888.000000, -0.490000,  0.350000,  0.210000, 0.000000,  0.000000 
 209307696.000000, -0.382852 , 3.902694, 8.884550, 340837568.000000, -0.210000,  0.210000,  0.140000, 0.000000,  0.000000 
 209327664.000000, -0.392423 , 3.885944, 8.884550, 340857568.000000, 0.070000,  0.280000,  0.210000, 0.000000,  0.000000 
 209347664.000000, -0.385244 , 3.857230, 8.920443, 340877568.000000, -0.140000,  0.350000,  0.070000, 0.000000,  0.000000 
 209367952.000000, -0.411566 , 3.833302, 8.896514, 340897536.000000, -0.420000,  0.420000,  0.070000, 0.000000,  0.000000 
 209387632.000000, -0.356531 , 3.893122, 8.920443, 340917824.000000, -0.490000,  0.350000,  -0.070000, 0.000000,  0.000000 
 209407632.000000, -0.401994 , 3.876373, 8.910872, 340937536.000000, -0.560000,  0.350000,  -0.070000, 0.000000,  0.000000 
 209427600.000000, -0.368495 , 3.905087, 8.925228, 340957504.000000, -0.490000,  0.420000,  -0.070000, 0.000000,  0.000000 
 209447600.000000, -0.378066 , 3.847659, 8.865408, 340977504.000000, -0.350000,  0.350000,  -0.070000, 0.000000,  0.000000 
 209467920.000000, -0.392423 , 3.859623, 8.889337, 340997472.000000, -0.280000,  0.350000,  -0.070000, 0.000000,  0.000000 
 209487568.000000, -0.382852 , 3.845266, 8.889337, 341017792.000000, -0.210000,  0.350000,  -0.070000, 0.000000,  0.000000 
 209507568.000000, -0.351745 , 3.821337, 8.889337, 341037472.000000, -0.140000,  0.420000,  0.070000, 0.000000,  0.000000 
 209527568.000000, -0.382852 , 3.701697, 9.042477, 341057440.000000, 0.070000,  0.350000,  0.140000, 0.000000,  0.000000 
 209547536.000000, -0.380459 , 3.876373, 8.889337, 341077440.000000, 1.330000,  0.630000,  0.070000, 0.000000,  0.000000 
 209567856.000000, -0.387637 , 4.015156, 8.781659, 341097408.000000, 3.570000,  0.630000,  0.420000, 0.000000,  0.000000 
 209587536.000000, -0.421137 , 4.039084, 8.863015, 341117728.000000, 3.010000,  0.140000,  -0.070000, 0.000000,  0.000000 
 209607504.000000, -0.370888 , 3.950550, 8.884550, 341137408.000000, 0.770000,  0.350000,  0.210000, 0.000000,  0.000000 
 209627504.000000, -0.373280 , 3.859623, 8.894121, 341157376.000000, -0.980000,  0.560000,  0.210000, 0.000000,  0.000000 
 209647504.000000, -0.346959 , 3.833302, 8.927622, 341177376.000000, -1.750000,  0.490000,  0.210000, 0.000000,  0.000000 
 209667792.000000, -0.418744 , 3.850052, 8.918050, 341197376.000000, -1.120000,  0.350000,  0.140000, 0.000000,  0.000000 
 209687472.000000, -0.394816 , 3.869194, 8.913264, 341217664.000000, -0.070000,  0.280000,  0.140000, 0.000000,  0.000000 
 209707472.000000, -0.392423 , 3.931407, 8.843873, 341237344.000000, 0.770000,  0.420000,  0.070000, 0.000000,  0.000000 
 209727440.000000, -0.466600 , 4.027121, 8.793623, 341257344.000000, 1.190000,  0.560000,  -0.280000, 0.000000,  0.000000 
 209747440.000000, -0.392423 , 3.926622, 8.834301, 341277312.000000, 0.490000,  0.420000,  -0.140000, 0.000000,  0.000000 
 209767760.000000, -0.363709 , 3.838088, 8.913264, 341317632.000000, -2.800000,  0.280000,  0.280000, 0.000000,  0.000000 
 209787408.000000, -0.363709 , 3.768696, 8.953942, 0.000000, 0.000000,  0.000000,  0.000000, 0.000000,  0.000000 
 209807408.000000, -0.399601 , 3.840480, 8.920443, 341337280.000000, -1.610000,  0.280000,  0.140000, 0.000000,  0.000000 
 209827408.000000, -0.397209 , 3.912265, 8.891729, 341357280.000000, 0.840000,  0.210000,  0.140000, 0.000000,  0.000000 
 209847376.000000, -0.418744 , 3.996014, 8.824730, 341377280.000000, 1.960000,  0.350000,  0.140000, 0.000000,  0.000000 
 209867696.000000, -0.392423 , 3.960121, 8.863015, 341397248.000000, 1.260000,  0.490000,  -0.070000, 0.000000,  0.000000 
 209887376.000000, -0.421137 , 3.917051, 8.884550, 341417568.000000, -0.350000,  0.420000,  -0.070000, 0.000000,  0.000000 
 209907344.000000, -0.399601 , 3.873980, 8.944371, 341437248.000000, -1.680000,  0.490000,  0.070000, 0.000000,  0.000000 
 209927344.000000, -0.382852 , 3.838088, 8.939585, 341457216.000000, -2.100000,  0.420000,  0.070000, 0.000000,  0.000000 
 209947312.000000, -0.385244 , 3.873980, 8.886944, 341477216.000000, -1.330000,  0.420000,  0.070000, 0.000000,  0.000000 
 209967632.000000, -0.387637 , 3.897908, 8.901299, 341497216.000000, 0.070000,  0.350000,  0.070000, 0.000000,  0.000000 
 209987312.000000, -0.356531 , 3.926622, 8.874979, 341517504.000000, 0.910000,  0.350000,  0.070000, 0.000000,  0.000000 
 210007280.000000, -0.378066 , 3.926622, 8.848659, 341537184.000000, 0.560000,  0.420000,  0.070000, 0.000000,  0.000000 
 210027280.000000, -0.337388 , 3.909872, 8.879765, 341557184.000000, 0.560000,  0.350000,  0.070000, 0.000000,  0.000000 
 210047280.000000, -0.435494 , 3.929015, 8.934800, 341577152.000000, -0.210000,  0.420000,  0.070000, 0.000000,  0.000000 
 210067568.000000, -0.416351 , 3.905087, 8.901299, 341597152.000000, -0.420000,  0.490000,  -0.070000, 0.000000,  0.000000 
 210087248.000000, -0.399601 , 3.900301, 8.896514, 341617440.000000, -0.630000,  0.490000,  -0.070000, 0.000000,  0.000000 
 210107248.000000, -0.358923 , 3.885944, 8.870193, 341637120.000000, -0.420000,  0.280000,  0.140000, 0.000000,  0.000000 
 210127216.000000, -0.421137 , 3.890730, 8.908479, 341657120.000000, 0.070000,  0.280000,  0.140000, 0.000000,  0.000000 
 210147216.000000, -0.380459 , 3.883551, 8.884550, 341677120.000000, 0.070000,  0.350000,  0.070000, 341676384.000000,  1008.910889 
 210167504.000000, -0.428315 , 3.931407, 8.831908, 341697088.000000, -0.070000,  0.420000,  -0.070000, 0.000000,  0.000000 
 210187184.000000, -0.387637 , 3.926622, 8.872586, 341717408.000000, -0.350000,  0.490000,  -0.070000, 0.000000,  0.000000 
 210207184.000000, -0.366102 , 3.881158, 8.853443, 341737088.000000, -0.630000,  0.350000,  -0.070000, 0.000000,  0.000000 
 210227216.000000, -0.418744 , 3.873980, 8.860621, 341757056.000000, -0.840000,  0.350000,  -0.070000, 0.000000,  0.000000 
 210247152.000000, -0.442672 , 3.890730, 8.939585, 341777088.000000, -0.770000,  0.420000,  0.070000, 0.000000,  0.000000 
 210267472.000000, -0.411566 , 3.854837, 8.865408, 341797024.000000, -0.420000,  0.350000,  0.070000, 0.000000,  0.000000 
 210287152.000000, -0.418744 , 3.905087, 8.853443, 341817344.000000, 0.070000,  0.350000,  0.070000, 0.000000,  0.000000 
 210307280.000000, -0.361316 , 3.917051, 8.884550, 341837024.000000, 0.140000,  0.420000,  0.070000, 0.000000,  0.000000 
 210327120.000000, -0.378066 , 3.871587, 8.901299, 341857184.000000, -0.140000,  0.420000,  0.070000, 0.000000,  0.000000 
 210347120.000000, -0.368495 , 3.893122, 8.882158, 341876992.000000, -0.280000,  0.420000,  0.070000, 0.000000,  0.000000 
 210367408.000000, -0.397209 , 3.940979, 8.882158, 341917280.000000, -0.210000,  0.420000,  0.070000, 0.000000,  0.000000 
 210387088.000000, -0.385244 , 3.900301, 8.877372, 0.000000, 0.000000,  0.000000,  0.000000, 0.000000,  0.000000 
 210407088.000000, -0.399601 , 3.919443, 8.829515, 341936960.000000, -0.280000,  0.280000,  0.070000, 0.000000,  0.000000 
 210427056.000000, -0.404387 , 3.878766, 8.855836, 341956960.000000, -0.420000,  0.350000,  0.070000, 0.000000,  0.000000 
 210447056.000000, -0.413958 , 3.871587, 8.872586, 341976928.000000, -0.630000,  0.490000,  0.070000, 0.000000,  0.000000 
 210467344.000000, -0.358923 , 3.816552, 8.863015, 341996928.000000, -0.560000,  0.420000,  0.070000, 0.000000,  0.000000 
 210487024.000000, -0.401994 , 3.897908, 8.884550, 342017216.000000, -0.140000,  0.350000,  0.070000, 0.000000,  0.000000 
 210507024.000000, -0.334995 , 3.873980, 8.879765, 342036896.000000, 0.210000,  0.350000,  0.070000, 0.000000,  0.000000 
 210527024.000000, -0.366102 , 3.902694, 8.925228, 342056896.000000, 0.140000,  0.350000,  0.070000, 0.000000,  0.000000 
 210546992.000000, -0.425922 , 3.940979, 8.827123, 342076896.000000, 0.140000,  0.420000,  -0.140000, 0.000000,  0.000000 
 210567312.000000, -0.416351 , 3.976871, 8.872586, 342096864.000000, 0.140000,  0.490000,  -0.280000, 0.000000,  0.000000 
 210586992.000000, -0.442672 , 3.866802, 8.863015, 342117184.000000, -0.700000,  0.350000,  0.070000, 0.000000,  0.000000 
 210606960.000000, -0.440279 , 3.756732, 8.903693, 342136864.000000, -1.960000,  0.280000,  0.210000, 0.000000,  0.000000 
 210627120.000000, -0.339781 , 3.854837, 8.937192, 342156832.000000, -1.680000,  0.210000,  0.280000, 0.000000,  0.000000 
 210646928.000000, -0.337388 , 3.902694, 8.867801, 342176992.000000, 0.280000,  0.210000,  0.210000, 0.000000,  0.000000 
 210667248.000000, -0.375673 , 3.976871, 8.884550, 342196832.000000, 1.540000,  0.420000,  0.070000, 0.000000,  0.000000 
 210686928.000000, -0.385244 , 3.957729, 8.855836, 342217120.000000, 1.260000,  0.420000,  0.070000, 0.000000,  0.000000 
 210706896.000000, -0.356531 , 3.936193, 8.870193, 342236800.000000, 0.210000,  0.350000,  0.070000, 0.000000,  0.000000 
 210726896.000000, -0.358923 , 3.902694, 8.908479, 342256800.000000, -0.840000,  0.420000,  0.070000, 0.000000,  0.000000 
 210746896.000000, -0.351745 , 3.859623, 8.918050, 342276768.000000, -1.400000,  0.490000,  0.070000, 0.000000,  0.000000 
 210767184.000000, -0.411566 , 3.869194, 8.922836, 342296768.000000, -1.120000,  0.350000,  0.070000, 0.000000,  0.000000 
 210786864.000000, -0.366102 , 3.854837, 8.860621, 342317056.000000, -0.280000,  0.350000,  0.070000, 0.000000,  0.000000 
 210806864.000000, -0.361316 , 3.931407, 8.894121, 342336736.000000, 0.560000,  0.350000,  0.070000, 0.000000,  0.000000 
 210826864.000000, -0.370888 , 3.940979, 8.886944, 342356736.000000, 0.490000,  0.350000,  0.140000, 0.000000,  0.000000 
 210846832.000000, -0.387637 , 3.900301, 8.877372, 342376736.000000, -0.140000,  0.280000,  0.070000, 0.000000,  0.000000 
 210867120.000000, -0.437887 , 3.933800, 8.877372, 342396736.000000, -0.280000,  0.420000,  0.070000, 0.000000,  0.000000 
 210886832.000000, -0.409173 , 3.902694, 8.898908, 342417024.000000, -0.280000,  0.490000,  -0.070000, 0.000000,  0.000000 
 210906800.000000, -0.378066 , 3.850052, 8.879765, 342436704.000000, -0.560000,  0.420000,  0.070000, 0.000000,  0.000000 
 210926800.000000, -0.361316 , 3.828516, 8.865408, 342456672.000000, -0.700000,  0.210000,  0.210000, 0.000000,  0.000000 
 210946800.000000, -0.363709 , 3.893122, 8.874979, 342476672.000000, -0.700000,  0.210000,  0.210000, 0.000000,  0.000000 
 210967088.000000, -0.339781 , 3.976871, 8.853443, 342496672.000000, 0.420000,  0.280000,  0.140000, 0.000000,  0.000000 
 210986768.000000, -0.366102 , 3.895515, 8.853443, 342516960.000000, 0.210000,  0.420000,  -0.070000, 0.000000,  0.000000 
 211006768.000000, -0.390030 , 3.902694, 8.831908, 342536640.000000, -0.420000,  0.350000,  -0.070000, 0.000000,  0.000000 
 211026736.000000, -0.390030 , 3.888337, 8.884550, 342556640.000000, -0.770000,  0.280000,  0.070000, 0.000000,  0.000000 
 211046736.000000, -0.418744 , 3.919443, 8.889337, 342576608.000000, -0.700000,  0.420000,  0.070000, 0.000000,  0.000000 
 211067024.000000, -0.428315 , 3.895515, 8.877372, 342596608.000000, -0.560000,  0.420000,  0.070000, 0.000000,  0.000000 
 211086704.000000, -0.382852 , 3.912265, 8.879765, 342616896.000000, -0.350000,  0.350000,  0.070000, 0.000000,  0.000000 
 211106704.000000, -0.356531 , 3.914658, 8.865408, 342636576.000000, -0.070000,  0.350000,  0.070000, 0.000000,  0.000000 
 211126704.000000, -0.421137 , 3.907479, 8.860621, 342656576.000000, -0.210000,  0.420000,  0.070000, 0.000000,  0.000000 
 211146672.000000, -0.392423 , 3.914658, 8.894121, 342676576.000000, -0.280000,  0.350000,  0.140000, 342675840.000000,  1008.911194 
 211166960.000000, -0.380459 , 3.912265, 8.944371, 342696544.000000, -0.280000,  0.420000,  0.140000, 0.000000,  0.000000 
 211186640.000000, -0.413958 , 3.890730, 8.874979, 342716864.000000, -0.280000,  0.350000,  0.070000, 0.000000,  0.000000 
 211206640.000000, -0.382852 , 3.895515, 8.843873, 342736544.000000, 0.140000,  0.280000,  0.140000, 0.000000,  0.000000 
 211226672.000000, -0.368495 , 3.938586, 8.877372, 342756512.000000, -0.140000,  0.350000,  0.070000, 0.000000,  0.000000 
 211246608.000000, -0.397209 , 3.850052, 8.898908, 342776544.000000, -0.490000,  0.420000,  0.070000, 0.000000,  0.000000 
 211266928.000000, -0.409173 , 3.895515, 8.879765, 342796480.000000, -0.560000,  0.420000,  0.070000, 0.000000,  0.000000 
 211286608.000000, -0.416351 , 3.888337, 8.867801, 342816800.000000, -0.280000,  0.350000,  0.140000, 0.000000,  0.000000 
 211306576.000000, -0.356531 , 3.871587, 8.898908, 342836480.000000, -0.280000,  0.420000,  0.280000, 0.000000,  0.000000 
 211326576.000000, -0.423530 , 3.931407, 8.906086, 342856448.000000, 0.140000,  0.420000,  0.140000, 0.000000,  0.000000 
 211346544.000000, -0.421137 , 4.010371, 8.841480, 342876448.000000, 0.210000,  0.490000,  -0.210000, 0.000000,  0.000000 
 211366864.000000, -0.399601 , 3.986443, 8.855836, 342896448.000000, 0.140000,  0.560000,  -0.350000, 0.000000,  0.000000 
 211386544.000000, -0.323031 , 3.873980, 8.918050, 342916736.000000, -1.120000,  0.350000,  0.140000, 0.000000,  0.000000 
 211406512.000000, -0.342174 , 3.737589, 8.930015, 342936416.000000, -2.240000,  0.210000,  0.350000, 0.000000,  0.000000 
 211426512.000000, -0.373280 , 3.826123, 8.898908, 342956416.000000, -1.190000,  0.210000,  0.210000, 0.000000,  0.000000 
 211446512.000000, -0.387637 , 3.974478, 8.886944, 342976384.000000, 0.980000,  0.280000,  0.070000, 0.000000,  0.000000 
 211466800.000000, -0.375673 , 3.993621, 8.851050, 342996384.000000, 1.890000,  0.350000,  0.070000, 0.000000,  0.000000 
 211486480.000000, -0.387637 , 3.943372, 8.853443, 343016704.000000, 0.840000,  0.420000,  0.070000, 0.000000,  0.000000 
 211506480.000000, -0.370888 , 3.902694, 8.872586, 343036352.000000, -0.630000,  0.350000,  -0.070000, 0.000000,  0.000000 
 211526448.000000, -0.387637 , 3.888337, 8.874979, 343056352.000000, -1.400000,  0.420000,  0.070000, 0.000000,  0.000000 
 211546448.000000, -0.418744 , 3.852444, 8.882158, 343076352.000000, -1.680000,  0.420000,  -0.070000, 0.000000,  0.000000 
 211566768.000000, -0.385244 , 3.881158, 8.920443, 343096320.000000, -1.190000,  0.420000,  -0.070000, 0.000000,  0.000000 
 211586416.000000, -0.363709 , 3.917051, 8.860621, 343116640.000000, -0.210000,  0.280000,  0.140000, 0.000000,  0.000000 
 211606416.000000, -0.394816 , 3.933800, 8.896514, 343136320.000000, 0.490000,  0.350000,  0.070000, 0.000000,  0.000000 
 211626416.000000, -0.375673 , 3.909872, 8.865408, 343156288.000000, 0.210000,  0.350000,  0.210000, 0.000000,  0.000000 
 211646384.000000, -0.370888 , 3.902694, 8.870193, 343176288.000000, -0.280000,  0.280000,  0.070000, 0.000000,  0.000000 
 211666704.000000, -0.378066 , 3.945765, 8.836694, 343196256.000000, -0.210000,  0.350000,  0.070000, 0.000000,  0.000000 
 211686384.000000, -0.442672 , 3.895515, 8.898908, 343216576.000000, -0.210000,  0.490000,  0.070000, 0.000000,  0.000000 
 211706352.000000, -0.382852 , 3.862016, 8.858230, 343236256.000000, -0.560000,  0.350000,  0.070000, 0.000000,  0.000000 
 211726352.000000, -0.375673 , 3.943372, 8.867801, 343256224.000000, -0.490000,  0.210000,  0.280000, 0.000000,  0.000000 
 211746352.000000, -0.354138 , 3.912265, 8.848659, 343276224.000000, -0.210000,  0.210000,  0.210000, 0.000000,  0.000000 
 211766640.000000, -0.382852 , 3.938586, 8.884550, 343296224.000000, -0.210000,  0.420000,  0.140000, 0.000000,  0.000000 
 211786320.000000, -0.361316 , 3.936193, 8.877372, 343316544.000000, -0.140000,  0.420000,  -0.070000, 0.000000,  0.000000 
 211806288.000000, -0.442672 , 3.902694, 8.874979, 343336192.000000, -0.490000,  0.420000,  -0.070000, 0.000000,  0.000000 
 211826288.000000, -0.378066 , 3.950550, 8.870193, 343356192.000000, -0.700000,  0.490000,  -0.070000, 0.000000,  0.000000 
 211846288.000000, -0.373280 , 3.888337, 8.915657, 343376160.000000, -0.840000,  0.420000,  0.070000, 0.000000,  0.000000 
 211866576.000000, -0.416351 , 3.876373, 8.913264, 343396160.000000, -0.770000,  0.420000,  0.070000, 0.000000,  0.000000 
 211886256.000000, -0.411566 , 3.890730, 8.872586, 343416448.000000, -0.490000,  0.350000,  0.070000, 0.000000,  0.000000 
 211906256.000000, -0.378066 , 3.902694, 8.851050, 343436128.000000, -0.210000,  0.420000,  0.070000, 0.000000,  0.000000 
 211926224.000000, -0.442672 , 3.888337, 8.896514, 343456128.000000, -0.140000,  0.420000,  0.070000, 0.000000,  0.000000 
 211946224.000000, -0.399601 , 3.940979, 8.901299, 343476128.000000, -0.070000,  0.420000,  0.070000, 0.000000,  0.000000 
 211966544.000000, -0.346959 , 3.931407, 8.874979, 343496096.000000, -0.140000,  0.420000,  0.070000, 0.000000,  0.000000 
 211986192.000000, -0.370888 , 3.943372, 8.824730, 343516416.000000, -0.140000,  0.280000,  0.070000, 0.000000,  0.000000 
 212006192.000000, -0.356531 , 3.900301, 8.870193, 343536096.000000, -0.280000,  0.350000,  0.070000, 0.000000,  0.000000 
 212026192.000000, -0.397209 , 3.905087, 8.839087, 343556064.000000, -0.420000,  0.420000,  0.070000, 0.000000,  0.000000 
 212046160.000000, -0.397209 , 3.883551, 8.872586, 343576064.000000, -0.630000,  0.420000,  0.070000, 0.000000,  0.000000 
 212066480.000000, -0.354138 , 3.964907, 8.879765, 343596064.000000, -0.630000,  0.350000,  0.070000, 0.000000,  0.000000 
 212086160.000000, -0.375673 , 3.854837, 8.863015, 343616352.000000, -0.350000,  0.280000,  0.140000, 0.000000,  0.000000 
 212106128.000000, -0.366102 , 3.972085, 8.927622, 343636032.000000, -0.280000,  0.280000,  0.210000, 0.000000,  0.000000 
 212126128.000000, -0.425922 , 3.905087, 8.836694, 343676000.000000, 0.280000,  0.560000,  -0.350000, 343675264.000000,  1008.912537 
 212146128.000000, -0.433101 , 3.996014, 8.906086, 0.000000, 0.000000,  0.000000,  0.000000, 0.000000,  0.000000 
 212166416.000000, -0.373280 , 3.895515, 8.894121, 343696000.000000, -0.070000,  0.420000,  -0.070000, 0.000000,  0.000000 
 212186096.000000, -0.361316 , 3.814159, 8.910872, 343716288.000000, -1.610000,  0.140000,  0.350000, 0.000000,  0.000000 
 212206096.000000, -0.354138 , 3.818945, 8.941978, 343735968.000000, -2.030000,  0.210000,  0.280000, 0.000000,  0.000000 
 212226128.000000, -0.373280 , 3.936193, 8.891729, 343755968.000000, -0.420000,  0.280000,  0.210000, 0.000000,  0.000000 
 212246064.000000, -0.416351 , 4.012764, 8.848659, 343776000.000000, 1.400000,  0.280000,  0.070000, 0.000000,  0.000000 
 212266352.000000, -0.394816 , 4.005585, 8.803195, 343795936.000000, 1.470000,  0.420000,  -0.140000, 0.000000,  0.000000 
 212286032.000000, -0.375673 , 3.936193, 8.858230, 343816256.000000, 0.280000,  0.420000,  -0.140000, 0.000000,  0.000000 
 212306032.000000, -0.404387 , 3.883551, 8.894121, 343835904.000000, -1.190000,  0.350000,  0.070000, 0.000000,  0.000000 
 212326032.000000, -0.390030 , 3.852444, 8.867801, 343855904.000000, -2.030000,  0.420000,  0.070000, 0.000000,  0.000000 
 212346000.000000, -0.361316 , 3.826123, 8.894121, 343875904.000000, -1.750000,  0.420000,  -0.070000, 0.000000,  0.000000 
 212366320.000000, -0.387637 , 3.850052, 8.860621, 343895872.000000, -0.630000,  0.350000,  -0.070000, 0.000000,  0.000000 
 212386000.000000, -0.390030 , 3.936193, 8.865408, 343916192.000000, 0.420000,  0.350000,  -0.070000, 0.000000,  0.000000 
 212405968.000000, -0.356531 , 3.945765, 8.855836, 343935872.000000, 0.700000,  0.350000,  -0.070000, 0.000000,  0.000000 
 212425968.000000, -0.378066 , 3.893122, 8.867801, 343955840.000000, 0.140000,  0.280000,  0.070000, 0.000000,  0.000000 
 212445968.000000, -0.390030 , 3.948158, 8.848659, 343975840.000000, -0.350000,  0.280000,  0.070000, 0.000000,  0.000000 
 212466256.000000, -0.404387 , 3.902694, 8.858230, 343995840.000000, -0.280000,  0.420000,  -0.070000, 0.000000,  0.000000 
 212485936.000000, -0.423530 , 3.878766, 8.920443, 344016128.000000, -0.700000,  0.420000,  -0.070000, 0.000000,  0.000000 
 212505936.000000, -0.399601 , 3.883551, 8.858230, 344035808.000000, -0.910000,  0.350000,  0.140000, 0.000000,  0.000000 
 212525904.000000, -0.342174 , 3.881158, 8.860621, 344055808.000000, -0.490000,  0.280000,  0.140000, 0.000000,  0.000000 
 212545904.000000, -0.361316 , 3.950550, 8.901299, 344075776.000000, -0.490000,  0.350000,  0.070000, 0.000000,  0.000000 
 212566192.000000, -0.442672 , 3.936193, 8.872586, 344095776.000000, 0.070000,  0.420000,  -0.070000, 0.000000,  0.000000 
 212585872.000000, -0.378066 , 3.909872, 8.863015, 344116064.000000, -0.280000,  0.420000,  -0.070000, 0.000000,  0.000000 
 212605872.000000, -0.399601 , 3.914658, 8.872586, 344135744.000000, -0.560000,  0.350000,  -0.070000, 0.000000,  0.000000 
 212625872.000000, -0.354138 , 3.876373, 8.915657, 344155744.000000, -0.770000,  0.420000,  0.070000, 0.000000,  0.000000 
 212645840.000000, -0.404387 , 3.871587, 8.884550, 344175744.000000, -0.910000,  0.420000,  0.070000, 0.000000,  0.000000 
 212666128.000000, -0.370888 , 3.919443, 8.879765, 344195712.000000, -0.420000,  0.350000,  0.070000, 0.000000,  0.000000 
 212685840.000000, -0.454636 , 3.979264, 8.906086, 344216032.000000, -0.420000,  0.280000,  0.070000, 0.000000,  0.000000 
 212705808.000000, -0.413958 , 3.912265, 8.851050, 344235712.000000, -0.070000,  0.350000,  0.070000, 0.000000,  0.000000 
 212725808.000000, -0.413958 , 3.876373, 8.906086, 344255680.000000, -0.490000,  0.420000,  0.070000, 0.000000,  0.000000 
 212745808.000000, -0.380459 , 3.938586, 8.925228, 344275680.000000, -0.490000,  0.420000,  0.070000, 0.000000,  0.000000 
 212766096.000000, -0.368495 , 3.948158, 8.858230, 344295680.000000, -0.280000,  0.420000,  0.070000, 0.000000,  0.000000 
 212785776.000000, -0.370888 , 3.917051, 8.829515, 344315968.000000, -0.070000,  0.350000,  0.070000, 0.000000,  0.000000 
 212805776.000000, -0.399601 , 3.907479, 8.870193, 344335648.000000, -0.140000,  0.420000,  0.070000, 0.000000,  0.000000 
 212825744.000000, -0.418744 , 3.905087, 8.867801, 344355648.000000, -0.350000,  0.420000,  0.070000, 0.000000,  0.000000 
 212845744.000000, -0.385244 , 3.893122, 8.906086, 344375616.000000, -0.630000,  0.490000,  0.070000, 0.000000,  0.000000 
 212866032.000000, -0.334995 , 3.869194, 8.843873, 344395616.000000, -0.630000,  0.420000,  0.070000, 0.000000,  0.000000 
 212885712.000000, -0.361316 , 3.907479, 8.891729, 344415904.000000, -0.280000,  0.350000,  0.140000, 0.000000,  0.000000 
 212905712.000000, -0.311067 , 3.866802, 8.896514, 344435584.000000, -0.070000,  0.420000,  0.140000, 0.000000,  0.000000 
 212925712.000000, -0.459422 , 3.902694, 8.867801, 344455584.000000, 0.070000,  0.420000,  0.140000, 0.000000,  0.000000 
 212945680.000000, -0.430708 , 3.976871, 8.831908, 344475584.000000, 0.420000,  0.560000,  -0.280000, 0.000000,  0.000000 
 212965968.000000, -0.392423 , 3.921836, 8.874979, 344495552.000000, -0.350000,  0.350000,  -0.280000, 0.000000,  0.000000 
 212985680.000000, -0.361316 , 3.785445, 8.896514, 344515872.000000, -1.820000,  0.280000,  0.210000, 0.000000,  0.000000 
 213005648.000000, -0.330210 , 3.787838, 8.941978, 344535552.000000, -1.960000,  0.210000,  0.280000, 0.000000,  0.000000 
 213025648.000000, -0.358923 , 3.924229, 8.867801, 344555520.000000, -0.420000,  0.210000,  0.280000, 0.000000,  0.000000 
 213045648.000000, -0.375673 , 3.917051, 8.874979, 344575520.000000, 1.260000,  0.350000,  0.140000, 0.000000,  0.000000 
 213065936.000000, -0.399601 , 3.940979, 8.822337, 344595520.000000, 1.330000,  0.490000,  -0.070000, 0.000000,  0.000000 
 213085616.000000, -0.382852 , 3.919443, 8.819944, 344615808.000000, 0.280000,  0.420000,  -0.070000, 0.000000,  0.000000 
 213105584.000000, -0.416351 , 3.909872, 8.882158, 344635488.000000, -0.910000,  0.420000,  0.070000, 0.000000,  0.000000 
 213125584.000000, -0.418744 , 3.842873, 8.891729, 344655456.000000, -1.680000,  0.490000,  0.070000, 0.000000,  0.000000 
 213145584.000000, -0.375673 , 3.842873, 8.891729, 344675456.000000, -1.610000,  0.420000,  0.070000, 344674720.000000,  1008.911743 
 213165872.000000, -0.358923 , 3.869194, 8.865408, 344695456.000000, -0.770000,  0.350000,  -0.070000, 0.000000,  0.000000 
 213185552.000000, -0.401994 , 3.929015, 8.898908, 344715744.000000, 0.210000,  0.350000,  0.070000, 0.000000,  0.000000 
 213205520.000000, -0.378066 , 3.921836, 8.865408, 344735424.000000, 0.560000,  0.420000,  0.070000, 0.000000,  0.000000 
 213225552.000000, -0.378066 , 3.909872, 8.877372, 344755424.000000, 0.210000,  0.350000,  0.140000, 0.000000,  0.000000 
 213245520.000000, -0.399601 , 3.914658, 8.870193, 344775424.000000, -0.350000,  0.350000,  0.070000, 0.000000,  0.000000 
 213265840.000000, -0.406780 , 3.948158, 8.901299, 344795392.000000, -0.280000,  0.490000,  -0.070000, 0.000000,  0.000000 
 213285488.000000, -0.430708 , 3.890730, 8.867801, 344815712.000000, -0.490000,  0.490000,  -0.070000, 0.000000,  0.000000 
 213305488.000000, -0.368495 , 3.869194, 8.863015, 344835360.000000, -0.770000,  0.280000,  0.140000, 0.000000,  0.000000 
 213325456.000000, -0.411566 , 3.972085, 8.896514, 344855360.000000, -0.490000,  0.210000,  0.210000, 0.000000,  0.000000 
 213345456.000000, -0.370888 , 3.948158, 8.872586, 344875360.000000, 0.070000,  0.280000,  0.140000, 0.000000,  0.000000 
 213365872.000000, -0.425922 , 3.948158, 8.877372, 344895328.000000, 0.070000,  0.420000,  -0.070000, 0.000000,  0.000000 
 213385424.000000, -0.430708 , 3.900301, 8.863015, 344915744.000000, -0.210000,  0.420000,  -0.070000, 0.000000,  0.000000 
 213405424.000000, -0.428315 , 3.876373, 8.886944, 344935328.000000, -0.630000,  0.350000,  -0.070000, 0.000000,  0.000000 
 213425424.000000, -0.416351 , 3.893122, 8.879765, 344955296.000000, -0.910000,  0.420000,  0.070000, 0.000000,  0.000000 
 213445392.000000, -0.397209 , 3.888337, 8.894121, 344975296.000000, -0.840000,  0.420000,  0.070000, 0.000000,  0.000000 
 213465712.000000, -0.385244 , 3.881158, 8.865408, 344995264.000000, -0.280000,  0.280000,  0.070000, 0.000000,  0.000000 
 213485392.000000, -0.404387 , 3.902694, 8.843873, 345015584.000000, 0.140000,  0.350000,  0.070000, 0.000000,  0.000000 
 213505360.000000, -0.378066 , 3.909872, 8.882158, 345035264.000000, 0.140000,  0.350000,  0.070000, 0.000000,  0.000000 
 213525360.000000, -0.435494 , 3.900301, 8.894121, 345055232.000000, -0.280000,  0.420000,  0.070000, 0.000000,  0.000000 
 213545360.000000, -0.382852 , 3.919443, 8.872586, 345075232.000000, -0.560000,  0.420000,  0.070000, 0.000000,  0.000000 
 213565648.000000, -0.416351 , 3.921836, 8.898908, 345095232.000000, -0.490000,  0.350000,  0.070000, 0.000000,  0.000000 
 213585328.000000, -0.368495 , 3.933800, 8.841480, 345115552.000000, -0.070000,  0.350000,  0.070000, 0.000000,  0.000000 
 213605328.000000, -0.397209 , 3.960121, 8.872586, 345135200.000000, 0.140000,  0.350000,  0.070000, 0.000000,  0.000000 
 213625296.000000, -0.423530 , 3.933800, 8.855836, 345155200.000000, 0.140000,  0.350000,  0.070000, 0.000000,  0.000000 
 213645296.000000, -0.358923 , 3.907479, 8.865408, 345175168.000000, -0.350000,  0.280000,  0.070000, 0.000000,  0.000000 
 213665584.000000, -0.411566 , 3.931407, 8.896514, 345195168.000000, -0.630000,  0.490000,  0.070000, 0.000000,  0.000000 
 213685264.000000, -0.356531 , 3.854837, 8.901299, 345215488.000000, -0.560000,  0.490000,  0.070000, 0.000000,  0.000000 
 213705264.000000, -0.363709 , 3.909872, 8.896514, 345235136.000000, -0.210000,  0.350000,  0.070000, 0.000000,  0.000000 
 213725264.000000, -0.363709 , 3.940979, 8.898908, 345255136.000000, 0.420000,  0.350000,  0.140000, 0.000000,  0.000000 
 213745232.000000, -0.332602 , 3.945765, 8.848659, 345275136.000000, 0.280000,  0.350000,  0.210000, 0.000000,  0.000000 
 213765552.000000, -0.394816 , 3.921836, 8.831908, 345295104.000000, -0.210000,  0.350000,  0.070000, 0.000000,  0.000000 
 213785232.000000, -0.466600 , 3.981657, 8.841480, 345315424.000000, -0.210000,  0.560000,  -0.280000, 0.000000,  0.000000 
 213805200.000000, -0.404387 , 3.881158, 8.851050, 345335104.000000, -0.630000,  0.490000,  -0.210000, 0.000000,  0.000000 
 213825200.000000, -0.409173 , 3.838088, 8.908479, 345355072.000000, -1.750000,  0.210000,  0.280000, 0.000000,  0.000000 
 213845168.000000, -0.325424 , 3.821337, 8.908479, 345375072.000000, -1.680000,  0.140000,  0.350000, 0.000000,  0.000000 
 213865488.000000, -0.370888 , 3.926622, 8.922836, 345395072.000000, 0.210000,  0.210000,  0.280000, 0.000000,  0.000000 
 213885168.000000, -0.382852 , 3.969693, 8.863015, 345415360.000000, 1.750000,  0.350000,  0.070000, 0.000000,  0.000000 
 213905136.000000, -0.378066 , 4.003192, 8.829515, 345435040.000000, 1.540000,  0.420000,  -0.070000, 0.000000,  0.000000 
 213925136.000000, -0.344566 , 4.010371, 8.853443, 345455040.000000, 0.210000,  0.350000,  -0.070000, 0.000000,  0.000000 
 213945136.000000, -0.404387 , 3.897908, 8.841480, 345475008.000000, -0.980000,  0.420000,  0.070000, 0.000000,  0.000000 
 213965424.000000, -0.401994 , 3.869194, 8.915657, 345495008.000000, -1.540000,  0.490000,  0.070000, 0.000000,  0.000000 
 213985104.000000, -0.390030 , 3.802195, 8.886944, 345515296.000000, -1.470000,  0.420000,  -0.070000, 0.000000,  0.000000 
 214005104.000000, -0.387637 , 3.917051, 8.846266, 345534976.000000, -1.190000,  0.350000,  -0.070000, 0.000000,  0.000000 
 214025072.000000, -0.375673 , 3.952943, 8.870193, 345554976.000000, -0.140000,  0.420000,  0.070000, 0.000000,  0.000000 
 214045072.000000, -0.380459 , 3.974478, 8.853443, 345574976.000000, 0.630000,  0.350000,  0.070000, 0.000000,  0.000000 
 214065392.000000, -0.394816 , 3.936193, 8.882158, 345594944.000000, 0.350000,  0.280000,  0.140000, 0.000000,  0.000000 
 214085040.000000, -0.421137 , 3.890730, 8.882158, 345615264.000000, -0.210000,  0.350000,  0.070000, 0.000000,  0.000000 
 214105040.000000, -0.380459 , 3.938586, 8.906086, 345634944.000000, -0.350000,  0.350000,  0.070000, 0.000000,  0.000000 
 214125040.000000, -0.423530 , 3.917051, 8.872586, 345654912.000000, -0.210000,  0.420000,  -0.070000, 0.000000,  0.000000 
 214145008.000000, -0.368495 , 3.907479, 8.872586, 345674912.000000, -0.420000,  0.420000,  0.070000, 345674176.000000,  1008.910583 
 214165328.000000, -0.356531 , 3.905087, 8.874979, 345694912.000000, -0.350000,  0.210000,  0.280000, 0.000000,  0.000000 
 214185008.000000, -0.342174 , 3.905087, 8.872586, 345715200.000000, -0.350000,  0.210000,  0.210000, 0.000000,  0.000000 
 214204976.000000, -0.385244 , 3.948158, 8.860621, 345734880.000000, -0.350000,  0.350000,  0.140000, 0.000000,  0.000000 
 214225008.000000, -0.394816 , 3.895515, 8.860621, 345754880.000000, -0.140000,  0.420000,  -0.070000, 0.000000,  0.000000 
 214244976.000000, -0.401994 , 3.890730, 8.858230, 345774880.000000, -0.420000,  0.350000,  -0.070000, 0.000000,  0.000000 
 214265264.000000, -0.358923 , 3.912265, 8.851050, 345794848.000000, -0.560000,  0.350000,  -0.070000, 0.000000,  0.000000 
 214284944.000000, -0.394816 , 3.921836, 8.886944, 345815136.000000, -0.630000,  0.420000,  0.070000, 0.000000,  0.000000 
 214305104.000000, -0.399601 , 3.924229, 8.872586, 345834816.000000, -0.630000,  0.420000,  0.070000, 0.000000,  0.000000 
 214324912.000000, -0.363709 , 3.909872, 8.863015, 345854976.000000, -0.350000,  0.350000,  0.070000, 0.000000,  0.000000 
 214344912.000000, -0.406780 , 3.940979, 8.848659, 345874816.000000, -0.070000,  0.350000,  0.070000, 0.000000,  0.000000 
 214365200.000000, -0.394816 , 3.914658, 8.839087, 345894784.000000, -0.140000,  0.420000,  0.070000, 0.000000,  0.000000 
 214384880.000000, -0.387637 , 3.881158, 8.860621, 345915104.000000, -0.350000,  0.420000,  0.140000, 0.000000,  0.000000 
 214404880.000000, -0.440279 , 3.926622, 8.891729, 345934752.000000, -0.350000,  0.350000,  0.140000, 0.000000,  0.000000 
 214424880.000000, -0.390030 , 3.952943, 8.894121, 345954752.000000, -0.070000,  0.420000,  0.070000, 0.000000,  0.000000 
 214444848.000000, -0.390030 , 3.931407, 8.872586, 345974752.000000, -0.070000,  0.420000,  0.070000, 0.000000,  0.000000 
 214465168.000000, -0.399601 , 3.921836, 8.841480, 345994720.000000, -0.070000,  0.280000,  0.140000, 0.000000,  0.000000 
 214484848.000000, -0.339781 , 3.924229, 8.860621, 346015040.000000, -0.420000,  0.420000,  0.140000, 0.000000,  0.000000 
 214504816.000000, -0.358923 , 3.862016, 8.865408, 346034720.000000, -0.630000,  0.490000,  0.140000, 0.000000,  0.000000 
 214524816.000000, -0.406780 , 3.907479, 8.894121, 346054720.000000, -0.630000,  0.420000,  0.070000, 0.000000,  0.000000 
 214544816.000000, -0.370888 , 3.926622, 8.882158, 346074688.000000, -0.420000,  0.350000,  0.140000, 0.000000,  0.000000 
 214565104.000000, -0.346959 , 3.986443, 8.939585, 346094688.000000, -0.070000,  0.420000,  0.140000, 0.000000,  0.000000 
 214584784.000000, -0.378066 , 3.967300, 8.879765, 346114976.000000, -0.070000,  0.420000,  0.140000, 0.000000,  0.000000 
 214604784.000000, -0.437887 , 4.007978, 8.841480, 346134656.000000, 0.140000,  0.490000,  -0.210000, 0.000000,  0.000000 
 214624752.000000, -0.356531 , 4.003192, 8.848659, 346154656.000000, 0.140000,  0.490000,  -0.140000, 0.000000,  0.000000 
 214644752.000000, -0.363709 , 3.821337, 8.891729, 346174656.000000, -1.400000,  0.210000,  0.210000, 0.000000,  0.000000 
 214665040.000000, -0.382852 , 3.768696, 8.908479, 346194624.000000, -2.240000,  0.210000,  0.280000, 0.000000,  0.000000 
 214684720.000000, -0.385244 , 3.854837, 8.937192, 346214912.000000, -0.910000,  0.280000,  0.210000, 0.000000,  0.000000 
 214704720.000000, -0.390030 , 3.988836, 8.874979, 346234624.000000, 1.120000,  0.280000,  0.140000, 0.000000,  0.000000 
 214724720.000000, -0.411566 , 4.003192, 8.819944, 346254592.000000, 1.680000,  0.420000,  0.140000, 0.000000,  0.000000 
 214744688.000000, -0.375673 , 3.972085, 8.867801, 346274592.000000, 0.560000,  0.490000,  -0.070000, 0.000000,  0.000000 
 214765008.000000, -0.421137 , 3.945765, 8.870193, 346294592.000000, -0.840000,  0.420000,  -0.070000, 0.000000,  0.000000 
 214784688.000000, -0.375673 , 3.838088, 8.886944, 346314880.000000, -1.750000,  0.420000,  -0.070000, 0.000000,  0.000000 
 214804656.000000, -0.399601 , 3.835695, 8.882158, 346334560.000000, -1.890000,  0.490000,  -0.070000, 0.000000,  0.000000 
 214824656.000000, -0.409173 , 3.881158, 8.843873, 346354528.000000, -1.050000,  0.350000,  0.070000, 0.000000,  0.000000 
 214844656.000000, -0.390030 , 3.960121, 8.863015, 346374528.000000, 0.140000,  0.350000,  0.070000, 0.000000,  0.000000 
 214864944.000000, -0.406780 , 3.972085, 8.855836, 346394528.000000, 0.560000,  0.420000,  0.070000, 0.000000,  0.000000 
 214884624.000000, -0.421137 , 3.907479, 8.860621, 346414816.000000, 0.210000,  0.350000,  0.140000, 0.000000,  0.000000 
 214904592.000000, -0.346959 , 3.917051, 8.865408, 346434496.000000, -0.350000,  0.350000,  0.070000, 0.000000,  0.000000 
 214924592.000000, -0.385244 , 3.967300, 8.874979, 346454464.000000, -0.350000,  0.420000,  0.070000, 0.000000,  0.000000 
 214944592.000000, -0.401994 , 3.878766, 8.886944, 346474464.000000, -0.490000,  0.490000,  0.070000, 0.000000,  0.000000 
 214964880.000000, -0.406780 , 3.883551, 8.846266, 346494464.000000, -0.770000,  0.350000,  0.070000, 0.000000,  0.000000 
 214984560.000000, -0.308674 , 3.909872, 8.870193, 346514752.000000, -0.630000,  0.210000,  0.210000, 0.000000,  0.000000 
 215004560.000000, -0.413958 , 3.905087, 8.906086, 346534432.000000, -0.210000,  0.280000,  0.140000, 0.000000,  0.000000 
 215024528.000000, -0.346959 , 3.933800, 8.896514, 346554432.000000, -0.210000,  0.350000,  0.140000, 0.000000,  0.000000 
 215044528.000000, -0.363709 , 3.933800, 8.877372, 346574400.000000, -0.420000,  0.420000,  -0.070000, 0.000000,  0.000000 
 215064848.000000, -0.394816 , 3.926622, 8.877372, 346594400.000000, -0.630000,  0.350000,  -0.140000, 0.000000,  0.000000 
 215084496.000000, -0.416351 , 3.924229, 8.920443, 346614720.000000, -0.700000,  0.350000,  -0.140000, 0.000000,  0.000000 
 215104496.000000, -0.382852 , 3.888337, 8.906086, 346634368.000000, -0.770000,  0.490000,  -0.070000, 0.000000,  0.000000 
 215124496.000000, -0.390030 , 3.881158, 8.870193, 346654368.000000, -0.630000,  0.350000,  0.070000, 0.000000,  0.000000 
 215144656.000000, -0.378066 , 3.921836, 8.889337, 346674368.000000, -0.350000,  0.280000,  0.070000, 346673632.000000,  1008.910278 
 215164784.000000, -0.397209 , 3.914658, 8.867801, 346694528.000000, -0.140000,  0.350000,  0.070000, 0.000000,  0.000000 
 215184464.000000, -0.425922 , 3.955336, 8.891729, 346714656.000000, -0.070000,  0.350000,  0.140000, 0.000000,  0.000000 
 215204432.000000, -0.394816 , 3.917051, 8.915657, 346734336.000000, -0.070000,  0.350000,  0.070000, 0.000000,  0.000000 
 215224464.000000, -0.390030 , 3.929015, 8.860621, 346754304.000000, 0.070000,  0.350000,  0.070000, 0.000000,  0.000000 
 215244400.000000, -0.351745 , 3.914658, 8.901299, 346774336.000000, 0.070000,  0.420000,  0.070000, 0.000000,  0.000000 
 215264720.000000, -0.370888 , 3.905087, 8.872586, 346794304.000000, -0.140000,  0.280000,  0.070000, 0.000000,  0.000000 
 215284400.000000, -0.382852 , 3.900301, 8.915657, 346814592.000000, -0.350000,  0.350000,  0.070000, 0.000000,  0.000000 
 215304368.000000, -0.392423 , 3.919443, 8.886944, 346834272.000000, -0.490000,  0.420000,  0.070000, 0.000000,  0.000000 
 215324368.000000, -0.339781 , 3.924229, 8.889337, 346854272.000000, -0.560000,  0.420000,  0.070000, 0.000000,  0.000000 
 215344368.000000, -0.392423 , 3.876373, 8.903693, 346874240.000000, -0.490000,  0.420000,  0.070000, 0.000000,  0.000000 
 215364656.000000, -0.370888 , 3.878766, 8.858230, 346894240.000000, -0.210000,  0.280000,  0.140000, 0.000000,  0.000000 
 215384336.000000, -0.375673 , 3.878766, 8.894121, 346914560.000000, -0.070000,  0.280000,  0.140000, 0.000000,  0.000000 
 215404336.000000, -0.464208 , 3.902694, 8.860621, 346934208.000000, 0.070000,  0.490000,  -0.140000, 0.000000,  0.000000 
 215424304.000000, -0.378066 , 3.998406, 8.822337, 346954208.000000, 0.210000,  0.560000,  -0.350000, 0.000000,  0.000000 
 215444304.000000, -0.361316 , 3.931407, 8.872586, 346974208.000000, -0.420000,  0.350000,  -0.070000, 0.000000,  0.000000 
 215464592.000000, -0.413958 , 3.787838, 8.930015, 346994176.000000, -1.820000,  0.210000,  0.280000, 0.000000,  0.000000 
 215484272.000000, -0.344566 , 3.797409, 8.925228, 347014496.000000, -1.960000,  0.210000,  0.280000, 0.000000,  0.000000 
 215504272.000000, -0.373280 , 3.936193, 8.901299, 347034176.000000, -0.210000,  0.210000,  0.210000, 0.000000,  0.000000 
 215524272.000000, -0.380459 , 4.003192, 8.851050, 347054144.000000, 1.610000,  0.280000,  0.070000, 0.000000,  0.000000 
 215544240.000000, -0.370888 , 3.974478, 8.819944, 347074144.000000, 1.540000,  0.420000,  -0.070000, 0.000000,  0.000000 
 215564560.000000, -0.440279 , 3.952943, 8.865408, 347094112.000000, 0.070000,  0.490000,  -0.070000, 0.000000,  0.000000 
 215584240.000000, -0.370888 , 3.873980, 8.891729, 347114432.000000, -1.400000,  0.350000,  -0.070000, 0.000000,  0.000000 
 215604208.000000, -0.358923 , 3.878766, 8.920443, 347134112.000000, -2.100000,  0.420000,  -0.070000, 0.000000,  0.000000 
 215624208.000000, -0.332602 , 3.840480, 8.906086, 347154080.000000, -1.750000,  0.490000,  -0.140000, 0.000000,  0.000000 
 215644208.000000, -0.382852 , 3.905087, 8.874979, 347174080.000000, -0.490000,  0.350000,  -0.140000, 0.000000,  0.000000 
 215664496.000000, -0.378066 , 3.933800, 8.853443, 347194080.000000, 0.560000,  0.350000,  -0.140000, 0.000000,  0.000000 
 215684176.000000, -0.390030 , 3.952943, 8.827123, 347214368.000000, 0.630000,  0.350000,  0.070000, 0.000000,  0.000000 
 215704176.000000, -0.394816 , 3.921836, 8.860621, 347234048.000000, 0.070000,  0.280000,  0.070000, 0.000000,  0.000000 
 215724144.000000, -0.385244 , 3.895515, 8.896514, 347254048.000000, -0.490000,  0.350000,  0.070000, 0.000000,  0.000000 
 215744144.000000, -0.390030 , 3.938586, 8.863015, 347274016.000000, -0.420000,  0.350000,  -0.140000, 0.000000,  0.000000 
 215764432.000000, -0.342174 , 3.902694, 8.920443, 347294016.000000, -0.490000,  0.490000,  -0.140000, 0.000000,  0.000000 
 215784112.000000, -0.346959 , 3.876373, 8.903693, 347314304.000000, -0.630000,  0.280000,  0.070000, 0.000000,  0.000000 
 215804272.000000, -0.394816 , 3.938586, 8.877372, 347333984.000000, -0.350000,  0.210000,  0.210000, 0.000000,  0.000000 
 215824080.000000, -0.358923 , 3.964907, 8.898908, 347354144.000000, 0.140000,  0.210000,  0.210000, 0.000000,  0.000000 
 215844080.000000, -0.437887 , 3.895515, 8.884550, 347373984.000000, 0.070000,  0.420000,  -0.070000, 0.000000,  0.000000 
 215864400.000000, -0.421137 , 3.945765, 8.855836, 347393952.000000, -0.280000,  0.490000,  -0.210000, 0.000000,  0.000000 
 215884048.000000, -0.399601 , 3.893122, 8.877372, 347414272.000000, -0.910000,  0.350000,  -0.210000, 0.000000,  0.000000 
 215904048.000000, -0.380459 , 3.897908, 8.865408, 347433952.000000, -1.120000,  0.350000,  -0.210000, 0.000000,  0.000000 
 215924048.000000, -0.411566 , 3.838088, 8.898908, 347453920.000000, -1.050000,  0.420000,  0.070000, 0.000000,  0.000000 
 215944016.000000, -0.387637 , 3.921836, 8.855836, 347473920.000000, -0.630000,  0.420000,  0.070000, 0.000000,  0.000000 
 215964336.000000, -0.399601 , 3.950550, 8.848659, 347493920.000000, -0.630000,  0.350000,  0.070000, 0.000000,  0.000000 
 215984016.000000, -0.423530 , 3.960121, 8.889337, 347514208.000000, 0.140000,  0.350000,  0.070000, 0.000000,  0.000000 
 216003984.000000, -0.342174 , 3.945765, 8.896514, 347533888.000000, -0.140000,  0.420000,  0.070000, 0.000000,  0.000000 
 216023984.000000, -0.390030 , 3.933800, 8.906086, 347553888.000000, -0.560000,  0.420000,  0.070000, 0.000000,  0.000000 
 216043984.000000, -0.394816 , 3.914658, 8.896514, 347573856.000000, -0.490000,  0.350000,  0.070000, 0.000000,  0.000000 
 216064272.000000, -0.346959 , 3.940979, 8.836694, 347593856.000000, -0.210000,  0.350000,  0.070000, 0.000000,  0.000000 
 216083952.000000, -0.382852 , 3.933800, 8.865408, 347614144.000000, -0.070000,  0.490000,  -0.070000, 0.000000,  0.000000 
 216103952.000000, -0.361316 , 3.943372, 8.863015, 347633824.000000, -0.210000,  0.350000,  -0.070000, 0.000000,  0.000000 
 216123952.000000, -0.418744 , 3.921836, 8.891729, 347653824.000000, -0.420000,  0.350000,  0.070000, 0.000000,  0.000000 
 216143920.000000, -0.387637 , 3.869194, 8.877372, 347673824.000000, -0.560000,  0.490000,  0.070000, 347673088.000000,  1008.908752 
 216164208.000000, -0.394816 , 3.883551, 8.872586, 347693792.000000, -0.560000,  0.490000,  0.070000, 0.000000,  0.000000 
 216183888.000000, -0.351745 , 3.931407, 8.824730, 347714112.000000, -0.280000,  0.350000,  0.140000, 0.000000,  0.000000 
 216203888.000000, -0.351745 , 3.931407, 8.831908, 347733792.000000, 0.070000,  0.350000,  0.140000, 0.000000,  0.000000 
 216223920.000000, -0.363709 , 3.883551, 8.939585, 347753760.000000, 0.070000,  0.420000,  0.070000, 0.000000,  0.000000 
 216243856.000000, -0.397209 , 3.950550, 8.867801, 347773792.000000, -0.210000,  0.420000,  0.070000, 0.000000,  0.000000 
 216264176.000000, -0.404387 , 4.003192, 8.831908, 347793760.000000, -0.210000,  0.490000,  -0.280000, 0.000000,  0.000000 
 216283856.000000, -0.401994 , 3.873980, 8.886944, 347814048.000000, -0.420000,  0.420000,  -0.280000, 0.000000,  0.000000 
 216303856.000000, -0.373280 , 3.823731, 8.898908, 347833728.000000, -1.610000,  0.280000,  0.280000, 0.000000,  0.000000 
 216323824.000000, -0.375673 , 3.835695, 8.886944, 347853728.000000, -1.680000,  0.140000,  0.350000, 0.000000,  0.000000 
 216343824.000000, -0.356531 , 3.905087, 8.886944, 347873696.000000, -0.140000,  0.210000,  0.210000, 0.000000,  0.000000 
 216364112.000000, -0.380459 , 3.974478, 8.863015, 347893696.000000, 1.400000,  0.350000,  0.140000, 0.000000,  0.000000 
 216383792.000000, -0.382852 , 4.022335, 8.874979, 347913984.000000, 1.400000,  0.420000,  -0.070000, 0.000000,  0.000000 
 216403792.000000, -0.413958 , 3.940979, 8.853443, 347933664.000000, 0.280000,  0.420000,  0.070000, 0.000000,  0.000000 
 216423760.000000, -0.375673 , 3.895515, 8.910872, 347953664.000000, -0.840000,  0.350000,  0.070000, 0.000000,  0.000000 
 216443760.000000, -0.392423 , 3.883551, 8.915657, 347973664.000000, -1.400000,  0.490000,  0.070000, 0.000000,  0.000000 
 216464048.000000, -0.401994 , 3.854837, 8.927622, 347993632.000000, -1.400000,  0.490000,  0.070000, 0.000000,  0.000000 
 216483760.000000, -0.399601 , 3.876373, 8.894121, 348013920.000000, -0.560000,  0.420000,  0.070000, 0.000000,  0.000000 
 216503728.000000, -0.435494 , 3.952943, 8.898908, 348033632.000000, 0.350000,  0.420000,  0.070000, 0.000000,  0.000000 
 216523728.000000, -0.401994 , 3.878766, 8.867801, 348053600.000000, 0.420000,  0.350000,  0.140000, 0.000000,  0.000000 
 216543696.000000, -0.380459 , 3.905087, 8.860621, 348073600.000000, 0.420000,  0.350000,  0.070000, 0.000000,  0.000000 
 216564016.000000, -0.413958 , 3.909872, 8.886944, 348093600.000000, -0.210000,  0.280000,  0.070000, 0.000000,  0.000000 
 216583696.000000, -0.428315 , 3.929015, 8.872586, 348113888.000000, -0.070000,  0.490000,  -0.070000, 0.000000,  0.000000 
 216603664.000000, -0.394816 , 3.876373, 8.901299, 348133568.000000, -0.210000,  0.420000,  -0.070000, 0.000000,  0.000000 
 216623664.000000, -0.413958 , 3.878766, 8.884550, 348153568.000000, -0.560000,  0.210000,  0.210000, 0.000000,  0.000000 
 216643664.000000, -0.344566 , 3.924229, 8.860621, 348173536.000000, -0.280000,  0.140000,  0.280000, 0.000000,  0.000000 
 216663952.000000, -0.392423 , 3.940979, 8.889337, 348193536.000000, 0.140000,  0.280000,  0.140000, 0.000000,  0.000000 
 216683632.000000, -0.368495 , 3.938586, 8.848659, 348213824.000000, 0.210000,  0.350000,  0.070000, 0.000000,  0.000000 
 216703600.000000, -0.409173 , 3.912265, 8.851050, 348233504.000000, -0.140000,  0.420000,  -0.070000, 0.000000,  0.000000 
 216723600.000000, -0.406780 , 3.902694, 8.867801, 348253504.000000, -0.490000,  0.350000,  -0.070000, 0.000000,  0.000000 
 216743600.000000, -0.370888 , 3.895515, 8.879765, 348273472.000000, -0.630000,  0.420000,  0.070000, 0.000000,  0.000000 
 216763888.000000, -0.380459 , 3.869194, 8.865408, 348293472.000000, -0.560000,  0.420000,  0.070000, 0.000000,  0.000000 
 216783568.000000, -0.375673 , 3.912265, 8.860621, 348313760.000000, -0.490000,  0.350000,  0.070000, 0.000000,  0.000000 
 216803568.000000, -0.378066 , 3.905087, 8.877372, 348333440.000000, -0.210000,  0.350000,  0.070000, 0.000000,  0.000000 
 216823536.000000, -0.401994 , 3.897908, 8.874979, 348353440.000000, -0.210000,  0.420000,  0.070000, 0.000000,  0.000000 
 216843536.000000, -0.406780 , 3.938586, 8.839087, 348393408.000000, -0.280000,  0.350000,  0.070000, 0.000000,  0.000000 
 216863856.000000, -0.468993 , 3.943372, 8.896514, 0.000000, 0.000000,  0.000000,  0.000000, 0.000000,  0.000000 
 216883504.000000, -0.390030 , 3.940979, 8.884550, 348413728.000000, -0.070000,  0.420000,  0.070000, 0.000000,  0.000000 
 216903504.000000, -0.354138 , 3.940979, 8.863015, 348433408.000000, 0.070000,  0.280000,  0.070000, 0.000000,  0.000000 
 216923504.000000, -0.399601 , 3.960121, 8.853443, 348453376.000000, -0.140000,  0.280000,  0.070000, 0.000000,  0.000000 
 216943472.000000, -0.337388 , 3.955336, 8.870193, 348473376.000000, -0.350000,  0.420000,  0.070000, 0.000000,  0.000000 
 216963792.000000, -0.370888 , 3.919443, 8.884550, 348493344.000000, -0.560000,  0.490000,  0.070000, 0.000000,  0.000000 
 216983472.000000, -0.344566 , 3.929015, 8.886944, 348533344.000000, -0.280000,  0.350000,  0.140000, 0.000000,  0.000000 
 217003440.000000, -0.339781 , 3.948158, 8.891729, 0.000000, 0.000000,  0.000000,  0.000000, 0.000000,  0.000000 
 217023440.000000, -0.394816 , 3.895515, 8.927622, 348553312.000000, -0.210000,  0.420000,  0.140000, 0.000000,  0.000000 
 217043440.000000, -0.387637 , 3.945765, 8.913264, 348573312.000000, -0.210000,  0.490000,  -0.070000, 0.000000,  0.000000 
 217063728.000000, -0.440279 , 4.017549, 8.836694, 348593312.000000, 0.420000,  0.560000,  -0.280000, 0.000000,  0.000000 
 217083408.000000, -0.390030 , 3.974478, 8.841480, 348613600.000000, -0.140000,  0.420000,  -0.140000, 0.000000,  0.000000 
 217103408.000000, -0.354138 , 3.802195, 8.925228, 348633280.000000, -1.680000,  0.210000,  0.350000, 0.000000,  0.000000 
 217123376.000000, -0.373280 , 3.775874, 8.937192, 348653280.000000, -2.100000,  0.210000,  0.280000, 0.000000,  0.000000 
 217143376.000000, -0.385244 , 3.914658, 8.922836, 348673248.000000, -0.420000,  0.280000,  0.140000, 348672512.000000,  1008.909546 
 217163696.000000, -0.385244 , 3.964907, 8.865408, 348693248.000000, 1.400000,  0.350000,  0.140000, 0.000000,  0.000000 
 217183344.000000, -0.354138 , 3.979264, 8.831908, 348713568.000000, 1.470000,  0.420000,  -0.070000, 0.000000,  0.000000 
 217203344.000000, -0.375673 , 3.972085, 8.851050, 348733216.000000, 0.280000,  0.350000,  -0.070000, 0.000000,  0.000000 
 217223376.000000, -0.334995 , 3.957729, 8.867801, 348753216.000000, -1.050000,  0.420000,  -0.070000, 0.000000,  0.000000 
 217243312.000000, -0.418744 , 3.859623, 8.891729, 348773248.000000, -1.750000,  0.420000,  -0.070000, 0.000000,  0.000000 
 217263632.000000, -0.390030 , 3.854837, 8.894121, 348793184.000000, -1.750000,  0.420000,  -0.070000, 0.000000,  0.000000 
 217283280.000000, -0.399601 , 3.847659, 8.855836, 348813504.000000, -0.770000,  0.350000,  -0.070000, 0.000000,  0.000000 
 217303280.000000, -0.399601 , 3.933800, 8.851050, 348833184.000000, 0.350000,  0.280000,  0.070000, 0.000000,  0.000000 
 217323280.000000, -0.351745 , 3.957729, 8.855836, 348853152.000000, 0.630000,  0.350000,  0.140000, 0.000000,  0.000000 
 217343248.000000, -0.366102 , 3.907479, 8.877372, 348873152.000000, 0.630000,  0.350000,  0.140000, 0.000000,  0.000000 
 217363568.000000, -0.363709 , 3.960121, 8.867801, 348893152.000000, -0.490000,  0.350000,  0.070000, 0.000000,  0.000000 
 217383248.000000, -0.411566 , 3.909872, 8.879765, 348913440.000000, -0.280000,  0.420000,  -0.070000, 0.000000,  0.000000 
 217403216.000000, -0.390030 , 3.905087, 8.872586, 348933120.000000, -0.420000,  0.490000,  -0.070000, 0.000000,  0.000000 
 217423216.000000, -0.366102 , 3.869194, 8.884550, 348953120.000000, -0.560000,  0.280000,  0.140000, 0.000000,  0.000000 
 217443216.000000, -0.330210 , 3.948158, 8.898908, 348973088.000000, -0.350000,  0.210000,  0.280000, 0.000000,  0.000000 
 217463504.000000, -0.344566 , 3.890730, 8.872586, 348993088.000000, -0.070000,  0.280000,  0.140000, 0.000000,  0.000000 
 217483184.000000, -0.399601 , 3.955336, 8.884550, 349013376.000000, -0.140000,  0.420000,  0.140000, 0.000000,  0.000000 
 217503184.000000, -0.354138 , 3.979264, 8.860621, 349033056.000000, -0.420000,  0.490000,  -0.070000, 0.000000,  0.000000 
 217523152.000000, -0.385244 , 3.955336, 8.882158, 349053056.000000, -0.630000,  0.420000,  -0.070000, 0.000000,  0.000000 
 217543152.000000, -0.382852 , 3.909872, 8.877372, 349073024.000000, -0.770000,  0.420000,  -0.070000, 0.000000,  0.000000 
 217563440.000000, -0.394816 , 3.878766, 8.886944, 349093024.000000, -0.770000,  0.420000,  -0.070000, 0.000000,  0.000000 
 217583120.000000, -0.382852 , 3.905087, 8.872586, 349113344.000000, -0.630000,  0.350000,  0.070000, 0.000000,  0.000000 
 217603120.000000, -0.394816 , 3.907479, 8.846266, 349133024.000000, -0.490000,  0.280000,  0.140000, 0.000000,  0.000000 
 217623120.000000, -0.401994 , 3.931407, 8.860621, 349152992.000000, -0.420000,  0.420000,  0.070000, 0.000000,  0.000000 
 217643088.000000, -0.380459 , 3.885944, 8.906086, 349172992.000000, -0.420000,  0.420000,  -0.070000, 0.000000,  0.000000 
 217663408.000000, -0.373280 , 3.950550, 8.922836, 349192960.000000, -0.210000,  0.420000,  -0.070000, 0.000000,  0.000000 
 217683088.000000, -0.418744 , 3.931407, 8.863015, 349213280.000000, -0.070000,  0.350000,  0.070000, 0.000000,  0.000000 
 217703056.000000, -0.409173 , 3.912265, 8.846266, 349232960.000000, -0.210000,  0.350000,  0.070000, 0.000000,  0.000000 
 217723056.000000, -0.368495 , 3.924229, 8.898908, 349252928.000000, -0.280000,  0.420000,  0.070000, 0.000000,  0.000000 
 217743056.000000, -0.385244 , 3.890730, 8.870193, 349272928.000000, -0.560000,  0.420000,  0.070000, 0.000000,  0.000000 
 217763344.000000, -0.385244 , 3.909872, 8.886944, 349292928.000000, -0.420000,  0.350000,  0.070000, 0.000000,  0.000000 
 217783024.000000, -0.375673 , 3.945765, 8.870193, 349313216.000000, -0.070000,  0.350000,  0.140000, 0.000000,  0.000000 
 217803024.000000, -0.332602 , 3.907479, 8.884550, 349332896.000000, 0.070000,  0.350000,  0.140000, 0.000000,  0.000000 
 217822992.000000, -0.416351 , 3.952943, 8.872586, 349352896.000000, 0.140000,  0.350000,  0.140000, 0.000000,  0.000000 
 217842992.000000, -0.409173 , 4.043870, 8.781659, 349372864.000000, 0.210000,  0.490000,  -0.210000, 0.000000,  0.000000 
 217863280.000000, -0.397209 , 3.955336, 8.841480, 349392864.000000, 0.070000,  0.490000,  -0.350000, 0.000000,  0.000000 
 217882960.000000, -0.404387 , 3.900301, 8.886944, 349413152.000000, -0.980000,  0.280000,  0.070000, 0.000000,  0.000000 
 217902960.000000, -0.378066 , 3.799802, 8.894121, 349432832.000000, -2.240000,  0.210000,  0.280000, 0.000000,  0.000000 
 217922960.000000, -0.344566 , 3.826123, 8.932407, 349452832.000000, -1.750000,  0.280000,  0.140000, 0.000000,  0.000000 
 217942928.000000, -0.366102 , 3.919443, 8.865408, 349472832.000000, 0.350000,  0.280000,  0.070000, 0.000000,  0.000000 
 217963248.000000, -0.401994 , 3.996014, 8.846266, 349492800.000000, 1.540000,  0.350000,  0.070000, 0.000000,  0.000000 
 217982928.000000, -0.363709 , 3.981657, 8.819944, 349513120.000000, 0.980000,  0.420000,  -0.140000, 0.000000,  0.000000 
 218002896.000000, -0.358923 , 3.940979, 8.874979, 349532800.000000, -0.420000,  0.420000,  -0.070000, 0.000000,  0.000000 
 218022896.000000, -0.464208 , 3.859623, 8.908479, 349552768.000000, -1.540000,  0.350000,  0.070000, 0.000000,  0.000000 
 218042864.000000, -0.361316 , 3.835695, 8.896514, 349572768.000000, -1.890000,  0.350000,  0.070000, 0.000000,  0.000000 
 218063184.000000, -0.390030 , 3.893122, 8.863015, 349592768.000000, -1.120000,  0.350000,  0.070000, 0.000000,  0.000000 
 218082864.000000, -0.366102 , 3.948158, 8.867801, 349613056.000000, -1.120000,  0.280000,  0.070000, 0.000000,  0.000000 
 218102864.000000, -0.370888 , 3.905087, 8.867801, 349632736.000000, 0.700000,  0.350000,  0.070000, 0.000000,  0.000000 
 218122832.000000, -0.390030 , 3.938586, 8.874979, 349652736.000000, 0.280000,  0.350000,  0.070000, 0.000000,  0.000000 
 218142832.000000, -0.334995 , 3.914658, 8.834301, 349672736.000000, -0.560000,  0.280000,  0.070000, 349672000.000000,  1008.910278 
 218163120.000000, -0.418744 , 3.943372, 8.855836, 349692704.000000, -0.560000,  0.350000,  0.070000, 0.000000,  0.000000 
 218182800.000000, -0.437887 , 3.929015, 8.858230, 349712992.000000, -0.420000,  0.420000,  -0.070000, 0.000000,  0.000000 
 218202800.000000, -0.342174 , 3.862016, 8.891729, 349732672.000000, -0.630000,  0.420000,  -0.070000, 0.000000,  0.000000 
 218222832.000000, -0.373280 , 3.862016, 8.846266, 349752672.000000, -0.700000,  0.280000,  0.140000, 0.000000,  0.000000 
 218242800.000000, -0.351745 , 3.964907, 8.867801, 349772704.000000, -0.280000,  0.210000,  0.140000, 0.000000,  0.000000 
 218263056.000000, -0.385244 , 3.909872, 8.877372, 349792672.000000, -0.280000,  0.350000,  0.070000, 0.000000,  0.000000 
 218282768.000000, -0.413958 , 3.929015, 8.863015, 349812960.000000, -0.140000,  0.420000,  -0.070000, 0.000000,  0.000000 
 218302896.000000, -0.375673 , 3.936193, 8.855836, 349832640.000000, -0.490000,  0.420000,  -0.140000, 0.000000,  0.000000 
 218322736.000000, -0.370888 , 3.907479, 8.889337, 349852800.000000, -0.770000,  0.350000,  -0.070000, 0.000000,  0.000000 
 218342736.000000, -0.411566 , 3.862016, 8.920443, 349872608.000000, -0.840000,  0.350000,  0.070000, 0.000000,  0.000000 
 218363120.000000, -0.385244 , 3.902694, 8.894121, 349892608.000000, -0.700000,  0.420000,  0.070000, 0.000000,  0.000000 
 218382704.000000, -0.378066 , 3.917051, 8.882158, 349912992.000000, -0.210000,  0.350000,  0.140000, 0.000000,  0.000000 
 218402704.000000, -0.361316 , 3.905087, 8.870193, 349932576.000000, 0.140000,  0.350000,  0.070000, 0.000000,  0.000000 
 218422672.000000, -0.378066 , 3.890730, 8.889337, 349952576.000000, 0.140000,  0.350000,  0.070000, 0.000000,  0.000000 
 218442672.000000, -0.387637 , 3.897908, 8.903693, 349972544.000000, -0.350000,  0.420000,  0.070000, 0.000000,  0.000000 
 218462960.000000, -0.390030 , 3.897908, 8.910872, 349992544.000000, -0.490000,  0.490000,  0.070000, 0.000000,  0.000000 
 218482640.000000, -0.394816 , 3.940979, 8.877372, 350012832.000000, -0.280000,  0.350000,  0.070000, 0.000000,  0.000000 
 218502640.000000, -0.392423 , 3.900301, 8.867801, 350032512.000000, -0.140000,  0.280000,  0.070000, 0.000000,  0.000000 
 218522608.000000, -0.401994 , 3.926622, 8.891729, 350052512.000000, -0.280000,  0.420000,  0.070000, 0.000000,  0.000000 
 218542608.000000, -0.421137 , 3.924229, 8.860621, 350072480.000000, -0.420000,  0.490000,  0.070000, 0.000000,  0.000000 
 218562896.000000, -0.416351 , 3.914658, 8.851050, 350092480.000000, -0.490000,  0.350000,  0.140000, 0.000000,  0.000000 
 218582576.000000, -0.380459 , 3.917051, 8.889337, 350112800.000000, -0.140000,  0.280000,  0.070000, 0.000000,  0.000000 
 218602576.000000, -0.385244 , 3.905087, 8.901299, 350132448.000000, -0.070000,  0.350000,  0.140000, 0.000000,  0.000000 
 218622544.000000, -0.404387 , 3.917051, 8.858230, 350152448.000000, -0.140000,  0.420000,  0.140000, 0.000000,  0.000000 
 218642544.000000, -0.423530 , 4.019942, 8.807980, 350172448.000000, 0.140000,  0.490000,  -0.280000, 0.000000,  0.000000 
 218662864.000000, -0.397209 , 3.909872, 8.839087, 350192416.000000, -0.280000,  0.490000,  -0.140000, 0.000000,  0.000000 
 218682512.000000, -0.370888 , 3.806981, 8.879765, 350212736.000000, -1.820000,  0.280000,  0.210000, 0.000000,  0.000000 
 218702512.000000, -0.397209 , 3.809374, 8.918050, 350232416.000000, -2.240000,  0.210000,  0.280000, 0.000000,  0.000000 
 218722512.000000, -0.392423 , 3.854837, 8.886944, 350252384.000000, -0.700000,  0.210000,  0.210000, 0.000000,  0.000000 
 218742480.000000, -0.440279 , 3.969693, 8.874979, 350272384.000000, 1.190000,  0.280000,  0.140000, 0.000000,  0.000000 
 218762800.000000, -0.425922 , 3.964907, 8.853443, 350292352.000000, 1.470000,  0.420000,  -0.070000, 0.000000,  0.000000 
 218782480.000000, -0.363709 , 3.998406, 8.848659, 350332352.000000, -0.700000,  0.420000,  -0.070000, 0.000000,  0.000000 
 218802448.000000, -0.411566 , 3.926622, 8.884550, 0.000000, 0.000000,  0.000000,  0.000000, 0.000000,  0.000000 
 218822448.000000, -0.397209 , 3.914658, 8.908479, 350352320.000000, -1.610000,  0.420000,  -0.070000, 0.000000,  0.000000 
 218842448.000000, -0.430708 , 3.847659, 8.922836, 350372320.000000, -1.680000,  0.420000,  -0.070000, 0.000000,  0.000000 
 218862736.000000, -0.378066 , 3.876373, 8.884550, 350392320.000000, -0.910000,  0.350000,  -0.070000, 0.000000,  0.000000 
 218882416.000000, -0.390030 , 3.917051, 8.882158, 350412640.000000, 0.210000,  0.350000,  0.070000, 0.000000,  0.000000 
 218902416.000000, -0.373280 , 3.890730, 8.908479, 350432288.000000, 0.630000,  0.350000,  0.070000, 0.000000,  0.000000 
 218922384.000000, -0.390030 , 3.950550, 8.906086, 350452288.000000, 0.280000,  0.350000,  0.140000, 0.000000,  0.000000 
 218942384.000000, -0.385244 , 3.917051, 8.879765, 350472256.000000, -0.140000,  0.350000,  0.140000, 0.000000,  0.000000 
 218962704.000000, -0.416351 , 3.924229, 8.918050, 350492256.000000, -0.070000,  0.490000,  0.140000, 0.000000,  0.000000 
 218982352.000000, -0.404387 , 3.893122, 8.874979, 350512576.000000, -0.210000,  0.490000,  0.140000, 0.000000,  0.000000 
 219002352.000000, -0.378066 , 3.866802, 8.870193, 350532224.000000, -0.560000,  0.280000,  0.140000, 0.000000,  0.000000 
 219022352.000000, -0.356531 , 3.897908, 8.877372, 350552224.000000, -0.420000,  0.210000,  0.280000, 0.000000,  0.000000 
 219042320.000000, -0.373280 , 3.957729, 8.889337, 350572224.000000, -0.420000,  0.350000,  0.210000, 0.000000,  0.000000 
 219062640.000000, -0.380459 , 3.960121, 8.858230, 350592192.000000, 0.140000,  0.420000,  0.210000, 0.000000,  0.000000 
 219082320.000000, -0.409173 , 3.933800, 8.870193, 350612512.000000, -0.210000,  0.420000,  -0.070000, 0.000000,  0.000000 
 219102288.000000, -0.390030 , 3.912265, 8.827123, 350632192.000000, -0.560000,  0.350000,  -0.070000, 0.000000,  0.000000 
 219122288.000000, -0.363709 , 3.900301, 8.860621, 350672160.000000, -0.630000,  0.350000,  0.070000, 350671424.000000,  1008.910828 
 219142288.000000, -0.401994 , 3.876373, 8.863015, 0.000000, 0.000000,  0.000000,  0.000000, 0.000000,  0.000000 
 219162576.000000, -0.385244 , 3.873980, 8.884550, 350692160.000000, -0.350000,  0.350000,  0.140000, 0.000000,  0.000000 
 219182256.000000, -0.361316 , 3.955336, 8.874979, 350712448.000000, 0.140000,  0.350000,  0.070000, 0.000000,  0.000000 
 219202256.000000, -0.370888 , 3.919443, 8.870193, 350732128.000000, 0.140000,  0.350000,  0.140000, 0.000000,  0.000000 
 219222256.000000, -0.378066 , 3.895515, 8.903693, 350752128.000000, -0.210000,  0.350000,  0.070000, 0.000000,  0.000000 
 219242224.000000, -0.375673 , 3.873980, 8.896514, 350772160.000000, -0.350000,  0.420000,  0.070000, 0.000000,  0.000000 
 219262512.000000, -0.404387 , 3.940979, 8.863015, 350792096.000000, -0.070000,  0.350000,  0.070000, 0.000000,  0.000000 
 219282192.000000, -0.423530 , 3.938586, 8.843873, 350812384.000000, 0.140000,  0.350000,  0.070000, 0.000000,  0.000000 
 219302192.000000, -0.425922 , 3.931407, 8.863015, 350832064.000000, -0.140000,  0.350000,  0.070000, 0.000000,  0.000000 
 219322160.000000, -0.370888 , 3.943372, 8.867801, 350852064.000000, -0.420000,  0.420000,  0.070000, 0.000000,  0.000000 
 219342160.000000, -0.399601 , 3.924229, 8.839087, 350872064.000000, -0.490000,  0.420000,  0.140000, 0.000000,  0.000000 
 219362448.000000, -0.382852 , 3.890730, 8.872586, 350892032.000000, -0.350000,  0.420000,  0.140000, 0.000000,  0.000000 
 219382160.000000, -0.351745 , 3.905087, 8.879765, 350912352.000000, -0.140000,  0.350000,  0.140000, 0.000000,  0.000000 
 219402128.000000, -0.411566 , 3.912265, 8.898908, 350932032.000000, -0.210000,  0.420000,  0.070000, 0.000000,  0.000000 
 219422128.000000, -0.387637 , 4.031906, 8.860621, 350952000.000000, -0.210000,  0.560000,  -0.210000, 0.000000,  0.000000 
 219442096.000000, -0.380459 , 4.010371, 8.810372, 350972000.000000, 0.210000,  0.560000,  -0.280000, 0.000000,  0.000000 
 219462416.000000, -0.366102 , 3.869194, 8.903693, 350992000.000000, -0.980000,  0.350000,  0.070000, 0.000000,  0.000000 
 219482096.000000, -0.375673 , 3.768696, 8.886944, 351012288.000000, -2.170000,  0.210000,  0.350000, 0.000000,  0.000000 
 219502064.000000, -0.378066 , 3.859623, 8.922836, 351051968.000000, 0.770000,  0.350000,  0.140000, 0.000000,  0.000000 
 219522064.000000, -0.380459 , 3.984050, 8.922836, 0.000000, 0.000000,  0.000000,  0.000000, 0.000000,  0.000000 
 219542064.000000, -0.366102 , 3.988836, 8.848659, 351071936.000000, 1.680000,  0.350000,  0.070000, 0.000000,  0.000000 
 219562352.000000, -0.416351 , 3.988836, 8.810372, 351091936.000000, 0.910000,  0.420000,  0.070000, 0.000000,  0.000000 
 219582032.000000, -0.368495 , 3.945765, 8.846266, 351112224.000000, -0.280000,  0.420000,  0.070000, 0.000000,  0.000000 
 219602032.000000, -0.397209 , 3.897908, 8.908479, 351131904.000000, -1.260000,  0.420000,  0.140000, 0.000000,  0.000000 
 219622000.000000, -0.397209 , 3.866802, 8.908479, 351151904.000000, -1.680000,  0.420000,  -0.070000, 0.000000,  0.000000 
 219642000.000000, -0.346959 , 3.883551, 8.870193, 351171904.000000, -1.330000,  0.420000,  -0.070000, 0.000000,  0.000000 
 219662288.000000, -0.354138 , 3.888337, 8.877372, 351191872.000000, -0.210000,  0.350000,  0.070000, 0.000000,  0.000000 
 219681968.000000, -0.354138 , 3.921836, 8.865408, 351212192.000000, 0.490000,  0.280000,  0.070000, 0.000000,  0.000000 
 219701968.000000, -0.378066 , 3.917051, 8.860621, 351231872.000000, 0.350000,  0.350000,  0.140000, 0.000000,  0.000000 
 219721968.000000, -0.399601 , 3.895515, 8.853443, 351251840.000000, -0.210000,  0.350000,  0.070000, 0.000000,  0.000000 
 219741936.000000, -0.378066 , 3.890730, 8.846266, 351271840.000000, -0.420000,  0.350000,  0.070000, 0.000000,  0.000000 
 219762256.000000, -0.394816 , 3.921836, 8.889337, 351291808.000000, -0.210000,  0.420000,  -0.070000, 0.000000,  0.000000 
 219781936.000000, -0.361316 , 3.876373, 8.879765, 351312128.000000, -0.420000,  0.420000,  -0.070000, 0.000000,  0.000000 
 219801904.000000, -0.404387 , 3.881158, 8.884550, 351331808.000000, -0.560000,  0.280000,  0.210000, 0.000000,  0.000000 
 219821904.000000, -0.339781 , 3.926622, 8.870193, 351351776.000000, -0.280000,  0.210000,  0.210000, 0.000000,  0.000000 
 219841904.000000, -0.358923 , 3.948158, 8.865408, 351371776.000000, 0.140000,  0.350000,  0.210000, 0.000000,  0.000000 
 219862192.000000, -0.349352 , 3.952943, 8.882158, 351391776.000000, 0.070000,  0.420000,  0.070000, 0.000000,  0.000000 
 219881872.000000, -0.370888 , 3.931407, 8.836694, 351412064.000000, -0.280000,  0.490000,  -0.070000, 0.000000,  0.000000 
 219901872.000000, -0.425922 , 3.931407, 8.855836, 351431744.000000, -0.490000,  0.420000,  -0.070000, 0.000000,  0.000000 
 219921840.000000, -0.423530 , 3.917051, 8.860621, 351451744.000000, -0.700000,  0.350000,  0.070000, 0.000000,  0.000000 
 219941840.000000, -0.392423 , 3.921836, 8.872586, 351471744.000000, -0.840000,  0.420000,  0.070000, 0.000000,  0.000000 
 219962128.000000, -0.368495 , 3.888337, 8.867801, 351491712.000000, -0.630000,  0.420000,  0.070000, 0.000000,  0.000000 
 219981808.000000, -0.425922 , 3.936193, 8.848659, 351512000.000000, -0.140000,  0.350000,  0.140000, 0.000000,  0.000000 
 220001808.000000, -0.409173 , 3.926622, 8.831908, 351531712.000000, 0.070000,  0.350000,  0.140000, 0.000000,  0.000000 
 220021808.000000, -0.428315 , 3.883551, 8.879765, 351551680.000000, -0.140000,  0.490000,  0.070000, 0.000000,  0.000000 
 220041776.000000, -0.380459 , 3.909872, 8.829515, 351571680.000000, -0.280000,  0.420000,  0.070000, 0.000000,  0.000000 
 220062096.000000, -0.346959 , 3.931407, 8.870193, 351591680.000000, -0.140000,  0.350000,  0.140000, 0.000000,  0.000000 
 220081776.000000, -0.382852 , 3.897908, 8.839087, 351611968.000000, -0.140000,  0.350000,  0.140000, 0.000000,  0.000000 
 220101744.000000, -0.368495 , 3.931407, 8.870193, 351631648.000000, -0.280000,  0.420000,  0.140000, 0.000000,  0.000000 
 220121744.000000, -0.366102 , 3.893122, 8.872586, 351671616.000000, -0.490000,  0.350000,  0.140000, 351670880.000000,  1008.913635 
 220141744.000000, -0.349352 , 3.869194, 8.910872, 0.000000, 0.000000,  0.000000,  0.000000, 0.000000,  0.000000 
 220162032.000000, -0.339781 , 3.914658, 8.889337, 351691616.000000, -0.210000,  0.280000,  0.210000, 0.000000,  0.000000 
 220181712.000000, -0.406780 , 3.974478, 8.860621, 351731584.000000, 0.210000,  0.630000,  -0.350000, 0.000000,  0.000000 
 220201712.000000, -0.437887 , 3.998406, 8.807980, 0.000000, 0.000000,  0.000000,  0.000000, 0.000000,  0.000000 
 220221712.000000, -0.337388 , 3.955336, 8.841480, 351751584.000000, -0.140000,  0.490000,  -0.210000, 0.000000,  0.000000 
 220241680.000000, -0.380459 , 3.806981, 8.941978, 351771616.000000, -1.540000,  0.210000,  0.350000, 0.000000,  0.000000 
 220261968.000000, -0.342174 , 3.775874, 8.961121, 351791552.000000, -2.310000,  0.280000,  0.280000, 0.000000,  0.000000 
 220281648.000000, -0.346959 , 3.883551, 8.925228, 351811840.000000, -0.770000,  0.350000,  0.070000, 0.000000,  0.000000 
 220301648.000000, -0.411566 , 3.984050, 8.906086, 351831520.000000, 1.190000,  0.350000,  0.070000, 0.000000,  0.000000 
 220321648.000000, -0.373280 , 3.996014, 8.831908, 351851520.000000, 1.190000,  0.490000,  -0.140000, 0.000000,  0.000000 
 220341616.000000, -0.406780 , 3.936193, 8.867801, 351871520.000000, -0.070000,  0.560000,  -0.140000, 0.000000,  0.000000 
 220361904.000000, -0.399601 , 3.912265, 8.872586, 351891488.000000, -1.260000,  0.420000,  0.070000, 0.000000,  0.000000 
 220381584.000000, -0.342174 , 3.873980, 8.913264, 351911808.000000, -1.540000,  0.350000,  0.070000, 0.000000,  0.000000 
 220401584.000000, -0.418744 , 3.888337, 8.884550, 351931456.000000, -1.260000,  0.210000,  0.070000, 0.000000,  0.000000 
 220421584.000000, -0.380459 , 3.914658, 8.879765, 351951456.000000, -0.490000,  0.280000,  0.070000, 0.000000,  0.000000 
 220441552.000000, -0.397209 , 3.931407, 8.865408, 351971456.000000, 0.210000,  0.350000,  0.070000, 0.000000,  0.000000 
 220461872.000000, -0.464208 , 3.893122, 8.865408, 351991424.000000, 0.350000,  0.350000,  0.070000, 0.000000,  0.000000 
 220481552.000000, -0.373280 , 3.854837, 8.863015, 352011744.000000, -0.210000,  0.280000,  0.140000, 0.000000,  0.000000 
 220501520.000000, -0.361316 , 3.883551, 8.831908, 352031424.000000, -0.420000,  0.280000,  0.070000, 0.000000,  0.000000 
 220521520.000000, -0.401994 , 3.974478, 8.865408, 352051392.000000, -0.070000,  0.350000,  -0.070000, 0.000000,  0.000000 
 220541520.000000, -0.430708 , 3.900301, 8.901299, 352071392.000000, -0.140000,  0.350000,  -0.070000, 0.000000,  0.000000 
 220561808.000000, -0.339781 , 3.905087, 8.851050, 352091392.000000, -0.560000,  0.280000,  0.140000, 0.000000,  0.000000 
 220581488.000000, -0.315853 , 3.893122, 8.867801, 352111680.000000, -0.350000,  0.140000,  0.350000, 0.000000,  0.000000 
 220601456.000000, -0.370888 , 3.897908, 8.891729, 352131360.000000, -0.350000,  0.280000,  0.210000, 0.000000,  0.000000 
 220621456.000000, -0.397209 , 3.929015, 8.863015, 352151360.000000, -0.070000,  0.420000,  -0.070000, 0.000000,  0.000000 
 220641456.000000, -0.382852 , 3.881158, 8.889337, 352171328.000000, -0.280000,  0.420000,  -0.070000, 0.000000,  0.000000 
 220661744.000000, -0.378066 , 3.991228, 8.867801, 352191328.000000, -0.560000,  0.350000,  -0.070000, 0.000000,  0.000000 
 220681424.000000, -0.416351 , 3.866802, 8.874979, 352231296.000000, -0.910000,  0.420000,  -0.070000, 0.000000,  0.000000 
 220701424.000000, -0.392423 , 3.893122, 8.901299, 0.000000, 0.000000,  0.000000,  0.000000, 0.000000,  0.000000 
 220721392.000000, -0.373280 , 3.876373, 8.882158, 352251296.000000, -0.840000,  0.350000,  0.070000, 0.000000,  0.000000 
 220741392.000000, -0.406780 , 3.917051, 8.858230, 352271296.000000, -0.350000,  0.350000,  0.070000, 0.000000,  0.000000 
 220761712.000000, -0.409173 , 3.917051, 8.874979, 352291264.000000, 0.070000,  0.350000,  0.070000, 0.000000,  0.000000 
 220781360.000000, -0.390030 , 3.905087, 8.846266, 352311584.000000, 0.070000,  0.420000,  0.070000, 0.000000,  0.000000 
 220801360.000000, -0.378066 , 3.936193, 8.865408, 352331264.000000, -0.070000,  0.350000,  0.070000, 0.000000,  0.000000 
 220821360.000000, -0.401994 , 3.929015, 8.884550, 352351232.000000, -0.140000,  0.350000,  0.070000, 0.000000,  0.000000 
 220841328.000000, -0.404387 , 3.914658, 8.920443, 352371232.000000, -0.210000,  0.350000,  0.070000, 0.000000,  0.000000 
 220861648.000000, -0.382852 , 3.885944, 8.903693, 352391232.000000, -0.350000,  0.350000,  0.070000, 0.000000,  0.000000 
 220881328.000000, -0.452243 , 3.912265, 8.860621, 352411520.000000, -0.280000,  0.420000,  0.070000, 0.000000,  0.000000 
 220901296.000000, -0.349352 , 3.924229, 8.884550, 352431200.000000, -0.070000,  0.350000,  0.070000, 0.000000,  0.000000 
 220921296.000000, -0.354138 , 3.873980, 8.906086, 352451168.000000, -0.140000,  0.280000,  0.210000, 0.000000,  0.000000 
 220941296.000000, -0.425922 , 3.991228, 8.882158, 352471168.000000, -0.280000,  0.420000,  -0.070000, 0.000000,  0.000000 
 220961584.000000, -0.418744 , 3.957729, 8.834301, 352491168.000000, 0.070000,  0.630000,  -0.350000, 0.000000,  0.000000 
 220981264.000000, -0.421137 , 3.955336, 8.848659, 352511456.000000, -0.280000,  0.420000,  -0.140000, 0.000000,  0.000000 
 221001264.000000, -0.361316 , 3.816552, 8.896514, 352531136.000000, -1.750000,  0.210000,  0.280000, 0.000000,  0.000000 
 221021232.000000, -0.397209 , 3.818945, 8.939585, 352551136.000000, -2.170000,  0.280000,  0.210000, 0.000000,  0.000000 
 221041232.000000, -0.344566 , 3.945765, 8.877372, 352571104.000000, -0.350000,  0.280000,  0.140000, 0.000000,  0.000000 
 221061520.000000, -0.392423 , 3.991228, 8.865408, 352591104.000000, 1.470000,  0.210000,  0.140000, 0.000000,  0.000000 
 221081200.000000, -0.459422 , 3.972085, 8.786445, 352611392.000000, 1.400000,  0.420000,  -0.070000, 0.000000,  0.000000 
 221101200.000000, -0.373280 , 3.952943, 8.870193, 352631072.000000, 0.140000,  0.490000,  -0.140000, 0.000000,  0.000000 
 221121200.000000, -0.390030 , 3.905087, 8.851050, 352671072.000000, -1.750000,  0.350000,  0.070000, 352670336.000000,  1008.915283 
 221141168.000000, -0.387637 , 3.869194, 8.877372, 0.000000, 0.000000,  0.000000,  0.000000, 0.000000,  0.000000 
 221161488.000000, -0.425922 , 3.845266, 8.908479, 352691040.000000, -1.540000,  0.350000,  0.070000, 0.000000,  0.000000 
 221181168.000000, -0.421137 , 3.917051, 8.874979, 352711360.000000, -0.560000,  0.350000,  0.070000, 0.000000,  0.000000 
 221201136.000000, -0.390030 , 3.912265, 8.886944, 352731040.000000, 0.420000,  0.350000,  0.070000, 0.000000,  0.000000 
 221221168.000000, -0.397209 , 3.955336, 8.836694, 352751008.000000, 0.490000,  0.350000,  0.070000, 0.000000,  0.000000 
 221241104.000000, -0.370888 , 3.933800, 8.901299, 352771040.000000, -0.210000,  0.280000,  0.140000, 0.000000,  0.000000 
 221261424.000000, -0.385244 , 3.957729, 8.901299, 352791008.000000, -0.700000,  0.350000,  0.140000, 0.000000,  0.000000 
 221281104.000000, -0.428315 , 3.957729, 8.896514, 352811296.000000, -0.350000,  0.420000,  -0.140000, 0.000000,  0.000000 
 221301072.000000, -0.382852 , 3.888337, 8.898908, 352830976.000000, -0.210000,  0.490000,  -0.140000, 0.000000,  0.000000 
 221321072.000000, -0.368495 , 3.926622, 8.860621, 352850976.000000, -0.490000,  0.280000,  0.070000, 0.000000,  0.000000 
 221341072.000000, -0.356531 , 3.909872, 8.867801, 352870944.000000, -0.490000,  0.140000,  0.210000, 0.000000,  0.000000 
 221361360.000000, -0.404387 , 3.924229, 8.918050, 352890944.000000, -0.210000,  0.350000,  0.070000, 0.000000,  0.000000 
 221381040.000000, -0.445065 , 3.929015, 8.891729, 352911232.000000, -0.140000,  0.490000,  -0.070000, 0.000000,  0.000000 
 221401040.000000, -0.406780 , 3.940979, 8.843873, 352930912.000000, -0.280000,  0.490000,  -0.140000, 0.000000,  0.000000 
 221421008.000000, -0.349352 , 3.895515, 8.863015, 352950912.000000, -0.560000,  0.280000,  -0.140000, 0.000000,  0.000000 
 221441008.000000, -0.399601 , 3.907479, 8.846266, 352970912.000000, -0.700000,  0.420000,  -0.140000, 0.000000,  0.000000 
 221461296.000000, -0.373280 , 3.866802, 8.863015, 352990880.000000, -0.700000,  0.420000,  0.070000, 0.000000,  0.000000 
 221480976.000000, -0.375673 , 3.902694, 8.870193, 353011200.000000, -0.490000,  0.420000,  0.070000, 0.000000,  0.000000 
 221500976.000000, -0.409173 , 3.917051, 8.841480, 353030880.000000, -0.140000,  0.350000,  0.070000, 0.000000,  0.000000 
 221520976.000000, -0.397209 , 3.921836, 8.829515, 353050848.000000, -0.140000,  0.420000,  0.070000, 0.000000,  0.000000 
 221540944.000000, -0.423530 , 3.921836, 8.886944, 353070848.000000, -0.210000,  0.490000,  0.070000, 0.000000,  0.000000 
 221561264.000000, -0.392423 , 3.907479, 8.884550, 353090848.000000, -0.280000,  0.420000,  0.070000, 0.000000,  0.000000 
 221580944.000000, -0.416351 , 3.964907, 8.870193, 353130816.000000, -0.140000,  0.350000,  0.070000, 0.000000,  0.000000 
 221600912.000000, -0.361316 , 3.912265, 8.829515, 0.000000, 0.000000,  0.000000,  0.000000, 0.000000,  0.000000 
 221620912.000000, -0.390030 , 3.881158, 8.839087, 353150784.000000, -0.280000,  0.420000,  0.070000, 0.000000,  0.000000 
 221640912.000000, -0.392423 , 3.881158, 8.896514, 353170784.000000, -0.490000,  0.420000,  0.070000, 0.000000,  0.000000 
 221661200.000000, -0.373280 , 3.936193, 8.855836, 353190784.000000, -0.560000,  0.420000,  0.070000, 0.000000,  0.000000 
 221680880.000000, -0.358923 , 3.926622, 8.889337, 353211072.000000, -0.350000,  0.350000,  0.070000, 0.000000,  0.000000 
 221700880.000000, -0.354138 , 3.929015, 8.853443, 353230752.000000, -0.140000,  0.350000,  0.140000, 0.000000,  0.000000 
 221720848.000000, -0.404387 , 3.938586, 8.882158, 353250752.000000, -0.070000,  0.420000,  0.070000, 0.000000,  0.000000 
 221740848.000000, -0.440279 , 3.984050, 8.841480, 353270720.000000, 0.070000,  0.560000,  -0.210000, 0.000000,  0.000000 
 221761136.000000, -0.413958 , 3.919443, 8.815158, 353290720.000000, 0.140000,  0.560000,  -0.280000, 0.000000,  0.000000 
 221780848.000000, -0.354138 , 3.854837, 8.903693, 353311008.000000, -0.980000,  0.350000,  0.140000, 0.000000,  0.000000 
 221800816.000000, -0.390030 , 3.792624, 8.901299, 353330720.000000, -2.100000,  0.140000,  0.350000, 0.000000,  0.000000 
 221820816.000000, -0.342174 , 3.833302, 8.860621, 353350688.000000, -1.190000,  0.140000,  0.280000, 0.000000,  0.000000 
 221840784.000000, -0.394816 , 3.960121, 8.889337, 353370688.000000, 0.770000,  0.210000,  0.210000, 0.000000,  0.000000 
 221861104.000000, -0.425922 , 3.996014, 8.867801, 353390688.000000, 1.610000,  0.420000,  0.210000, 0.000000,  0.000000 
 221880784.000000, -0.378066 , 3.929015, 8.774480, 353430656.000000, -0.280000,  0.420000,  -0.070000, 0.000000,  0.000000 
 221900752.000000, -0.394816 , 3.912265, 8.884550, 0.000000, 0.000000,  0.000000,  0.000000, 0.000000,  0.000000 
 221920752.000000, -0.346959 , 3.885944, 8.920443, 353450656.000000, -1.050000,  0.420000,  0.070000, 0.000000,  0.000000 
 221940752.000000, -0.332602 , 3.890730, 8.865408, 353470624.000000, -1.540000,  0.420000,  -0.070000, 0.000000,  0.000000 
 221961040.000000, -0.380459 , 3.871587, 8.853443, 353490624.000000, -1.120000,  0.350000,  -0.070000, 0.000000,  0.000000 
 221980720.000000, -0.409173 , 3.905087, 8.877372, 353510912.000000, -0.350000,  0.350000,  -0.070000, 0.000000,  0.000000 
 222000720.000000, -0.363709 , 3.919443, 8.855836, 353530592.000000, 0.280000,  0.350000,  0.140000, 0.000000,  0.000000 
 222020688.000000, -0.370888 , 3.929015, 8.891729, 353550592.000000, 0.140000,  0.350000,  0.140000, 0.000000,  0.000000 
 222040688.000000, -0.411566 , 3.948158, 8.865408, 353570592.000000, -0.210000,  0.280000,  0.070000, 0.000000,  0.000000 
 222060976.000000, -0.399601 , 3.964907, 8.863015, 353590560.000000, -0.140000,  0.350000,  0.070000, 0.000000,  0.000000 
 222080656.000000, -0.397209 , 3.926622, 8.932407, 353630560.000000, -0.560000,  0.350000,  0.140000, 0.000000,  0.000000 
 222100656.000000, -0.390030 , 3.888337, 8.843873, 0.000000, 0.000000,  0.000000,  0.000000, 0.000000,  0.000000 
 222120656.000000, -0.361316 , 3.857230, 8.882158, 353670528.000000, -0.210000,  0.210000,  0.210000, 353669792.000000,  1008.912781 
 222140624.000000, -0.375673 , 3.931407, 8.870193, 0.000000, 0.000000,  0.000000,  0.000000, 0.000000,  0.000000 
 222160944.000000, -0.332602 , 3.969693, 8.855836, 353690496.000000, 0.140000,  0.350000,  0.070000, 0.000000,  0.000000 
 222180592.000000, -0.428315 , 3.921836, 8.870193, 353710816.000000, 0.140000,  0.420000,  -0.070000, 0.000000,  0.000000 
 222200592.000000, -0.370888 , 3.921836, 8.879765, 353730496.000000, -0.280000,  0.350000,  -0.070000, 0.000000,  0.000000 
 222220624.000000, -0.409173 , 3.940979, 8.889337, 353750464.000000, -0.700000,  0.280000,  0.070000, 0.000000,  0.000000 
 222240560.000000, -0.423530 , 3.876373, 8.889337, 353770496.000000, -0.840000,  0.350000,  0.070000, 0.000000,  0.000000 
 222260880.000000, -0.449851 , 3.917051, 8.894121, 353790432.000000, -0.770000,  0.350000,  0.070000, 0.000000,  0.000000 
 222280560.000000, -0.397209 , 3.905087, 8.863015, 353830432.000000, -0.420000,  0.140000,  0.210000, 0.000000,  0.000000 
 222300720.000000, -0.392423 , 3.905087, 8.894121, 0.000000, 0.000000,  0.000000,  0.000000, 0.000000,  0.000000 
 222320528.000000, -0.375673 , 3.907479, 8.894121, 353850592.000000, -0.630000,  0.210000,  0.070000, 0.000000,  0.000000 
 222340528.000000, -0.394816 , 3.919443, 8.920443, 353870400.000000, -0.420000,  0.280000,  0.070000, 0.000000,  0.000000 
 222360816.000000, -0.404387 , 3.964907, 8.867801, 353890400.000000, -0.280000,  0.280000,  0.070000, 0.000000,  0.000000 
 222380496.000000, -0.416351 , 3.900301, 8.819944, 353910720.000000, -0.350000,  0.350000,  -0.070000, 0.000000,  0.000000 
 222400496.000000, -0.378066 , 3.888337, 8.836694, 353930368.000000, -0.630000,  0.350000,  -0.140000, 0.000000,  0.000000 
 222420464.000000, -0.385244 , 3.885944, 8.831908, 353950368.000000, -0.840000,  0.420000,  -0.140000, 0.000000,  0.000000 
 222440464.000000, -0.351745 , 3.869194, 8.874979, 353970336.000000, -1.050000,  0.490000,  -0.140000, 0.000000,  0.000000 
 222460784.000000, -0.375673 , 3.828516, 8.901299, 353990336.000000, -1.050000,  0.560000,  0.140000, 0.000000,  0.000000 
 222480432.000000, -0.323031 , 3.857230, 8.915657, 354010656.000000, -0.490000,  0.700000,  0.140000, 0.000000,  0.000000 
 222500432.000000, -0.351745 , 3.893122, 8.901299, 354030304.000000, 0.420000,  0.840000,  0.140000, 0.000000,  0.000000 
 222520432.000000, -0.423530 , 3.979264, 8.815158, 354050304.000000, 1.050000,  0.840000,  0.140000, 0.000000,  0.000000 
 222540400.000000, -0.442672 , 4.055835, 8.853443, 354070304.000000, 1.260000,  1.050000,  -0.350000, 0.000000,  0.000000 
 222560720.000000, -0.430708 , 3.931407, 8.877372, 354090272.000000, 0.420000,  1.120000,  -0.070000, 0.000000,  0.000000 
 222580368.000000, -0.342174 , 3.756732, 8.941978, 354130272.000000, -1.470000,  0.980000,  0.420000, 0.000000,  0.000000 
 222600368.000000, -0.378066 , 3.723232, 8.973085, 0.000000, 0.000000,  0.000000,  0.000000, 0.000000,  0.000000 
 222620368.000000, -0.442672 , 3.756732, 8.918050, 354150240.000000, 1.050000,  1.190000,  0.210000, 0.000000,  0.000000 
 222640336.000000, -0.425922 , 4.072584, 8.846266, 354170240.000000, 4.340000,  0.840000,  -0.350000, 0.000000,  0.000000 
 222660656.000000, -0.382852 , 4.192225, 8.678767, 354190240.000000, 6.650000,  0.210000,  -0.350000, 0.000000,  0.000000 
 222680336.000000, -0.533599 , 4.130012, 8.805587, 354210528.000000, 5.670000,  1.120000,  0.280000, 0.000000,  0.000000 
 222700304.000000, -0.433101 , 3.996014, 8.872586, 354230208.000000, 1.400000,  1.540000,  -0.210000, 0.000000,  0.000000 
 222720304.000000, -0.392423 , 3.852444, 8.863015, 354250176.000000, -1.400000,  1.260000,  0.350000, 0.000000,  0.000000 
 222740304.000000, -0.413958 , 3.816552, 8.901299, 354270176.000000, -1.890000,  0.700000,  0.560000, 0.000000,  0.000000 
 222760592.000000, -0.437887 , 3.823731, 8.889337, 354290176.000000, -0.700000,  1.190000,  -0.070000, 0.000000,  0.000000 
 222780272.000000, -0.320638 , 4.007978, 8.853443, 354310464.000000, 1.400000,  0.980000,  -0.280000, 0.000000,  0.000000 
 222800272.000000, -0.440279 , 4.031906, 8.779266, 354330144.000000, 3.850000,  0.420000,  0.770000, 0.000000,  0.000000 
 222820240.000000, -0.516850 , 4.103691, 8.812766, 354350144.000000, 3.220000,  1.190000,  0.770000, 0.000000,  0.000000 
 222840240.000000, -0.428315 , 4.091727, 8.817552, 354370112.000000, 1.470000,  1.050000,  -0.140000, 0.000000,  0.000000 
 222860528.000000, -0.404387 , 4.039084, 8.817552, 354390112.000000, 0.700000,  0.140000,  0.840000, 0.000000,  0.000000 
 222880208.000000, -0.375673 , 4.027121, 8.858230, 354410432.000000, -0.420000,  0.140000,  0.560000, 0.000000,  0.000000 
 222900208.000000, -0.356531 , 4.003192, 8.891729, 354430112.000000, -0.980000,  0.280000,  0.420000, 0.000000,  0.000000 
 222920208.000000, -0.375673 , 4.046263, 8.810372, 354450080.000000, -0.770000,  0.140000,  0.700000, 0.000000,  0.000000 
 222940176.000000, -0.390030 , 4.067799, 8.779266, 354470080.000000, 0.560000,  0.140000,  0.350000, 0.000000,  0.000000 
 222960496.000000, -0.392423 , 4.098906, 8.752945, 354490048.000000, 0.840000,  0.070000,  0.350000, 0.000000,  0.000000 
 222980176.000000, -0.435494 , 4.053442, 8.805587, 354510368.000000, -0.490000,  0.070000,  0.350000, 0.000000,  0.000000 
 223000144.000000, -0.447458 , 3.969693, 8.889337, 354530048.000000, -2.590000,  0.070000,  -0.280000, 0.000000,  0.000000 
 223020144.000000, -0.437887 , 3.893122, 8.898908, 354550016.000000, -3.640000,  -0.210000,  -0.140000, 0.000000,  0.000000 
 223040144.000000, -0.363709 , 3.893122, 8.872586, 354570016.000000, -3.150000,  -0.420000,  -0.140000, 0.000000,  0.000000 
 223060432.000000, -0.356531 , 3.917051, 8.841480, 354590016.000000, -1.890000,  -0.420000,  -0.420000, 0.000000,  0.000000 
 223080112.000000, -0.344566 , 4.010371, 8.824730, 354610304.000000, -0.420000,  -0.560000,  -0.420000, 0.000000,  0.000000 
 223100080.000000, -0.390030 , 4.070191, 8.817552, 354629984.000000, 0.140000,  -0.700000,  -0.350000, 0.000000,  0.000000 
 223120080.000000, -0.416351 , 4.019942, 8.803195, 354649984.000000, -0.630000,  -0.630000,  -0.560000, 0.000000,  0.000000 
 223139888.000000, -0.382852 , 4.010371, 8.803195, 354669952.000000, -2.170000,  -0.490000,  -0.630000, 354669216.000000,  1008.911194 
 223160432.000000, -0.394816 , 4.098906, 9.262616, 354689760.000000, -3.360000,  -0.560000,  -0.280000, 0.000000,  0.000000 
 223180112.000000, -0.413958 , 4.295116, 10.427922, 354710304.000000, -4.200000,  -0.210000,  -0.210000, 0.000000,  0.000000 
 223200112.000000, -0.339781 , 4.354938, 11.282159, 354729984.000000, -2.450000,  -0.210000,  -0.350000, 0.000000,  0.000000 
 223220144.000000, -0.382852 , 4.216154, 10.920842, 354749984.000000, -0.140000,  0.210000,  -0.280000, 0.000000,  0.000000 
 223240016.000000, -0.595813 , 2.885744, 4.043870, 354770016.000000, 1.260000,  0.140000,  -0.280000, 0.000000,  0.000000 
 223260336.000000, -0.413958 , 3.778267, 8.566305, 354789888.000000, 1.750000,  0.560000,  0.280000, 0.000000,  0.000000 
 223280016.000000, -0.299103 , 3.988836, 8.673983, 354810208.000000, -0.210000,  1.190000,  0.280000, 0.000000,  0.000000 
 223299984.000000, -0.382852 , 3.929015, 8.609376, 354829888.000000, 0.490000,  1.330000,  -0.140000, 0.000000,  0.000000 
 223319792.000000, -0.382852 , 3.931407, 8.609376, 354849856.000000, 0.980000,  1.120000,  -0.140000, 0.000000,  0.000000 
 223340016.000000, -0.387637 , 4.051049, 9.370294, 354869664.000000, 0.210000,  0.910000,  0.420000, 0.000000,  0.000000 
 223360432.000000, -0.354138 , 4.132405, 10.159925, 354889920.000000, -0.910000,  0.980000,  0.210000, 0.000000,  0.000000 
 223380016.000000, -0.392423 , 4.017549, 9.946963, 354910304.000000, -0.490000,  0.910000,  0.140000, 0.000000,  0.000000 
 223399984.000000, -0.256032 , 3.720839, 8.592626, 354929888.000000, 1.050000,  0.350000,  0.350000, 0.000000,  0.000000 
 223419984.000000, -0.179462 , 3.407379, 7.044470, 354949888.000000, 1.680000,  -0.140000,  0.490000, 0.000000,  0.000000 
 223439984.000000, -0.246461 , 3.227918, 5.855237, 354969856.000000, -1.050000,  0.210000,  0.140000, 0.000000,  0.000000 
 223460272.000000, -0.320638 , 3.156133, 5.032106, 354989856.000000, -1.820000,  0.350000,  0.070000, 0.000000,  0.000000 
 223479952.000000, -0.339781 , 3.182454, 4.692325, 355010144.000000, -1.820000,  0.490000,  -0.070000, 0.000000,  0.000000 
 223499952.000000, -0.301496 , 3.292524, 4.843073, 355029824.000000, -0.560000,  0.560000,  -0.140000, 0.000000,  0.000000 
 223519856.000000, 0.026321 , 4.634897, 11.205588, 355049824.000000, 0.490000,  0.420000,  0.070000, 0.000000,  0.000000 
 223539856.000000, -0.392423 , 4.180261, 8.829515, 355069760.000000, 1.960000,  -0.280000,  0.350000, 0.000000,  0.000000 
 223560144.000000, -0.519243 , 3.826123, 8.776874, 355089728.000000, 1.120000,  0.700000,  0.350000, 0.000000,  0.000000 
 223579856.000000, -0.457029 , 4.134798, 8.874979, 355110048.000000, 1.610000,  0.560000,  0.350000, 0.000000,  0.000000 
 223599824.000000, -0.447458 , 3.952943, 8.913264, 355129728.000000, 0.840000,  0.560000,  0.210000, 0.000000,  0.000000 
 223619824.000000, -0.370888 , 4.079762, 8.896514, 355149696.000000, 0.210000,  0.560000,  0.210000, 0.000000,  0.000000 
 223639824.000000, -0.437887 , 4.039084, 8.874979, 355169696.000000, -0.210000,  0.490000,  -0.070000, 0.000000,  0.000000 
 223660176.000000, -0.447458 , 4.137190, 9.363115, 355189696.000000, -0.560000,  0.350000,  -0.070000, 0.000000,  0.000000 
 223679856.000000, -0.457029 , 4.273581, 10.150353, 355210048.000000, -0.840000,  0.140000,  0.070000, 0.000000,  0.000000 
 223699856.000000, -0.399601 , 4.362115, 11.066804, 355229728.000000, -0.980000,  0.140000,  0.140000, 0.000000,  0.000000 
 223719824.000000, -0.430708 , 4.228118, 10.750952, 355249728.000000, -1.050000,  0.140000,  -0.070000, 0.000000,  0.000000 
 223739760.000000, 0.957129 , 1.287339, -3.005385, 355269696.000000, -0.980000,  0.070000,  -0.140000, 0.000000,  0.000000 
 223760048.000000, -0.184247 , 3.680161, 6.149554, 355289632.000000, -0.840000,  0.140000,  -0.280000, 0.000000,  0.000000 
 223779728.000000, -0.588634 , 3.835695, 8.877372, 355309920.000000, -0.840000,  0.280000,  -0.280000, 0.000000,  0.000000 
 223799728.000000, -0.488136 , 3.969693, 8.877372, 355329600.000000, -0.420000,  0.280000,  -0.140000, 0.000000,  0.000000 
 223819056.000000, -0.413958 , 4.089334, 8.889337, 355349600.000000, -0.700000,  0.140000,  -0.140000, 0.000000,  0.000000 
 223839760.000000, -0.442672 , 4.137190, 9.174082, 355368928.000000, -0.560000,  0.070000,  -0.140000, 0.000000,  0.000000 
 223860048.000000, -0.468993 , 4.323831, 10.202995, 355389632.000000, -0.280000,  0.070000,  0.210000, 0.000000,  0.000000 
 223879728.000000, -0.401994 , 4.441079, 11.265409, 355409920.000000, -0.280000,  0.070000,  0.210000, 0.000000,  0.000000 
 223899728.000000, -0.433101 , 4.304688, 10.990234, 355429632.000000, -0.700000,  0.420000,  -0.070000, 0.000000,  0.000000 
 223919728.000000, -0.282353 , 3.972085, 9.573684, 355449600.000000, -0.350000,  0.280000,  -0.070000, 0.000000,  0.000000 
 223939696.000000, -0.174676 , 3.617948, 7.999206, 355469600.000000, -0.070000,  0.840000,  -0.070000, 0.000000,  0.000000 
 223960016.000000, -0.186640 , 3.359523, 6.632904, 355489600.000000, 0.140000,  1.050000,  -0.070000, 0.000000,  0.000000 
 223979696.000000, -0.265603 , 3.201597, 5.539384, 355509888.000000, 0.490000,  0.770000,  0.140000, 0.000000,  0.000000 
 223999664.000000, -0.318245 , 3.170490, 4.833502, 355529568.000000, 1.190000,  0.770000,  0.350000, 0.000000,  0.000000 
 224019600.000000, -0.289532 , 4.225725, 5.343173, 355549536.000000, 1.400000,  0.700000,  0.280000, 0.000000,  0.000000 
 224039568.000000, -0.741775 , 4.146761, 8.549555, 355569472.000000, 1.190000,  0.630000,  0.280000, 0.000000,  0.000000 
 224059888.000000, -0.387637 , 4.108476, 8.812766, 355589440.000000, 0.280000,  0.840000,  0.280000, 0.000000,  0.000000 
 224079568.000000, -0.351745 , 3.993621, 8.903693, 355609760.000000, -0.980000,  0.420000,  0.350000, 0.000000,  0.000000 
 224099536.000000, -0.330210 , 3.833302, 8.963513, 355629440.000000, -2.240000,  0.280000,  0.350000, 0.000000,  0.000000 
 224119536.000000, -0.323031 , 4.065405, 9.011370, 355649440.000000, -1.470000,  0.280000,  0.140000, 0.000000,  0.000000 
 224139536.000000, -0.454636 , 4.063013, 9.006584, 355669408.000000, 0.070000,  0.210000,  0.070000, 355668672.000000,  1008.912048 
 224159824.000000, -0.433101 , 4.084548, 8.994620, 355689408.000000, 0.560000,  0.350000,  -0.210000, 0.000000,  0.000000 
 224179504.000000, -0.445065 , 4.065405, 8.968300, 355709728.000000, -0.420000,  0.490000,  -0.280000, 0.000000,  0.000000 
 224199504.000000, -0.380459 , 3.972085, 8.946764, 355729376.000000, -1.750000,  0.350000,  -0.070000, 0.000000,  0.000000 
 224219536.000000, -0.423530 , 3.890730, 8.903693, 355749376.000000, -2.170000,  0.280000,  0.070000, 0.000000,  0.000000 
 224239472.000000, -0.411566 , 3.885944, 8.882158, 355769408.000000, -1.470000,  0.280000,  0.070000, 0.000000,  0.000000 
 224259792.000000, -0.392423 , 3.979264, 8.858230, 355789344.000000, -0.070000,  0.140000,  0.140000, 0.000000,  0.000000 
 224279440.000000, -0.413958 , 3.996014, 8.817552, 355809664.000000, 1.050000,  0.140000,  0.070000, 0.000000,  0.000000 
 224299440.000000, -0.370888 , 4.070191, 8.791230, 355829312.000000, 1.260000,  0.350000,  0.070000, 0.000000,  0.000000 
 224319440.000000, -0.368495 , 4.034299, 8.803195, 355849312.000000, 0.420000,  0.350000,  0.070000, 0.000000,  0.000000 
 224339408.000000, -0.406780 , 3.972085, 8.829515, 355869312.000000, -0.560000,  0.210000,  0.070000, 0.000000,  0.000000 
 224359728.000000, -0.401994 , 3.984050, 8.858230, 355889280.000000, -0.630000,  0.350000,  -0.070000, 0.000000,  0.000000 
 224379408.000000, -0.423530 , 3.976871, 8.829515, 355909600.000000, -0.420000,  0.350000,  -0.070000, 0.000000,  0.000000 
 224399376.000000, -0.356531 , 3.962514, 8.853443, 355929280.000000, -0.630000,  0.210000,  0.140000, 0.000000,  0.000000 
 224419376.000000, -0.354138 , 3.969693, 8.800802, 355949248.000000, -0.630000,  0.140000,  0.280000, 0.000000,  0.000000 
 224439376.000000, -0.368495 , 3.998406, 8.879765, 355969248.000000, -0.490000,  0.280000,  0.280000, 0.000000,  0.000000 
 224459664.000000, -0.454636 , 4.029513, 8.851050, 355989248.000000, -0.070000,  0.560000,  0.280000, 0.000000,  0.000000 
 224479344.000000, -0.425922 , 4.015156, 8.824730, 356009536.000000, -0.070000,  0.700000,  -0.210000, 0.000000,  0.000000 
 224499312.000000, -0.399601 , 3.993621, 8.824730, 356029216.000000, -0.280000,  0.560000,  -0.210000, 0.000000,  0.000000 
 224519312.000000, -0.409173 , 3.967300, 8.903693, 356049216.000000, -0.630000,  0.490000,  0.140000, 0.000000,  0.000000 
 224539312.000000, -0.411566 , 3.926622, 8.827123, 356069184.000000, -0.840000,  0.560000,  0.210000, 0.000000,  0.000000 
 224559600.000000, -0.358923 , 3.924229, 8.865408, 356089184.000000, -0.420000,  0.560000,  0.140000, 0.000000,  0.000000 
 224579280.000000, -0.409173 , 4.027121, 8.817552, 356109472.000000, 0.420000,  0.560000,  0.070000, 0.000000,  0.000000 
 224599280.000000, -0.387637 , 4.031906, 8.812766, 356129152.000000, 0.840000,  0.560000,  0.070000, 0.000000,  0.000000 
 224619280.000000, -0.375673 , 4.015156, 8.848659, 356149152.000000, 0.490000,  0.420000,  0.070000, 0.000000,  0.000000 
 224639248.000000, -0.409173 , 3.986443, 8.855836, 356169152.000000, -0.210000,  0.420000,  0.070000, 0.000000,  0.000000 
 224659568.000000, -0.394816 , 4.005585, 8.846266, 356189120.000000, -0.700000,  0.210000,  0.070000, 0.000000,  0.000000 
 224679248.000000, -0.404387 , 3.986443, 8.872586, 356209440.000000, -0.770000,  0.350000,  -0.070000, 0.000000,  0.000000 
 224699216.000000, -0.399601 , 3.981657, 8.853443, 356229120.000000, -0.840000,  0.350000,  -0.140000, 0.000000,  0.000000 
 224719216.000000, -0.399601 , 4.003192, 8.848659, 356249088.000000, -0.840000,  0.280000,  -0.140000, 0.000000,  0.000000 
 224739184.000000, -0.406780 , 4.034299, 8.853443, 356269088.000000, -0.420000,  0.280000,  -0.140000, 0.000000,  0.000000 
 224759504.000000, -0.382852 , 3.962514, 8.848659, 356289088.000000, -0.210000,  0.070000,  0.280000, 0.000000,  0.000000 
 224779184.000000, -0.394816 , 4.031906, 8.853443, 356309376.000000, -0.210000,  0.070000,  0.140000, 0.000000,  0.000000 
 224799152.000000, -0.483350 , 4.063013, 8.810372, 356329056.000000, 0.280000,  0.280000,  -0.210000, 0.000000,  0.000000 
 224819152.000000, -0.361316 , 4.027121, 8.815158, 356349056.000000, -0.070000,  0.210000,  -0.210000, 0.000000,  0.000000 
 224839152.000000, -0.390030 , 3.902694, 8.920443, 356369024.000000, -1.400000,  0.210000,  0.210000, 0.000000,  0.000000 
 224859440.000000, -0.421137 , 3.914658, 8.867801, 356389024.000000, -1.820000,  0.350000,  0.210000, 0.000000,  0.000000 
 224879120.000000, -0.430708 , 4.012764, 8.836694, 356409312.000000, -0.420000,  0.350000,  0.210000, 0.000000,  0.000000 
 224899120.000000, -0.375673 , 4.120440, 8.822337, 356428992.000000, 1.190000,  0.210000,  -0.070000, 0.000000,  0.000000 
 224919088.000000, -0.409173 , 4.089334, 8.812766, 356448992.000000, 0.770000,  0.210000,  -0.280000, 0.000000,  0.000000 
 224939088.000000, -0.433101 , 4.005585, 8.812766, 356468960.000000, -0.840000,  0.140000,  -0.280000, 0.000000,  0.000000 
 224959376.000000, -0.363709 , 3.917051, 8.841480, 356488960.000000, -2.240000,  0.140000,  -0.280000, 0.000000,  0.000000 
 224979056.000000, -0.413958 , 3.917051, 8.793623, 356509280.000000, -2.870000,  -0.070000,  -0.140000, 0.000000,  0.000000 
 224999056.000000, -0.425922 , 3.869194, 8.827123, 356528928.000000, -2.660000,  -0.070000,  -0.210000, 0.000000,  0.000000 
 225019056.000000, -0.323031 , 3.940979, 8.843873, 356548928.000000, -1.680000,  0.210000,  -0.070000, 0.000000,  0.000000 
 225039024.000000, -0.330210 , 3.871587, 8.934800, 356568928.000000, -0.630000,  0.280000,  0.350000, 0.000000,  0.000000 
 225059344.000000, -0.437887 , 3.893122, 8.922836, 356588896.000000, 0.070000,  0.630000,  0.280000, 0.000000,  0.000000 
 225079024.000000, -0.418744 , 4.034299, 8.772088, 356609216.000000, 1.540000,  0.770000,  -0.210000, 0.000000,  0.000000 
 225098992.000000, -0.454636 , 4.118048, 8.733803, 356628896.000000, 3.010000,  0.490000,  -0.070000, 0.000000,  0.000000 
 225118992.000000, -0.409173 , 4.096512, 8.855836, 356648864.000000, 1.890000,  0.560000,  -0.070000, 0.000000,  0.000000 
 225138992.000000, -0.397209 , 3.909872, 8.989835, 356668864.000000, -1.190000,  0.840000,  0.210000, 356668128.000000,  1008.912659 
 225159280.000000, -0.380459 , 3.816552, 8.961121, 356688864.000000, -3.010000,  0.910000,  0.350000, 0.000000,  0.000000 
 225178960.000000, -0.390030 , 3.984050, 8.800802, 356709152.000000, -0.840000,  0.910000,  0.350000, 0.000000,  0.000000 
 225198960.000000, -0.418744 , 4.132405, 8.786445, 356728832.000000, 2.730000,  0.630000,  0.140000, 0.000000,  0.000000 
 225218960.000000, -0.385244 , 4.130012, 8.846266, 356748832.000000, 2.800000,  0.490000,  0.420000, 0.000000,  0.000000 
 225238928.000000, -0.428315 , 3.924229, 8.910872, 356768864.000000, 0.210000,  0.770000,  0.140000, 0.000000,  0.000000 
 225259216.000000, -0.464208 , 3.929015, 8.846266, 356788800.000000, -1.050000,  0.910000,  0.140000, 0.000000,  0.000000 
 225278896.000000, -0.457029 , 4.048656, 8.784052, 356809088.000000, -0.140000,  0.700000,  -0.070000, 0.000000,  0.000000 
 225298896.000000, -0.404387 , 4.063013, 8.846266, 356828768.000000, 1.120000,  0.420000,  0.280000, 0.000000,  0.000000 
 225318896.000000, -0.380459 , 3.926622, 8.877372, 356848768.000000, 0.140000,  0.350000,  0.700000, 0.000000,  0.000000 
 225338864.000000, -0.406780 , 3.806981, 8.906086, 356868768.000000, -1.680000,  0.490000,  0.770000, 0.000000,  0.000000 
 225359152.000000, -0.411566 , 3.845266, 8.894121, 356888736.000000, -1.540000,  0.420000,  0.420000, 0.000000,  0.000000 
 225378864.000000, -0.413958 , 4.101298, 8.846266, 356909056.000000, 0.210000,  -0.070000,  0.350000, 0.000000,  0.000000 
 225398832.000000, -0.342174 , 4.350152, 8.733803, 356928736.000000, 3.710000,  -0.280000,  0.140000, 0.000000,  0.000000 
 225418832.000000, -0.344566 , 4.400401, 8.740981, 356948704.000000, 3.850000,  -0.490000,  0.210000, 0.000000,  0.000000 
 225438832.000000, -0.464208 , 4.158726, 8.798409, 356968704.000000, -1.330000,  -0.280000,  -0.420000, 0.000000,  0.000000 
 225459120.000000, -0.509671 , 3.948158, 8.853443, 356988704.000000, -7.140000,  0.350000,  -1.330000, 0.000000,  0.000000 
 225478800.000000, -0.459422 , 3.737589, 8.898908, 357008992.000000, -8.890000,  0.140000,  -1.120000, 0.000000,  0.000000 
 225498800.000000, -0.394816 , 3.637090, 8.891729, 357028672.000000, -9.800000,  -0.140000,  -0.840000, 0.000000,  0.000000 
 225518800.000000, -0.373280 , 3.651447, 8.882158, 357048672.000000, -7.490000,  -0.630000,  -0.560000, 0.000000,  0.000000 
 225538768.000000, -0.344566 , 3.682554, 8.896514, 357068672.000000, -4.060000,  -0.630000,  -0.350000, 0.000000,  0.000000 
 225559056.000000, -0.392423 , 3.759124, 8.913264, 357088640.000000, -1.400000,  -0.490000,  -0.210000, 0.000000,  0.000000 
 225578736.000000, -0.397209 , 3.833302, 8.891729, 357108928.000000, 0.420000,  -0.210000,  -0.280000, 0.000000,  0.000000 
 225598736.000000, -0.366102 , 3.976871, 8.894121, 357128640.000000, 2.590000,  -0.070000,  -0.490000, 0.000000,  0.000000 
 225618736.000000, -0.354138 , 4.098906, 8.901299, 357148608.000000, 4.060000,  -0.210000,  -0.490000, 0.000000,  0.000000 
 225638704.000000, -0.349352 , 3.972085, 8.925228, 357168608.000000, 3.570000,  -0.070000,  0.070000, 0.000000,  0.000000 
 225658992.000000, -0.380459 , 4.017549, 8.973085, 357188576.000000, 2.660000,  0.560000,  0.070000, 0.000000,  0.000000 
 225678704.000000, -0.411566 , 4.331009, 8.937192, 357208896.000000, 5.670000,  1.470000,  0.560000, 0.000000,  0.000000 
 225698672.000000, -0.404387 , 4.175476, 8.824730, 357228576.000000, 3.150000,  0.630000,  0.070000, 0.000000,  0.000000 
 225718672.000000, -0.387637 , 4.086941, 8.776874, 357248544.000000, 0.630000,  1.190000,  0.840000, 0.000000,  0.000000 
 225738640.000000, -0.454636 , 3.718446, 8.798409, 357268544.000000, -4.270000,  0.700000,  0.210000, 0.000000,  0.000000 
 225758960.000000, -0.399601 , 3.873980, 8.822337, 357288544.000000, -5.180000,  0.840000,  -0.280000, 0.000000,  0.000000 
 225778640.000000, -0.392423 , 3.732803, 8.910872, 357308832.000000, -2.310000,  0.840000,  0.420000, 0.000000,  0.000000 
 225798608.000000, -0.385244 , 3.854837, 8.925228, 357328512.000000, -1.610000,  -0.210000,  0.280000, 0.000000,  0.000000 
 225818608.000000, -0.442672 , 3.969693, 8.839087, 357348480.000000, 0.910000,  0.280000,  -0.140000, 0.000000,  0.000000 
 225838576.000000, -0.349352 , 4.058227, 8.760124, 357368480.000000, 3.640000,  0.210000,  0.210000, 0.000000,  0.000000 
 225858896.000000, -0.418744 , 3.967300, 8.796017, 357388480.000000, 3.010000,  0.210000,  0.420000, 0.000000,  0.000000 
 225878576.000000, -0.464208 , 4.010371, 8.800802, 357408768.000000, 1.400000,  0.280000,  -0.070000, 0.000000,  0.000000 
 225898544.000000, -0.425922 , 4.094120, 8.872586, 357428448.000000, 0.910000,  0.490000,  -0.070000, 0.000000,  0.000000 
 225918544.000000, -0.404387 , 4.055835, 8.865408, 357448448.000000, 0.210000,  0.140000,  0.280000, 0.000000,  0.000000 
 225938544.000000, -0.363709 , 3.986443, 8.851050, 357468416.000000, -1.260000,  0.070000,  0.070000, 0.000000,  0.000000 
 225958864.000000, -0.318245 , 3.957729, 8.827123, 357488416.000000, -1.680000,  0.070000,  -0.070000, 0.000000,  0.000000 
 225978512.000000, -0.380459 , 4.031906, 8.863015, 357508736.000000, -1.050000,  0.070000,  0.070000, 0.000000,  0.000000 
 225998512.000000, -0.437887 , 4.079762, 8.906086, 357528384.000000, -0.280000,  0.210000,  -0.280000, 0.000000,  0.000000 
 226018480.000000, -0.370888 , 4.079762, 8.863015, 357548384.000000, -0.280000,  0.490000,  -0.420000, 0.000000,  0.000000 
 226038480.000000, -0.430708 , 3.936193, 8.839087, 357568384.000000, -1.750000,  0.420000,  -0.350000, 0.000000,  0.000000 
 226058800.000000, -0.404387 , 3.840480, 8.829515, 357588352.000000, -3.150000,  0.490000,  -0.420000, 0.000000,  0.000000 
 226078448.000000, -0.459422 , 3.818945, 8.874979, 357608672.000000, -3.080000,  0.630000,  -0.280000, 0.000000,  0.000000 
 226098448.000000, -0.409173 , 3.816552, 8.918050, 357628352.000000, -1.540000,  0.700000,  -0.140000, 0.000000,  0.000000 
 226118448.000000, -0.409173 , 3.938586, 8.922836, 357648320.000000, 0.420000,  0.630000,  -0.070000, 0.000000,  0.000000 
 226138416.000000, -0.401994 , 4.058227, 8.860621, 357668320.000000, 2.170000,  0.490000,  0.210000, 357667584.000000,  1008.908203 
 226158736.000000, -0.349352 , 4.065405, 8.824730, 357688320.000000, 2.520000,  0.350000,  0.420000, 0.000000,  0.000000 
 226178416.000000, -0.394816 , 4.108476, 8.831908, 357708608.000000, 2.030000,  0.280000,  0.490000, 0.000000,  0.000000 
 226198384.000000, -0.370888 , 4.041477, 8.843873, 357728288.000000, 1.260000,  0.350000,  0.630000, 0.000000,  0.000000 
 226218416.000000, -0.366102 , 3.976871, 8.855836, 357748288.000000, 1.260000,  0.420000,  0.420000, 0.000000,  0.000000 
 226238384.000000, -0.406780 , 3.981657, 8.836694, 357768288.000000, -0.840000,  0.770000,  0.140000, 0.000000,  0.000000 
 226258672.000000, -0.370888 , 4.031906, 8.870193, 357788256.000000, -0.700000,  0.630000,  0.070000, 0.000000,  0.000000 
 226278352.000000, -0.397209 , 3.969693, 8.848659, 357808576.000000, -0.210000,  0.490000,  0.350000, 0.000000,  0.000000 
 226298512.000000, -0.339781 , 3.962514, 8.829515, 357828224.000000, -0.350000,  0.490000,  0.280000, 0.000000,  0.000000 
 226318320.000000, -0.351745 , 4.015156, 8.836694, 357848384.000000, -0.420000,  0.490000,  0.070000, 0.000000,  0.000000 
 226338320.000000, -0.464208 , 4.082155, 8.779266, 357868192.000000, -0.210000,  0.350000,  -0.420000, 0.000000,  0.000000 
 226358640.000000, -0.435494 , 4.027121, 8.822337, 357888192.000000, 0.070000,  0.420000,  -0.490000, 0.000000,  0.000000 
 226378288.000000, -0.380459 , 3.900301, 8.843873, 357908512.000000, -1.260000,  0.140000,  0.070000, 0.000000,  0.000000 
 226398288.000000, -0.337388 , 3.756732, 8.903693, 357928160.000000, -2.870000,  -0.140000,  0.420000, 0.000000,  0.000000 
 226418288.000000, -0.447458 , 3.871587, 8.874979, 357948160.000000, -1.540000,  0.140000,  0.140000, 0.000000,  0.000000 
 226438256.000000, -0.385244 , 4.070191, 8.819944, 357968160.000000, 2.100000,  0.420000,  0.140000, 0.000000,  0.000000 
 226458576.000000, -0.399601 , 4.101298, 8.798409, 357988128.000000, 3.360000,  0.280000,  0.210000, 0.000000,  0.000000 
 226478256.000000, -0.385244 , 4.079762, 8.812766, 358008448.000000, 1.890000,  0.350000,  0.210000, 0.000000,  0.000000 
 226498224.000000, -0.416351 , 4.060620, 8.841480, 358028128.000000, 0.280000,  0.490000,  -0.140000, 0.000000,  0.000000 
 226518224.000000, -0.385244 , 4.046263, 8.841480, 358048096.000000, -1.190000,  0.280000,  0.070000, 0.000000,  0.000000 
 226538192.000000, -0.392423 , 3.938586, 8.884550, 358068096.000000, -2.170000,  0.420000,  0.070000, 0.000000,  0.000000 
 226558512.000000, -0.382852 , 3.929015, 8.836694, 358088096.000000, -2.310000,  0.420000,  -0.070000, 0.000000,  0.000000 
 226578192.000000, -0.394816 , 3.967300, 8.831908, 358108384.000000, -1.050000,  0.420000,  -0.070000, 0.000000,  0.000000 
 226598160.000000, -0.401994 , 3.962514, 8.822337, 358128064.000000, -0.490000,  0.420000,  -0.070000, 0.000000,  0.000000 
 226618160.000000, -0.356531 , 3.984050, 8.827123, 358148064.000000, -0.210000,  0.210000,  0.070000, 0.000000,  0.000000 
 226638160.000000, -0.428315 , 3.976871, 8.827123, 358168032.000000, 0.210000,  0.280000,  0.210000, 0.000000,  0.000000 
 226658448.000000, -0.445065 , 3.993621, 8.807980, 358188032.000000, 0.210000,  0.490000,  0.210000, 0.000000,  0.000000 
 226678128.000000, -0.370888 , 3.929015, 8.872586, 358208320.000000, -0.490000,  0.490000,  0.140000, 0.000000,  0.000000 
 226698128.000000, -0.397209 , 3.962514, 8.860621, 358228000.000000, -0.420000,  0.350000,  0.420000, 0.000000,  0.000000 
 226718096.000000, -0.368495 , 4.046263, 8.834301, 358248000.000000, 0.140000,  0.420000,  0.280000, 0.000000,  0.000000 
 226738096.000000, -0.330210 , 4.065405, 8.831908, 358268000.000000, 0.980000,  0.350000,  0.280000, 0.000000,  0.000000 
 226758416.000000, -0.366102 , 4.039084, 8.855836, 358287968.000000, 0.700000,  0.420000,  0.070000, 0.000000,  0.000000 
 226778064.000000, -0.430708 , 4.101298, 8.819944, 358308288.000000, -0.140000,  0.560000,  -0.350000, 0.000000,  0.000000 
 226798064.000000, -0.380459 , 4.000800, 8.834301, 358327968.000000, -0.420000,  0.490000,  -0.140000, 0.000000,  0.000000 
 226818064.000000, -0.330210 , 3.964907, 8.886944, 358347936.000000, -1.890000,  0.070000,  0.140000, 0.000000,  0.000000 
 226838032.000000, -0.394816 , 3.945765, 8.877372, 358367936.000000, -2.870000,  0.070000,  0.070000, 0.000000,  0.000000 
 226858352.000000, -0.459422 , 3.854837, 8.889337, 358387936.000000, -2.100000,  0.280000,  0.070000, 0.000000,  0.000000 
 226878032.000000, -0.394816 , 3.914658, 8.879765, 358408224.000000, -1.260000,  0.280000,  -0.070000, 0.000000,  0.000000 
 226898000.000000, -0.428315 , 3.976871, 8.807980, 358427904.000000, -0.560000,  0.280000,  0.070000, 0.000000,  0.000000 
 226918000.000000, -0.442672 , 3.979264, 8.831908, 358447872.000000, -0.560000,  0.490000,  0.070000, 0.000000,  0.000000 
 226938000.000000, -0.363709 , 4.000800, 8.841480, 358467872.000000, 0.210000,  0.350000,  0.140000, 0.000000,  0.000000 
 226958288.000000, -0.411566 , 4.012764, 8.831908, 358487872.000000, 0.140000,  0.280000,  0.280000, 0.000000,  0.000000 
 226977968.000000, -0.425922 , 4.010371, 8.867801, 358508160.000000, 0.140000,  0.560000,  0.280000, 0.000000,  0.000000 
 226997968.000000, -0.342174 , 4.024727, 8.843873, 358527840.000000, 0.210000,  0.630000,  0.280000, 0.000000,  0.000000 
 227017936.000000, -0.334995 , 3.984050, 8.831908, 358547840.000000, 0.490000,  0.350000,  0.210000, 0.000000,  0.000000 
 227037936.000000, -0.387637 , 4.012764, 8.798409, 358567808.000000, 0.490000,  0.350000,  0.280000, 0.000000,  0.000000 
 227058224.000000, -0.418744 , 4.017549, 8.796017, 358587808.000000, -0.420000,  0.490000,  -0.140000, 0.000000,  0.000000 
 227077904.000000, -0.366102 , 4.029513, 8.805587, 358608096.000000, -0.350000,  0.350000,  -0.140000, 0.000000,  0.000000 
 227097904.000000, -0.375673 , 3.885944, 8.853443, 358627808.000000, -1.260000,  0.140000,  0.420000, 0.000000,  0.000000 
 227117904.000000, -0.378066 , 3.854837, 8.889337, 358647776.000000, -2.100000,  0.280000,  0.280000, 0.000000,  0.000000 
 227137872.000000, -0.366102 , 3.991228, 8.807980, 358667776.000000, -0.630000,  0.420000,  0.070000, 358667040.000000,  1008.904663 
 227158192.000000, -0.416351 , 4.055835, 8.812766, 358687744.000000, 1.260000,  0.280000,  0.070000, 0.000000,  0.000000 
 227177872.000000, -0.437887 , 4.079762, 8.824730, 358708064.000000, 1.050000,  0.350000,  -0.140000, 0.000000,  0.000000 
 227197840.000000, -0.473779 , 3.998406, 8.822337, 358727744.000000, -0.490000,  0.630000,  -0.280000, 0.000000,  0.000000 
 227217872.000000, -0.409173 , 3.914658, 8.829515, 358747744.000000, -1.400000,  0.630000,  -0.140000, 0.000000,  0.000000 
 227237840.000000, -0.339781 , 3.885944, 8.860621, 358767744.000000, -1.470000,  0.210000,  0.350000, 0.000000,  0.000000 
 227258128.000000, -0.397209 , 3.847659, 8.863015, 358787712.000000, -1.050000,  0.350000,  0.350000, 0.000000,  0.000000 
 227277808.000000, -0.418744 , 3.921836, 8.846266, 358808000.000000, -0.140000,  0.630000,  0.350000, 0.000000,  0.000000 
 227297808.000000, -0.409173 , 3.960121, 8.846266, 358827680.000000, 0.770000,  0.700000,  -0.140000, 0.000000,  0.000000 
 227317776.000000, -0.430708 , 4.051049, 8.774480, 358847680.000000, 1.750000,  0.770000,  -0.280000, 0.000000,  0.000000 
 227337776.000000, -0.406780 , 4.053442, 8.817552, 358867648.000000, 1.680000,  0.700000,  -0.140000, 0.000000,  0.000000 
 227358064.000000, -0.390030 , 3.969693, 8.896514, 358887648.000000, 0.280000,  0.700000,  -0.140000, 0.000000,  0.000000 
 227377744.000000, -0.430708 , 3.962514, 8.884550, 358907936.000000, -0.490000,  0.980000,  -0.210000, 0.000000,  0.000000 
 227397744.000000, -0.411566 , 4.007978, 8.824730, 358927648.000000, -0.280000,  1.120000,  -0.070000, 0.000000,  0.000000 
 227417744.000000, -0.361316 , 4.041477, 8.793623, 358947616.000000, 0.910000,  0.840000,  0.140000, 0.000000,  0.000000 
 227437712.000000, -0.390030 , 4.077370, 8.736196, 358967616.000000, 1.470000,  0.630000,  0.350000, 0.000000,  0.000000 
 227458032.000000, -0.394816 , 4.053442, 8.853443, 358987584.000000, 1.120000,  0.980000,  0.350000, 0.000000,  0.000000 
 227477712.000000, -0.416351 , 4.019942, 8.800802, 359007904.000000, 0.350000,  1.260000,  0.350000, 0.000000,  0.000000 
 227497680.000000, -0.409173 , 3.979264, 8.817552, 359027584.000000, -0.210000,  1.120000,  -0.070000, 0.000000,  0.000000 
 227517680.000000, -0.433101 , 4.003192, 8.822337, 359047552.000000, -0.700000,  1.260000,  -0.210000, 0.000000,  0.000000 
 227537680.000000, -0.421137 , 4.007978, 8.824730, 359067552.000000, -0.910000,  1.190000,  -0.070000, 0.000000,  0.000000 
 227557968.000000, -0.452243 , 3.996014, 8.884550, 359087552.000000, -1.190000,  0.980000,  -0.070000, 0.000000,  0.000000 
 227577648.000000, -0.399601 , 4.010371, 8.889337, 359107840.000000, -0.910000,  0.910000,  0.070000, 0.000000,  0.000000 
 227597648.000000, -0.471386 , 4.007978, 8.839087, 359127520.000000, -0.070000,  0.770000,  0.140000, 0.000000,  0.000000 
 227617616.000000, -0.459422 , 4.031906, 8.841480, 359147520.000000, 0.700000,  0.700000,  0.140000, 0.000000,  0.000000 
 227637616.000000, -0.457029 , 3.964907, 8.781659, 359167488.000000, 0.770000,  0.420000,  0.140000, 0.000000,  0.000000 
 227657904.000000, -0.449851 , 3.902694, 8.752945, 359187488.000000, 0.700000,  0.420000,  0.210000, 0.000000,  0.000000 
 227677584.000000, -0.358923 , 4.182654, 8.729016, 359207776.000000, 1.400000,  -0.560000,  -0.140000, 0.000000,  0.000000 
 227697584.000000, -0.397209 , 4.161119, 8.767302, 359227456.000000, 2.520000,  -0.490000,  0.420000, 0.000000,  0.000000 
 227717552.000000, -0.495314 , 3.907479, 8.863015, 359247456.000000, -0.140000,  0.700000,  0.420000, 0.000000,  0.000000 
 227737552.000000, -0.382852 , 3.866802, 8.805587, 359267424.000000, -2.450000,  0.980000,  -0.420000, 0.000000,  0.000000 
 227757872.000000, -0.361316 , 4.012764, 8.810372, 359287424.000000, -0.840000,  0.140000,  0.420000, 0.000000,  0.000000 
 227777520.000000, -0.433101 , 4.082155, 8.874979, 359307744.000000, 1.050000,  0.140000,  0.420000, 0.000000,  0.000000 
 227797520.000000, -0.406780 , 4.137190, 8.846266, 359327392.000000, 1.400000,  0.630000,  -0.350000, 0.000000,  0.000000 
 227817520.000000, -0.421137 , 4.051049, 8.807980, 359347392.000000, 1.050000,  0.490000,  -0.140000, 0.000000,  0.000000 
 227837488.000000, -0.461815 , 4.007978, 8.791230, 359367392.000000, -0.350000,  0.210000,  0.140000, 0.000000,  0.000000 
 227857808.000000, -0.375673 , 3.905087, 8.834301, 359387360.000000, -1.540000,  0.350000,  0.140000, 0.000000,  0.000000 
 227877456.000000, -0.366102 , 3.981657, 8.843873, 359407680.000000, -1.260000,  0.140000,  0.350000, 0.000000,  0.000000 
 227897456.000000, -0.445065 , 4.055835, 8.870193, 359427360.000000, -0.280000,  0.210000,  0.280000, 0.000000,  0.000000 
 227917456.000000, -0.399601 , 4.103691, 8.786445, 359447328.000000, 0.630000,  0.490000,  -0.070000, 0.000000,  0.000000 
