Acc_timestamp,Accx,Accy,Accz,Gyro_timestamp,Gyrox,Gyroy,Gyroz,Baro_timestamp,Pressure_Reading
 33305088.000000, 1.284946 , 3.287738, 9.028119, 0.000000, 0.000000,  0.000000,  0.000000, 0.000000,  0.000000
 19648.000000, 1.244268 , 3.072384, 9.064013, 0.000000, 0.000000,  0.000000,  0.000000, 0.000000,  0.000000
 40064.000000, 1.127020 , 2.988636, 9.226725, 0.000000, 0.000000,  0.000000,  0.000000, 0.000000,  0.000000 
 60032.000000, 1.103091 , 3.208775, 9.073583, 643156800.000000, -10.360000,  -27.160000,  -41.020000, 0.000000,  0.000000 
 80000.000000, 1.002593 , 3.292524, 8.977871, 643176832.000000, -10.360000,  -27.160000,  -41.020000, 0.000000,  0.000000 
 100288.000000, 0.921237 , 3.060420, 9.061620, 643196800.000000, -7.490000,  9.450000,  1.750000, 0.000000,  0.000000 
 119616.000000, 0.842274 , 2.871387, 9.104690, 643217088.000000, -12.740000,  2.380000,  -3.290000, 0.000000,  0.000000 
 139968.000000, 0.681954 , 2.878566, 8.906086, 643236416.000000, -10.360000,  1.330000,  -1.680000, 0.000000,  0.000000 
 159936.000000, 0.825524 , 3.115455, 8.858230, 643256768.000000, -2.730000,  2.730000,  -3.220000, 0.000000,  0.000000 
 179968.000000, 0.973879 , 3.215954, 8.805587, 643276736.000000, 1.680000,  3.920000,  -0.420000, 0.000000,  0.000000 
 200256.000000, 0.981057 , 3.393023, 8.769694, 643296768.000000, 0.140000,  7.630000,  7.490000, 0.000000,  0.000000 
 219904.000000, 0.902094 , 3.256632, 8.621340, 643317056.000000, -5.740000,  15.400000,  8.330000, 0.000000,  0.000000 
 240000.000000, 0.303888 , 2.790031, 8.614161, 643336704.000000, -10.150000,  22.400000,  9.520000, 0.000000,  0.000000 
 261376.000000, -0.930808 , 2.711068, 8.654840, 643356800.000000, -20.230000,  25.549999,  13.020000, 0.000000,  0.000000 
 280704.000000, 0.626920 , 2.667997, 8.819944, 643378176.000000, -22.190001,  15.330000,  -36.610001, 0.000000,  0.000000 
 300992.000000, 2.273181 , 2.921637, 9.004191, 643397504.000000, -6.790000,  -10.290000,  -15.610000, 0.000000,  0.000000 
 320768.000000, 1.024128 , 2.605784, 8.894121, 643417792.000000, -11.270000,  -2.730000,  27.020000, 0.000000,  0.000000 
 340672.000000, -0.002393 , 2.799603, 8.705089, 643437568.000000, -3.990000,  28.490000,  1.680000, 0.000000,  0.000000 
 361152.000000, 0.138784 , 2.947958, 8.860621, 643457472.000000, 0.420000,  37.660000,  2.660000, 0.000000,  0.000000 
 381056.000000, 0.332602 , 2.677568, 9.152546, 643477888.000000, -5.040000,  27.090000,  9.800000, 0.000000,  0.000000 
 401344.000000, 0.232104 , 2.529213, 9.114261, 643497856.000000, -9.870000,  21.139999,  3.290000, 0.000000,  0.000000 
 421120.000000, -0.358923 , 2.670390, 9.037691, 643518144.000000, -4.480000,  28.070000,  8.820000, 0.000000,  0.000000 
 440960.000000, -0.882952 , 3.148954, 8.831908, 643537856.000000, 5.600000,  37.029999,  12.530000, 0.000000,  0.000000 
 461376.000000, -0.988236 , 3.074777, 8.602197, 643557760.000000, 7.980000,  39.270000,  12.180000, 0.000000,  0.000000 
 481280.000000, -0.552742 , 2.830709, 8.616554, 643578176.000000, -7.000000,  29.750000,  10.570000, 0.000000,  0.000000 
 501568.000000, -0.191426 , 2.773281, 8.805587, 643598080.000000, -23.309999,  19.600000,  10.920000, 0.000000,  0.000000 
 521344.000000, 0.095713 , 2.553142, 8.865408, 643618368.000000, -28.700001,  17.430000,  11.130000, 0.000000,  0.000000 
 541248.000000, 0.392423 , 2.400001, 8.717053, 643638144.000000, -36.330002,  17.010000,  11.480000, 0.000000,  0.000000 
 561024.000000, 0.562313 , 2.230111, 8.760124, 643658048.000000, -36.889999,  17.570000,  13.580000, 0.000000,  0.000000 
 582336.000000, 0.914058 , 2.201397, 9.095119, 643677824.000000, -36.330002,  17.360001,  16.379999, 0.000000,  0.000000 
 602624.000000, 1.215554 , 2.210968, 9.250652, 643699136.000000, -34.439999,  20.719999,  21.420000, 0.000000,  0.000000 
 622400.000000, 1.069592 , 2.242075, 9.650253, 643719424.000000, -36.119999,  19.110001,  23.799999, 0.000000,  0.000000 
 642304.000000, 0.667598 , 2.541178, 10.380065, 643739200.000000, -43.750000,  23.100000,  28.770000, 0.000000,  0.000000 
 662400.000000, 0.662812 , 3.038885, 10.968699, 643759104.000000, -44.869999,  26.950001,  36.119999, 0.000000,  0.000000 
 682240.000000, 1.249053 , 3.208775, 11.045268, 643779200.000000, -38.709999,  21.139999,  41.930000, 703778816.000000,  1009.483032 
 702592.000000, 1.564906 , 2.895315, 11.650653, 643799040.000000, -40.389999,  9.240000,  47.320000, 0.000000,  0.000000 
 722368.000000, 1.366302 , 1.916651, 12.301501, 643819328.000000, -47.040001,  4.480000,  50.610001, 0.000000,  0.000000 
 742272.000000, 1.351945 , 0.973879, 12.354142, 643839104.000000, -60.900002,  2.310000,  51.730000, 0.000000,  0.000000 
 762304.000000, 1.483550 , 0.466600, 11.978470, 643859072.000000, -60.270000,  0.140000,  52.430000, 0.000000,  0.000000 
 782208.000000, 1.490728 , 0.354138, 11.485549, 643879104.000000, -45.990002,  -8.190000,  50.119999, 0.000000,  0.000000 
 802496.000000, 0.966700 , 0.055035, 10.949556, 643899008.000000, -28.910000,  -16.030001,  47.180000, 0.000000,  0.000000 
 822272.000000, 0.880559 , -0.143569, 10.662418, 643919296.000000, -20.650000,  -18.480000,  43.259998, 0.000000,  0.000000 
 842176.000000, 0.868595 , -0.495314, 9.994821, 643939072.000000, -20.860001,  -24.010000,  37.939999, 0.000000,  0.000000 
 862272.000000, 1.048056 , -0.684347, 9.506684, 643958976.000000, -24.710001,  -31.360001,  34.299999, 0.000000,  0.000000 
 882176.000000, 1.026521 , -0.897308, 8.621340, 643979072.000000, -24.010000,  -34.509998,  31.639999, 0.000000,  0.000000 
 902464.000000, 1.055235 , -0.803988, 7.788638, 643998976.000000, -14.140000,  -32.410000,  28.350000, 0.000000,  0.000000 
 922176.000000, 1.148555 , -0.480957, 7.113862, 644019264.000000, -6.020000,  -27.790001,  27.510000, 0.000000,  0.000000 
 942144.000000, 1.316052 , -0.370888, 6.336195, 644038976.000000, -7.280000,  -22.960001,  27.370001, 0.000000,  0.000000 
 962176.000000, 1.438086 , -0.612563, 5.709275, 644058944.000000, -15.260000,  -14.070000,  26.180000, 0.000000,  0.000000 
 982144.000000, 1.445265 , -0.741775, 5.448457, 644078976.000000, -25.270000,  -2.730000,  23.799999, 0.000000,  0.000000 
 1002368.000000, 1.112662 , -0.562313, 5.225924, 644098944.000000, -28.350000,  12.390000,  23.030001, 0.000000,  0.000000 
 1022144.000000, 0.564706 , -0.583849, 4.984250, 644119168.000000, -24.850000,  32.060001,  23.379999, 0.000000,  0.000000 
 1042112.000000, -0.148355 , -0.629312, 4.792823, 644138944.000000, -22.190001,  54.040001,  25.690001, 0.000000,  0.000000 
 1062144.000000, -0.926022 , -1.210768, 5.247460, 644158912.000000, -35.420002,  75.459999,  29.680000, 0.000000,  0.000000 
 1082048.000000, -2.084148 , -1.600798, 6.295516, 644178944.000000, -47.110001,  97.510002,  36.540001, 0.000000,  0.000000 
 1102400.000000, -3.223132 , -1.749153, 6.573084, 644198848.000000, -46.200001,  123.059998,  39.270000, 0.000000,  0.000000 
 1122112.000000, -4.228118 , -1.782653, 6.235696, 644219200.000000, -15.890000,  144.199997,  41.790001, 0.000000,  0.000000 
 1142016.000000, -4.974678 , -1.100698, 5.919843, 644238912.000000, 21.980000,  155.050003,  43.889999, 0.000000,  0.000000 
 1162048.000000, -5.812167 , -0.033500, 5.247460, 644258816.000000, 42.070000,  170.100006,  48.369999, 0.000000,  0.000000 
 1182016.000000, -6.723832 , 0.394816, 4.144369, 644278848.000000, 45.920002,  199.360001,  53.200001, 0.000000,  0.000000 
 1202304.000000, -7.501499 , 0.217747, 3.302095, 644298816.000000, 38.220001,  227.290009,  46.410000, 0.000000,  0.000000 
 1222080.000000, -8.992228 , 0.658026, 4.070191, 644319104.000000, 9.450000,  246.820007,  29.960001, 0.000000,  0.000000 
 1241920.000000, -10.985448 , 0.918844, 3.902694, 644338880.000000, -28.910000,  268.380005,  23.030001, 0.000000,  0.000000 
 1261888.000000, -12.837494 , 0.478565, 2.423929, 644358720.000000, -39.130001,  299.670013,  32.619999, 0.000000,  0.000000 
 1281856.000000, -14.122439 , 0.282353, 2.577070, 644378688.000000, -30.730000,  315.489990,  43.680000, 0.000000,  0.000000 
 1302208.000000, -14.342579 , 0.306281, 2.921637, 644398656.000000, -33.180000,  298.200012,  59.920002, 0.000000,  0.000000 
 1322112.000000, -15.345171 , 0.162712, 2.804388, 644419008.000000, -43.470001,  288.119995,  83.230003, 0.000000,  0.000000 
 1341824.000000, -16.728224 , 0.981057, 2.522035, 644438912.000000, -54.389999,  292.670013,  98.279999, 0.000000,  0.000000 
 1361856.000000, -17.295322 , 1.052842, 3.436093, 644458624.000000, -58.380001,  295.959991,  112.840004, 0.000000,  0.000000 
 1381824.000000, -16.728224 , 0.914058, 5.362316, 644478656.000000, -23.309999,  277.410004,  119.910004, 0.000000,  0.000000 
 1402240.000000, -15.527027 , 1.143769, 4.996214, 644498624.000000, 28.910000,  251.509995,  96.110001, 0.000000,  0.000000 
 1421824.000000, -14.732609 , 1.892723, 2.780460, 644519040.000000, 86.169998,  236.949997,  79.519997, 0.000000,  0.000000 
 1441792.000000, -13.488340 , 3.651447, 1.483550, 644538624.000000, 115.360001,  217.490005,  61.459999, 0.000000,  0.000000 
 1461760.000000, -12.189038 , 4.290331, 1.576870, 644558592.000000, 92.540001,  174.089996,  49.840000, 0.000000,  0.000000 
 1481792.000000, -11.119448 , 3.960121, 2.289931, 644578560.000000, 42.279999,  124.879997,  26.950001, 0.000000,  0.000000 
 1502080.000000, -10.279566 , 3.062813, 2.419144, 644598592.000000, -15.750000,  91.000000,  -1.750000, 0.000000,  0.000000 
 1521728.000000, -9.853643 , 2.342573, 2.605784, 644618880.000000, -64.889999,  73.220001,  -23.100000, 0.000000,  0.000000 
 1541760.000000, -9.341579 , 1.586441, 2.921637, 644638528.000000, -103.739998,  63.070000,  -33.529999, 0.000000,  0.000000 
 1561728.000000, -9.001799 , 0.715454, 3.148954, 644658560.000000, -128.449997,  54.599998,  -34.860001, 0.000000,  0.000000 
 1581696.000000, -8.786445 , -0.284746, 3.414558, 644678528.000000, -135.869995,  49.700001,  -34.299999, 0.000000,  0.000000 
 1602048.000000, -8.659625 , -1.131805, 3.833302, 644698496.000000, -127.050003,  47.180000,  -27.299999, 0.000000,  0.000000 
 1621696.000000, -8.295916 , -1.557728, 4.130012, 644718848.000000, -99.120003,  41.369999,  -14.490000, 0.000000,  0.000000 
 1641856.000000, -7.858029 , -1.670190, 4.285545, 644738496.000000, -56.349998,  30.309999,  -0.630000, 0.000000,  0.000000 
 1661696.000000, -7.546963 , -1.435694, 4.194618, 644758656.000000, -5.390000,  18.480000,  12.670000, 0.000000,  0.000000 
 1681664.000000, -7.709675 , -0.988236, 3.641876, 644778496.000000, 46.619999,  11.480000,  21.350000, 704778112.000000,  1009.487366 
 1701952.000000, -8.245667 , -0.631705, 3.110669, 644798464.000000, 90.650002,  5.950000,  23.940001, 0.000000,  0.000000 
 1721664.000000, -9.064013 , -0.267996, 2.969493, 644818752.000000, 122.919998,  0.350000,  24.010000, 0.000000,  0.000000 
 1741632.000000, -9.678967 , 0.435494, 2.227718, 644838464.000000, 139.860001,  -13.230000,  19.460001, 0.000000,  0.000000 
 1761600.000000, -9.863215 , 1.043271, 1.100698, 644858432.000000, 144.759995,  -31.570000,  17.290001, 0.000000,  0.000000 
 1781632.000000, -9.745967 , 1.512264, 0.638884, 644878400.000000, 131.740005,  -58.170002,  12.950000, 0.000000,  0.000000 
 1801920.000000, -9.793823 , 1.430908, 0.775275, 644898432.000000, 86.239998,  -84.629997,  4.060000, 0.000000,  0.000000 
 1821568.000000, -10.310673 , 0.701097, 1.129412, 644918720.000000, 30.309999,  -98.209999,  -8.120000, 0.000000,  0.000000 
 1841600.000000, -10.992627 , -0.095713, 0.961915, 644938368.000000, -15.050000,  -100.660004,  -27.860001, 0.000000,  0.000000 
 1861568.000000, -11.160125 , -0.815953, 0.598206, 644958400.000000, -41.160000,  -101.500000,  -43.330002, 0.000000,  0.000000 
 1881536.000000, -11.605190 , -1.287339, 0.334995, 644978368.000000, -49.560001,  -105.980003,  -52.430000, 0.000000,  0.000000 
 1901888.000000, -12.689137 , -1.258625, 0.356531, 644998336.000000, -44.380001,  -108.150002,  -58.939999, 0.000000,  0.000000 
 1921536.000000, -14.529219 , -1.371087, -0.064606, 645018624.000000, -25.200001,  -101.360001,  -58.029999, 0.000000,  0.000000 
 1941504.000000, -15.852450 , -1.342373, -0.880559, 645038336.000000, 3.080000,  -98.840004,  -60.689999, 0.000000,  0.000000 
 1961536.000000, -16.807186 , -1.339981, -0.768096, 645058304.000000, 20.719999,  -102.550003,  -60.060001, 0.000000,  0.000000 
 1981504.000000, -16.261621 , -1.445265, -0.586242, 645078336.000000, 22.820000,  -104.860001,  -57.820000, 0.000000,  0.000000 
 2001792.000000, -14.586647 , -1.110270, -0.906880, 645098304.000000, 26.880001,  -108.779999,  -56.209999, 0.000000,  0.000000 
 2021504.000000, -12.784851 , -0.930808, -1.232304, 645118592.000000, 45.360001,  -116.340004,  -62.439999, 0.000000,  0.000000 
 2041472.000000, -11.602797 , -0.449851, -1.287339, 645138304.000000, 61.740002,  -126.840004,  -74.760002, 0.000000,  0.000000 
 2061440.000000, -11.545370 , -0.229711, -1.253839, 645158272.000000, 56.980000,  -132.860001,  -87.220001, 0.000000,  0.000000 
 2081472.000000, -12.208181 , -0.306281, -1.160519, 645178240.000000, 45.709999,  -123.059998,  -98.769997, 0.000000,  0.000000 
 2101760.000000, -12.062220 , -0.394816, -1.148555, 645198272.000000, 35.700001,  -103.529999,  -106.190002, 0.000000,  0.000000 
 2121408.000000, -11.004591 , -0.425922, -1.263410, 645218560.000000, 25.969999,  -90.300003,  -99.120003, 0.000000,  0.000000 
 2141440.000000, -9.858429 , 0.933201, -2.634498, 645238208.000000, 20.719999,  -76.230003,  -84.489998, 0.000000,  0.000000 
 2161408.000000, -8.951550 , 2.519642, -2.409572, 645258240.000000, 19.110001,  -53.830002,  -60.549999, 0.000000,  0.000000 
 2181376.000000, -6.958328 , 3.251846, -4.005585, 645278208.000000, 20.299999,  -30.590000,  -27.440001, 0.000000,  0.000000 
 2201664.000000, -4.297509 , 4.280759, -6.357729, 645298176.000000, 13.580000,  -18.129999,  7.910000, 0.000000,  0.000000 
 2221376.000000, -2.577070 , 4.072584, -5.898308, 645318464.000000, 14.770000,  -17.360001,  54.040001, 0.000000,  0.000000 
 2241344.000000, -4.637290 , 2.108077, -2.108077, 645338176.000000, -5.320000,  2.800000,  83.720001, 0.000000,  0.000000 
 2261376.000000, -7.965706 , 0.200997, 0.528814, 645358144.000000, -88.690002,  110.599998,  88.480003, 0.000000,  0.000000 
 2281344.000000, -11.423335 , -1.093520, 0.157926, 645378112.000000, -122.709999,  234.990005,  118.370003, 0.000000,  0.000000 
 2301632.000000, -9.686146 , -1.665405, -1.588834, 645398144.000000, -38.849998,  257.600006,  125.230003, 0.000000,  0.000000 
 2321344.000000, -6.747760 , 0.174676, -2.703890, 645418432.000000, 110.599998,  194.460007,  148.259995, 0.000000,  0.000000 
 2341312.000000, -6.920043 , 2.086541, -3.775874, 645438144.000000, 210.279999,  144.479996,  143.360001, 0.000000,  0.000000 
 2361280.000000, -9.659825 , 3.651447, -4.213760, 645458112.000000, 243.600006,  131.460007,  100.239998, 0.000000,  0.000000 
 2381312.000000, -12.906885 , 3.634698, -4.067799, 645478080.000000, 154.000000,  146.369995,  47.389999, 0.000000,  0.000000 
 2401600.000000, -14.316258 , 1.323231, -3.153740, 645498112.000000, -17.639999,  149.309998,  12.110000, 0.000000,  0.000000 
 2421248.000000, -13.201202 , -0.823131, -1.730011, 645518400.000000, -178.289993,  135.240005,  -10.640000, 0.000000,  0.000000 
 2441280.000000, -11.724831 , -1.911865, -0.942772, 645538048.000000, -273.700012,  112.349998,  -13.020000, 0.000000,  0.000000 
 2461248.000000, -11.349157 , -2.306681, -0.287139, 645558080.000000, -298.619995,  102.830002,  -6.300000, 0.000000,  0.000000 
 2481216.000000, -12.201002 , -2.885744, 0.263210, 645578048.000000, -291.760010,  104.090004,  -1.540000, 0.000000,  0.000000 
 2501504.000000, -14.653646 , -3.462414, 0.459422, 645598016.000000, -262.500000,  104.860001,  3.430000, 0.000000,  0.000000 
 2521216.000000, -15.967306 , -3.826123, 1.100698, 645618304.000000, -219.729996,  115.290001,  9.450000, 0.000000,  0.000000 
 2541184.000000, -14.536398 , -4.326223, 1.840081, 645638016.000000, -173.039993,  112.070000,  35.770000, 0.000000,  0.000000 
 2561216.000000, -15.156138 , -4.974678, 3.201597, 645657984.000000, -117.949997,  96.529999,  70.980003, 0.000000,  0.000000 
 2581184.000000, -17.706886 , -6.058627, 6.039484, 645677952.000000, -58.099998,  101.290001,  92.120003, 0.000000,  0.000000 
 2601472.000000, -15.708879 , -6.151947, 6.178268, 645697984.000000, -24.639999,  115.290001,  94.779999, 0.000000,  0.000000 
 2621184.000000, -12.088539 , -2.916851, 3.450450, 645718272.000000, 57.049999,  109.410004,  91.980003, 0.000000,  0.000000 
 2641152.000000, -10.427922 , 1.832902, 2.179861, 645737984.000000, 165.899994,  74.970001,  81.970001, 0.000000,  0.000000 
 2661120.000000, -9.899107 , 4.352544, 1.990828, 645757952.000000, 245.559998,  16.799999,  47.180000, 0.000000,  0.000000 
 2681152.000000, -9.410972 , 6.271588, 1.354338, 645777920.000000, 199.149994,  -43.330002,  -2.170000, 705777600.000000,  1009.495239 
 2701440.000000, -10.502099 , 3.546163, 0.492921, 645797888.000000, 93.309998,  -88.129997,  -57.119999, 0.000000,  0.000000 
 2721088.000000, -10.796415 , 2.225325, 0.880559, 645818240.000000, -34.720001,  -110.320000,  -118.230003, 0.000000,  0.000000 
 2741120.000000, -11.334801 , 0.177069, 1.373480, 645837888.000000, -139.300003,  -126.770004,  -143.990005, 0.000000,  0.000000 
 2761088.000000, -11.059627 , -0.775275, 1.409373, 645857856.000000, -163.729996,  -151.410004,  -154.279999, 0.000000,  0.000000 
 2781056.000000, -9.954143 , -0.708275, 1.416551, 645877888.000000, -136.289993,  -170.169998,  -151.759995, 0.000000,  0.000000 
 2801344.000000, -8.953942 , -0.847059, 1.555335, 645897856.000000, -101.150002,  -172.339996,  -136.919998, 0.000000,  0.000000 
 2821056.000000, -8.310273 , -1.265803, 1.983650, 645918144.000000, -62.369999,  -160.860001,  -127.400002, 0.000000,  0.000000 
 2841024.000000, -7.953743 , -1.775474, 2.141576, 645937856.000000, -16.730000,  -140.839996,  -116.550003, 0.000000,  0.000000 
 2860992.000000, -7.527820 , -1.818545, 1.878366, 645957824.000000, 40.250000,  -120.540001,  -100.800003, 0.000000,  0.000000 
 2881024.000000, -7.274181 , -1.205983, 1.703690, 645977792.000000, 98.489998,  -104.300003,  -81.760002, 0.000000,  0.000000 
 2901312.000000, -7.913064 , -0.291924, 2.447858, 645997824.000000, 151.059998,  -94.570000,  -60.340000, 0.000000,  0.000000 
 2920960.000000, -9.812965 , 0.107677, 2.270789, 646018112.000000, 194.460007,  -86.029999,  -41.020000, 0.000000,  0.000000 
 2940992.000000, -12.117253 , 0.071785, 0.567099, 646037760.000000, 228.479996,  -71.680000,  -17.010000, 0.000000,  0.000000 
 2960960.000000, -13.110275 , 0.366102, -0.722632, 646057792.000000, 241.430008,  -63.630001,  14.350000, 0.000000,  0.000000 
 2980928.000000, -12.026326 , 0.722632, -0.569492, 646077760.000000, 220.220001,  -80.989998,  47.810001, 0.000000,  0.000000 
 3001280.000000, -11.229517 , 1.177269, 0.179462, 646097728.000000, 172.899994,  -109.340004,  70.559998, 0.000000,  0.000000 
 3020928.000000, -11.286944 , 1.694118, -0.358923, 646118080.000000, 108.430000,  -118.440002,  68.320000, 0.000000,  0.000000 
 3040896.000000, -12.232110 , 1.947758, -0.892523, 646137728.000000, 41.090000,  -110.389999,  44.450001, 0.000000,  0.000000 
 3060928.000000, -13.081561 , 1.270589, -1.249053, 646157696.000000, -32.200001,  -106.190002,  0.980000, 0.000000,  0.000000 
 3080896.000000, -13.490734 , -0.346959, -1.036092, 646177728.000000, -98.279999,  -106.820000,  -36.400002, 0.000000,  0.000000 
 3101184.000000, -12.141183 , -1.734797, -0.392423, 646197696.000000, -148.190002,  -105.419998,  -66.779999, 0.000000,  0.000000 
 3120896.000000, -11.160125 , -2.383251, -1.076770, 646217984.000000, -169.050003,  -107.309998,  -74.900002, 0.000000,  0.000000 
 3140864.000000, -12.988241 , -1.868794, -1.292124, 646237696.000000, -149.449997,  -99.400002,  -76.090004, 0.000000,  0.000000 
 3160832.000000, -12.961920 , -0.713061, -1.134198, 646257664.000000, -111.650002,  -61.529999,  -78.190002, 0.000000,  0.000000 
 3180864.000000, -10.207782 , -0.165105, -0.945165, 646277632.000000, -63.349998,  -35.770000,  -59.290001, 0.000000,  0.000000 
 3201152.000000, -8.317451 , -0.239282, -1.256232, 646297664.000000, -14.700000,  -26.460001,  -39.340000, 0.000000,  0.000000 
 3220800.000000, -7.640282 , -0.586242, -0.916451, 646317952.000000, 13.650000,  1.400000,  -19.460001, 0.000000,  0.000000 
 3240832.000000, -8.563912 , -0.480957, -0.157926, 646337600.000000, 12.040000,  44.520000,  7.910000, 0.000000,  0.000000 
 3260800.000000, -9.982857 , -0.468993, -0.425922, 646357632.000000, -6.300000,  99.889999,  32.060001, 0.000000,  0.000000 
 3280768.000000, -10.447062 , -0.586242, -0.533599, 646377600.000000, -8.680000,  143.570007,  51.450001, 0.000000,  0.000000 
 3302464.000000, -10.100104 , -0.813560, -0.148355, 646397568.000000, -0.840000,  154.139999,  67.480003, 0.000000,  0.000000 
 3321472.000000, -10.076177 , -0.787239, 0.751346, 646419264.000000, 8.470000,  157.360001,  83.160004, 0.000000,  0.000000 
 3341376.000000, -10.633704 , -0.363709, 0.847059, 646438272.000000, 14.350000,  172.410004,  91.629997, 0.000000,  0.000000 
 3361472.000000, -11.253445 , -0.246461, 0.713061, 646458176.000000, 21.070000,  190.889999,  94.500000, 0.000000,  0.000000 
 3381440.000000, -11.612368 , -0.351745, 0.844666, 646478272.000000, 26.740000,  202.020004,  93.660004, 0.000000,  0.000000 
 3402176.000000, -11.609976 , -0.535992, 1.021735, 646498240.000000, 27.580000,  196.630005,  90.019997, 0.000000,  0.000000 
 3421760.000000, -11.432907 , -0.567099, 0.167498, 646518976.000000, 24.290001,  187.949997,  84.070000, 0.000000,  0.000000 
 3441792.000000, -11.018949 , -0.516850, -0.547956, 646538560.000000, 20.160000,  175.490005,  76.510002, 0.000000,  0.000000 
 3461824.000000, -9.621540 , -0.588634, -1.256232, 646558592.000000, 5.530000,  160.020004,  63.139999, 0.000000,  0.000000 
 3481728.000000, -8.401200 , -0.497707, -0.545564, 646578624.000000, -22.680000,  133.070007,  49.349998, 0.000000,  0.000000 
 3502464.000000, -7.348359 , -0.851845, -0.602991, 646598528.000000, -54.180000,  105.070000,  29.610001, 0.000000,  0.000000 
 3522048.000000, -7.379465 , -1.174876, -0.043071, 646638848.000000, -68.599998,  102.970001,  -0.070000, 0.000000,  0.000000 
 3542080.000000, -8.338986 , -1.627119, 0.727418, 0.000000, 0.000000,  0.000000,  0.000000, 0.000000,  0.000000 
 3562112.000000, -9.738789 , -1.770689, 1.421337, 646658880.000000, -56.840000,  118.230003,  -7.140000, 0.000000,  0.000000 
 3582016.000000, -11.361122 , -1.517050, 2.943172, 646678912.000000, -30.100000,  129.149994,  -4.410000, 0.000000,  0.000000 
 3602112.000000, -11.854043 , -1.514657, 2.758924, 646698816.000000, 12.880000,  128.729996,  6.370000, 0.000000,  0.000000 
 3623040.000000, -11.461621 , -1.323231, 3.361916, 646718912.000000, 57.540001,  124.599998,  21.490000, 0.000000,  0.000000 
 3643072.000000, -10.741381 , -0.942772, 3.739982, 646739840.000000, 89.040001,  107.590004,  36.470001, 0.000000,  0.000000 
 3663104.000000, -11.078769 , -0.064606, 3.342773, 646759872.000000, 121.870003,  91.699997,  47.320000, 0.000000,  0.000000 
 3683072.000000, -12.648461 , 1.146162, 2.912065, 646779904.000000, 142.869995,  79.590004,  48.020000, 706779520.000000,  1009.504150 
 3703424.000000, -14.708681 , 2.055435, 3.555735, 646799872.000000, 132.930008,  76.720001,  42.349998, 0.000000,  0.000000 
 3723008.000000, -16.218552 , 1.359123, 4.486543, 646820224.000000, 102.830002,  66.430000,  35.490002, 0.000000,  0.000000 
 3742976.000000, -19.781466 , 0.792024, 6.362515, 646839808.000000, 76.300003,  37.170002,  24.150000, 0.000000,  0.000000 
 3763072.000000, -21.664616 , 0.095713, 2.868994, 646859776.000000, 68.459999,  19.740000,  20.930000, 0.000000,  0.000000 
 3782976.000000, -17.871992 , 1.249053, 0.169890, 646879872.000000, 103.250000,  -6.370000,  35.349998, 0.000000,  0.000000 
 3803328.000000, -13.787444 , 2.727818, -0.634098, 646899776.000000, 107.239998,  -106.959999,  48.580002, 0.000000,  0.000000 
 3822912.000000, -12.545568 , 3.357130, -1.026521, 646920128.000000, 71.120003,  -197.680008,  46.130001, 0.000000,  0.000000 
 3842944.000000, -13.976478 , 3.081956, -1.581656, 646939712.000000, 22.190001,  -244.369995,  11.760000, 0.000000,  0.000000 
 3862976.000000, -16.651653 , 2.187040, -2.124826, 646959744.000000, -15.050000,  -261.730011,  -26.530001, 0.000000,  0.000000 
 3882944.000000, -17.749958 , 0.937986, -2.727818, 646979776.000000, -53.200001,  -277.549988,  -55.020000, 0.000000,  0.000000 
 3903296.000000, -16.890934 , -0.483350, -2.270789, 646999744.000000, -99.400002,  -305.200012,  -67.970001, 0.000000,  0.000000 
 3922944.000000, -15.680167 , -1.706082, -1.765903, 647020096.000000, -131.110001,  -321.579987,  -70.139999, 0.000000,  0.000000 
 3942912.000000, -14.423935 , -2.356930, -1.596013, 647039680.000000, -129.430008,  -311.149994,  -67.620003, 0.000000,  0.000000 
 3962944.000000, -12.672389 , -2.952743, -1.500300, 647059712.000000, -102.269997,  -287.420013,  -63.349998, 0.000000,  0.000000 
 3982848.000000, -11.595619 , -1.205983, -1.270589, 647079744.000000, -44.310001,  -258.860016,  -49.700001, 0.000000,  0.000000 
 4003264.000000, -9.781858 , -0.320638, -1.914258, 647099648.000000, 3.780000,  -235.830002,  -51.380001, 0.000000,  0.000000 
 4022848.000000, -8.805587 , -0.681954, -1.478764, 647120000.000000, 9.240000,  -214.690002,  -55.020000, 0.000000,  0.000000 
 4042880.000000, -7.642675 , -1.517050, -1.320838, 647139648.000000, -3.290000,  -202.300003,  -77.840004, 0.000000,  0.000000 
 4062848.000000, -6.573084 , -1.691726, -0.930808, 647159616.000000, -3.920000,  -189.979996,  -87.500000, 0.000000,  0.000000 
 4082816.000000, -5.737988 , -1.598405, -0.736989, 647179648.000000, 8.820000,  -175.490005,  -86.099998, 0.000000,  0.000000 
 4103168.000000, -5.534599 , -1.249053, 0.205783, 647199616.000000, 31.710001,  -158.339996,  -82.389999, 0.000000,  0.000000 
 4122816.000000, -6.125626 , -0.772882, 0.454636, 647219968.000000, 54.180000,  -133.279999,  -75.879997, 0.000000,  0.000000 
 4142784.000000, -6.850651 , -0.672383, -0.143569, 647239616.000000, 77.419998,  -99.750000,  -62.930000, 0.000000,  0.000000 
 4162880.000000, -6.970293 , -0.614955, -1.012164, 647259584.000000, 90.860001,  -69.930000,  -45.920002, 0.000000,  0.000000 
 4182784.000000, -6.326623 , -0.631705, -1.469193, 647279616.000000, 79.590004,  -60.830002,  -26.180000, 0.000000,  0.000000 
 4203136.000000, -5.694918 , -0.445065, -1.450050, 647299584.000000, 48.580002,  -61.040001,  -6.300000, 0.000000,  0.000000 
 4222720.000000, -5.587241 , -0.330210, -1.414158, 647319936.000000, 10.850000,  -54.389999,  5.460000, 0.000000,  0.000000 
 4242752.000000, -5.936593 , -0.258425, -1.318445, 647339520.000000, -23.030001,  -35.490002,  4.690000, 0.000000,  0.000000 
 4262784.000000, -6.443871 , -0.502493, -1.244268, 647359552.000000, -51.170002,  -9.940000,  -8.260000, 0.000000,  0.000000 
 4282752.000000, -7.133004 , -0.794417, -0.710668, 647379584.000000, -66.849998,  17.920000,  -22.469999, 0.000000,  0.000000 
 4303040.000000, -8.233703 , -0.863809, -1.222732, 647399488.000000, -69.440002,  48.439999,  -29.610001, 0.000000,  0.000000 
 4322688.000000, -10.619347 , -1.067199, -1.715654, 647419840.000000, -65.379997,  86.169998,  -22.260000, 0.000000,  0.000000 
 4342592.000000, -14.076975 , -1.304088, -1.572084, 647439488.000000, -65.309998,  140.979996,  -3.500000, 0.000000,  0.000000 
 4362624.000000, -15.328422 , -1.897508, -1.311267, 647459392.000000, -77.279999,  195.160004,  25.620001, 0.000000,  0.000000 
 4382592.000000, -13.976478 , -2.215754, -0.531207, 647479424.000000, -87.779999,  225.750000,  62.720001, 0.000000,  0.000000 
 4402880.000000, -14.916857 , -1.971686, -1.198804, 647499392.000000, -78.959999,  254.029999,  107.730003, 0.000000,  0.000000 
 4422592.000000, -18.841085 , -1.957329, -1.332802, 647519680.000000, -53.970001,  305.200012,  143.220001, 0.000000,  0.000000 
 4442560.000000, -23.016562 , -2.299503, 0.813560, 647539392.000000, -30.870001,  356.160004,  164.220001, 0.000000,  0.000000 
 4462528.000000, -24.442682 , -3.905087, 1.658226, 647559360.000000, 3.150000,  376.950012,  184.940002, 0.000000,  0.000000 
 4482560.000000, -23.514269 , -4.371687, 0.485743, 647579328.000000, 98.070000,  394.029999,  203.139999, 0.000000,  0.000000 
 4502848.000000, -20.444277 , -1.524228, -0.808774, 647599360.000000, 224.699997,  389.130005,  203.210007, 0.000000,  0.000000 
 4522496.000000, -17.223537 , 2.746960, -1.820938, 647619648.000000, 307.019989,  340.269989,  187.949997, 0.000000,  0.000000 
 4542528.000000, -13.964513 , 6.888937, -2.263610, 647639296.000000, 283.220001,  262.570007,  141.399994, 0.000000,  0.000000 
 4562496.000000, -11.526227 , 7.910671, -1.842474, 647659328.000000, 145.039993,  184.380005,  74.269997, 0.000000,  0.000000 
 4582464.000000, -9.903893 , 5.728417, -0.421137, 647679296.000000, -29.120001,  125.510002,  -11.760000, 0.000000,  0.000000 
 4602816.000000, -9.463614 , 2.785245, 0.669990, 647699264.000000, -195.580002,  95.340004,  -80.360001, 0.000000,  0.000000 
 4622464.000000, -9.564112 , 0.203390, 1.682154, 647719552.000000, -322.209991,  81.129997,  -123.760002, 0.000000,  0.000000 
 4642432.000000, -9.193225 , -1.797010, 2.098505, 647739264.000000, -389.410004,  72.239998,  -133.559998, 0.000000,  0.000000 
 4662464.000000, -8.164310 , -2.866602, 2.440679, 647759232.000000, -397.250000,  47.389999,  -111.860001, 0.000000,  0.000000 
 4682432.000000, -7.123433 , -3.287738, 2.842674, 647779264.000000, -358.399994,  11.060000,  -74.550003, 707778880.000000,  1009.513672 
 4702720.000000, -6.501299 , -3.404987, 3.000600, 647799232.000000, -291.059998,  -13.650000,  -33.250000, 0.000000,  0.000000 
 4722432.000000, -6.381658 , -3.359523, 2.778067, 647819520.000000, -212.520004,  -23.240000,  7.140000, 0.000000,  0.000000 
 4742400.000000, -6.680761 , -3.263810, 2.557927, 647839232.000000, -138.949997,  -20.230000,  41.090000, 0.000000,  0.000000 
 4762368.000000, -7.171289 , -3.187240, 2.821138, 647859200.000000, -79.449997,  -10.570000,  69.580002, 0.000000,  0.000000 
 4782400.000000, -7.688138 , -3.117848, 2.947958, 647879168.000000, -33.250000,  -2.590000,  92.470001, 0.000000,  0.000000 
 4802688.000000, -8.585447 , -3.345166, 2.596212, 647899200.000000, 4.060000,  4.690000,  110.040001, 0.000000,  0.000000 
 4822336.000000, -11.193624 , -3.847659, 3.629912, 647919488.000000, 33.529999,  19.809999,  116.900002, 0.000000,  0.000000 
 4842368.000000, -15.864414 , -5.108676, 4.881358, 647939136.000000, 55.090000,  44.730000,  110.389999, 0.000000,  0.000000 
 4862336.000000, -18.412771 , -5.800202, 1.538585, 647959104.000000, 82.669998,  62.160000,  93.099998, 0.000000,  0.000000 
 4882304.000000, -17.094324 , -3.225525, -0.399601, 647979136.000000, 119.980003,  27.650000,  63.349998, 0.000000,  0.000000 
 4902592.000000, -16.161125 , 1.076770, -1.162912, 647999104.000000, 152.740005,  -58.590000,  44.170002, 0.000000,  0.000000 
 4922304.000000, -15.455240 , 3.763910, -1.052842, 648019392.000000, 137.690002,  -113.470001,  7.700000, 0.000000,  0.000000 
 4942272.000000, -14.435899 , 2.715853, -1.160519, 648039104.000000, 98.980003,  -166.669998,  -68.320000, 0.000000,  0.000000 
 4962304.000000, -15.759130 , 0.772882, -0.569492, 648059072.000000, 4.760000,  -195.369995,  -110.739998, 0.000000,  0.000000 
 4982272.000000, -20.549559 , -1.088734, 0.634098, 648079104.000000, -78.610001,  -231.000000,  -178.710007, 0.000000,  0.000000 
 5002560.000000, -22.782063 , -2.325824, -0.239282, 648099072.000000, -123.970001,  -231.350006,  -217.279999, 0.000000,  0.000000 
 5022272.000000, -21.817757 , -2.325824, -0.366102, 648119360.000000, -97.860001,  -234.009995,  -241.149994, 0.000000,  0.000000 
 5042240.000000, -20.571095 , -1.229911, -1.052842, 648139072.000000, 9.730000,  -267.399994,  -240.029999, 0.000000,  0.000000 
 5062208.000000, -20.755344 , -0.181855, -2.254039, 648159040.000000, 122.639999,  -273.489990,  -218.960007, 0.000000,  0.000000 
 5082240.000000, -18.817158 , 0.765703, -2.627320, 648179008.000000, 210.000000,  -270.899994,  -209.089996, 0.000000,  0.000000 
 5102528.000000, -16.031912 , 1.655833, -2.739782, 648199040.000000, 248.080002,  -279.369995,  -189.839996, 0.000000,  0.000000 
 5122176.000000, -13.452450 , 2.232504, -2.742175, 648219328.000000, 243.600006,  -281.399994,  -170.380005, 0.000000,  0.000000 
 5142208.000000, -10.777272 , 2.713461, -2.517249, 648238976.000000, 206.500000,  -275.519989,  -158.550003, 0.000000,  0.000000 
 5162176.000000, -8.264810 , 2.723032, -2.505285, 648259008.000000, 145.110001,  -266.839996,  -150.430008, 0.000000,  0.000000 
 5182144.000000, -6.068198 , 2.383251, -2.483750, 648278976.000000, 80.290001,  -254.660004,  -147.350006, 0.000000,  0.000000 
 5202432.000000, -4.273581 , 1.658226, -2.203789, 648298944.000000, 18.969999,  -238.910004,  -151.339996, 0.000000,  0.000000 
 5222144.000000, -3.256632 , 0.916451, -0.727418, 648319232.000000, -24.710001,  -220.639999,  -153.369995, 0.000000,  0.000000 
 5242112.000000, -3.306881 , 0.370888, 0.476172, 648338944.000000, -36.119999,  -186.199997,  -143.220001, 0.000000,  0.000000 
 5262144.000000, -4.106083 , -0.014357, 0.485743, 648358912.000000, -9.100000,  -136.990005,  -117.879997, 0.000000,  0.000000 
 5282112.000000, -5.230711 , -0.102891, 0.124427, 648378880.000000, 36.189999,  -78.260002,  -79.590004, 0.000000,  0.000000 
 5302400.000000, -5.821737 , -0.033500, -0.244068, 648398912.000000, 64.750000,  -28.490000,  -42.349998, 0.000000,  0.000000 
 5322112.000000, -5.651847 , 0.028714, -0.392423, 648419200.000000, 68.879997,  2.030000,  -7.840000, 0.000000,  0.000000 
 5342144.000000, -5.563312 , -0.162712, -0.631705, 648438912.000000, 61.599998,  21.559999,  21.770000, 0.000000,  0.000000 
 5362112.000000, -6.084948 , -0.251246, -0.985843, 648458944.000000, 52.220001,  45.290001,  35.490002, 0.000000,  0.000000 
 5382784.000000, -7.374680 , -0.270389, -1.383051, 648478912.000000, 40.110001,  75.389999,  38.849998, 0.000000,  0.000000 
 5402368.000000, -9.343972 , -0.399601, -1.804188, 648499584.000000, 28.070000,  108.989998,  42.209999, 0.000000,  0.000000 
 5422528.000000, -12.009576 , -0.873380, -2.251646, 648519168.000000, 15.820000,  144.550003,  47.110001, 0.000000,  0.000000 
 5442432.000000, -14.799608 , -1.347159, -2.514857, 648539328.000000, -1.680000,  174.020004,  50.820000, 0.000000,  0.000000 
 5462464.000000, -15.371492 , -1.672583, -1.990828, 648559232.000000, -19.950001,  195.440002,  56.840000, 0.000000,  0.000000 
 5482496.000000, -14.718252 , -1.428515, -1.210768, 648579264.000000, -31.080000,  218.119995,  72.519997, 0.000000,  0.000000 
 5502720.000000, -14.548362 , -0.500100, -1.464408, 648599296.000000, -33.110001,  245.699997,  88.340004, 0.000000,  0.000000 
 5522880.000000, -16.051056 , -0.311067, -2.708675, 648619520.000000, -33.250000,  278.110016,  96.320000, 0.000000,  0.000000 
 5542784.000000, -19.539789 , -0.777667, -3.270989, 648639680.000000, -44.520000,  306.809998,  97.650002, 0.000000,  0.000000 
 5562816.000000, -23.140987 , -1.663012, -2.651247, 648659584.000000, -77.349998,  328.369995,  101.220001, 0.000000,  0.000000 
 5582848.000000, -24.643681 , -2.679961, -0.736989, 648679616.000000, -100.309998,  340.760010,  113.120003, 0.000000,  0.000000 
 5603072.000000, -23.894726 , -2.806781, 0.653241, 648699648.000000, -87.080002,  343.070007,  125.860001, 0.000000,  0.000000 
 5622784.000000, -21.154945 , -2.057827, 0.385244, 648719872.000000, -36.540001,  344.190002,  138.389999, 0.000000,  0.000000 
 5644224.000000, -17.764317 , -0.550349, -0.301496, 648739584.000000, 33.529999,  326.690002,  137.130005, 0.000000,  0.000000 
 5664064.000000, -14.684752 , 1.095913, -0.222532, 648780864.000000, 80.849998,  209.020004,  76.650002, 708780544.000000,  1009.525391 
 5684160.000000, -12.215360 , 2.715853, 0.753739, 0.000000, 0.000000,  0.000000,  0.000000, 0.000000,  0.000000 
 5704320.000000, -9.903893 , 3.103491, 1.447658, 648800896.000000, 26.110001,  157.149994,  33.670002, 0.000000,  0.000000 
 5724096.000000, -9.071191 , 2.160719, 2.072184, 648821120.000000, -55.020000,  114.309998,  -9.800000, 0.000000,  0.000000 
 5744000.000000, -9.245867 , 0.490529, 2.476572, 648840896.000000, -131.949997,  101.639999,  -45.500000, 0.000000,  0.000000 
 5764032.000000, -9.018548 , -0.851845, 2.756532, 648860800.000000, -180.460007,  95.620003,  -62.369999, 0.000000,  0.000000 
 5784064.000000, -7.927422 , -0.933201, 3.404987, 648880832.000000, -189.070007,  69.230003,  -59.920002, 0.000000,  0.000000 
 5804288.000000, -6.776474 , -0.543171, 3.376273, 648900800.000000, -170.240005,  33.320000,  -39.830002, 0.000000,  0.000000 
 5824064.000000, -6.238089 , -0.564706, 3.002992, 648921088.000000, -142.449997,  12.320000,  -14.420000, 0.000000,  0.000000 
 5843968.000000, -6.250053 , -1.000200, 2.476572, 648940864.000000, -127.889999,  7.140000,  5.880000, 0.000000,  0.000000 
 5863936.000000, -6.867401 , -1.686940, 2.421536, 648960768.000000, -128.729996,  8.610000,  26.460001, 0.000000,  0.000000 
 5884032.000000, -7.826923 , -2.316252, 2.409572, 648980736.000000, -131.320007,  12.600000,  44.450001, 0.000000,  0.000000 
 5904256.000000, -8.738588 , -2.773281, 2.177469, 649000832.000000, -121.870003,  13.650000,  58.939999, 0.000000,  0.000000 
 5923968.000000, -9.765109 , -3.383451, 1.710868, 649021056.000000, -107.730003,  9.590000,  67.690002, 0.000000,  0.000000 
 5943872.000000, -12.026326 , -4.256832, 2.660819, 649040768.000000, -98.629997,  2.870000,  67.900002, 0.000000,  0.000000 
 5963904.000000, -16.127625 , -6.905686, 3.170490, 649060672.000000, -98.769997,  9.800000,  58.380001, 0.000000,  0.000000 
 5983936.000000, -17.895920 , -6.829116, 1.438086, 649080704.000000, -92.610001,  19.389999,  29.120001, 0.000000,  0.000000 
 6004160.000000, -15.443277 , -3.778267, 1.141376, 649100736.000000, -74.269997,  -19.740000,  -12.880000, 0.000000,  0.000000 
 6023936.000000, -15.883555 , -0.703490, 0.090927, 649120960.000000, -16.240000,  -85.190002,  -23.660000, 0.000000,  0.000000 
 6043840.000000, -18.183060 , 0.973879, -0.923629, 649140672.000000, 12.530000,  -89.320000,  -80.010002, 0.000000,  0.000000 
 6063872.000000, -18.379271 , 1.253839, -0.425922, 649160640.000000, -11.270000,  -100.099998,  -168.070007, 0.000000,  0.000000 
 6083904.000000, -18.293129 , 1.055235, 1.083949, 649180672.000000, -51.240002,  -154.490005,  -232.259995, 0.000000,  0.000000 
 6104128.000000, -20.628523 , -0.473779, 2.263610, 649200704.000000, -85.050003,  -206.430008,  -271.880005, 0.000000,  0.000000 
 6123904.000000, -24.739393 , -1.146162, 2.187040, 649220928.000000, -71.260002,  -222.180008,  -288.540009, 0.000000,  0.000000 
 6143808.000000, -26.737402 , -0.153141, 0.629312, 649240704.000000, 29.049999,  -241.850006,  -285.040009, 0.000000,  0.000000 
 6163776.000000, -25.335205 , 2.012364, -1.277767, 649260608.000000, 187.460007,  -279.160004,  -259.910004, 0.000000,  0.000000 
 6183808.000000, -22.533211 , 3.347559, -2.931208, 649280576.000000, 319.130005,  -311.709991,  -211.259995, 0.000000,  0.000000 
 6204032.000000, -18.527626 , 4.388437, -3.306881, 649300608.000000, 375.829987,  -328.299988,  -170.240005, 0.000000,  0.000000 
 6223808.000000, -14.565112 , 4.926822, -3.426522, 649320832.000000, 354.760010,  -337.329987,  -129.919998, 0.000000,  0.000000 
 6243776.000000, -11.062018 , 4.936393, -2.804388, 649340608.000000, 282.309998,  -338.029999,  -105.629997, 0.000000,  0.000000 
 6263680.000000, -8.197811 , 4.261617, -1.957329, 649360512.000000, 173.180008,  -327.250000,  -101.010002, 0.000000,  0.000000 
 6283776.000000, -6.015556 , 3.127419, -1.359123, 649380480.000000, 60.689999,  -305.760010,  -108.779999, 0.000000,  0.000000 
 6304000.000000, -4.429115 , 1.756332, -1.105484, 649400576.000000, -28.000000,  -275.029999,  -126.419998, 0.000000,  0.000000 
 6323840.000000, -3.385844 , 0.543171, -0.564706, 649420800.000000, -85.889999,  -238.490005,  -144.130005, 0.000000,  0.000000 
 6343680.000000, -2.780460 , -0.409173, 0.193819, 649440576.000000, -115.709999,  -202.160004,  -157.360001, 0.000000,  0.000000 
 6363584.000000, -2.371287 , -0.751346, 0.997807, 649460480.000000, -105.139999,  -166.809998,  -153.440002, 0.000000,  0.000000 
 6383616.000000, -2.356930 , -0.655633, 1.057628, 649480384.000000, -55.720001,  -131.809998,  -129.080002, 0.000000,  0.000000 
 6404032.000000, -2.615355 , -0.232104, 0.626920, 649500416.000000, 10.080000,  -94.849998,  -92.959999, 0.000000,  0.000000 
 6423552.000000, -2.895315 , 0.119641, -0.033500, 649520832.000000, 65.169998,  -58.660000,  -49.770000, 0.000000,  0.000000 
 6443584.000000, -3.194418 , 0.296710, -0.291924, 649540352.000000, 93.239998,  -27.510000,  -7.700000, 0.000000,  0.000000 
 6463552.000000, -3.428915 , 0.272782, -0.507278, 649560384.000000, 90.440002,  -2.100000,  22.049999, 0.000000,  0.000000 
 6483520.000000, -3.728018 , 0.294317, -0.789631, 649580352.000000, 68.250000,  23.240000,  42.840000, 0.000000,  0.000000 
 6503872.000000, -4.414758 , 0.174676, -0.844666, 649600320.000000, 37.310001,  52.990002,  55.369999, 0.000000,  0.000000 
 6523520.000000, -5.821737 , 0.557528, -0.227318, 649620672.000000, 6.440000,  91.349998,  62.790001, 0.000000,  0.000000 
 6543488.000000, -8.224132 , 0.863809, -0.535992, 649640320.000000, -22.960001,  139.720001,  69.019997, 0.000000,  0.000000 
 6563520.000000, -11.554940 , 0.392423, -3.058028, 649660288.000000, -44.240002,  195.649994,  83.440002, 0.000000,  0.000000 
 6583488.000000, -16.977077 , -0.504886, -4.070191, 649680320.000000, -73.639999,  245.559998,  93.800003, 0.000000,  0.000000 
 6603776.000000, -20.295921 , -1.686940, -2.656033, 649700288.000000, -126.489998,  283.010010,  101.849998, 0.000000,  0.000000 
 6623488.000000, -19.879570 , -2.335395, -0.626920, 649720576.000000, -184.029999,  296.869995,  127.820000, 0.000000,  0.000000 
 6643456.000000, -21.384653 , -1.763510, -0.782453, 649740288.000000, -196.419998,  325.220001,  167.089996, 0.000000,  0.000000 
 6663424.000000, -25.069601 , -1.134198, -0.129212, 649780224.000000, -97.019997,  407.119995,  219.309998, 709779904.000000,  1009.542175 
 6683456.000000, -27.151358 , -2.378466, -0.552742, 0.000000, 0.000000,  0.000000,  0.000000, 0.000000,  0.000000 
 6703744.000000, -26.768505 , -4.409972, -0.973879, 649800256.000000, -16.730000,  416.429993,  222.949997, 0.000000,  0.000000 
 6723392.000000, -23.978474 , -3.840480, -1.261017, 649820544.000000, 65.660004,  393.119995,  218.820007, 0.000000,  0.000000 
 6743424.000000, -20.293530 , -0.892523, -2.009971, 649840192.000000, 127.610001,  347.899994,  219.869995, 0.000000,  0.000000 
 6763392.000000, -17.682961 , 2.062613, -2.462214, 649860224.000000, 151.339996,  292.459991,  195.229996, 0.000000,  0.000000 
 6783360.000000, -15.457633 , 4.280759, -1.954936, 649880192.000000, 121.520004,  238.559998,  140.490005, 0.000000,  0.000000 
 6803712.000000, -13.942977 , 4.007978, -0.969093, 649900160.000000, 42.700001,  186.619995,  74.760002, 0.000000,  0.000000 
 6823360.000000, -13.048061 , 2.653640, 0.145962, 649920448.000000, -59.639999,  152.110001,  7.910000, 0.000000,  0.000000 
 6843328.000000, -11.741580 , 0.224925, 0.519243, 649940160.000000, -172.130005,  143.850006,  -38.779999, 0.000000,  0.000000 
 6863360.000000, -10.892128 , -1.722832, 1.708475, 649960128.000000, -262.570007,  119.419998,  -60.060001, 0.000000,  0.000000 
 6883328.000000, -10.045070 , -2.988636, 2.758924, 649980160.000000, -309.820007,  105.980003,  -53.060001, 0.000000,  0.000000 
 6903616.000000, -9.016156 , -3.491128, 3.115455, 650000128.000000, -294.980011,  93.169998,  -20.230000, 0.000000,  0.000000 
 6923328.000000, -7.860423 , -3.369094, 3.227918, 650020416.000000, -237.720001,  67.830002,  9.380000, 0.000000,  0.000000 
 6943296.000000, -6.989435 , -3.125026, 3.113062, 650040128.000000, -167.930008,  45.430000,  40.459999, 0.000000,  0.000000 
 6963264.000000, -6.580262 , -3.077170, 2.763710, 650060096.000000, -106.889999,  33.670002,  71.260002, 0.000000,  0.000000 
 6983296.000000, -6.912865 , -3.177669, 3.103491, 650080064.000000, -64.750000,  29.330000,  91.000000, 0.000000,  0.000000 
 7003584.000000, -7.879565 , -3.629912, 4.134798, 650100096.000000, -43.470001,  35.209999,  101.919998, 0.000000,  0.000000 
 7023232.000000, -8.642875 , -4.405186, 4.869394, 650120384.000000, -30.450001,  39.549999,  103.669998, 0.000000,  0.000000 
 7043264.000000, -8.882158 , -5.056034, 4.398008, 650140032.000000, -15.330000,  34.580002,  99.050003, 0.000000,  0.000000 
 7063232.000000, -9.061620 , -4.835894, 3.010171, 650160064.000000, 3.640000,  15.470000,  83.160004, 0.000000,  0.000000 
 7083264.000000, -10.657632 , -4.098906, 2.713461, 650180032.000000, 20.650000,  -6.440000,  57.330002, 0.000000,  0.000000 
 7103552.000000, -14.210974 , -3.254239, 2.682354, 650200000.000000, 30.030001,  -10.920000,  23.450001, 0.000000,  0.000000 
 7123200.000000, -16.632511 , -2.720639, 0.928415, 650240000.000000, 29.120001,  -45.500000,  -71.120003, 0.000000,  0.000000 
 7143168.000000, -15.775880 , -2.108077, 0.251246, 0.000000, 0.000000,  0.000000,  0.000000, 0.000000,  0.000000 
 7163200.000000, -16.175482 , -1.658226, 0.370888, 650259968.000000, 17.570000,  -119.770004,  -109.059998, 0.000000,  0.000000 
 7183168.000000, -18.850657 , -1.895115, -0.059821, 650299968.000000, 23.660000,  -153.300003,  -192.430008, 0.000000,  0.000000 
 7203456.000000, -21.353550 , -1.993221, -0.064606, 0.000000, 0.000000,  0.000000,  0.000000, 0.000000,  0.000000 
 7223168.000000, -22.083359 , -2.086541, -0.717847, 650320256.000000, 38.430000,  -179.550003,  -213.289993, 0.000000,  0.000000 
 7243136.000000, -22.975882 , -2.127219, -1.962115, 650339968.000000, 81.480003,  -197.610001,  -214.970001, 0.000000,  0.000000 
 7263104.000000, -23.928226 , -1.739582, -2.703890, 650359936.000000, 127.750000,  -228.270004,  -210.630005, 0.000000,  0.000000 
 7283136.000000, -23.844477 , -1.162912, -2.907279, 650379904.000000, 178.220001,  -241.430008,  -195.720001, 0.000000,  0.000000 
 7303424.000000, -23.054846 , 0.437887, -2.976671, 650399936.000000, 234.779999,  -263.200012,  -171.289993, 0.000000,  0.000000 
 7323136.000000, -23.021345 , 0.780060, -3.778267, 650420224.000000, 283.360016,  -278.390015,  -152.949997, 0.000000,  0.000000 
 7343104.000000, -23.401806 , 1.253839, -5.187639, 650439936.000000, 300.860016,  -285.040009,  -144.199997, 0.000000,  0.000000 
 7363072.000000, -21.162125 , 1.574477, -5.714060, 650459904.000000, 279.929993,  -288.890015,  -143.009995, 0.000000,  0.000000 
 7383104.000000, -18.355343 , 1.777867, -5.182854, 650479872.000000, 225.119995,  -309.329987,  -133.979996, 0.000000,  0.000000 
 7404096.000000, -15.376277 , 1.435694, -3.747160, 650499904.000000, 153.509995,  -324.730011,  -138.389999, 0.000000,  0.000000 
 7423104.000000, -12.870994 , 0.691526, -2.864209, 650520896.000000, 93.870003,  -328.230011,  -151.619995, 0.000000,  0.000000 
 7443072.000000, -10.789237 , 0.294317, -2.526821, 650539904.000000, 60.340000,  -317.730011,  -168.979996, 0.000000,  0.000000 
 7463168.000000, -8.865408 , 0.069392, -2.471786, 650559872.000000, 46.270000,  -296.029999,  -180.460007, 0.000000,  0.000000 
 7483072.000000, -7.049256 , 0.160319, -2.407180, 650579968.000000, 40.250000,  -274.959991,  -181.860001, 0.000000,  0.000000 
 7503424.000000, -5.460421 , 0.337388, -1.686940, 650599872.000000, 34.509998,  -254.029999,  -177.449997, 0.000000,  0.000000 
 7523072.000000, -4.345366 , 0.485743, -0.803988, 650620224.000000, 27.719999,  -230.580002,  -168.070007, 0.000000,  0.000000 
 7543040.000000, -3.735196 , 0.631705, -0.334995, 650639872.000000, 26.250000,  -196.770004,  -155.610001, 0.000000,  0.000000 
 7563072.000000, -3.596412 , 0.921237, -0.205783, 650659840.000000, 30.240000,  -157.289993,  -140.770004, 0.000000,  0.000000 
 7582976.000000, -3.637090 , 1.000200, -0.722632, 650679872.000000, 35.000000,  -114.800003,  -115.430000, 0.000000,  0.000000 
 7603392.000000, -3.737589 , 0.930808, -1.256232, 650699776.000000, 35.630001,  -76.860001,  -82.250000, 0.000000,  0.000000 
 7622976.000000, -3.830909 , 0.969093, -1.509871, 650720128.000000, 25.059999,  -49.279999,  -51.029999, 0.000000,  0.000000 
 7643008.000000, -3.809374 , 1.129412, -1.674976, 650739776.000000, 7.560000,  -28.770000,  -22.190001, 0.000000,  0.000000 
 7662976.000000, -3.897908 , 1.146162, -1.531406, 650779776.000000, -37.450001,  16.799999,  22.540001, 710779456.000000,  1009.555725 
 7682944.000000, -4.302295 , 0.756132, -1.304088, 0.000000, 0.000000,  0.000000,  0.000000, 0.000000,  0.000000 
 7703296.000000, -5.391029 , 0.263210, -1.339981, 650799744.000000, -63.139999,  55.299999,  42.980000, 0.000000,  0.000000 
 7722944.000000, -7.156933 , -0.200997, -2.153540, 650820096.000000, -85.470001,  107.940002,  67.970001, 0.000000,  0.000000 
 7742976.000000, -10.083356 , -0.648455, -2.191825, 650839744.000000, -99.050003,  168.559998,  100.800003, 0.000000,  0.000000 
 7763008.000000, -14.500504 , -0.830309, -1.727618, 650859776.000000, -117.110001,  236.040009,  139.440002, 0.000000,  0.000000 
 7782912.000000, -17.852850 , -1.308874, -2.038685, 650879744.000000, -148.750000,  302.820007,  180.880005, 0.000000,  0.000000 
 7803264.000000, -19.597218 , -1.368695, -2.416751, 650899712.000000, -175.910004,  343.000000,  228.970001, 0.000000,  0.000000 
 7822848.000000, -25.615166 , -1.033699, -3.488736, 650920064.000000, -194.320007,  380.380005,  278.110016, 0.000000,  0.000000 
 7842944.000000, -33.585659 , -1.914258, -2.847459, 650939648.000000, -200.690002,  432.040009,  316.679993, 0.000000,  0.000000 
 7862912.000000, -37.914272 , -5.455636, 0.358923, 650959744.000000, -190.820007,  460.040009,  346.149994, 0.000000,  0.000000 
 7882880.000000, -35.791840 , -9.542577, 2.569891, 650979712.000000, -120.889999,  481.459991,  359.940002, 0.000000,  0.000000 
 7903168.000000, -27.440889 , -11.160125, 2.191825, 650999616.000000, 18.620001,  497.070007,  372.610016, 0.000000,  0.000000 
 7922816.000000, -19.051655 , -2.385644, -5.101498, 651019968.000000, 177.800003,  450.589996,  368.549988, 0.000000,  0.000000 
 7942848.000000, -15.890735 , 6.972685, -4.474578, 651039616.000000, 256.619995,  326.130005,  287.489990, 0.000000,  0.000000 
 7962880.000000, -13.256237 , 7.927422, -3.759124, 651059648.000000, 220.570007,  227.220001,  199.080002, 0.000000,  0.000000 
 7982784.000000, -13.349558 , 4.015156, -3.629912, 651079680.000000, 98.349998,  164.639999,  67.830002, 0.000000,  0.000000 
 8003136.000000, -15.223137 , 0.985843, -1.670190, 651099584.000000, -61.110001,  136.360001,  -52.360001, 0.000000,  0.000000 
 8022720.000000, -14.026726 , -1.270589, 0.239282, 651119936.000000, -205.449997,  127.050003,  -99.750000, 0.000000,  0.000000 
 8042816.000000, -11.308479 , -2.823531, 2.414358, 651139520.000000, -309.750000,  52.500000,  -111.720001, 0.000000,  0.000000 
 8062784.000000, -8.896514 , -3.847659, 3.201597, 651159616.000000, -355.179993,  1.750000,  -97.019997, 0.000000,  0.000000 
 8082752.000000, -7.374680 , -4.060620, 3.101098, 651179584.000000, -345.029999,  -4.550000,  -61.320000, 0.000000,  0.000000 
 8103104.000000, -6.494121 , -3.780660, 2.708675, 651199552.000000, -315.140015,  2.100000,  -19.950001, 0.000000,  0.000000 
 8122688.000000, -6.003592 , -3.596412, 2.691926, 651219904.000000, -274.049988,  10.010000,  18.760000, 0.000000,  0.000000 
 8143552.000000, -5.300103 , -3.862016, 2.136791, 651239488.000000, -220.639999,  10.360000,  49.840000, 0.000000,  0.000000 
 8163520.000000, -4.869394 , -4.213760, 2.177469, 651260352.000000, -165.410004,  -2.800000,  73.430000, 0.000000,  0.000000 
 8183488.000000, -4.967500 , -4.388437, 2.773281, 651280320.000000, -125.930000,  -11.410000,  88.690002, 0.000000,  0.000000 
 8203840.000000, -5.840880 , -4.776074, 3.215954, 651300288.000000, -97.580002,  -5.670000,  99.610001, 0.000000,  0.000000 
 8223488.000000, -6.989435 , -6.309873, 2.646462, 651320640.000000, -74.830002,  10.010000,  102.129997, 0.000000,  0.000000 
 8243968.000000, -8.738588 , -8.090133, 2.739782, 651340224.000000, -62.930000,  19.250000,  87.919998, 0.000000,  0.000000 
 8263808.000000, -10.906486 , -7.386643, 2.943172, 651360704.000000, -78.120003,  8.330000,  50.259998, 0.000000,  0.000000 
 8283840.000000, -12.964314 , -5.340781, 2.400001, 651380608.000000, -75.809998,  7.980000,  16.240000, 0.000000,  0.000000 
 8304192.000000, -15.203994 , -3.457629, 1.619941, 651400640.000000, -17.639999,  6.160000,  -18.340000, 0.000000,  0.000000 
 8323840.000000, -18.695124 , -2.139183, 0.945165, 651420992.000000, 37.450001,  -9.240000,  -83.860001, 0.000000,  0.000000 
 8344192.000000, -20.858232 , -1.287339, -0.078963, 651440640.000000, 64.470001,  -9.170000,  -152.880005, 0.000000,  0.000000 
 8364096.000000, -20.894125 , 0.296710, 1.718047, 651460992.000000, 75.110001,  -55.650002,  -226.660004, 0.000000,  0.000000 
 8384128.000000, -22.762924 , 0.110070, 0.272782, 651480896.000000, 69.230003,  -124.879997,  -267.679993, 0.000000,  0.000000 
 8404352.000000, -25.627131 , -0.093320, -0.279960, 651500928.000000, 82.529999,  -138.110001,  -287.140015, 0.000000,  0.000000 
 8424000.000000, -25.945377 , 0.461815, -1.423729, 651521152.000000, 107.029999,  -170.800003,  -303.589996, 0.000000,  0.000000 
 8443968.000000, -25.428526 , 1.280160, -3.481557, 651540800.000000, 178.009995,  -222.250000,  -294.209991, 0.000000,  0.000000 
 8464000.000000, -24.425934 , 1.715654, -5.151747, 651560768.000000, 261.170013,  -266.420013,  -281.470001, 0.000000,  0.000000 
 8483968.000000, -22.313070 , 2.172683, -4.730610, 651580800.000000, 309.190002,  -308.980011,  -268.940002, 0.000000,  0.000000 
 8504256.000000, -19.853249 , 2.648855, -3.775874, 651600768.000000, 325.079987,  -344.820007,  -248.360001, 0.000000,  0.000000 
 8523968.000000, -16.613367 , 2.821138, -2.593820, 651621056.000000, 323.679993,  -357.140015,  -223.020004, 0.000000,  0.000000 
 8543936.000000, -13.782660 , 2.926422, -1.359123, 651640768.000000, 295.470001,  -349.649994,  -202.860001, 0.000000,  0.000000 
 8563904.000000, -11.949757 , 2.653640, -1.071985, 651660736.000000, 241.919998,  -322.489990,  -187.949997, 0.000000,  0.000000 
 8583936.000000, -10.135997 , 1.878366, -1.241875, 651680704.000000, 168.279999,  -276.149994,  -177.940002, 0.000000,  0.000000 
 8604224.000000, -8.109276 , 0.959522, -1.402194, 651700736.000000, 80.220001,  -230.649994,  -177.169998, 0.000000,  0.000000 
 8623872.000000, -6.613762 , 0.406780, -1.347159, 651721024.000000, -2.380000,  -195.229996,  -180.110001, 0.000000,  0.000000 
 8643904.000000, -5.737988 , 0.189033, -1.418944, 651740672.000000, -64.820000,  -164.639999,  -183.330002, 0.000000,  0.000000 
 8663872.000000, -5.134997 , 0.181855, -1.375873, 651780672.000000, -118.370003,  -93.800003,  -179.339996, 711780352.000000,  1009.570007 
 8683840.000000, -4.503292 , -0.031107, -0.935594, 0.000000, 0.000000,  0.000000,  0.000000, 0.000000,  0.000000 
 8704192.000000, -3.663411 , -0.217747, -0.222532, 651800640.000000, -114.590004,  -69.160004,  -165.199997, 0.000000,  0.000000 
 8723840.000000, -3.043670 , -0.236889, 0.902094, 651820992.000000, -89.599998,  -49.209999,  -141.050003, 0.000000,  0.000000 
 8743808.000000, -2.806781 , -0.071785, 2.086541, 651840640.000000, -47.180000,  -29.190001,  -111.860001, 0.000000,  0.000000 
 8763840.000000, -2.907279 , -0.184247, 2.065006, 651860608.000000, 7.840000,  -6.300000,  -76.790001, 0.000000,  0.000000 
 8783808.000000, -3.352344 , -0.373280, 1.720440, 651880640.000000, 62.650002,  18.830000,  -37.590000, 0.000000,  0.000000 
 8804096.000000, -3.984050 , -1.026521, 2.108077, 651900608.000000, 96.459999,  42.700001,  1.260000, 0.000000,  0.000000 
 8823808.000000, -4.955536 , -1.428515, 3.189633, 651920896.000000, 107.520004,  66.570000,  43.400002, 0.000000,  0.000000 
 8843776.000000, -6.427122 , -2.002793, 3.500700, 651940608.000000, 101.430000,  96.389999,  83.580002, 0.000000,  0.000000 
 8863744.000000, -8.252845 , -2.158326, 2.981457, 651960576.000000, 84.000000,  131.740005,  116.900002, 0.000000,  0.000000 
 8883776.000000, -10.526026 , -1.993221, 3.144169, 651980544.000000, 54.740002,  171.080002,  146.020004, 0.000000,  0.000000 
 8904064.000000, -14.141582 , -1.746760, 3.239882, 652000576.000000, 15.540000,  200.130005,  166.880005, 0.000000,  0.000000 
 8923712.000000, -17.938992 , -1.581656, 2.136791, 652020864.000000, -65.800003,  231.210007,  165.130005, 0.000000,  0.000000 
 8943744.000000, -17.730816 , -2.050649, 2.603391, 652040512.000000, -175.210007,  253.540009,  152.110001, 0.000000,  0.000000 
 8963712.000000, -15.321243 , -2.761317, 3.486342, 652060544.000000, -270.059998,  216.509995,  142.940002, 0.000000,  0.000000 
 8983680.000000, -14.639289 , -3.766303, 3.235096, 652080512.000000, -312.480011,  182.000000,  135.520004, 0.000000,  0.000000 
 9004032.000000, -15.366707 , -4.977071, 2.632105, 652100480.000000, -298.339996,  180.600006,  118.230003, 0.000000,  0.000000 
 9023680.000000, -16.055840 , -5.742774, 1.998007, 652120768.000000, -249.130005,  186.690002,  114.660004, 0.000000,  0.000000 
 9043648.000000, -16.307087 , -5.994020, 1.847259, 652140480.000000, -182.000000,  184.449997,  127.470001, 0.000000,  0.000000 
 9063680.000000, -16.115660 , -5.955735, 2.029114, 652160448.000000, -117.250000,  177.869995,  155.539993, 0.000000,  0.000000 
 9083648.000000, -15.610775 , -5.343173, 2.782853, 652180480.000000, -66.500000,  173.529999,  185.430008, 0.000000,  0.000000 
 9103936.000000, -14.426328 , -4.199404, 3.065206, 652200448.000000, -27.299999,  166.809998,  203.210007, 0.000000,  0.000000 
 9123648.000000, -13.251451 , -2.787638, 2.385644, 652220736.000000, 12.530000,  159.180008,  215.669998, 0.000000,  0.000000 
 9143616.000000, -11.990433 , -1.531406, 1.694118, 652240384.000000, 46.200001,  148.820007,  209.789993, 0.000000,  0.000000 
 9163584.000000, -10.717452 , -0.782453, 1.459622, 652260416.000000, 48.369999,  131.250000,  191.240005, 0.000000,  0.000000 
 9183616.000000, -9.748360 , -0.746561, 1.349552, 652280384.000000, 20.930000,  110.110001,  165.550003, 0.000000,  0.000000 
 9203904.000000, -9.214760 , -0.940379, 1.462015, 652300352.000000, -19.809999,  91.279999,  134.889999, 0.000000,  0.000000 
 9223552.000000, -8.726624 , -1.074377, 1.564906, 652320704.000000, -63.700001,  71.889999,  103.739998, 0.000000,  0.000000 
 9243584.000000, -8.111670 , -1.249053, 1.708475, 652340352.000000, -99.680000,  51.590000,  76.930000, 0.000000,  0.000000 
 9263552.000000, -7.582855 , -1.387837, 1.605584, 652360320.000000, -124.809998,  27.930000,  53.760002, 0.000000,  0.000000 
 9283520.000000, -7.499106 , -1.753939, 1.318445, 652380352.000000, -142.100006,  8.820000,  31.990000, 0.000000,  0.000000 
 9303808.000000, -7.645068 , -2.364109, 0.935594, 652400320.000000, -157.080002,  -1.330000,  13.930000, 0.000000,  0.000000 
 9323520.000000, -7.726424 , -3.065206, 0.626920, 652420608.000000, -170.100006,  -8.750000,  1.540000, 0.000000,  0.000000 
 9343488.000000, -7.601997 , -3.684947, 0.748954, 652440320.000000, -175.210007,  -20.860001,  -5.040000, 0.000000,  0.000000 
 9363520.000000, -7.508677 , -4.058227, 1.055235, 652460288.000000, -168.279999,  -32.340000,  -6.370000, 0.000000,  0.000000 
 9383488.000000, -7.601997 , -4.213760, 1.473979, 652480256.000000, -148.190002,  -36.049999,  -6.090000, 0.000000,  0.000000 
 9403776.000000, -7.996813 , -4.170690, 2.002793, 652500288.000000, -134.259995,  -34.860001,  -6.510000, 0.000000,  0.000000 
 9424256.000000, -8.472985 , -3.596412, 1.871187, 652520576.000000, -100.940002,  -27.510000,  -8.960000, 0.000000,  0.000000 
 9443520.000000, -8.700303 , -3.421736, 0.985843, 652541056.000000, -64.260002,  -16.170000,  -14.700000, 0.000000,  0.000000 
 9463488.000000, -9.064013 , -2.983850, 0.646062, 652560320.000000, -25.340000,  -9.240000,  -23.030001, 0.000000,  0.000000 
 9483520.000000, -10.442278 , -2.878566, 0.349352, 652580288.000000, 2.030000,  -2.520000,  -32.689999, 0.000000,  0.000000 
 9503744.000000, -12.662818 , -2.538785, 1.272982, 652600320.000000, 16.730000,  17.780001,  -46.970001, 0.000000,  0.000000 
 9523520.000000, -13.560125 , -2.723032, 1.038485, 652620544.000000, 27.020000,  30.730000,  -63.560001, 0.000000,  0.000000 
 9543424.000000, -14.751752 , -3.010171, 1.392623, 652640320.000000, 44.450001,  22.889999,  -71.050003, 0.000000,  0.000000 
 9563456.000000, -18.250059 , -2.201397, 3.297310, 652660224.000000, 60.760002,  18.410000,  -79.379997, 0.000000,  0.000000 
 9583488.000000, -18.857834 , -1.478764, 1.921437, 652680256.000000, 88.550003,  34.230000,  -89.809998, 0.000000,  0.000000 
 9603712.000000, -16.182659 , 0.514457, 1.265803, 652700288.000000, 144.130005,  24.990000,  -90.860001, 0.000000,  0.000000 
 9623424.000000, -14.498112 , 2.163112, 0.842274, 652720512.000000, 178.009995,  -28.350000,  -88.480003, 0.000000,  0.000000 
 9643584.000000, -15.172889 , 2.947958, 0.330210, 652740224.000000, 181.720001,  -65.519997,  -89.529999, 0.000000,  0.000000 
 9663424.000000, -15.615561 , 3.330809, -0.337388, 652780224.000000, 159.389999,  -114.169998,  -115.570000, 712779840.000000,  1009.585510 
 9683392.000000, -14.266008 , 3.838088, -0.459422, 0.000000, 0.000000,  0.000000,  0.000000, 0.000000,  0.000000 
 9703680.000000, -13.237095 , 4.010371, -0.614955, 652800192.000000, 141.259995,  -163.729996,  -116.620003, 0.000000,  0.000000 
 9723456.000000, -12.591033 , 3.424129, -0.727418, 652820480.000000, 119.980003,  -193.619995,  -116.900002, 0.000000,  0.000000 
 9743360.000000, -11.129018 , 2.519642, -0.339781, 652840256.000000, 87.989998,  -205.800003,  -115.500000, 0.000000,  0.000000 
 9763328.000000, -9.315259 , 1.670190, 0.289532, 652860160.000000, 51.660000,  -217.350006,  -109.550003, 0.000000,  0.000000 
 9783360.000000, -8.327023 , 1.179662, 1.215554, 652880128.000000, 30.520000,  -215.040009,  -101.150002, 0.000000,  0.000000 
 9803584.000000, -7.654640 , 0.868595, 1.452443, 652900160.000000, 23.450001,  -191.169998,  -90.720001, 0.000000,  0.000000 
 9823360.000000, -6.893722 , 0.516850, 1.335195, 652920384.000000, 27.020000,  -153.369995,  -81.550003, 0.000000,  0.000000 
 9843264.000000, -5.943772 , 0.430708, 1.464408, 652940160.000000, 33.740002,  -126.139999,  -78.050003, 0.000000,  0.000000 
 9863232.000000, -5.398208 , 0.435494, 1.607977, 652960064.000000, 37.099998,  -102.900002,  -73.360001, 0.000000,  0.000000 
 9883328.000000, -5.233103 , 0.145962, 1.694118, 652980032.000000, 37.240002,  -71.959999,  -63.070000, 0.000000,  0.000000 
 9903552.000000, -5.391029 , -0.406780, 2.067399, 653000128.000000, 32.410000,  -41.299999,  -54.180000, 0.000000,  0.000000 
 9923328.000000, -5.764310 , -0.792024, 2.842674, 653020352.000000, 22.400000,  -19.950001,  -44.799999, 0.000000,  0.000000 
 9943232.000000, -6.326623 , -0.894916, 3.172883, 653040128.000000, 19.950001,  0.980000,  -26.740000, 0.000000,  0.000000 
 9963264.000000, -6.979864 , -1.182054, 2.837888, 653060032.000000, 24.990000,  19.670000,  -8.470000, 0.000000,  0.000000 
 9983296.000000, -7.642675 , -1.849652, 2.584249, 653080064.000000, 28.910000,  31.920000,  2.170000, 0.000000,  0.000000 
 10003520.000000, -7.984849 , -2.533999, 2.883351, 653100096.000000, 14.700000,  29.960001,  5.390000, 0.000000,  0.000000 
 10023232.000000, -7.594819 , -2.727818, 3.022135, 653120320.000000, -11.830000,  15.820000,  4.900000, 0.000000,  0.000000 
 10043200.000000, -7.121039 , -2.878566, 3.670590, 653140032.000000, -42.349998,  -5.600000,  1.610000, 0.000000,  0.000000 
 10063232.000000, -7.190433 , -3.938586, 4.943572, 653160000.000000, -72.309998,  -23.660000,  -3.850000, 0.000000,  0.000000 
 10083264.000000, -8.508877 , -5.496314, 6.173482, 653180032.000000, -98.000000,  -23.660000,  -9.240000, 0.000000,  0.000000 
 10103424.000000, -10.392029 , -7.149754, 6.108876, 653200064.000000, -111.650002,  -7.350000,  -14.000000, 0.000000,  0.000000 
 10123200.000000, -11.753544 , -8.142776, 5.826523, 653220224.000000, -100.029999,  16.520000,  -4.830000, 0.000000,  0.000000 
 10143168.000000, -11.708081 , -8.300702, 6.197411, 653240000.000000, -76.230003,  24.430000,  14.000000, 0.000000,  0.000000 
 10163200.000000, -10.135997 , -7.082755, 6.620940, 653259904.000000, -62.160000,  17.990000,  29.330000, 0.000000,  0.000000 
 10183168.000000, -8.394022 , -5.797810, 6.537192, 653280000.000000, -49.840000,  8.330000,  29.120001, 0.000000,  0.000000 
 10203392.000000, -7.776673 , -5.577669, 6.601797, 653299968.000000, -25.760000,  1.470000,  9.100000, 0.000000,  0.000000 
 10223168.000000, -8.240881 , -6.017949, 7.393822, 653320192.000000, -15.260000,  6.090000,  -21.070000, 0.000000,  0.000000 
 10243072.000000, -9.121440 , -6.266802, 7.802995, 653339968.000000, -20.719999,  22.610001,  -41.860001, 0.000000,  0.000000 
 10263104.000000, -9.549755 , -6.149554, 7.963314, 653359872.000000, -6.720000,  38.570000,  -44.380001, 0.000000,  0.000000 
 10283136.000000, -9.174082 , -5.082355, 8.126025, 653379904.000000, 30.170000,  38.150002,  -39.970001, 0.000000,  0.000000 
 10303360.000000, -8.212167 , -3.505485, 7.666604, 653399936.000000, 59.080002,  24.010000,  -33.040001, 0.000000,  0.000000 
 10323136.000000, -6.946364 , -2.321038, 7.336394, 653420160.000000, 67.129997,  2.520000,  -28.559999, 0.000000,  0.000000 
 10343040.000000, -5.757132 , -2.088934, 7.740781, 653439936.000000, 52.990002,  -26.460001,  -29.330000, 0.000000,  0.000000 
 10363072.000000, -4.831109 , -2.871387, 8.274381, 653459840.000000, 20.510000,  -54.459999,  -36.820000, 0.000000,  0.000000 
 10383040.000000, -4.467400 , -3.510271, 8.638089, 653479808.000000, -9.730000,  -66.639999,  -44.660000, 0.000000,  0.000000 
 10403264.000000, -4.374080 , -4.213760, 7.977671, 653499840.000000, -16.450001,  -69.370003,  -50.750000, 0.000000,  0.000000 
 10423040.000000, -4.252046 , -4.374080, 7.200003, 653520064.000000, -0.770000,  -77.559998,  -53.200001, 0.000000,  0.000000 
 10442880.000000, -3.713661 , -4.381258, 6.419943, 653539840.000000, 12.040000,  -90.930000,  -50.610001, 0.000000,  0.000000 
 10462912.000000, -3.194418 , -4.335794, 5.699703, 653559680.000000, 20.440001,  -103.599998,  -39.759998, 0.000000,  0.000000 
 10482880.000000, -2.945565 , -4.443472, 4.993821, 653579648.000000, 19.320000,  -108.919998,  -29.680000, 0.000000,  0.000000 
 10503168.000000, -3.060420 , -4.601398, 4.319045, 653599680.000000, 7.840000,  -103.110001,  -23.379999, 0.000000,  0.000000 
 10522880.000000, -3.302095 , -4.618148, 3.737589, 653619968.000000, -7.420000,  -90.650002,  -19.460001, 0.000000,  0.000000 
 10542848.000000, -3.684947 , -4.438686, 3.359523, 653639616.000000, -20.790001,  -76.650002,  -17.010000, 0.000000,  0.000000 
 10562816.000000, -4.106083 , -4.486543, 3.151347, 653659648.000000, -34.160000,  -61.040001,  -13.650000, 0.000000,  0.000000 
 10582848.000000, -4.850252 , -4.398008, 3.031706, 653679616.000000, -47.740002,  -41.580002,  -8.330000, 0.000000,  0.000000 
 10603136.000000, -5.630312 , -3.955336, 2.562713, 653699584.000000, -54.599998,  -15.820000,  0.420000, 0.000000,  0.000000 
 10622784.000000, -6.711867 , -3.421736, 1.555335, 653719936.000000, -39.270000,  17.639999,  15.610000, 0.000000,  0.000000 
 10642816.000000, -7.913064 , -2.778067, 0.418744, 653739584.000000, -9.240000,  51.590000,  36.889999, 0.000000,  0.000000 
 10662784.000000, -9.281759 , -2.364109, -0.102891, 653779584.000000, 26.110001,  117.529999,  89.180000, 713779200.000000,  1009.600708 
 10682752.000000, -10.810772 , -2.280360, 0.244068, 0.000000, 0.000000,  0.000000,  0.000000, 0.000000,  0.000000 
 10703104.000000, -11.672189 , -2.560320, 1.083949, 653799552.000000, 26.460001,  145.320007,  113.470001, 0.000000,  0.000000 
 10722752.000000, -11.490334 , -2.684747, 1.703690, 653819904.000000, 26.040001,  168.630005,  134.330002, 0.000000,  0.000000 
 10742720.000000, -11.277373 , -2.218147, 1.727618, 653839552.000000, 34.580002,  188.860001,  147.979996, 0.000000,  0.000000 
 10762752.000000, -11.861222 , -1.347159, 1.198804, 653859520.000000, 56.980000,  212.100006,  151.899994, 0.000000,  0.000000 
 10782720.000000, -12.775280 , -0.693919, -0.272782, 653879488.000000, 82.739998,  236.809998,  149.029999, 0.000000,  0.000000 
 10803008.000000, -13.789837 , -0.344566, -1.567299, 653899520.000000, 101.849998,  249.410004,  140.000000, 0.000000,  0.000000 
 10822656.000000, -14.218152 , -0.574277, -2.029114, 653919808.000000, 103.879997,  241.430008,  124.389999, 0.000000,  0.000000 
 10842688.000000, -14.232510 , -0.480957, -0.696311, 653939456.000000, 94.360001,  218.540009,  109.340004, 0.000000,  0.000000 
 10862656.000000, -13.746766 , 0.279960, -0.138784, 653959488.000000, 85.120003,  187.740005,  96.320000, 0.000000,  0.000000 
 10882624.000000, -13.088740 , 1.265803, 0.234497, 653979456.000000, 89.180000,  162.399994,  87.220001, 0.000000,  0.000000 
 10902976.000000, -12.014362 , 1.875973, 0.581456, 653999424.000000, 77.699997,  138.389999,  68.739998, 0.000000,  0.000000 
 10922624.000000, -11.210374 , 1.674976, 0.978664, 654019776.000000, 36.820000,  118.790001,  48.720001, 0.000000,  0.000000 
 10942592.000000, -10.669596 , 1.071985, 1.117448, 654039424.000000, -16.520000,  105.980003,  24.570000, 0.000000,  0.000000 
 10962624.000000, -10.272388 , 0.514457, 1.071985, 654059392.000000, -61.110001,  98.699997,  9.590000, 0.000000,  0.000000 
 10982592.000000, -10.035499 , 0.160319, 1.366302, 654079424.000000, -88.059998,  91.840004,  -0.420000, 0.000000,  0.000000 
 11002880.000000, -9.944571 , -0.203390, 2.108077, 654099392.000000, -101.080002,  82.739998,  -4.690000, 0.000000,  0.000000 
 11022592.000000, -9.930215 , -0.291924, 2.914458, 654119680.000000, -102.129997,  78.330002,  -0.560000, 0.000000,  0.000000 
 11042560.000000, -9.600004 , -0.538385, 2.907279, 654139392.000000, -91.559998,  76.230003,  9.450000, 0.000000,  0.000000 
 11062528.000000, -9.327222 , -0.693919, 3.203990, 654159360.000000, -72.519997,  74.900002,  20.580000, 0.000000,  0.000000 
 11082560.000000, -9.111869 , -0.849452, 3.531806, 654179328.000000, -58.029999,  71.330002,  30.170000, 0.000000,  0.000000 
 11102848.000000, -9.394222 , -0.914058, 3.924229, 654199360.000000, -40.320000,  71.540001,  43.119999, 0.000000,  0.000000 
 11122496.000000, -10.214959 , -0.861416, 3.931407, 654219648.000000, -14.420000,  74.620003,  53.270000, 0.000000,  0.000000 
 11142528.000000, -11.248660 , -0.899701, 3.672983, 654239296.000000, 16.940001,  78.820000,  59.779999, 0.000000,  0.000000 
 11162496.000000, -11.538191 , -0.935594, 3.242275, 654259328.000000, 44.310001,  74.480003,  64.610001, 0.000000,  0.000000 
 11182464.000000, -11.222338 , -0.734596, 2.208575, 654279296.000000, 61.950001,  55.160000,  66.989998, 0.000000,  0.000000 
 11202816.000000, -12.330215 , -0.370888, 1.998007, 654299264.000000, 70.419998,  27.370001,  64.820000, 0.000000,  0.000000 
 11222464.000000, -15.309279 , -0.339781, 1.497907, 654319616.000000, 71.190002,  16.170000,  54.389999, 0.000000,  0.000000 
 11242432.000000, -17.819349 , -0.717847, 0.914058, 654339264.000000, 77.769997,  23.030001,  44.029999, 0.000000,  0.000000 
 11262464.000000, -16.158731 , -1.026521, 0.531207, 654359232.000000, 83.300003,  -8.190000,  29.469999, 0.000000,  0.000000 
 11282432.000000, -12.512069 , -0.856631, 0.401994, 654379264.000000, 84.209999,  -40.810001,  27.860001, 0.000000,  0.000000 
 11302720.000000, -9.968499 , -0.433101, 0.174676, 654399232.000000, 84.980003,  -112.279999,  28.139999, 0.000000,  0.000000 
 11322432.000000, -9.128618 , 0.028714, -0.342174, 654419520.000000, 80.290001,  -156.940002,  18.410000, 0.000000,  0.000000 
 11342400.000000, -9.664611 , 0.251246, -0.449851, 654439232.000000, 70.699997,  -178.639999,  -2.730000, 0.000000,  0.000000 
 11362368.000000, -12.318252 , 0.703490, -0.844666, 654459200.000000, 64.400002,  -173.529999,  -27.930000, 0.000000,  0.000000 
 11382400.000000, -15.290136 , 0.378066, -1.402194, 654479168.000000, 57.959999,  -152.389999,  -45.849998, 0.000000,  0.000000 
 11402816.000000, -15.991233 , -0.734596, -1.284946, 654499200.000000, 44.450001,  -161.630005,  -53.130001, 0.000000,  0.000000 
 11422336.000000, -15.211173 , -2.110470, -0.693919, 654519616.000000, 25.200001,  -196.419998,  -52.080002, 0.000000,  0.000000 
 11442368.000000, -13.435699 , -3.117848, -0.669990, 654539136.000000, 13.300000,  -210.979996,  -39.689999, 0.000000,  0.000000 
 11462336.000000, -12.626925 , -3.110669, -0.538385, 654559168.000000, 10.710000,  -204.399994,  -21.070000, 0.000000,  0.000000 
 11482304.000000, -12.107682 , -2.275574, -0.909273, 654579136.000000, 12.880000,  -191.380005,  -9.030000, 0.000000,  0.000000 
 11502656.000000, -11.621940 , -1.194018, -1.160519, 654599104.000000, 23.379999,  -170.520004,  -4.060000, 0.000000,  0.000000 
 11522304.000000, -10.827522 , -0.380459, -1.672583, 654619392.000000, 35.700001,  -164.779999,  -10.850000, 0.000000,  0.000000 
 11542272.000000, -9.992428 , -0.354138, -1.988436, 654639104.000000, 40.529999,  -162.259995,  -26.950001, 0.000000,  0.000000 
 11562304.000000, -9.315259 , -0.878166, -1.770689, 654679104.000000, 9.660000,  -158.899994,  -61.250000, 0.000000,  0.000000 
 11582272.000000, -8.927622 , -1.311267, -0.981057, 0.000000, 0.000000,  0.000000,  0.000000, 0.000000,  0.000000 
 11602560.000000, -8.626125 , -1.368695, -0.416351, 654699072.000000, -9.030000,  -152.529999,  -72.449997, 0.000000,  0.000000 
 11622272.000000, -8.142776 , -1.397408, -0.287139, 654719360.000000, -11.060000,  -144.130005,  -78.120003, 0.000000,  0.000000 
 11642240.000000, -7.556533 , -1.320838, -0.378066, 654739072.000000, -2.870000,  -138.809998,  -78.680000, 0.000000,  0.000000 
 11662208.000000, -7.300502 , -0.899701, -0.555135, 654759040.000000, 2.520000,  -135.520004,  -75.529999, 0.000000,  0.000000 
 11682240.000000, -7.389036 , -0.059821, -0.847059, 654779008.000000, 0.770000,  -127.680000,  -72.449997, 714778688.000000,  1009.619202 
 11702528.000000, -7.195218 , 0.713061, -1.462015, 654799040.000000, -6.090000,  -114.800003,  -68.879997, 0.000000,  0.000000 
 11722176.000000, -6.422336 , 1.012164, -1.904687, 654819328.000000, -17.219999,  -109.760002,  -64.050003, 0.000000,  0.000000 
 11742208.000000, -5.474778 , 0.981057, -2.256432, 654838976.000000, -40.040001,  -115.360001,  -61.459999, 0.000000,  0.000000 
 11762176.000000, -5.022535 , 0.885344, -2.337788, 654859008.000000, -69.790001,  -114.800003,  -58.730000, 0.000000,  0.000000 
 11782144.000000, -4.984250 , 0.406780, -1.964507, 654878976.000000, -102.059998,  -96.949997,  -55.930000, 0.000000,  0.000000 
 11802496.000000, -5.235496 , -0.057428, -0.808774, 654898944.000000, -126.770004,  -70.769997,  -53.900002, 0.000000,  0.000000 
 11822144.000000, -5.371887 , -0.160319, 0.342174, 654919232.000000, -139.160004,  -46.480000,  -51.799999, 0.000000,  0.000000 
 11842112.000000, -5.285746 , -0.177069, 0.983450, 654938944.000000, -131.039993,  -19.320000,  -39.549999, 0.000000,  0.000000 
 11862144.000000, -5.850451 , -0.181855, 1.100698, 654958912.000000, -102.129997,  15.260000,  -17.010000, 0.000000,  0.000000 
 11882112.000000, -7.654640 , -0.248854, 0.940379, 654978944.000000, -71.959999,  59.010002,  7.000000, 0.000000,  0.000000 
 11902400.000000, -10.085747 , -0.390030, 0.538385, 654998912.000000, -50.610001,  120.680000,  36.119999, 0.000000,  0.000000 
 11922112.000000, -12.681960 , -0.945165, -0.267996, 655019200.000000, -37.730000,  181.020004,  72.309998, 0.000000,  0.000000 
 11942080.000000, -16.496119 , -1.696511, -0.593420, 655038912.000000, -24.780001,  228.339996,  118.650002, 0.000000,  0.000000 
 11962048.000000, -21.592831 , -2.510071, 0.820738, 655058880.000000, -13.930000,  284.619995,  165.619995, 0.000000,  0.000000 
 11982080.000000, -23.784658 , -3.543770, 3.859623, 655078848.000000, -4.900000,  343.209991,  208.389999, 0.000000,  0.000000 
 12002368.000000, -24.138794 , -2.914458, 7.092326, 655098816.000000, 28.420000,  401.940002,  249.759995, 0.000000,  0.000000 
 12022016.000000, -20.934805 , 0.445065, 8.726624, 655119168.000000, 111.090004,  465.709991,  281.679993, 0.000000,  0.000000 
 12042048.000000, -17.618353 , -2.574677, 2.593820, 655138816.000000, 179.830002,  477.049988,  285.809998, 0.000000,  0.000000 
 12062016.000000, -16.555939 , -2.627320, -2.048256, 655158784.000000, 272.440002,  443.940002,  238.910004, 0.000000,  0.000000 
 12081984.000000, -13.598411 , 2.679961, -5.702096, 655178816.000000, 332.079987,  303.519989,  141.330002, 0.000000,  0.000000 
 12102336.000000, -11.703296 , 7.635497, -5.395815, 655198784.000000, 321.019989,  199.009995,  118.580002, 0.000000,  0.000000 
 12121984.000000, -9.990034 , 6.709475, -3.938586, 655219072.000000, 182.559998,  98.840004,  71.260002, 0.000000,  0.000000 
 12141952.000000, -9.322437 , 4.220939, -3.055635, 655238784.000000, 15.680000,  42.349998,  11.480000, 0.000000,  0.000000 
 12161920.000000, -8.554340 , 3.019742, -1.904687, 655258752.000000, -116.620003,  16.730000,  -41.369999, 0.000000,  0.000000 
 12181952.000000, -8.370094 , 1.619941, -0.452243, 655278720.000000, -211.119995,  -4.340000,  -71.470001, 0.000000,  0.000000 
 12202240.000000, -8.685946 , -0.078963, 1.911865, 655298752.000000, -287.910004,  -30.309999,  -112.209999, 0.000000,  0.000000 
 12221888.000000, -8.190632 , -2.593820, 3.790231, 655319040.000000, -364.700012,  -61.389999,  -136.710007, 0.000000,  0.000000 
 12241920.000000, -7.140182 , -4.847858, 5.056034, 655338688.000000, -416.149994,  -80.430000,  -129.990005, 0.000000,  0.000000 
 12261888.000000, -6.099305 , -6.386444, 5.438886, 655358720.000000, -413.980011,  -75.739998,  -103.180000, 0.000000,  0.000000 
 12281856.000000, -5.544170 , -6.434300, 5.168497, 655378688.000000, -346.360016,  -52.150002,  -52.570000, 0.000000,  0.000000 
 12302208.000000, -5.673382 , -5.769095, 4.536791, 655398656.000000, -239.540009,  -17.639999,  -0.280000, 0.000000,  0.000000 
 12321920.000000, -6.204589 , -4.637290, 3.792624, 655419008.000000, -103.599998,  7.700000,  37.869999, 0.000000,  0.000000 
 12341824.000000, -6.905686 , -3.605984, 3.189633, 655438720.000000, 29.400000,  19.740000,  63.630001, 0.000000,  0.000000 
 12361856.000000, -7.599605 , -2.854637, 2.419144, 655458624.000000, 132.509995,  25.200001,  84.000000, 0.000000,  0.000000 
 12381824.000000, -8.882158 , -2.024328, 1.402194, 655478656.000000, 203.979996,  27.510000,  97.440002, 0.000000,  0.000000 
 12402176.000000, -11.423335 , -0.830309, 0.311067, 655498624.000000, 244.369995,  30.870001,  100.239998, 0.000000,  0.000000 
 12421824.000000, -15.385850 , 0.452243, -1.440479, 655518912.000000, 251.580002,  39.340000,  93.730003, 0.000000,  0.000000 
 12441792.000000, -19.814964 , 0.681954, -2.864209, 655538624.000000, 222.529999,  35.560001,  80.989998, 0.000000,  0.000000 
 12461760.000000, -21.372692 , -0.076570, -3.402594, 655558592.000000, 153.369995,  -5.600000,  51.730000, 0.000000,  0.000000 
 12481792.000000, -17.692532 , -0.533599, -3.826123, 655578560.000000, 57.189999,  -73.290001,  25.480000, 0.000000,  0.000000 
 12502080.000000, -13.998013 , 0.337388, -2.462214, 655598592.000000, -32.060001,  -159.180008,  -3.710000, 0.000000,  0.000000 
 12521728.000000, -12.947563 , 1.507478, -1.210768, 655618880.000000, -102.129997,  -217.630005,  -49.420002, 0.000000,  0.000000 
 12541760.000000, -14.737395 , 1.749153, -1.493121, 655638528.000000, -141.539993,  -225.750000,  -107.239998, 0.000000,  0.000000 
 12561728.000000, -16.823936 , 0.698704, -1.265803, 655658560.000000, -163.869995,  -211.259995,  -179.550003, 0.000000,  0.000000 
 12581696.000000, -16.984255 , -1.617548, -0.777667, 655678528.000000, -182.559998,  -202.020004,  -240.520004, 0.000000,  0.000000 
 12602048.000000, -16.285551 , -3.701697, -0.102891, 655698496.000000, -176.259995,  -195.930008,  -269.360016, 0.000000,  0.000000 
 12621696.000000, -15.546168 , -4.654040, 0.624527, 655718848.000000, -138.600006,  -177.309998,  -270.760010, 0.000000,  0.000000 
 12641728.000000, -15.383456 , -4.613362, 0.686740, 655738496.000000, -69.860001,  -151.130005,  -244.860001, 0.000000,  0.000000 
 12661760.000000, -15.019747 , -4.527221, 0.066999, 655758528.000000, 20.719999,  -130.899994,  -203.910004, 0.000000,  0.000000 
 12681728.000000, -14.579469 , -4.228118, -0.502493, 655778560.000000, 117.110001,  -117.459999,  -165.970001, 715778176.000000,  1009.634705 
 12702016.000000, -14.093725 , -3.661019, -0.227318, 655798528.000000, 194.460007,  -106.050003,  -141.119995, 0.000000,  0.000000 
 12721472.000000, -11.337193 , 4.448257, 13.574483, 655818816.000000, 241.990005,  -98.209999,  -119.209999, 0.000000,  0.000000 
 12741632.000000, -8.549555 , 1.694118, 2.000400, 655838272.000000, 246.190002,  -105.840004,  -104.160004, 0.000000,  0.000000 
 12761600.000000, -6.623333 , 1.643869, -0.650848, 655858432.000000, 212.100006,  -121.730003,  -94.779999, 0.000000,  0.000000 
 12781632.000000, -5.625526 , 1.619941, -0.294317, 655878400.000000, 157.639999,  -130.199997,  -87.360001, 0.000000,  0.000000 
 12801920.000000, -4.938786 , 1.414158, -0.198604, 655898432.000000, 106.330002,  -127.190002,  -80.989998, 0.000000,  0.000000 
 12821632.000000, -4.883751 , 1.478764, -0.007178, 655918720.000000, 65.870003,  -120.610001,  -76.160004, 0.000000,  0.000000 
 12841664.000000, -4.816752 , 1.691726, 0.868595, 655938432.000000, 35.490002,  -116.199997,  -69.090004, 0.000000,  0.000000 
 12861632.000000, -4.706682 , 1.971686, 2.368894, 655958464.000000, 12.320000,  -109.970001,  -56.770000, 0.000000,  0.000000 
 12881600.000000, -4.488935 , 1.983650, 2.995814, 655978432.000000, -10.080000,  -96.180000,  -40.740002, 0.000000,  0.000000 
 12901952.000000, -4.345366 , 1.744368, 2.383251, 655998400.000000, -37.730000,  -71.470001,  -22.260000, 0.000000,  0.000000 
 12921600.000000, -4.082155 , 1.335195, 1.194018, 656018688.000000, -69.440002,  -38.290001,  -2.590000, 0.000000,  0.000000 
 12941568.000000, -3.888337 , 0.847059, -0.093320, 656038400.000000, -99.680000,  -1.960000,  19.950001, 0.000000,  0.000000 
 12961600.000000, -3.838088 , 0.363709, -1.390230, 656058368.000000, -117.250000,  32.340000,  47.670002, 0.000000,  0.000000 
 12981568.000000, -3.979264 , -0.019143, -2.622534, 656078336.000000, -118.020004,  61.599998,  80.919998, 0.000000,  0.000000 
 13001472.000000, -4.307081 , -0.227318, -3.531806, 656098368.000000, -108.989998,  89.180000,  116.620003, 0.000000,  0.000000 
 13021632.000000, -9.853643 , -1.215554, -2.931208, 656118208.000000, -102.690002,  123.620003,  154.139999, 0.000000,  0.000000 
 13041472.000000, -15.756737 , -1.036092, -1.710868, 656138432.000000, -111.230003,  173.669998,  186.619995, 0.000000,  0.000000 
 13061440.000000, -24.335005 , -2.488536, -1.462015, 656158272.000000, -135.520004,  231.839996,  212.729996, 0.000000,  0.000000 
 13081472.000000, -27.996025 , -5.209175, 2.675175, 656178240.000000, -162.330002,  253.960007,  239.680008, 0.000000,  0.000000 
 13101760.000000, -27.098715 , -5.855237, 6.295516, 656198272.000000, -164.360001,  287.700012,  284.480011, 0.000000,  0.000000 
 13121408.000000, -20.126030 , -4.476971, 6.817152, 656218560.000000, -102.830002,  348.179993,  336.489990, 0.000000,  0.000000 
 13140800.000000, -19.664217 , -4.407579, 6.376873, 656238208.000000, 18.410000,  372.750000,  356.579987, 0.000000,  0.000000 
 13161472.000000, -19.006189 , -4.273581, 4.845466, 656257600.000000, 111.370003,  309.540009,  297.850006, 0.000000,  0.000000 
 13181440.000000, -18.314665 , -3.914658, 2.701497, 656278272.000000, 259.769989,  256.829987,  253.750000, 0.000000,  0.000000 
 13201728.000000, -17.764317 , -3.062813, 1.246661, 656298240.000000, 336.140015,  178.500000,  192.430008, 0.000000,  0.000000 
 13220800.000000, -17.197216 , -2.086541, 1.256232, 656318528.000000, 319.269989,  140.910004,  119.770004, 0.000000,  0.000000 
 13241344.000000, -10.875379 , 5.790630, 2.098505, 656337600.000000, 183.960007,  77.139999,  67.129997, 0.000000,  0.000000 
 13261376.000000, -10.092925 , 2.153540, -3.014957, 656358144.000000, 12.040000,  18.200001,  30.940001, 0.000000,  0.000000 
 13281344.000000, -10.037891 , 0.686740, -1.593620, 656378112.000000, -114.730003,  -23.590000,  -8.680000, 0.000000,  0.000000 
 13301632.000000, -9.982857 , -0.074178, 0.725025, 656398144.000000, -205.729996,  -49.209999,  -42.560001, 0.000000,  0.000000 
 13321408.000000, -9.901501 , -0.232104, 0.949951, 656418432.000000, -289.170013,  -75.879997,  -67.970001, 0.000000,  0.000000 
 13341376.000000, -9.607183 , -0.653241, 0.899701, 656438208.000000, -355.110016,  -101.709999,  -77.980003, 0.000000,  0.000000 
 13361344.000000, -9.107083 , -1.301696, 0.299103, 656458176.000000, -367.989990,  -105.489998,  -76.650002, 0.000000,  0.000000 
 13381376.000000, -8.568698 , -1.962115, -0.612563, 656478144.000000, -318.920013,  -83.720001,  -58.450001, 0.000000,  0.000000 
 13401664.000000, -8.027920 , -2.316252, -0.799203, 656498112.000000, -234.850006,  -45.080002,  -21.420000, 0.000000,  0.000000 
 13421312.000000, -7.580462 , -2.337788, 0.270389, 656518464.000000, -134.330002,  -13.230000,  8.540000, 0.000000,  0.000000 
 13441344.000000, -7.374680 , -2.165504, 1.849652, 656538112.000000, -24.080000,  7.420000,  25.760000, 0.000000,  0.000000 
 13461312.000000, -7.319644 , -1.926222, 3.536592, 656558080.000000, 78.610001,  29.680000,  39.689999, 0.000000,  0.000000 
 13481280.000000, -7.389036 , -1.734797, 5.151747, 656578112.000000, 161.490005,  57.540001,  48.369999, 0.000000,  0.000000 
 13501376.000000, -7.566105 , -1.696511, 6.242875, 656598080.000000, 223.020004,  81.340004,  58.939999, 0.000000,  0.000000 
 13521216.000000, -11.581261 , -2.756532, 6.422336, 656618176.000000, 261.170013,  94.919998,  71.470001, 0.000000,  0.000000 
 13541184.000000, -13.165311 , -2.127219, -0.638884, 656638016.000000, 279.230011,  86.099998,  82.040001, 0.000000,  0.000000 
 13561216.000000, -12.928421 , -1.533799, -1.473979, 656657984.000000, 277.829987,  40.880001,  91.489998, 0.000000,  0.000000 
 13581184.000000, -13.043276 , 0.088534, -2.005185, 656678016.000000, 253.399994,  -22.260000,  92.820000, 0.000000,  0.000000 
 13601472.000000, -14.498112 , 1.610370, -2.967100, 656697984.000000, 201.949997,  -63.980000,  75.180000, 0.000000,  0.000000 
 13621184.000000, -16.632511 , 1.816152, -4.304688, 656718272.000000, 133.559998,  -82.879997,  41.860001, 0.000000,  0.000000 
 13641344.000000, -20.106890 , 1.308874, -3.933800, 656737920.000000, 56.000000,  -117.110001,  -12.040000, 0.000000,  0.000000 
 13661120.000000, -18.637695 , 0.239282, -2.773281, 656758080.000000, -18.059999,  -147.210007,  -70.209999, 0.000000,  0.000000 
 13681152.000000, -13.517055 , -0.198604, -0.856631, 656777920.000000, -75.110001,  -210.139999,  -110.949997, 716777600.000000,  1009.653748 
 13701440.000000, -12.112469 , -0.942772, 0.090927, 656797888.000000, -119.279999,  -271.179993,  -140.630005, 0.000000,  0.000000 
 13721088.000000, -14.988641 , -1.485943, -0.033500, 656818240.000000, -139.649994,  -258.089996,  -189.910004, 0.000000,  0.000000 
 13741120.000000, -17.156538 , -1.739582, -0.768096, 656837888.000000, -146.649994,  -201.949997,  -240.309998, 0.000000,  0.000000 
 13761088.000000, -15.857236 , -1.904687, -0.653241, 656857856.000000, -127.610001,  -161.559998,  -261.660004, 0.000000,  0.000000 
 13781056.000000, -14.072189 , -2.000400, 0.026321, 656877888.000000, -81.129997,  -149.869995,  -257.809998, 0.000000,  0.000000 
 13801344.000000, -12.423534 , -2.330609, 0.555135, 656897856.000000, -24.080000,  -129.570007,  -233.520004, 0.000000,  0.000000 
 13821056.000000, -10.691131 , -2.258825, 1.466800, 656918144.000000, 34.020000,  -102.410004,  -197.399994, 0.000000,  0.000000 
 13841024.000000, -9.154939 , -1.584049, 1.844866, 656937856.000000, 86.029999,  -86.449997,  -159.740005, 0.000000,  0.000000 
 13860992.000000, -7.958528 , -0.722632, 1.524228, 656957824.000000, 133.350006,  -73.080002,  -125.510002, 0.000000,  0.000000 
 13881024.000000, -7.322037 , 0.368495, 0.909273, 656977792.000000, 168.630005,  -60.270000,  -97.790001, 0.000000,  0.000000 
 13901312.000000, -6.546762 , 1.174876, 0.301496, 656997824.000000, 180.110001,  -50.049999,  -75.949997, 0.000000,  0.000000 
 13920960.000000, -5.850451 , 1.706082, 0.287139, 657018112.000000, 164.430008,  -46.900002,  -56.840000, 0.000000,  0.000000 
 13940992.000000, -5.312066 , 1.919044, 0.985843, 657037760.000000, 125.370003,  -50.470001,  -45.920002, 0.000000,  0.000000 
 13960960.000000, -5.067998 , 2.170290, 1.074377, 657057792.000000, 80.849998,  -50.889999,  -41.790001, 0.000000,  0.000000 
 13980928.000000, -4.931608 , 2.608176, 0.653241, 657077760.000000, 51.520000,  -47.180000,  -34.580002, 0.000000,  0.000000 
 14001280.000000, -4.546363 , 2.912065, 0.133998, 657097728.000000, 32.900002,  -46.200001,  -24.150000, 0.000000,  0.000000 
 14020928.000000, -3.955336 , 2.895315, -0.299103, 657118080.000000, 8.400000,  -53.200001,  -10.010000, 0.000000,  0.000000 
 14040960.000000, -3.582055 , 2.450250, -0.457029, 657137728.000000, -28.139999,  -60.410000,  7.350000, 0.000000,  0.000000 
 14060992.000000, -3.778267 , 1.383051, -0.449851, 657157760.000000, -76.300003,  -56.139999,  23.799999, 0.000000,  0.000000 
 14081664.000000, -4.795217 , 0.095713, -0.263210, 657177792.000000, -127.750000,  -35.910000,  41.090000, 0.000000,  0.000000 
 14101248.000000, -6.061020 , -0.892523, 0.035892, 657198464.000000, -173.039993,  -7.070000,  60.549999, 0.000000,  0.000000 
 14121024.000000, -7.348359 , -1.529014, -0.107677, 657218048.000000, -201.320007,  16.799999,  83.720001, 0.000000,  0.000000 
 14140928.000000, -8.719445 , -1.847259, -0.289532, 657237824.000000, -208.949997,  31.780001,  109.900002, 0.000000,  0.000000 
 14160896.000000, -10.490135 , -2.189433, -0.473779, 657257728.000000, -208.180008,  43.820000,  139.089996, 0.000000,  0.000000 
 14180928.000000, -13.655839 , -2.687140, -1.165305, 657277696.000000, -206.639999,  65.099998,  176.960007, 0.000000,  0.000000 
 14201216.000000, -21.133410 , -3.663411, -0.973879, 657297728.000000, -211.050003,  97.930000,  214.130005, 0.000000,  0.000000 
 14220928.000000, -29.525038 , -6.673582, 2.943172, 657318016.000000, -221.339996,  137.830002,  252.139999, 0.000000,  0.000000 
 14240896.000000, -28.979475 , -11.590833, 8.592626, 657337728.000000, -219.800003,  187.600006,  297.989990, 0.000000,  0.000000 
 14260864.000000, -20.539989 , -12.650853, 10.648061, 657357696.000000, -140.630005,  273.209991,  361.899994, 0.000000,  0.000000 
 14280896.000000, -11.203196 , -12.090932, 3.467200, 657377600.000000, 46.340000,  337.470001,  432.809998, 0.000000,  0.000000 
 14301120.000000, -8.219346 , -6.082555, -3.079563, 657397696.000000, 304.640015,  290.570007,  389.690002, 0.000000,  0.000000 
 14320960.000000, -7.767102 , 1.727618, -6.912865, 657417920.000000, 505.470001,  152.669998,  261.799988, 0.000000,  0.000000 
 14340800.000000, -10.061819 , 10.037891, -7.649854, 657437760.000000, 570.710022,  108.430000,  172.410004, 0.000000,  0.000000 
 14360832.000000, -10.368099 , 8.791230, -6.446264, 657457600.000000, 433.019989,  86.660004,  66.080002, 0.000000,  0.000000 
 14380864.000000, -9.494720 , 3.486342, -5.192425, 657477632.000000, 168.979996,  36.540001,  -4.550000, 0.000000,  0.000000 
 14401088.000000, -9.042477 , 1.213161, -4.316652, 657497664.000000, -65.379997,  -2.870000,  -37.240002, 0.000000,  0.000000 
 14420864.000000, -9.126225 , 0.234497, -3.002992, 657517888.000000, -173.529999,  -34.930000,  -59.500000, 0.000000,  0.000000 
 14440768.000000, -10.167104 , -1.153341, 0.069392, 657537664.000000, -248.430008,  -66.290001,  -83.230003, 0.000000,  0.000000 
 14460736.000000, -9.920642 , -3.141776, 3.541377, 657557568.000000, -346.570007,  -111.720001,  -110.809998, 0.000000,  0.000000 
 14480768.000000, -7.735995 , -6.479764, 4.807181, 657577536.000000, -459.269989,  -151.899994,  -111.930000, 0.000000,  0.000000 
 14500992.000000, -6.113662 , -8.487342, 5.536992, 657617792.000000, -414.750000,  -107.940002,  -74.690002, 0.000000,  0.000000 
 14520768.000000, -4.862216 , -7.386643, 5.520242, 0.000000, 0.000000,  0.000000,  0.000000, 0.000000,  0.000000 
 14540736.000000, -4.307081 , -5.410172, 4.718646, 657637568.000000, -277.059998,  -44.660000,  -19.950001, 0.000000,  0.000000 
 14560640.000000, -4.280759 , -4.194618, 3.988836, 657657536.000000, -115.220001,  -3.290000,  7.210000, 0.000000,  0.000000 
 14580736.000000, -4.699504 , -3.275774, 3.426522, 657677440.000000, 27.299999,  21.070000,  17.360001, 0.000000,  0.000000 
 14600960.000000, -5.960521 , -2.859423, 2.488536, 657697536.000000, 139.300003,  45.570000,  28.139999, 0.000000,  0.000000 
 14620736.000000, -7.860423 , -2.801995, 1.057628, 657717760.000000, 237.930008,  69.860001,  27.370001, 0.000000,  0.000000 
 14640640.000000, -9.745967 , -2.060220, -0.626920, 657737536.000000, 315.209991,  82.459999,  24.290001, 0.000000,  0.000000 
 14660672.000000, -10.590633 , -0.770489, -1.722832, 657757440.000000, 344.679993,  71.470001,  23.520000, 0.000000,  0.000000 
 14680704.000000, -10.140782 , 0.086142, -2.251646, 657777472.000000, 316.470001,  32.619999,  27.930000, 717777088.000000,  1009.670532 
 14700928.000000, -10.073784 , 0.509671, -2.543570, 657797504.000000, 247.520004,  -22.049999,  33.040001, 0.000000,  0.000000 
 14720640.000000, -11.495120 , 0.471386, -2.543570, 657817728.000000, 163.940002,  -54.250000,  24.570000, 0.000000,  0.000000 
 14740608.000000, -14.658432 , 0.323031, -2.706282, 657837440.000000, 91.349998,  -56.279999,  8.750000, 0.000000,  0.000000 
 14760576.000000, -18.333807 , -0.105284, -2.955136, 657857408.000000, 31.290001,  -58.590000,  -14.700000, 0.000000,  0.000000 
 14780672.000000, -19.803001 , -0.569492, -1.272982, 657877376.000000, -19.950001,  -81.900002,  -37.099998, 0.000000,  0.000000 
 14800832.000000, -15.981662 , -1.198804, 0.727418, 657897472.000000, -56.139999,  -117.110001,  -54.110001, 0.000000,  0.000000 
 14820608.000000, -12.543176 , -1.079163, 1.593620, 657917632.000000, -60.900002,  -150.990005,  -62.790001, 0.000000,  0.000000 
 14840576.000000, -11.423335 , -1.055235, 0.614955, 657937408.000000, -45.709999,  -148.190002,  -77.489998, 0.000000,  0.000000 
 14860544.000000, -12.234503 , -0.803988, -0.576670, 657957312.000000, -25.969999,  -114.309998,  -104.510002, 0.000000,  0.000000 
 14880576.000000, -13.670196 , -0.488136, -0.454636, 657977344.000000, -20.719999,  -79.309998,  -131.250000, 0.000000,  0.000000 
 14900800.000000, -13.682159 , -0.220140, 0.344566, 657997376.000000, -10.430000,  -59.080002,  -149.800003, 0.000000,  0.000000 
 14920576.000000, -12.672389 , -0.646062, 0.181855, 658017600.000000, 15.610000,  -58.520000,  -148.680008, 0.000000,  0.000000 
 14940480.000000, -11.588440 , -0.909273, 0.382852, 658037376.000000, 51.799999,  -56.910000,  -134.750000, 0.000000,  0.000000 
 14960448.000000, -10.143176 , -0.873380, 0.820738, 658057280.000000, 74.059998,  -60.410000,  -116.620003, 0.000000,  0.000000 
 14980544.000000, -8.922836 , -0.301496, 1.265803, 658077248.000000, 82.669998,  -61.529999,  -87.989998, 0.000000,  0.000000 
 15000768.000000, -7.745567 , 0.277567, 1.098306, 658097344.000000, 80.989998,  -60.549999,  -61.670002, 0.000000,  0.000000 
 15020544.000000, -6.800402 , 0.976272, 0.902094, 658117568.000000, 71.540001,  -57.189999,  -41.650002, 0.000000,  0.000000 
 15040384.000000, -6.017949 , 1.366302, 0.930808, 658137344.000000, 62.090000,  -53.619999,  -27.230000, 0.000000,  0.000000 
 15060352.000000, -5.345565 , 1.148555, 1.301696, 658157184.000000, 36.259998,  -52.150002,  -22.049999, 0.000000,  0.000000 
 15080320.000000, -5.056034 , 0.691526, 1.538585, 658177152.000000, 7.000000,  -49.490002,  -16.240000, 0.000000,  0.000000 
 15100672.000000, -5.010571 , 0.203390, 1.368695, 658197120.000000, -16.100000,  -43.959999,  -16.309999, 0.000000,  0.000000 
 15120320.000000, -5.063213 , 0.186640, 1.289732, 658217472.000000, -23.240000,  -35.139999,  -15.680000, 0.000000,  0.000000 
 15140288.000000, -5.101498 , 0.306281, 1.040878, 658237120.000000, -16.309999,  -29.750000,  -10.360000, 0.000000,  0.000000 
 15160320.000000, -5.278566 , 0.562313, 0.811167, 658257088.000000, -4.060000,  -27.790001,  0.350000, 0.000000,  0.000000 
 15180288.000000, -5.477170 , 0.650848, 0.555135, 658277120.000000, 0.560000,  -24.150000,  13.720000, 0.000000,  0.000000 
 15200576.000000, -5.848059 , 0.327817, 0.234497, 658297088.000000, -10.850000,  -18.410000,  28.350000, 0.000000,  0.000000 
 15220288.000000, -6.317052 , -0.136391, 0.165105, 658317376.000000, -35.560001,  -6.930000,  43.820000, 0.000000,  0.000000 
 15240256.000000, -7.010970 , -0.564706, 0.105284, 658337088.000000, -66.290001,  8.890000,  59.150002, 0.000000,  0.000000 
 15260288.000000, -7.731210 , -0.870987, 0.354138, 658357056.000000, -92.889999,  26.110001,  74.480003, 0.000000,  0.000000 
 15280256.000000, -8.295916 , -1.179662, 0.253639, 658377024.000000, -114.379997,  42.980000,  86.800003, 0.000000,  0.000000 
 15300544.000000, -9.188439 , -1.500300, -0.447458, 658397056.000000, -129.919998,  55.860001,  98.910004, 0.000000,  0.000000 
 15320256.000000, -11.971292 , -1.636691, -0.449851, 658417344.000000, -140.770004,  73.570000,  112.489998, 0.000000,  0.000000 
 15340224.000000, -17.077576 , -2.182254, 0.334995, 658437056.000000, -153.720001,  112.489998,  126.209999, 0.000000,  0.000000 
 15360192.000000, -19.190437 , -3.862016, 2.048256, 658457024.000000, -163.380005,  153.860001,  139.160004, 0.000000,  0.000000 
 15380160.000000, -20.839094 , -5.685347, 5.166104, 658476992.000000, -142.869995,  161.210007,  160.440002, 0.000000,  0.000000 
 15400512.000000, -22.794027 , -7.305287, 4.986642, 658496960.000000, -75.949997,  184.169998,  191.380005, 0.000000,  0.000000 
 15420160.000000, -18.731016 , -6.271588, 1.581656, 658517312.000000, 44.380001,  247.240005,  216.160004, 0.000000,  0.000000 
 15440128.000000, -13.392628 , -2.737389, -0.287139, 658536960.000000, 189.630005,  242.550003,  211.820007, 0.000000,  0.000000 
 15460160.000000, -9.846465 , 0.801596, -1.416551, 658556928.000000, 291.339996,  134.750000,  180.389999, 0.000000,  0.000000 
 15480128.000000, -8.011170 , 3.720839, -2.615355, 658576960.000000, 323.399994,  38.990002,  124.459999, 0.000000,  0.000000 
 15500416.000000, -8.614161 , 5.608776, -3.661019, 658596928.000000, 286.230011,  -3.710000,  67.760002, 0.000000,  0.000000 
 15520128.000000, -9.635897 , 5.276174, -4.113262, 658617216.000000, 185.220001,  -15.400000,  -0.140000, 0.000000,  0.000000 
 15540096.000000, -9.446864 , 3.471986, -3.658626, 658636928.000000, 53.410000,  -28.139999,  -43.400002, 0.000000,  0.000000 
 15560064.000000, -8.939585 , 1.691726, -2.608176, 658656896.000000, -76.230003,  -64.889999,  -64.959999, 0.000000,  0.000000 
 15580096.000000, -8.721838 , -0.265603, -1.026521, 658676864.000000, -177.800003,  -108.849998,  -86.169998, 0.000000,  0.000000 
 15600384.000000, -8.099705 , -2.227718, 0.942772, 658696896.000000, -257.390015,  -143.009995,  -102.129997, 0.000000,  0.000000 
 15620032.000000, -6.857830 , -4.055835, 2.672783, 658717184.000000, -322.000000,  -160.229996,  -101.779999, 0.000000,  0.000000 
 15640064.000000, -5.620740 , -5.022535, 4.101298, 658736832.000000, -347.690002,  -152.949997,  -87.500000, 0.000000,  0.000000 
 15660032.000000, -5.139783 , -4.756931, 5.063213, 658776832.000000, -255.009995,  -73.290001,  -49.000000, 718776448.000000,  1009.695190 
 15680000.000000, -4.778467 , -3.996014, 4.687540, 0.000000, 0.000000,  0.000000,  0.000000, 0.000000,  0.000000 
 15700352.000000, -4.438686 , -3.232704, 3.964907, 658796800.000000, -144.410004,  -26.040001,  -23.170000, 0.000000,  0.000000 
 15720000.000000, -4.314260 , -2.957529, 3.644269, 658817088.000000, -30.730000,  2.520000,  -1.750000, 0.000000,  0.000000 
 15739968.000000, -4.852644 , -2.754139, 3.658626, 658836800.000000, 70.699997,  21.629999,  13.930000, 0.000000,  0.000000 
 15760000.000000, -6.230910 , -2.785245, 3.282953, 658856768.000000, 159.949997,  46.340000,  22.820000, 0.000000,  0.000000 
 15779968.000000, -8.003991 , -2.531606, 1.780260, 658876736.000000, 240.309998,  72.169998,  30.940001, 0.000000,  0.000000 
 15800256.000000, -9.690931 , -1.684547, 0.004786, 658896768.000000, 299.600006,  85.400002,  42.700001, 0.000000,  0.000000 
 15819968.000000, -11.040483 , -0.497707, -1.036092, 658917056.000000, 321.720001,  82.739998,  55.160000, 0.000000,  0.000000 
 15839936.000000, -11.377872 , 0.521635, -1.414158, 658936704.000000, 297.850006,  60.130001,  66.430000, 0.000000,  0.000000 
 15859904.000000, -10.846665 , 1.182054, -1.753939, 658956736.000000, 238.070007,  21.139999,  75.459999, 0.000000,  0.000000 
 15879936.000000, -10.937593 , 1.564906, -1.952543, 658976704.000000, 159.740005,  -21.350000,  73.430000, 0.000000,  0.000000 
 15900224.000000, -12.119646 , 1.737189, -1.739582, 658996672.000000, 80.430000,  -47.040001,  54.740002, 0.000000,  0.000000 
 15919872.000000, -13.639089 , 1.270589, -2.129612, 659017024.000000, 12.390000,  -57.540001,  20.370001, 0.000000,  0.000000 
 15939904.000000, -16.101303 , 0.425922, -2.763710, 659036672.000000, -32.830002,  -72.800003,  -14.490000, 0.000000,  0.000000 
 15959872.000000, -19.709681 , -0.236889, -1.799403, 659076672.000000, -86.239998,  -102.410004,  -74.690002, 0.000000,  0.000000 
 15979840.000000, -18.501305 , -1.215554, -0.083749, 0.000000, 0.000000,  0.000000,  0.000000, 0.000000,  0.000000 
 16000192.000000, -13.799409 , -1.639083, 0.815953, 659096640.000000, -92.050003,  -129.639999,  -84.910004, 0.000000,  0.000000 
 16019840.000000, -10.528419 , -1.548156, 0.863809, 659116928.000000, -82.250000,  -135.589996,  -80.639999, 0.000000,  0.000000 
 16039808.000000, -9.525827 , -1.093520, 0.535992, 659136640.000000, -72.099998,  -116.830002,  -85.470001, 0.000000,  0.000000 
 16059776.000000, -10.059426 , -0.524028, 0.378066, 659156608.000000, -69.510002,  -82.739998,  -96.040001, 0.000000,  0.000000 
 16079872.000000, -10.738988 , -0.547956, -0.184247, 659176576.000000, -63.070000,  -43.680000,  -106.330002, 0.000000,  0.000000 
 16100864.000000, -10.363315 , -0.875773, 0.095713, 659196672.000000, -42.980000,  -19.250000,  -105.699997, 0.000000,  0.000000 
 16119872.000000, -9.217153 , -1.179662, 0.847059, 659217664.000000, -18.900000,  -17.360001,  -93.029999, 0.000000,  0.000000 
 16140032.000000, -8.195417 , -0.854238, 2.069792, 659236672.000000, 8.120000,  -16.940001,  -68.879997, 0.000000,  0.000000 
 16159936.000000, -7.200003 , -0.368495, 2.000400, 659256832.000000, 31.639999,  -7.770000,  -43.400002, 0.000000,  0.000000 
 16179904.000000, -6.350551 , 0.220140, 1.574477, 659276736.000000, 50.330002,  2.870000,  -20.650000, 0.000000,  0.000000 
 16200256.000000, -5.599205 , 0.909273, 1.627119, 659296704.000000, 53.130001,  10.780000,  -3.850000, 0.000000,  0.000000 
 16219904.000000, -5.321638 , 1.682154, 1.758725, 659317056.000000, 37.939999,  11.270000,  8.540000, 0.000000,  0.000000 
 16239680.000000, -5.044070 , 1.706082, 1.028914, 659336704.000000, 12.390000,  14.840000,  21.210001, 0.000000,  0.000000 
 16260928.000000, -5.175675 , 1.385444, 0.576670, 659356416.000000, -16.379999,  23.309999,  29.750000, 0.000000,  0.000000 
 16280960.000000, -5.833702 , 1.119841, 0.780060, 659377728.000000, -56.840000,  24.780001,  26.740000, 0.000000,  0.000000 
 16301312.000000, -6.544370 , 0.937986, 0.729811, 659397760.000000, -98.139999,  23.309999,  25.270000, 0.000000,  0.000000 
 16320960.000000, -7.546963 , -0.136391, 0.698704, 659418112.000000, -134.889999,  23.870001,  32.759998, 0.000000,  0.000000 
 16340992.000000, -8.709875 , -1.098306, 0.914058, 659437760.000000, -155.680008,  22.610001,  30.030001, 0.000000,  0.000000 
 16360896.000000, -9.360723 , -1.935793, 1.107877, 659457792.000000, -160.440002,  16.870001,  35.070000, 0.000000,  0.000000 
 16380864.000000, -10.202995 , -2.488536, 1.624727, 659477696.000000, -142.169998,  21.980000,  59.570000, 0.000000,  0.000000 
 16401344.000000, -10.774881 , -2.581856, 2.328217, 659497664.000000, -111.160004,  32.410000,  79.239998, 0.000000,  0.000000 
 16420864.000000, -10.389636 , -2.445465, 2.538785, 659518144.000000, -87.080002,  49.980000,  101.849998, 0.000000,  0.000000 
 16440896.000000, -9.351151 , -1.978864, 2.139183, 659537664.000000, -62.369999,  66.150002,  120.750000, 0.000000,  0.000000 
 16460864.000000, -8.870193 , -1.677369, 0.909273, 659557696.000000, -32.759998,  76.300003,  126.840004, 0.000000,  0.000000 
 16480832.000000, -9.805787 , -1.447658, 0.055035, 659577664.000000, -3.220000,  87.010002,  123.199997, 0.000000,  0.000000 
 16501184.000000, -12.562319 , -1.497907, 0.165105, 659597632.000000, 13.650000,  108.430000,  116.410004, 0.000000,  0.000000 
 16520768.000000, -16.278372 , -2.024328, 1.454836, 659617984.000000, 23.450001,  136.779999,  108.430000, 0.000000,  0.000000 
 16540864.000000, -18.259628 , -3.187240, 2.608176, 659637568.000000, 40.250000,  148.889999,  100.730003, 0.000000,  0.000000 
 16560768.000000, -18.671194 , -4.522435, 2.983850, 659657664.000000, 76.580002,  136.570007,  102.900002, 0.000000,  0.000000 
 16580800.000000, -16.895721 , -4.649254, 1.689333, 659677568.000000, 125.930000,  128.240005,  107.029999, 0.000000,  0.000000 
 16601152.000000, -13.335200 , -2.112862, 0.586242, 659697600.000000, 168.559998,  106.400002,  102.269997, 0.000000,  0.000000 
 16620736.000000, -10.375278 , 0.739382, 0.454636, 659717952.000000, 189.419998,  44.240002,  90.440002, 0.000000,  0.000000 
 16640832.000000, -9.028119 , 2.916851, -0.100499, 659737536.000000, 193.550003,  -18.270000,  62.790001, 0.000000,  0.000000 
 16660736.000000, -9.659825 , 3.634698, -1.787439, 659757632.000000, 174.020004,  -52.220001,  18.760000, 0.000000,  0.000000 
 16680704.000000, -10.983055 , 3.254239, -2.541178, 659777536.000000, 133.350006,  -63.209999,  -35.420002, 719777152.000000,  1009.722595 
 16701056.000000, -11.846866 , 2.306681, -2.407180, 659797504.000000, 59.150002,  -78.680000,  -77.419998, 0.000000,  0.000000 
 16720704.000000, -11.595619 , 0.952343, -1.686940, 659817856.000000, -17.850000,  -112.910004,  -101.849998, 0.000000,  0.000000 
 16740736.000000, -10.341780 , -0.196211, -0.485743, 659837504.000000, -80.989998,  -161.490005,  -116.620003, 0.000000,  0.000000 
 16760640.000000, -8.683553 , -1.292124, 0.878166, 659857536.000000, -130.619995,  -203.559998,  -123.620003, 0.000000,  0.000000 
 16780672.000000, -7.188039 , -2.124826, 1.942972, 659877440.000000, -160.789993,  -217.979996,  -125.230003, 0.000000,  0.000000 
 16801024.000000, -6.410372 , -2.416751, 2.629712, 659897472.000000, -168.419998,  -200.059998,  -120.190002, 0.000000,  0.000000 
 16820608.000000, -6.604190 , -2.258825, 3.309274, 659917824.000000, -153.440002,  -160.160004,  -115.430000, 0.000000,  0.000000 
 16840704.000000, -6.848258 , -2.091327, 2.979064, 659937408.000000, -114.590004,  -113.190002,  -114.099998, 0.000000,  0.000000 
 16860608.000000, -6.317052 , -2.021935, 2.321038, 659957440.000000, -53.689999,  -72.940002,  -104.650002, 0.000000,  0.000000 
 16880640.000000, -5.680561 , -2.019542, 1.842474, 659977408.000000, 13.440001,  -49.349998,  -87.779999, 0.000000,  0.000000 
 16900992.000000, -5.848059 , -1.725225, 2.127219, 659997440.000000, 77.070000,  -36.540001,  -71.470001, 0.000000,  0.000000 
 16920576.000000, -6.927221 , -1.359123, 2.021935, 660017728.000000, 132.860001,  -17.990000,  -57.470001, 0.000000,  0.000000 
 16940672.000000, -8.173882 , -1.138984, 1.019342, 660037376.000000, 177.729996,  4.480000,  -41.160000, 0.000000,  0.000000 
 16960576.000000, -8.999406 , -0.660419, 0.153141, 660057472.000000, 209.229996,  17.219999,  -17.850000, 0.000000,  0.000000 
 16980544.000000, -9.154939 , -0.181855, -0.409173, 660077376.000000, 215.110001,  10.780000,  4.550000, 0.000000,  0.000000 
 17000896.000000, -9.013763 , 0.248854, -0.550349, 660097344.000000, 194.320007,  -3.780000,  24.990000, 0.000000,  0.000000 
 17020544.000000, -9.145369 , 0.457029, -0.629312, 660117696.000000, 151.550003,  -14.000000,  39.689999, 0.000000,  0.000000 
 17040576.000000, -9.513863 , 0.519243, -0.918844, 660137344.000000, 97.790001,  -17.080000,  44.520000, 0.000000,  0.000000 
 17060480.000000, -10.224532 , 0.528814, -1.253839, 660157376.000000, 43.330002,  -20.160000,  38.290001, 0.000000,  0.000000 
 17080448.000000, -11.356337 , 0.155533, -1.079163, 660177280.000000, -6.300000,  -21.139999,  22.120001, 0.000000,  0.000000 
 17100736.000000, -12.547962 , -0.502493, -1.268196, 660197248.000000, -36.119999,  -18.270000,  5.670000, 0.000000,  0.000000 
 17120448.000000, -14.163116 , -1.081556, -1.311267, 660217536.000000, -42.070000,  -16.100000,  -9.100000, 0.000000,  0.000000 
 17140416.000000, -16.063019 , -1.569692, -0.528814, 660237184.000000, -35.840000,  -10.570000,  -21.910000, 0.000000,  0.000000 
 17160384.000000, -15.163318 , -2.041078, 0.483350, 660257216.000000, -31.219999,  -2.310000,  -23.799999, 0.000000,  0.000000 
 17180416.000000, -11.638690 , -1.923829, 1.220340, 660277184.000000, -14.280000,  19.180000,  -18.760000, 0.000000,  0.000000 
 17200704.000000, -9.315259 , -1.469193, 0.547956, 660297152.000000, 9.030000,  36.540001,  0.420000, 0.000000,  0.000000 
 17220352.000000, -8.915657 , -1.342373, 0.203390, 660317504.000000, 26.950001,  52.360001,  18.270000, 0.000000,  0.000000 
 17240320.000000, -9.865608 , -0.789631, 0.593420, 660337152.000000, 31.360001,  80.849998,  24.290001, 0.000000,  0.000000 
 17260352.000000, -11.763116 , -0.653241, -0.344566, 660357120.000000, 17.710001,  117.599998,  23.450001, 0.000000,  0.000000 
 17280320.000000, -12.646068 , -0.885344, -1.131805, 660377152.000000, 5.320000,  146.160004,  26.040001, 0.000000,  0.000000 
 17300608.000000, -12.148360 , -1.220340, -0.686740, 660397120.000000, -10.850000,  147.210007,  31.430000, 0.000000,  0.000000 
 17320320.000000, -11.164910 , -1.306481, 0.413958, 660417408.000000, -30.799999,  133.490005,  43.119999, 0.000000,  0.000000 
 17340288.000000, -10.468598 , -0.859023, 1.423729, 660437120.000000, -44.590000,  126.840004,  54.459999, 0.000000,  0.000000 
 17360320.000000, -9.705289 , -0.205783, 1.605584, 660457088.000000, -47.389999,  124.809998,  55.720001, 0.000000,  0.000000 
 17380288.000000, -8.961121 , 0.184247, 1.275374, 660477120.000000, -41.369999,  118.300003,  48.160000, 0.000000,  0.000000 
 17400576.000000, -8.233703 , 0.342174, 1.165305, 660497088.000000, -36.610001,  106.750000,  35.630001, 0.000000,  0.000000 
 17420288.000000, -7.554141 , 0.062213, 1.280160, 660517376.000000, -43.189999,  94.150002,  25.340000, 0.000000,  0.000000 
 17440256.000000, -7.293324 , -0.327817, 1.165305, 660537024.000000, -60.830002,  77.769997,  17.010000, 0.000000,  0.000000 
 17460224.000000, -7.491928 , -0.715454, 0.988236, 660557056.000000, -76.510002,  71.050003,  9.940000, 0.000000,  0.000000 
 17480256.000000, -8.049455 , -0.717847, 0.981057, 660577024.000000, -80.919998,  66.360001,  4.480000, 0.000000,  0.000000 
 17500544.000000, -8.566305 , -0.516850, 0.985843, 660596992.000000, -76.720001,  59.220001,  1.470000, 0.000000,  0.000000 
 17520192.000000, -8.886944 , -0.564706, 0.961915, 660617344.000000, -68.389999,  49.630001,  3.640000, 0.000000,  0.000000 
 17540224.000000, -8.968300 , -0.842274, 1.213161, 660636992.000000, -64.400002,  36.400002,  6.230000, 0.000000,  0.000000 
 17560192.000000, -9.119047 , -1.210768, 1.689333, 660656960.000000, -66.919998,  27.790001,  12.880000, 0.000000,  0.000000 
 17580160.000000, -9.286544 , -1.495514, 2.277967, 660676992.000000, -70.489998,  27.370001,  21.350000, 0.000000,  0.000000 
 17600448.000000, -9.162118 , -1.366302, 2.569891, 660696960.000000, -69.019997,  32.270000,  27.719999, 0.000000,  0.000000 
 17620160.000000, -8.394022 , -1.225125, 1.686940, 660717248.000000, -60.830002,  33.180000,  34.160000, 0.000000,  0.000000 
 17640320.000000, -8.511270 , -1.313660, 0.789631, 660736960.000000, -49.000000,  26.670000,  37.730000, 0.000000,  0.000000 
 17660160.000000, -10.911271 , -1.615155, 1.270589, 660776896.000000, -49.490002,  59.290001,  27.860001, 720776576.000000,  1009.746521 
 17680128.000000, -15.163318 , -1.899901, 2.981457, 0.000000, 0.000000,  0.000000,  0.000000, 0.000000,  0.000000 
 17700416.000000, -18.656837 , -3.010171, 3.151347, 660796928.000000, -36.330002,  82.459999,  25.200001, 0.000000,  0.000000 
 17720064.000000, -20.781666 , -4.637290, 3.986443, 660817216.000000, 2.170000,  71.820000,  29.820000, 0.000000,  0.000000 
 17740096.000000, -19.458433 , -4.998606, 1.940579, 660836864.000000, 55.510002,  55.510002,  40.040001, 0.000000,  0.000000 
 17760064.000000, -16.216160 , -0.780060, -0.375673, 660856896.000000, 119.139999,  24.219999,  47.529999, 0.000000,  0.000000 
 17780032.000000, -13.643874 , 2.938386, -1.378266, 660876864.000000, 162.470001,  -43.119999,  42.070000, 0.000000,  0.000000 
 17800384.000000, -12.009576 , 4.697111, -1.825724, 660896832.000000, 163.940002,  -112.489998,  16.660000, 0.000000,  0.000000 
 17820032.000000, -12.035898 , 4.024727, -2.679961, 660917184.000000, 109.270004,  -169.399994,  -41.860001, 0.000000,  0.000000 
 17840000.000000, -13.497912 , 2.773281, -3.053242, 660936832.000000, 52.920002,  -188.930008,  -103.250000, 0.000000,  0.000000 
 17860032.000000, -14.452648 , 1.229911, -2.950350, 660956800.000000, 3.150000,  -201.180008,  -141.330002, 0.000000,  0.000000 
 17880000.000000, -13.531413 , -0.193819, -1.864009, 660976832.000000, -39.130001,  -243.600006,  -159.809998, 0.000000,  0.000000 
 17900288.000000, -11.162518 , -1.165305, 0.105284, 660996800.000000, -72.309998,  -301.070007,  -158.199997, 0.000000,  0.000000 
 17920000.000000, -9.183653 , -1.686940, 1.878366, 661017088.000000, -72.099998,  -326.760010,  -140.210007, 0.000000,  0.000000 
 17939968.000000, -7.774280 , -2.062613, 2.237289, 661036800.000000, -39.689999,  -305.410004,  -115.709999, 0.000000,  0.000000 
 17959936.000000, -7.156933 , -1.174876, 1.083949, 661056768.000000, 46.410000,  -249.690002,  -66.570000, 0.000000,  0.000000 
 17979968.000000, -6.874579 , 0.976272, 0.717847, 661076736.000000, 132.160004,  -188.440002,  -43.820000, 0.000000,  0.000000 
 18000256.000000, -5.556134 , 0.507278, 0.289532, 661117056.000000, 20.580000,  -127.190002,  -59.500000, 0.000000,  0.000000 
 18019904.000000, -4.936393 , -0.007178, 0.507278, 0.000000, 0.000000,  0.000000,  0.000000, 0.000000,  0.000000 
 18039936.000000, -4.924429 , -0.751346, 0.540778, 661136704.000000, -13.090000,  -98.629997,  -73.290001, 0.000000,  0.000000 
 18059904.000000, -5.441278 , -1.067199, 0.483350, 661156736.000000, -0.070000,  -65.590004,  -81.690002, 0.000000,  0.000000 
 18079872.000000, -6.230910 , -1.263410, 0.483350, 661176704.000000, 27.370001,  -35.490002,  -76.650002, 0.000000,  0.000000 
 18100224.000000, -6.812366 , -1.457229, 0.339781, 661196672.000000, 54.040001,  -14.840000,  -60.900002, 0.000000,  0.000000 
 18120640.000000, -7.228717 , -1.686940, 0.098106, 661217024.000000, 70.349998,  -0.840000,  -39.270000, 0.000000,  0.000000 
 18139904.000000, -7.496714 , -1.811367, -0.023928, 661237440.000000, 77.139999,  9.380000,  -16.730000, 0.000000,  0.000000 
 18160384.000000, -7.597212 , -1.749153, 0.014357, 661256704.000000, 73.919998,  17.430000,  3.920000, 0.000000,  0.000000 
 18180288.000000, -7.982457 , -1.466800, -0.284746, 661277184.000000, 67.620003,  25.549999,  21.559999, 0.000000,  0.000000 
 18200576.000000, -8.851050 , -1.045663, -0.602991, 661297088.000000, 64.050003,  34.790001,  31.710001, 0.000000,  0.000000 
 18220352.000000, -10.305886 , -0.232104, -0.437887, 661317376.000000, 60.830002,  47.180000,  35.139999, 0.000000,  0.000000 
 18240256.000000, -12.043077 , -0.014357, -1.454836, 661337152.000000, 54.670002,  59.570000,  34.720001, 0.000000,  0.000000 
 18260736.000000, -13.737194 , -0.454636, -2.378466, 661357056.000000, 50.610001,  70.000000,  31.710001, 0.000000,  0.000000 
 18280640.000000, -14.983855 , -0.667598, -1.813759, 661377536.000000, 28.000000,  72.309998,  22.680000, 0.000000,  0.000000 
 18300928.000000, -14.601004 , -0.830309, -1.174876, 661397440.000000, -16.520000,  75.949997,  19.670000, 0.000000,  0.000000 
 18320704.000000, -12.885350 , -0.847059, -0.447458, 661417728.000000, -59.430000,  89.809998,  26.600000, 0.000000,  0.000000 
 18340608.000000, -12.270394 , -0.775275, -0.181855, 661437504.000000, -97.160004,  102.760002,  31.430000, 0.000000,  0.000000 
 18360576.000000, -13.409377 , -1.026521, -0.232104, 661457408.000000, -121.940002,  125.930000,  34.790001, 0.000000,  0.000000 
 18381824.000000, -15.041284 , -1.773082, 0.086142, 661477376.000000, -134.750000,  159.880005,  38.150002, 0.000000,  0.000000 
 18402176.000000, -16.070196 , -2.464607, 0.634098, 661498624.000000, -134.050003,  185.080002,  49.139999, 0.000000,  0.000000 
 18421888.000000, -16.074982 , -2.718246, 0.885344, 661518976.000000, -110.529999,  199.639999,  68.809998, 0.000000,  0.000000 
 18441792.000000, -15.182461 , -2.165504, 0.971486, 661538688.000000, -66.989998,  212.940002,  91.349998, 0.000000,  0.000000 
 18461888.000000, -13.737194 , -1.294517, 0.885344, 661558592.000000, -26.110001,  217.279999,  108.220001, 0.000000,  0.000000 
 18481792.000000, -12.433105 , -0.500100, 0.806381, 661578688.000000, 1.050000,  210.770004,  114.660004, 0.000000,  0.000000 
 18502080.000000, -11.598011 , 0.002393, 0.916451, 661598592.000000, 9.520000,  196.559998,  106.190002, 0.000000,  0.000000 
 18521856.000000, -11.028521 , 0.256032, 1.296910, 661618880.000000, 1.400000,  180.389999,  91.489998, 0.000000,  0.000000 
 18541760.000000, -10.090532 , 0.064606, 1.339981, 661638656.000000, -14.420000,  164.639999,  76.860001, 0.000000,  0.000000 
 18561792.000000, -9.250652 , -0.212961, 1.502693, 661658560.000000, -31.639999,  140.770004,  62.369999, 0.000000,  0.000000 
 18581760.000000, -8.702696 , -0.461815, 1.502693, 661678592.000000, -50.400002,  112.279999,  45.570000, 0.000000,  0.000000 
 18602048.000000, -8.374879 , -0.409173, 1.555335, 661698560.000000, -61.810001,  95.480003,  35.630001, 0.000000,  0.000000 
 18621824.000000, -8.209774 , -0.155533, 1.639083, 661718848.000000, -67.550003,  75.040001,  27.299999, 0.000000,  0.000000 
 18641664.000000, -8.465806 , -0.145962, 1.627119, 661738624.000000, -71.400002,  55.860001,  20.510000, 0.000000,  0.000000 
 18661760.000000, -9.040084 , -0.591027, 1.533799, 661778560.000000, -89.879997,  33.459999,  13.510000, 721778240.000000,  1009.772095 
 18681664.000000, -9.702895 , -1.093520, 1.540978, 0.000000, 0.000000,  0.000000,  0.000000, 0.000000,  0.000000 
 18701952.000000, -9.623933 , -1.383051, 1.734797, 661798464.000000, -102.900002,  21.139999,  14.280000, 0.000000,  0.000000 
 18721728.000000, -8.516055 , -1.806581, 1.524228, 661818752.000000, -98.980003,  2.590000,  24.080000, 0.000000,  0.000000 
 18741696.000000, -7.834101 , -2.115255, 1.356731, 661838528.000000, -83.510002,  -21.840000,  27.860001, 0.000000,  0.000000 
 18761728.000000, -7.855636 , -2.194218, 1.627119, 661858496.000000, -92.120003,  -35.209999,  10.640000, 0.000000,  0.000000 
 18781632.000000, -8.729016 , -2.428715, 1.627119, 661878528.000000, -118.160004,  -32.270000,  0.210000, 0.000000,  0.000000 
 18801920.000000, -10.695917 , -2.481357, 1.454836, 661898432.000000, -127.190002,  -21.910000,  -9.660000, 0.000000,  0.000000 
 18821696.000000, -12.844672 , -2.490928, 0.701097, 661918720.000000, -128.660004,  -14.210000,  -26.740000, 0.000000,  0.000000 
