 Acc_timestamp,Accx,Accy,Accz,Gyro_timestamp,Gyrox,Gyroy,Gyroz,Baro_timestamp,Pressure_Reading
 20861184.000000, -10.636096 , 2.177469, -1.952543, 1759847424.000000, -79.870003,  107.800003,  43.330002, 0.000000,  0.000000 
 20883456.000000, -8.262416 , 0.411566, 0.045464, 1759867904.000000, -110.879997,  135.240005,  100.800003, 0.000000,  0.000000 
 20900864.000000, -7.532606 , -0.844666, 4.687540, 1759889920.000000, -79.099998,  159.460007,  185.779999, 0.000000,  0.000000 
 20920832.000000, -10.794022 , -7.755138, 12.014362, 1759907328.000000, -53.130001,  188.720001,  260.820007, 0.000000,  0.000000 
 20940800.000000, -12.514462 , -20.961126, 21.245872, 1759927552.000000, -79.590004,  211.539993,  284.130005, 0.000000,  0.000000 
 20961280.000000, -7.441679 , -24.667606, 27.471996, 1759947520.000000, -136.500000,  227.500000,  307.369995, 0.000000,  0.000000 
 20981248.000000, -6.740582 , -23.334806, 26.177481, 1759967744.000000, -151.970001,  231.000000,  358.820007, 0.000000,  0.000000 
 21000704.000000, -3.797409 , -23.052454, 25.722841, 1759987968.000000, -189.070007,  230.229996,  312.200012, 0.000000,  0.000000 
 21020672.000000, 1.828116 , -15.950556, 23.418556, 1760007424.000000, -199.779999,  221.550003,  266.700012, 0.000000,  0.000000 
 21040640.000000, 3.433701 , -11.507084, 19.113867, 1760027392.000000, -67.900002,  217.000000,  256.410004, 0.000000,  0.000000 
 21061120.000000, 3.101098 , -8.614161, 15.601204, 1760047360.000000, 33.599998,  193.130005,  209.860001, 0.000000,  0.000000 
 21081344.000000, 5.498707 , -5.793024, 12.016755, 1760067840.000000, 52.500000,  147.350006,  176.610001, 0.000000,  0.000000 
 21100800.000000, 8.006385 , -4.017549, 9.506684, 1760088064.000000, 26.880001,  101.360001,  187.180008, 0.000000,  0.000000 
 21120768.000000, 10.191031 , -4.036692, 9.698111, 1760107264.000000, -38.360001,  64.260002,  194.039993, 0.000000,  0.000000 
 21140736.000000, 15.594026 , -3.371487, 10.327423, 1760127232.000000, -74.340004,  24.500000,  185.710007, 0.000000,  0.000000 
 21160960.000000, 18.735802 , -1.201197, 8.315059, 1760147200.000000, -20.930000,  -32.619999,  193.759995, 0.000000,  0.000000 
 21181184.000000, 17.871992 , 0.181855, 9.025726, 1760167680.000000, 42.770000,  -106.750000,  135.520004, 0.000000,  0.000000 
 21200640.000000, 17.673388 , -1.564906, 10.011569, 1760187904.000000, 27.510000,  -163.869995,  33.599998, 0.000000,  0.000000 
 21220608.000000, 14.299508 , -3.359523, 10.760524, 1760207360.000000, 15.750000,  -215.460007,  -41.230000, 0.000000,  0.000000 
 21240576.000000, 10.459028 , -8.968300, 11.748759, 1760227328.000000, 32.340000,  -264.809998,  -116.199997, 0.000000,  0.000000 
 21260800.000000, 8.075776 , -20.456242, 21.375086, 1760247296.000000, 7.420000,  -310.799988,  -178.360001, 0.000000,  0.000000 
 21281280.000000, 0.311067 , -29.123045, 24.256042, 1760267520.000000, -82.949997,  -329.000000,  -180.389999, 0.000000,  0.000000 
 21300480.000000, 0.610170 , -28.910084, 24.136402, 1760287744.000000, -126.419998,  -347.410004,  -241.149994, 0.000000,  0.000000 
 21320448.000000, -2.964707 , -24.016760, 19.401007, 1760307200.000000, -104.790001,  -349.720001,  -232.610001, 0.000000,  0.000000 
 21340672.000000, -5.781059 , -18.520447, 14.175081, 1760327168.000000, -61.110001,  -330.610016,  -279.160004, 0.000000,  0.000000 
 21360896.000000, -6.431907 , -11.904292, 10.516455, 1760347136.000000, -0.910000,  -292.459991,  -308.839996, 0.000000,  0.000000 
 21381120.000000, -6.544370 , -7.018148, 8.870193, 1760367616.000000, 0.630000,  -211.889999,  -300.579987, 0.000000,  0.000000 
 21400576.000000, -6.608976 , -2.904887, 4.900501, 1760387840.000000, -3.080000,  -103.389999,  -277.410004, 0.000000,  0.000000 
 21420544.000000, -9.875179 , 1.395016, 2.246860, 1760407296.000000, 68.949997,  -33.810001,  -233.240005, 0.000000,  0.000000 
 21440512.000000, -13.933406 , 5.304887, 0.303888, 1760427264.000000, 96.320000,  8.260000,  -229.600006, 0.000000,  0.000000 
 21460736.000000, -13.921442 , 6.611369, -1.689333, 1760447232.000000, 74.340004,  35.000000,  -188.440002, 0.000000,  0.000000 
 21480960.000000, -10.150353 , 6.769295, -1.339981, 1760467456.000000, 44.099998,  70.910004,  -127.260002, 0.000000,  0.000000 
 21500416.000000, -10.135997 , 6.209375, -1.741975, 1760487680.000000, -4.620000,  100.029999,  -57.400002, 0.000000,  0.000000 
 21520384.000000, -9.463614 , 5.058427, -0.569492, 1760507136.000000, -43.889999,  127.610001,  -6.720000, 0.000000,  0.000000 
 21540352.000000, -7.752745 , 3.826123, 0.457029, 1760527104.000000, -77.349998,  154.699997,  43.189999, 0.000000,  0.000000 
 21560832.000000, -6.991827 , 2.682354, 2.187040, 1760547072.000000, -68.180000,  185.289993,  113.120003, 0.000000,  0.000000 
 21581056.000000, -9.485149 , -1.225125, 9.171689, 1760567296.000000, -58.170002,  223.369995,  185.850006, 0.000000,  0.000000 
 21600512.000000, -13.895120 , -12.629318, 19.271793, 1760587776.000000, -105.000000,  264.179993,  229.320007, 0.000000,  0.000000 
 21620480.000000, -13.299308 , -26.512474, 30.994230, 1760606976.000000, -163.869995,  281.329987,  254.380005, 0.000000,  0.000000 
 21640448.000000, -9.221939 , -25.663025, 31.345978, 1760626944.000000, -200.410004,  278.110016,  307.860016, 0.000000,  0.000000 
 21660672.000000, -2.919244 , -19.972891, 26.787649, 1760647168.000000, -117.739998,  238.419998,  305.200012, 0.000000,  0.000000 
 21680896.000000, 2.309074 , -13.313664, 21.482761, 1760667392.000000, -121.099998,  210.279999,  249.059998, 0.000000,  0.000000 
 21700352.000000, 4.689932 , -10.557133, 16.957933, 1760687616.000000, -110.879997,  200.970001,  216.300003, 0.000000,  0.000000 
 21720320.000000, 3.873980 , -9.631111, 13.564911, 1760707072.000000, -64.470001,  190.399994,  198.309998, 0.000000,  0.000000 
 21740288.000000, 4.733003 , -7.673782, 12.019149, 1760727040.000000, -54.320000,  167.020004,  169.050003, 0.000000,  0.000000 
 21760768.000000, 9.037691 , -6.343372, 10.164711, 1760747008.000000, -76.720001,  134.889999,  157.289993, 0.000000,  0.000000 
 21780992.000000, 12.614961 , -3.976871, 8.353344, 1760767232.000000, -50.400002,  95.830002,  175.699997, 4022352128.000000,  1005.738647 
 21800192.000000, 14.703895 , -1.677369, 7.858029, 1760787456.000000, -14.210000,  56.209999,  167.580002, 0.000000,  0.000000 
 21820160.000000, 15.622739 , -0.162712, 8.956335, 1760806912.000000, -10.220000,  18.059999,  140.139999, 0.000000,  0.000000 
 21840384.000000, 16.627726 , -0.035892, 9.042477, 1760826880.000000, -0.700000,  -26.600000,  100.870003, 0.000000,  0.000000 
 21860608.000000, 17.036898 , -0.679562, 8.913264, 1760846848.000000, 14.280000,  -74.129997,  34.930000, 0.000000,  0.000000 
 21882880.000000, 12.703495 , -4.175476, 10.557133, 1760867328.000000, -8.820000,  -109.760002,  -52.639999, 0.000000,  0.000000 
 21900288.000000, 10.219746 , -12.971491, 12.294323, 1760889344.000000, -58.029999,  -129.710007,  -153.089996, 0.000000,  0.000000 
 21920256.000000, 7.948956 , -23.602802, 17.460426, 1760907008.000000, -54.040001,  -155.470001,  -229.460007, 0.000000,  0.000000 
 21940224.000000, 3.113062 , -33.683765, 24.177078, 1760926976.000000, -16.170000,  -173.529999,  -293.299988, 0.000000,  0.000000 
 21960448.000000, -2.299503 , -38.529228, 27.505495, 1760946944.000000, -11.900000,  -198.729996,  -341.179993, 0.000000,  0.000000 
 21980672.000000, -7.451250 , -31.195229, 22.243681, 1760967168.000000, 11.970000,  -233.380005,  -374.989990, 0.000000,  0.000000 
 22000128.000000, -7.087541 , -22.030720, 15.931413, 1760987392.000000, 109.620003,  -268.100006,  -393.820007, 0.000000,  0.000000 
 22020096.000000, -7.379465 , -16.417156, 15.266209, 1761006848.000000, 114.239998,  -294.559998,  -371.140015, 0.000000,  0.000000 
 22040064.000000, -11.148161 , -13.799409, 15.534204, 1761026816.000000, 3.080000,  -290.779999,  -369.250000, 0.000000,  0.000000 
 22060544.000000, -12.222539 , -7.470392, 9.561719, 1761046784.000000, -59.430000,  -239.330002,  -364.980011, 0.000000,  0.000000 
 22080768.000000, -9.583255 , -1.198804, 4.395615, 1761067008.000000, 22.400000,  -185.360001,  -297.640015, 0.000000,  0.000000 
 22100224.000000, -9.571291 , 3.017349, 3.400201, 1761087488.000000, 26.880001,  -138.600006,  -235.619995, 0.000000,  0.000000 
 22120192.000000, -13.895120 , 2.770889, 2.428715, 1761106688.000000, -59.430000,  -79.800003,  -222.460007, 0.000000,  0.000000 
 22140160.000000, -14.589039 , 2.962314, 1.155733, 1761126656.000000, -72.029999,  -17.990000,  -220.290009, 0.000000,  0.000000 
 22160384.000000, -12.660425 , 5.426922, -1.741975, 1761146880.000000, 1.400000,  27.440001,  -154.279999, 0.000000,  0.000000 
 22180608.000000, -12.303895 , 6.128019, -2.438286, 1761167104.000000, 52.779999,  47.250000,  -59.150002, 0.000000,  0.000000 
 22200064.000000, -12.011970 , 3.881158, -0.641276, 1761187328.000000, -0.210000,  69.300003,  -10.570000, 0.000000,  0.000000 
 22220032.000000, -9.832108 , 2.215754, -0.725025, 1761206784.000000, -43.119999,  97.370003,  41.230000, 0.000000,  0.000000 
 22240000.000000, -6.762117 , 2.433501, 0.289532, 1761226752.000000, 13.440001,  121.239998,  131.529999, 0.000000,  0.000000 
 22260224.000000, -7.180861 , -0.045464, 3.919443, 1761246720.000000, 58.170002,  151.970001,  220.779999, 0.000000,  0.000000 
 22280704.000000, -10.085747 , -7.420143, 9.827322, 1761266944.000000, 53.830002,  202.160004,  277.619995, 0.000000,  0.000000 
 22299904.000000, -11.088341 , -19.683359, 17.924635, 1761287424.000000, 3.150000,  230.860001,  307.649994, 0.000000,  0.000000 
 22319872.000000, -12.337393 , -32.941990, 27.845276, 1761306624.000000, -118.790001,  271.459991,  380.170013, 0.000000,  0.000000 
 22340096.000000, -8.573483 , -34.762928, 30.032318, 1761326592.000000, -281.610016,  289.660004,  407.820007, 0.000000,  0.000000 
 22360320.000000, 1.658226 , -25.555344, 26.660830, 1761346560.000000, -314.369995,  262.640015,  402.079987, 0.000000,  0.000000 
 22380544.000000, 3.196811 , -21.104696, 23.992832, 1761367040.000000, -158.339996,  236.529999,  377.440002, 0.000000,  0.000000 
 22400000.000000, 5.824130 , -16.615761, 18.178272, 1761387264.000000, -13.230000,  222.040009,  289.100006, 0.000000,  0.000000 
 22419968.000000, 7.855636 , -9.856036, 13.969299, 1761406720.000000, 52.009998,  195.509995,  218.259995, 0.000000,  0.000000 
 22439936.000000, 10.195816 , -4.883751, 12.090932, 1761426688.000000, 67.340004,  155.119995,  179.899994, 0.000000,  0.000000 
 22460160.000000, 12.803994 , -4.110869, 12.387643, 1761446656.000000, 10.430000,  110.180000,  146.580002, 0.000000,  0.000000 
 22480384.000000, 14.809179 , -2.316252, 11.595619, 1761466880.000000, -25.900000,  58.590000,  130.830002, 0.000000,  0.000000 
 22499840.000000, 15.053247 , 0.392423, 10.269995, 1761487104.000000, 20.160000,  6.370000,  120.540001, 0.000000,  0.000000 
 22519808.000000, 14.409578 , 1.304088, 9.279366, 1761506560.000000, 89.599998,  -52.150002,  86.239998, 0.000000,  0.000000 
 22539776.000000, 14.036297 , 1.313660, 6.977471, 1761526528.000000, 107.309998,  -114.520004,  18.620001, 0.000000,  0.000000 
 22560256.000000, 11.176874 , -0.708275, 6.264410, 1761546496.000000, 65.519997,  -168.770004,  -53.619999, 0.000000,  0.000000 
 22580480.000000, 9.387043 , -6.319445, 5.881558, 1761566976.000000, -6.230000,  -203.979996,  -122.919998, 0.000000,  0.000000 
 22599936.000000, 9.590433 , -14.864214, 10.449455, 1761587200.000000, -50.610001,  -229.110001,  -177.100006, 0.000000,  0.000000 
 22619904.000000, 6.376873 , -26.435904, 21.202803, 1761606400.000000, -52.779999,  -228.619995,  -211.399994, 0.000000,  0.000000 
 22639872.000000, 0.102891 , -33.671799, 23.700909, 1761626624.000000, -26.670000,  -211.190002,  -239.820007, 0.000000,  0.000000 
 22660096.000000, -0.107677 , -27.981667, 23.126629, 1761646592.000000, -12.880000,  -238.559998,  -303.869995, 0.000000,  0.000000 
 22680320.000000, -3.725625 , -21.303301, 17.986849, 1761666816.000000, -3.710000,  -256.480011,  -270.059998, 0.000000,  0.000000 
 22699776.000000, -4.232903 , -15.610775, 15.180067, 1761687040.000000, -8.260000,  -262.709991,  -293.440002, 0.000000,  0.000000 
 22719744.000000, -5.101498 , -10.085747, 13.040883, 1761706496.000000, -52.430000,  -251.089996,  -300.440002, 0.000000,  0.000000 
 22739712.000000, -6.218946 , -5.505885, 9.815358, 1761726464.000000, -102.830002,  -205.940002,  -309.470001, 0.000000,  0.000000 
 22760192.000000, -5.345565 , -1.378266, 7.190433, 1761766656.000000, -15.260000,  -69.930000,  -253.680008, 0.000000,  0.000000 
 22780416.000000, -5.994020 , 2.383251, 4.802395, 0.000000, 0.000000,  0.000000,  0.000000, 4023351552.000000,  1005.739868 
 22799616.000000, -9.908678 , 3.565305, 2.656033, 1761787136.000000, 29.820000,  -16.870001,  -223.160004, 0.000000,  0.000000 
 22819840.000000, -13.134203 , 2.871387, 1.014557, 1761806336.000000, 34.650002,  25.270000,  -204.470001, 0.000000,  0.000000 
 22839808.000000, -12.904492 , 2.950350, -0.827917, 1761826304.000000, 33.740002,  52.009998,  -152.740005, 0.000000,  0.000000 
 22860032.000000, -13.000205 , 3.297310, -1.952543, 1761846272.000000, 33.529999,  58.869999,  -69.160004, 0.000000,  0.000000 
 22882304.000000, -11.751152 , 2.239682, -1.057628, 1761866752.000000, -13.440001,  62.160000,  -16.240000, 0.000000,  0.000000 
 22899712.000000, -8.587841 , 0.715454, 0.162712, 1761889024.000000, -73.430000,  71.260002,  11.550000, 0.000000,  0.000000 
 22919680.000000, -6.142376 , 0.150748, 1.813759, 1761906432.000000, -59.150002,  84.910004,  58.939999, 0.000000,  0.000000 
 22939648.000000, -4.187439 , -0.311067, 4.309474, 1761926400.000000, 6.090000,  105.629997,  125.090004, 0.000000,  0.000000 
 22959872.000000, -3.141776 , -3.062813, 7.716853, 1761946368.000000, 62.439999,  131.250000,  199.990005, 0.000000,  0.000000 
 22980352.000000, -4.467400 , -7.604390, 13.473984, 1761966592.000000, 63.490002,  178.570007,  260.119995, 0.000000,  0.000000 
 22999552.000000, -11.650653 , -16.237694, 20.386848, 1761986816.000000, -34.930000,  239.050003,  336.559998, 0.000000,  0.000000 
 23019520.000000, -13.660624 , -28.041489, 25.167709, 1762006272.000000, -223.930008,  285.950012,  335.160004, 0.000000,  0.000000 
 23039488.000000, -5.424529 , -26.557940, 25.390240, 1762026240.000000, -347.339996,  274.820007,  317.730011, 0.000000,  0.000000 
 23059968.000000, 1.426122 , -20.300707, 22.698315, 1762046208.000000, -290.149994,  219.729996,  326.200012, 0.000000,  0.000000 
 23080704.000000, 3.230310 , -17.917456, 19.489540, 1762066688.000000, -162.820007,  188.509995,  308.350006, 0.000000,  0.000000 
 23099648.000000, 2.895315 , -14.450255, 15.115460, 1762087168.000000, -56.000000,  166.600006,  261.799988, 0.000000,  0.000000 
 23119616.000000, 3.881158 , -11.401800, 11.413764, 1762106368.000000, 16.100000,  126.279999,  224.630005, 0.000000,  0.000000 
 23139584.000000, 7.401000 , -8.853443, 8.690732, 1762126336.000000, -0.280000,  85.400002,  193.759995, 0.000000,  0.000000 
 23159808.000000, 10.258030 , -6.453443, 7.848458, 1762146304.000000, -43.540001,  56.980000,  191.800003, 0.000000,  0.000000 
 23180032.000000, 12.076575 , -4.871787, 8.884550, 1762166528.000000, -60.410000,  39.340000,  185.220001, 0.000000,  0.000000 
 23199488.000000, 14.392829 , -3.905087, 8.568698, 1762186752.000000, -33.950001,  12.250000,  165.970001, 0.000000,  0.000000 
 23219456.000000, 16.486549 , -2.021935, 6.589834, 1762206208.000000, 35.490002,  -32.759998,  130.270004, 0.000000,  0.000000 
 23239424.000000, 16.558332 , -0.957129, 4.823930, 1762226176.000000, 82.599998,  -77.980003,  65.730003, 0.000000,  0.000000 
 23259904.000000, 14.361722 , -3.335595, 5.419744, 1762246144.000000, 47.320000,  -101.290001,  -22.190001, 0.000000,  0.000000 
 23280128.000000, 11.540584 , -10.325029, 6.340980, 1762266368.000000, -33.250000,  -112.489998,  -103.739998, 0.000000,  0.000000 
 23299584.000000, 9.068797 , -18.879372, 11.813366, 1762286848.000000, -73.849998,  -113.680000,  -187.529999, 0.000000,  0.000000 
 23319552.000000, 2.644069 , -26.196623, 17.668602, 1762306048.000000, -49.070000,  -104.160004,  -256.619995, 0.000000,  0.000000 
 23339520.000000, 0.200997 , -32.729031, 21.920647, 1762326016.000000, -8.610000,  -113.680000,  -325.709991, 0.000000,  0.000000 
 23359744.000000, -1.986043 , -30.786055, 21.887148, 1762345984.000000, 19.879999,  -158.619995,  -365.890015, 0.000000,  0.000000 
 23379968.000000, -6.077770 , -24.603003, 19.226330, 1762366464.000000, 78.680000,  -185.919998,  -377.929993, 0.000000,  0.000000 
 23399424.000000, -7.223931 , -17.965311, 17.828922, 1762386688.000000, 76.860001,  -206.289993,  -403.059998, 0.000000,  0.000000 
 23419392.000000, -10.662418 , -11.633904, 16.027126, 1762406144.000000, 26.250000,  -201.110001,  -398.649994, 0.000000,  0.000000 
 23439360.000000, -10.832308 , -6.290731, 11.452050, 1762426112.000000, 29.400000,  -163.800003,  -378.839996, 0.000000,  0.000000 
 23459584.000000, -8.961121 , -1.184447, 6.556334, 1762446080.000000, 109.199997,  -124.320000,  -307.369995, 0.000000,  0.000000 
 23480064.000000, -9.013763 , 2.723032, 3.914658, 1762466304.000000, 146.580002,  -104.300003,  -239.259995, 0.000000,  0.000000 
 23499264.000000, -9.784252 , 4.067799, 0.861416, 1762486528.000000, 107.029999,  -73.010002,  -206.149994, 0.000000,  0.000000 
 23519232.000000, -11.119448 , 2.935993, -1.730011, 1762505984.000000, 69.300003,  -31.430000,  -164.430008, 0.000000,  0.000000 
 23539200.000000, -12.141183 , 2.689533, -2.392823, 1762525952.000000, 45.709999,  7.210000,  -116.410004, 0.000000,  0.000000 
 23559680.000000, -11.858829 , 2.727818, -2.952743, 1762545920.000000, 5.180000,  35.139999,  -54.320000, 0.000000,  0.000000 
 23579904.000000, -10.559525 , 1.418944, -2.110470, 1762566400.000000, -21.210001,  56.770000,  17.920000, 0.000000,  0.000000 
 23599360.000000, -9.970891 , -0.055035, -1.741975, 1762586624.000000, -15.960000,  72.029999,  81.550003, 0.000000,  0.000000 
 23619328.000000, -8.271988 , -1.076770, 1.093520, 1762606080.000000, 1.610000,  92.820000,  148.330002, 0.000000,  0.000000 
 23639296.000000, -7.599605 , -4.498507, 5.759524, 1762626048.000000, 7.350000,  116.550003,  219.800003, 0.000000,  0.000000 
 23659520.000000, -8.618947 , -11.578869, 11.140982, 1762646016.000000, 3.780000,  147.210007,  280.980011, 0.000000,  0.000000 
 23679744.000000, -7.290931 , -19.180866, 21.276978, 1762666240.000000, -45.779999,  178.990005,  324.170013, 0.000000,  0.000000 
 23699200.000000, -9.540184 , -24.681965, 27.366713, 1762686464.000000, -123.129997,  206.009995,  368.619995, 0.000000,  0.000000 
 23719168.000000, -8.865408 , -26.098516, 28.390841, 1762705920.000000, -143.360001,  229.880005,  354.899994, 0.000000,  0.000000 
 23739136.000000, -2.574677 , -18.989441, 25.730021, 1762725888.000000, -116.059998,  223.300003,  308.279999, 0.000000,  0.000000 
 23759616.000000, 0.713061 , -13.832907, 21.389441, 1762766336.000000, -43.820000,  182.070007,  246.259995, 4024351232.000000,  1005.739807 
 23779840.000000, 2.344966 , -11.253445, 15.895520, 1762786560.000000, -3.080000,  152.460007,  238.350006, 0.000000,  0.000000 
 23799296.000000, 4.847858 , -9.272188, 11.540584, 0.000000, 0.000000,  0.000000,  0.000000, 0.000000,  0.000000 
 23819264.000000, 8.348558 , -7.970492, 9.286544, 1762805760.000000, -28.000000,  120.959999,  238.559998, 0.000000,  0.000000 
 23839232.000000, 12.136396 , -7.783852, 7.726424, 1762825728.000000, -94.639999,  90.370003,  233.520004, 0.000000,  0.000000 
 23859456.000000, 16.893328 , -6.731010, 5.627919, 1762845952.000000, -126.980003,  54.040001,  216.229996, 0.000000,  0.000000 
 23881728.000000, 18.530018 , -3.483950, 5.472386, 1762866176.000000, -108.220001,  14.700000,  188.720001, 0.000000,  0.000000 
 23899136.000000, 17.982061 , -1.435694, 6.489335, 1762888448.000000, -94.639999,  -16.520000,  111.370003, 0.000000,  0.000000 
 23919104.000000, 17.245073 , -1.536192, 6.654440, 1762905856.000000, -67.760002,  -49.910000,  15.610000, 0.000000,  0.000000 
 23939072.000000, 12.323036 , -2.060220, 6.604190, 1762925824.000000, 10.150000,  -85.120003,  -73.919998, 0.000000,  0.000000 
 23959296.000000, 9.087940 , -3.862016, 8.051848, 1762945792.000000, 65.870003,  -105.559998,  -178.710007, 0.000000,  0.000000 
 23979776.000000, 7.432107 , -8.171489, 9.970891, 1762966016.000000, 69.790001,  -131.250000,  -233.029999, 0.000000,  0.000000 
 23998976.000000, 7.197611 , -16.144375, 15.328422, 1762986240.000000, 56.209999,  -160.369995,  -265.440002, 0.000000,  0.000000 
 24018944.000000, 5.895915 , -24.569504, 23.818157, 1763005696.000000, 28.840000,  -183.050003,  -295.190002, 0.000000,  0.000000 
 24039168.000000, 1.722832 , -27.395428, 25.081566, 1763025664.000000, 20.230000,  -200.759995,  -307.160004, 0.000000,  0.000000 
 24059392.000000, -0.301496 , -21.568903, 23.866013, 1763045632.000000, 128.029999,  -231.210007,  -325.989990, 0.000000,  0.000000 
 24079616.000000, -3.663411 , -15.763916, 17.769100, 1763066112.000000, 228.550003,  -250.880005,  -265.790009, 0.000000,  0.000000 
 24099072.000000, -4.642076 , -10.284351, 14.799608, 1763086336.000000, 240.869995,  -260.679993,  -241.919998, 0.000000,  0.000000 
 24119040.000000, -5.838487 , -6.257231, 13.861622, 1763105792.000000, 149.100006,  -247.380005,  -214.339996, 0.000000,  0.000000 
 24139008.000000, -6.680761 , -4.146761, 9.918249, 1763125760.000000, 31.639999,  -194.809998,  -207.270004, 0.000000,  0.000000 
 24159232.000000, -4.345366 , -1.806581, 5.324030, 1763145728.000000, 19.879999,  -125.790001,  -194.809998, 0.000000,  0.000000 
 24179456.000000, -6.891330 , 0.370888, 4.754539, 1763165952.000000, 36.119999,  -65.169998,  -161.490005, 0.000000,  0.000000 
 24198912.000000, -12.327823 , -0.093320, 4.316652, 1763186176.000000, 16.730000,  -43.610001,  -162.330002, 0.000000,  0.000000 
 24218880.000000, -12.624532 , 1.306481, 2.909672, 1763205632.000000, -47.459999,  -10.220000,  -193.199997, 0.000000,  0.000000 
 24238848.000000, -12.157932 , 2.333002, -0.145962, 1763225600.000000, -39.200001,  16.309999,  -177.520004, 0.000000,  0.000000 
 24259328.000000, -13.409377 , 3.323631, -1.361516, 1763245568.000000, 10.080000,  31.920000,  -101.220001, 0.000000,  0.000000 
 24279552.000000, -12.492928 , 2.909672, -1.196411, 1763265792.000000, -18.969999,  35.279999,  -53.340000, 0.000000,  0.000000 
 24299008.000000, -9.858429 , 2.098505, -0.902094, 1763286272.000000, -97.090004,  47.599998,  1.890000, 0.000000,  0.000000 
 24318976.000000, -6.857830 , 1.928615, -0.636491, 1763305472.000000, -121.029999,  65.309998,  76.860001, 0.000000,  0.000000 
 24338944.000000, -5.039285 , 1.517050, 1.720440, 1763325696.000000, -106.820000,  90.650002,  155.610001, 0.000000,  0.000000 
 24359168.000000, -6.915257 , -1.694118, 4.979464, 1763345664.000000, -88.830002,  133.630005,  232.399994, 0.000000,  0.000000 
 24379392.000000, -8.018349 , -7.951349, 11.196017, 1763365888.000000, -72.940002,  193.759995,  303.660004, 0.000000,  0.000000 
 24398848.000000, -12.698709 , -16.424334, 23.109880, 1763386112.000000, -99.750000,  260.190002,  364.559998, 0.000000,  0.000000 
 24418816.000000, -13.890336 , -25.081566, 27.605997, 1763405568.000000, -153.089996,  314.019989,  361.899994, 0.000000,  0.000000 
 24438784.000000, -8.504091 , -23.818157, 28.467411, 1763425536.000000, -150.220001,  332.500000,  317.239990, 0.000000,  0.000000 
 24459008.000000, -5.072784 , -20.047070, 26.218159, 1763445504.000000, -121.099998,  309.540009,  284.619995, 0.000000,  0.000000 
 24479488.000000, -1.361516 , -17.211573, 23.516661, 1763465728.000000, -149.729996,  255.710007,  215.460007, 0.000000,  0.000000 
 24498688.000000, 1.830509 , -10.930414, 16.936398, 1763485952.000000, -122.709999,  183.820007,  168.070007, 0.000000,  0.000000 
 24518912.000000, 4.735396 , -6.862615, 11.418550, 1763505408.000000, -7.700000,  116.690002,  157.220001, 0.000000,  0.000000 
 24538880.000000, 6.759724 , -3.811767, 7.647461, 1763525376.000000, 39.060001,  73.849998,  146.440002, 0.000000,  0.000000 
 24559104.000000, 8.472985 , -3.132205, 6.776474, 1763545344.000000, 2.940000,  52.150002,  134.399994, 0.000000,  0.000000 
 24579328.000000, 10.877771 , -3.211168, 8.327023, 1763565824.000000, -69.720001,  26.460001,  119.770004, 0.000000,  0.000000 
 24598784.000000, 13.732409 , -3.132205, 8.183454, 1763586048.000000, -98.559998,  -13.020000,  117.040001, 0.000000,  0.000000 
 24618752.000000, 15.081962 , -1.710868, 5.855237, 1763605504.000000, -45.920002,  -65.379997,  101.989998, 0.000000,  0.000000 
 24638720.000000, 13.574483 , -1.837688, 5.297709, 1763625472.000000, -5.390000,  -107.379997,  47.950001, 0.000000,  0.000000 
 24658944.000000, 11.803794 , -7.140182, 9.317651, 1763645440.000000, -53.619999,  -126.489998,  -21.700001, 0.000000,  0.000000 
 24679424.000000, 9.348758 , -14.907285, 12.665211, 1763665664.000000, -95.129997,  -142.869995,  -80.220001, 0.000000,  0.000000 
 24698624.000000, 4.713861 , -19.934605, 13.639089, 1763685888.000000, -25.969999,  -159.600006,  -155.820007, 0.000000,  0.000000 
 24718592.000000, 4.919643 , -26.359335, 19.044476, 1763705344.000000, 45.570000,  -181.089996,  -272.369995, 0.000000,  0.000000 
 24738560.000000, -0.095713 , -33.777084, 24.581467, 1763725312.000000, -32.830002,  -208.880005,  -298.829987, 0.000000,  0.000000 
 24759040.000000, -8.109276 , -31.881969, 23.997616, 1763765760.000000, -3.920000,  -231.699997,  -416.079987, 4025350656.000000,  1005.737244 
 24779264.000000, -7.676175 , -23.009382, 16.902899, 0.000000, 0.000000,  0.000000,  0.000000, 0.000000,  0.000000 
 24798720.000000, -6.996613 , -16.625332, 15.223137, 1763785984.000000, 125.860001,  -248.430008,  -385.140015, 0.000000,  0.000000 
 24818688.000000, -13.682159 , -12.622139, 15.388243, 1763805440.000000, 92.610001,  -243.320007,  -367.709991, 0.000000,  0.000000 
 24838656.000000, -15.842879 , -6.786045, 8.396415, 1763825408.000000, 21.000000,  -184.169998,  -386.399994, 0.000000,  0.000000 
 24858880.000000, -10.918450 , -0.550349, 3.455236, 1763845376.000000, 79.449997,  -120.330002,  -337.820007, 0.000000,  0.000000 
 24881152.000000, -9.741181 , 4.900501, 2.663212, 1763865600.000000, 102.550003,  -76.300003,  -262.220001, 0.000000,  0.000000 
 24898560.000000, -13.842479 , 5.649454, 0.906880, 1763887872.000000, 53.130001,  -39.060001,  -235.970001, 0.000000,  0.000000 
 24918528.000000, -14.529219 , 4.012764, -0.660419, 1763905280.000000, 39.619999,  7.420000,  -223.160004, 0.000000,  0.000000 
 24938496.000000, -11.897114 , 5.111069, -1.871187, 1763925248.000000, 58.240002,  47.740002,  -150.430008, 0.000000,  0.000000 
 24958976.000000, -9.626326 , 6.142376, -2.816352, 1763945216.000000, 66.220001,  66.709999,  -29.190001, 0.000000,  0.000000 
 24979200.000000, -8.803195 , 4.620540, -5.924629, 1763965440.000000, 10.430000,  91.629997,  45.080002, 0.000000,  0.000000 
 24998656.000000, -7.872386 , 0.519243, -3.247060, 1763985920.000000, -101.150002,  127.470001,  68.040001, 0.000000,  0.000000 
 25018624.000000, -6.025128 , -0.662812, 2.048256, 1764005120.000000, -175.630005,  148.399994,  115.919998, 0.000000,  0.000000 
 25038592.000000, -4.646862 , -2.641676, 4.091727, 1764025088.000000, -134.330002,  146.369995,  215.180008, 0.000000,  0.000000 
 25059072.000000, -7.125826 , -9.556933, 11.478370, 1764045056.000000, -36.889999,  171.289993,  310.660004, 0.000000,  0.000000 
 25079040.000000, -11.478370 , -25.356743, 25.356743, 1764065536.000000, -46.130001,  232.190002,  359.940002, 0.000000,  0.000000 
 25098496.000000, -14.141582 , -31.252655, 30.661629, 1764085760.000000, -89.949997,  274.260010,  398.790009, 0.000000,  0.000000 
 25118464.000000, -6.941578 , -23.370697, 28.319054, 1764105216.000000, -43.820000,  257.110016,  357.769989, 0.000000,  0.000000 
 25138432.000000, -1.057628 , -16.833508, 23.540588, 1764125184.000000, -58.450001,  177.940002,  315.140015, 0.000000,  0.000000 
 25158656.000000, 4.005585 , -11.803794, 18.809978, 1764145152.000000, -157.919998,  145.880005,  225.050003, 0.000000,  0.000000 
 25179136.000000, 7.556533 , -8.403593, 14.567505, 1764165376.000000, -152.460007,  113.330002,  172.690002, 0.000000,  0.000000 
 25198336.000000, 7.022934 , -5.204390, 11.210374, 1764185600.000000, -67.620003,  80.430000,  158.410004, 0.000000,  0.000000 
 25218304.000000, 5.979663 , -3.517449, 7.838887, 1764205056.000000, 3.430000,  81.129997,  132.160004, 0.000000,  0.000000 
 25238272.000000, 8.532805 , -2.014757, 6.183054, 1764225024.000000, 19.320000,  68.529999,  117.110001, 0.000000,  0.000000 
 25258752.000000, 11.949757 , -1.526621, 5.998806, 1764244992.000000, -13.790000,  36.049999,  128.100006, 0.000000,  0.000000 
 25278976.000000, 13.335200 , -1.323231, 6.367301, 1764265472.000000, -53.830002,  0.560000,  120.889999, 0.000000,  0.000000 
 25298432.000000, 13.942977 , 0.236889, 6.446264, 1764285696.000000, -48.439999,  -26.460001,  96.879997, 0.000000,  0.000000 
 25318400.000000, 15.065211 , 2.316252, 6.022735, 1764305152.000000, -0.420000,  -52.570000,  49.980000, 0.000000,  0.000000 
 25338368.000000, 13.928620 , 2.969493, 6.592227, 1764325120.000000, 23.450001,  -82.389999,  -17.500000, 0.000000,  0.000000 
 25358592.000000, 10.267602 , -3.857230, 9.882358, 1764345088.000000, -33.810001,  -94.849998,  -105.769997, 0.000000,  0.000000 
 25378816.000000, 9.499505 , -20.090139, 16.058231, 1764365312.000000, -117.459999,  -99.190002,  -178.639999, 0.000000,  0.000000 
 25398272.000000, 6.199803 , -35.088352, 26.816362, 1764385536.000000, -113.540001,  -101.919998,  -214.830002, 0.000000,  0.000000 
 25418240.000000, -4.505685 , -41.103905, 30.128031, 1764404992.000000, -72.870003,  -105.070000,  -275.589996, 0.000000,  0.000000 
 25438208.000000, -3.730411 , -35.416168, 28.156342, 1764424960.000000, 11.060000,  -171.430008,  -393.119995, 0.000000,  0.000000 
 25458688.000000, -6.972685 , -23.169703, 17.668602, 1764444928.000000, 91.489998,  -261.799988,  -369.459991, 0.000000,  0.000000 
 25478912.000000, -10.485349 , -14.120047, 12.854243, 1764465152.000000, 190.960007,  -318.779999,  -412.089996, 0.000000,  0.000000 
 25498368.000000, -14.883357 , -7.733603, 8.652447, 1764485632.000000, 166.949997,  -334.320007,  -405.579987, 0.000000,  0.000000 
 25518336.000000, -12.323036 , -3.125026, 3.842873, 1764504832.000000, 111.160004,  -284.130005,  -379.679993, 0.000000,  0.000000 
 25538304.000000, -7.073184 , 0.981057, 0.732204, 1764524800.000000, 109.830002,  -208.039993,  -281.540009, 0.000000,  0.000000 
 25558528.000000, -6.144768 , 4.811966, -0.942772, 1764545024.000000, 113.889999,  -147.419998,  -198.660004, 0.000000,  0.000000 
 25578752.000000, -8.953942 , 4.728218, -2.014757, 1764565248.000000, 55.160000,  -83.580002,  -178.570007, 0.000000,  0.000000 
 25598208.000000, -10.289137 , 3.036492, -2.519642, 1764585472.000000, -27.160000,  -9.590000,  -158.130005, 0.000000,  0.000000 
 25618176.000000, -9.293723 , 2.979064, -2.533999, 1764604928.000000, -68.529999,  49.630001,  -102.690002, 0.000000,  0.000000 
 25638144.000000, -10.930414 , 3.072384, -1.919044, 1764624896.000000, -80.360001,  86.169998,  -11.550000, 0.000000,  0.000000 
 25658368.000000, -12.227324 , 2.021935, -1.086342, 1764644864.000000, -86.449997,  123.270004,  60.270000, 0.000000,  0.000000 
 25678848.000000, -9.930215 , 0.543171, -0.181855, 1764665088.000000, -72.449997,  149.589996,  115.290001, 0.000000,  0.000000 
 25698048.000000, -8.824730 , -0.416351, 2.045863, 1764685312.000000, -10.990000,  160.160004,  186.899994, 0.000000,  0.000000 
 25718016.000000, -10.399208 , -3.141776, 5.309673, 1764704768.000000, 49.420002,  184.869995,  256.480011, 0.000000,  0.000000 
 25738240.000000, -13.344771 , -7.523034, 7.554141, 1764724736.000000, 63.770000,  221.199997,  319.200012, 0.000000,  0.000000 
 25758464.000000, -13.294522 , -12.997812, 18.288343, 1764744704.000000, 28.559999,  249.899994,  388.850006, 0.000000,  0.000000 
 25778688.000000, -19.877178 , -28.991440, 33.631123, 1764765184.000000, -123.340004,  274.470001,  440.299988, 4026350080.000000,  1005.734680 
 25798144.000000, -14.646468 , -35.164921, 35.318062, 1764785408.000000, -277.690002,  296.450012,  417.130005, 0.000000,  0.000000 
 25818112.000000, -3.955336 , -21.097519, 29.020151, 1764804864.000000, -74.900002,  254.729996,  406.700012, 0.000000,  0.000000 
 25838080.000000, 0.325424 , -16.811972, 24.701107, 1764824832.000000, 87.220001,  217.000000,  333.200012, 0.000000,  0.000000 
 25858304.000000, 2.165504 , -12.866207, 20.980270, 1764844800.000000, -37.730000,  195.440002,  199.009995, 0.000000,  0.000000 
 25880576.000000, 4.474578 , -8.616554, 14.904892, 1764865024.000000, -54.389999,  145.250000,  148.330002, 0.000000,  0.000000 
 25897984.000000, 8.152347 , -6.206983, 10.540384, 1764887296.000000, 1.750000,  96.809998,  142.660004, 0.000000,  0.000000 
 25917952.000000, 10.588240 , -4.237689, 8.070991, 1764904704.000000, 4.130000,  64.889999,  147.630005, 0.000000,  0.000000 
 25937920.000000, 12.904492 , -3.055635, 7.190433, 1764924672.000000, -32.619999,  43.959999,  133.910004, 0.000000,  0.000000 
 25958400.000000, 14.727824 , -1.143769, 7.207181, 1764944640.000000, -55.650002,  16.520000,  119.139999, 0.000000,  0.000000 
 25978624.000000, 16.070196 , 0.066999, 6.687939, 1764965120.000000, -43.540001,  -25.830000,  89.669998, 0.000000,  0.000000 
 25998080.000000, 15.507884 , -0.258425, 6.525227, 1764985344.000000, -17.990000,  -77.279999,  28.630001, 0.000000,  0.000000 
 26018048.000000, 12.363714 , -1.517050, 6.087341, 1765004544.000000, -0.210000,  -126.980003,  -49.560001, 0.000000,  0.000000 
 26038016.000000, 9.949356 , -3.247060, 5.481956, 1765024512.000000, 31.639999,  -163.589996,  -135.169998, 0.000000,  0.000000 
 26058240.000000, 9.025726 , -7.274181, 7.601997, 1765044736.000000, 51.590000,  -190.820007,  -195.580002, 0.000000,  0.000000 
 26078464.000000, 10.258030 , -18.171095, 18.020348, 1765064960.000000, 12.600000,  -199.500000,  -236.529999, 0.000000,  0.000000 
 26097920.000000, 5.367101 , -31.946573, 30.831518, 1765085184.000000, -34.580002,  -199.289993,  -252.419998, 0.000000,  0.000000 
 26117888.000000, -4.587041 , -33.980473, 30.460632, 1765104640.000000, -120.050003,  -198.029999,  -256.970001, 0.000000,  0.000000 
 26137856.000000, -4.704289 , -30.108887, 24.399612, 1765124608.000000, -42.910000,  -215.320007,  -355.320007, 0.000000,  0.000000 
 26158080.000000, -4.701896 , -16.199409, 18.412771, 1765144576.000000, 67.760002,  -260.540009,  -346.500000, 0.000000,  0.000000 
 26178560.000000, -5.206782 , -13.287343, 17.632710, 1765164800.000000, 78.190002,  -293.019989,  -325.149994, 0.000000,  0.000000 
 26197760.000000, -8.774480 , -9.334401, 14.648861, 1765185024.000000, 22.049999,  -281.820007,  -330.399994, 0.000000,  0.000000 
 26217728.000000, -10.571491 , -5.556134, 10.009177, 1765204480.000000, -20.510000,  -224.770004,  -332.570007, 0.000000,  0.000000 
 26237952.000000, -9.891929 , -0.981057, 3.500700, 1765224448.000000, 47.180000,  -154.139999,  -282.309998, 0.000000,  0.000000 
 26258176.000000, -8.614161 , 4.141976, 2.866602, 1765244416.000000, 77.559998,  -110.879997,  -230.300003, 0.000000,  0.000000 
 26278400.000000, -12.023933 , 4.543970, 0.114855, 1765285120.000000, -17.920000,  -11.900000,  -195.860001, 0.000000,  0.000000 
 26297856.000000, -14.591432 , 2.447858, -1.921437, 0.000000, 0.000000,  0.000000,  0.000000, 0.000000,  0.000000 
 26317824.000000, -12.229716 , 3.984050, -1.947758, 1765304576.000000, -10.710000,  30.170000,  -154.070007, 0.000000,  0.000000 
 26337792.000000, -10.547562 , 4.795217, -2.952743, 1765324544.000000, -2.170000,  41.160000,  -42.070000, 0.000000,  0.000000 
 26358016.000000, -10.102496 , 3.651447, -2.878566, 1765344512.000000, -12.810000,  54.250000,  35.490002, 0.000000,  0.000000 
 26378240.000000, -7.587641 , 1.557728, -1.478764, 1765364736.000000, -59.570000,  79.029999,  65.519997, 0.000000,  0.000000 
 26397696.000000, -5.426922 , 0.813560, 1.083949, 1765384960.000000, -68.529999,  101.849998,  131.389999, 0.000000,  0.000000 
 26417664.000000, -4.666004 , -0.598206, 5.994020, 1765404416.000000, -33.040001,  132.930008,  196.490005, 0.000000,  0.000000 
 26437632.000000, -7.192825 , -7.970492, 9.932607, 1765424384.000000, 15.820000,  176.889999,  268.519989, 0.000000,  0.000000 
 26458112.000000, -9.133404 , -17.446070, 19.819748, 1765444352.000000, 1.890000,  224.419998,  308.630005, 0.000000,  0.000000 
 26478336.000000, -13.572090 , -28.589445, 27.311678, 1765464832.000000, -159.880005,  260.049988,  373.170013, 0.000000,  0.000000 
 26497792.000000, -12.727424 , -35.296528, 28.012774, 1765485056.000000, -353.429993,  266.489990,  388.429993, 0.000000,  0.000000 
 26517760.000000, -0.557528 , -24.179472, 24.423540, 1765504256.000000, -357.910004,  216.790009,  343.769989, 0.000000,  0.000000 
 26537728.000000, 6.369694 , -14.084153, 18.108883, 1765524480.000000, -104.230003,  164.570007,  336.980011, 0.000000,  0.000000 
 26557952.000000, 5.972485 , -10.073784, 13.773087, 1765544448.000000, 54.599998,  163.520004,  278.110016, 0.000000,  0.000000 
 26578176.000000, 3.165704 , -7.487142, 11.361122, 1765564672.000000, 72.379997,  146.720001,  183.750000, 0.000000,  0.000000 
 26597632.000000, 5.886343 , -6.101698, 9.095119, 1765584896.000000, 22.260000,  108.290001,  139.930008, 0.000000,  0.000000 
 26617600.000000, 9.482756 , -5.173282, 7.503892, 1765604352.000000, -39.270000,  62.299999,  170.029999, 0.000000,  0.000000 
 26637568.000000, 11.753544 , -4.656433, 7.302894, 1765624320.000000, -66.779999,  26.460001,  184.380005, 0.000000,  0.000000 
 26658048.000000, 14.495720 , -3.019742, 6.300302, 1765644288.000000, -31.219999,  -5.460000,  176.539993, 0.000000,  0.000000 
 26678272.000000, 18.077776 , -1.600798, 3.840480, 1765664512.000000, 39.060001,  -47.040001,  156.100006, 0.000000,  0.000000 
 26697728.000000, 18.798016 , -1.306481, 4.299902, 1765684992.000000, 62.650002,  -88.340004,  96.040001, 0.000000,  0.000000 
 26717696.000000, 15.885949 , -4.902894, 8.350951, 1765704192.000000, -8.960000,  -108.570000,  3.500000, 0.000000,  0.000000 
 26737664.000000, 12.830315 , -11.700903, 9.942179, 1765724160.000000, -67.690002,  -113.959999,  -101.430000, 0.000000,  0.000000 
 26757888.000000, 9.111869 , -19.958532, 14.055440, 1765764608.000000, -2.800000,  -125.860001,  -309.329987, 4027349504.000000,  1005.736511 
 26778112.000000, 5.467600 , -30.343384, 22.447069, 0.000000, 0.000000,  0.000000,  0.000000, 0.000000,  0.000000 
 26797568.000000, 0.662812 , -38.239697, 27.771101, 1765784832.000000, -45.080002,  -131.389999,  -368.619995, 0.000000,  0.000000 
 26817536.000000, -5.824130 , -31.532618, 24.545576, 1765804288.000000, -61.459999,  -154.070007,  -406.630005, 0.000000,  0.000000 
 26837504.000000, -6.666404 , -22.095322, 17.759529, 1765824256.000000, 73.010002,  -182.000000,  -442.330017, 0.000000,  0.000000 
 26857728.000000, -7.231110 , -16.632511, 16.067802, 1765844224.000000, 133.699997,  -215.460007,  -426.790009, 0.000000,  0.000000 
 26880000.000000, -10.782058 , -11.990433, 14.780465, 1765864448.000000, 100.730003,  -213.639999,  -408.799988, 0.000000,  0.000000 
 26897408.000000, -11.660224 , -7.494320, 10.542776, 1765886720.000000, 54.880001,  -171.779999,  -392.420013, 0.000000,  0.000000 
 26917376.000000, -9.518648 , -2.239682, 4.386044, 1765904128.000000, 104.720001,  -115.989998,  -314.720001, 0.000000,  0.000000 
 26937344.000000, -8.413164 , 3.125026, 1.938186, 1765924096.000000, 148.190002,  -98.489998,  -233.380005, 0.000000,  0.000000 
 26957824.000000, -9.229117 , 5.338387, 0.468993, 1765944064.000000, 92.889999,  -68.599998,  -205.869995, 0.000000,  0.000000 
 26978048.000000, -11.892329 , 2.313859, -1.146162, 1765964544.000000, 11.900000,  -32.830002,  -181.020004, 0.000000,  0.000000 
 26997504.000000, -11.492726 , 2.359323, -2.179861, 1765984768.000000, -10.640000,  11.060000,  -157.430008, 0.000000,  0.000000 
 27017472.000000, -10.121639 , 4.498507, -3.881158, 1766004224.000000, 4.200000,  27.719999,  -64.820000, 0.000000,  0.000000 
 27037440.000000, -10.645668 , 3.335595, -3.440879, 1766024192.000000, -25.129999,  37.029999,  36.189999, 0.000000,  0.000000 
 27057664.000000, -9.327222 , 0.612563, -1.672583, 1766044160.000000, -99.260002,  51.380001,  46.200001, 0.000000,  0.000000 
 27077888.000000, -6.592227 , -0.133998, 0.390030, 1766064384.000000, -100.660004,  59.500000,  92.400002, 0.000000,  0.000000 
 27097344.000000, -5.235496 , -0.830309, 4.905287, 1766084608.000000, -21.559999,  68.529999,  181.089996, 0.000000,  0.000000 
 27117312.000000, -8.824730 , -6.357729, 8.729016, 1766104064.000000, 30.240000,  103.669998,  263.269989, 0.000000,  0.000000 
 27137280.000000, -12.301501 , -17.084755, 20.812771, 1766124032.000000, -9.030000,  163.729996,  309.959991, 0.000000,  0.000000 
 27157760.000000, -13.258631 , -28.168306, 31.142588, 1766144000.000000, -91.489998,  207.550003,  378.910004, 0.000000,  0.000000 
 27177984.000000, -7.331609 , -29.407789, 29.312078, 1766164224.000000, -152.180008,  242.550003,  405.440002, 0.000000,  0.000000 
 27197440.000000, 1.067199 , -21.870399, 25.883162, 1766184704.000000, -157.500000,  239.889999,  372.750000, 0.000000,  0.000000 
 27217408.000000, 3.493521 , -16.606188, 23.217558, 1766203904.000000, -206.570007,  244.020004,  318.010010, 0.000000,  0.000000 
 27237376.000000, 3.211168 , -14.830715, 18.809978, 1766223872.000000, -191.169998,  235.690002,  259.769989, 0.000000,  0.000000 
 27257600.000000, 5.170890 , -11.030912, 13.184454, 1766243840.000000, -50.889999,  187.110001,  234.710007, 0.000000,  0.000000 
 27277824.000000, 8.255238 , -6.963113, 9.131011, 1766264320.000000, 90.580002,  135.940002,  238.699997, 0.000000,  0.000000 
 27297280.000000, 11.547763 , -4.352544, 6.628119, 1766284544.000000, 116.410004,  101.709999,  240.380005, 0.000000,  0.000000 
 27317248.000000, 14.258829 , -3.756732, 5.996413, 1766304000.000000, 50.820000,  80.500000,  222.389999, 0.000000,  0.000000 
 27337216.000000, 16.134804 , -3.146562, 6.132804, 1766323968.000000, -18.200001,  45.779999,  204.960007, 0.000000,  0.000000 
 27357440.000000, 17.347965 , -2.378466, 6.221339, 1766343936.000000, -34.509998,  -5.460000,  168.699997, 0.000000,  0.000000 
 27377920.000000, 17.371893 , -1.392623, 6.853044, 1766364160.000000, -17.990000,  -58.450001,  100.730003, 0.000000,  0.000000 
 27397120.000000, 14.366508 , -2.392823, 8.403593, 1766384384.000000, -28.770000,  -103.180000,  16.730000, 0.000000,  0.000000 
 27417088.000000, 10.561919 , -7.331609, 10.585848, 1766403840.000000, -59.150002,  -136.710007,  -86.239998, 0.000000,  0.000000 
 27437056.000000, 6.597012 , -12.021541, 11.279767, 1766423808.000000, -61.670002,  -166.180008,  -171.500000, 0.000000,  0.000000 
 27457536.000000, 5.912664 , -18.551554, 14.242079, 1766443776.000000, -17.219999,  -198.240005,  -253.330002, 0.000000,  0.000000 
 27477760.000000, 6.125626 , -29.874390, 21.588043, 1766464256.000000, -21.350000,  -221.690002,  -308.420013, 0.000000,  0.000000 
 27497216.000000, 1.545763 , -34.992638, 24.775286, 1766484480.000000, -76.230003,  -225.540009,  -321.649994, 0.000000,  0.000000 
 27517184.000000, -1.830509 , -30.247671, 22.810778, 1766503936.000000, -46.549999,  -233.100006,  -377.019989, 0.000000,  0.000000 
 27537152.000000, -3.641876 , -23.207985, 17.257038, 1766523904.000000, 23.030001,  -240.100006,  -369.320007, 0.000000,  0.000000 
 27557376.000000, -4.467400 , -16.642082, 14.495720, 1766543872.000000, 59.010002,  -252.979996,  -368.549988, 0.000000,  0.000000 
 27577600.000000, -7.657032 , -12.973885, 12.358929, 1766584320.000000, -38.849998,  -180.180008,  -361.899994, 0.000000,  0.000000 
 27597056.000000, -7.927422 , -7.982457, 9.154939, 0.000000, 0.000000,  0.000000,  0.000000, 0.000000,  0.000000 
 27617024.000000, -9.767502 , -2.627320, 7.314859, 1766603776.000000, -0.420000,  -106.680000,  -321.369995, 0.000000,  0.000000 
 27636992.000000, -14.892928 , 0.567099, 5.017749, 1766623744.000000, 16.870001,  -61.459999,  -295.890015, 0.000000,  0.000000 
 27657472.000000, -17.773888 , 4.656433, 1.751546, 1766643712.000000, 52.009998,  -24.010000,  -268.799988, 0.000000,  0.000000 
 27677696.000000, -13.509877 , 5.874380, -0.631705, 1766663936.000000, 87.989998,  14.350000,  -206.430008, 0.000000,  0.000000 
 27697152.000000, -12.177074 , 6.051448, -1.818545, 1766684416.000000, 111.650002,  47.180000,  -118.720001, 0.000000,  0.000000 
 27717120.000000, -11.992826 , 5.800202, -3.471986, 1766703616.000000, 112.980003,  63.000000,  -44.590000, 0.000000,  0.000000 
 27737088.000000, -9.724431 , 4.993821, -3.483950, 1766723584.000000, 80.150002,  90.930000,  41.020000, 0.000000,  0.000000 
 27757312.000000, -8.193025 , 3.469593, -2.199004, 1766764032.000000, -124.669998,  169.889999,  180.880005, 4028348928.000000,  1005.735474 
 27777536.000000, -8.645268 , 1.194018, 0.224925, 0.000000, 0.000000,  0.000000,  0.000000, 0.000000,  0.000000 
 27796992.000000, -9.777073 , -3.129812, 5.979663, 1766784256.000000, -185.779999,  198.100006,  232.680008, 0.000000,  0.000000 
 27816960.000000, -11.286944 , -12.660425, 11.708081, 1766803712.000000, -173.740005,  213.149994,  294.070007, 0.000000,  0.000000 
 27836928.000000, -12.246466 , -23.526232, 21.123838, 1766823680.000000, -110.459999,  224.490005,  361.970001, 0.000000,  0.000000 
 27857152.000000, -12.294323 , -31.637899, 27.182467, 1766843648.000000, -165.270004,  240.100006,  412.440002, 0.000000,  0.000000 
 27879424.000000, -7.243074 , -31.599613, 27.103502, 1766863872.000000, -211.820007,  238.210007,  413.630005, 0.000000,  0.000000 
 27896832.000000, -1.033699 , -24.710680, 24.894926, 1766886144.000000, -203.419998,  211.050003,  373.519989, 0.000000,  0.000000 
 27916800.000000, 2.986243 , -17.041683, 20.396420, 1766903552.000000, -165.619995,  191.100006,  293.160004, 0.000000,  0.000000 
 27937024.000000, 4.677969 , -12.799208, 15.211173, 1766923520.000000, -57.540001,  174.300003,  234.009995, 0.000000,  0.000000 
 27957248.000000, 4.881358 , -9.286544, 11.732009, 1766943488.000000, 43.540001,  144.550003,  194.320007, 0.000000,  0.000000 
 27977472.000000, 5.888737 , -7.910671, 9.889536, 1766963968.000000, 26.040001,  111.440002,  160.860001, 0.000000,  0.000000 
 27996928.000000, 8.334201 , -6.733403, 8.566305, 1766984192.000000, -15.470000,  93.239998,  140.419998, 0.000000,  0.000000 
 28016896.000000, 10.999805 , -5.096712, 9.054441, 1767003648.000000, -84.980003,  60.549999,  136.850006, 0.000000,  0.000000 
 28036864.000000, 14.266008 , -3.979264, 9.116654, 1767023616.000000, -98.629997,  33.180000,  135.309998, 0.000000,  0.000000 
 28057088.000000, 16.192232 , -1.914258, 8.207381, 1767043584.000000, -49.209999,  -3.360000,  124.040001, 0.000000,  0.000000 
 28077312.000000, 15.768701 , -0.636491, 8.111670, 1767063808.000000, 19.950001,  -50.400002,  88.480003, 0.000000,  0.000000 
 28096768.000000, 13.292130 , -0.473779, 9.329616, 1767084032.000000, 45.920002,  -95.760002,  18.200001, 0.000000,  0.000000 
 28116736.000000, 11.420943 , -3.510271, 9.779467, 1767103488.000000, 38.849998,  -133.139999,  -57.119999, 0.000000,  0.000000 
 28136704.000000, 7.970492 , -5.675776, 8.927622, 1767123456.000000, 87.709999,  -165.479996,  -111.370003, 0.000000,  0.000000 
 28157184.000000, 6.762117 , -10.679168, 9.568897, 1767143424.000000, 126.910004,  -187.949997,  -184.169998, 0.000000,  0.000000 
 28177408.000000, 9.099905 , -22.920851, 19.680967, 1767163648.000000, 43.189999,  -212.380005,  -255.779999, 0.000000,  0.000000 
 28196864.000000, 0.351745 , -32.279179, 27.419355, 1767184128.000000, -69.790001,  -221.550003,  -275.309998, 0.000000,  0.000000 
 28216832.000000, -3.239882 , -29.410183, 24.205793, 1767203328.000000, -6.440000,  -228.899994,  -334.739990, 0.000000,  0.000000 
 28236800.000000, -2.333002 , -20.630917, 18.908085, 1767223552.000000, 127.120003,  -261.100006,  -356.929993, 0.000000,  0.000000 
 28257024.000000, -4.709075 , -15.333207, 16.608582, 1767243520.000000, 130.130005,  -284.690002,  -326.269989, 0.000000,  0.000000 
 28277248.000000, -6.652047 , -10.779665, 16.261621, 1767263744.000000, 44.450001,  -290.079987,  -342.790009, 0.000000,  0.000000 
 28296704.000000, -8.956335 , -6.637690, 12.342178, 1767283968.000000, -35.000000,  -255.779999,  -332.500000, 0.000000,  0.000000 
 28316672.000000, -6.915257 , -1.529014, 7.343572, 1767303424.000000, 4.410000,  -188.580002,  -291.760010, 0.000000,  0.000000 
 28336640.000000, -6.654440 , 2.852244, 3.168097, 1767323392.000000, 73.639999,  -127.330002,  -214.619995, 0.000000,  0.000000 
 28356864.000000, -9.176475 , 5.118248, 3.069991, 1767343360.000000, 36.680000,  -88.620003,  -188.860001, 0.000000,  0.000000 
 28377344.000000, -11.566904 , 3.567699, 1.801795, 1767363584.000000, -36.610001,  -45.779999,  -193.759995, 0.000000,  0.000000 
 28396544.000000, -12.011970 , 3.292524, -1.512264, 1767384064.000000, -23.520000,  2.590000,  -158.619995, 0.000000,  0.000000 
 28416768.000000, -12.110075 , 4.472186, -4.048656, 1767403264.000000, 42.630001,  32.340000,  -86.940002, 0.000000,  0.000000 
 28436736.000000, -11.303694 , 3.641876, -3.151347, 1767423232.000000, 15.470000,  48.790001,  -1.330000, 0.000000,  0.000000 
 28456960.000000, -10.102496 , 1.371087, -1.208375, 1767443200.000000, -91.000000,  77.980003,  50.119999, 0.000000,  0.000000 
 28477184.000000, -8.791230 , -0.177069, 0.253639, 1767463680.000000, -127.050003,  108.570000,  113.260002, 0.000000,  0.000000 
 28496640.000000, -8.432307 , -1.359123, 3.964907, 1767483904.000000, -60.970001,  137.059998,  193.339996, 0.000000,  0.000000 
 28516608.000000, -8.803195 , -6.685547, 8.066205, 1767503360.000000, 0.280000,  172.479996,  261.519989, 0.000000,  0.000000 
 28536576.000000, -9.085547 , -15.148960, 17.903099, 1767523328.000000, 17.570000,  208.809998,  309.750000, 0.000000,  0.000000 
 28556800.000000, -8.817552 , -22.229322, 26.036304, 1767543296.000000, -21.629999,  250.320007,  354.970001, 0.000000,  0.000000 
 28577280.000000, -8.975478 , -23.894726, 27.893135, 1767563520.000000, -94.080002,  285.950012,  387.170013, 0.000000,  0.000000 
 28596480.000000, -4.917251 , -20.616560, 27.079576, 1767583744.000000, -122.150002,  308.209991,  346.079987, 0.000000,  0.000000 
 28616448.000000, -0.086142 , -16.881365, 24.729820, 1767603200.000000, -125.790001,  305.619995,  304.570007, 0.000000,  0.000000 
 28636416.000000, 2.280360 , -14.115260, 21.485155, 1767623168.000000, -118.230003,  291.690002,  246.119995, 0.000000,  0.000000 
 28656896.000000, 4.010371 , -10.454242, 17.225931, 1767643136.000000, -68.250000,  247.380005,  185.430008, 0.000000,  0.000000 
 28677120.000000, 5.553742 , -7.879565, 12.849458, 1767683840.000000, -43.750000,  137.970001,  129.850006, 0.000000,  0.000000 
 28696576.000000, 8.090133 , -5.771489, 10.887343, 0.000000, 0.000000,  0.000000,  0.000000, 0.000000,  0.000000 
 28716544.000000, 10.037891 , -4.180261, 9.870394, 1767703296.000000, -98.489998,  97.160004,  123.900002, 0.000000,  0.000000 
 28736512.000000, 13.048061 , -3.196811, 9.731609, 1767723264.000000, -115.430000,  60.549999,  121.730003, 0.000000,  0.000000 
 28756736.000000, 15.067604 , -1.299303, 10.057034, 1767743232.000000, -88.830002,  16.450001,  110.669998, 0.000000,  0.000000 
 28776960.000000, 14.419148 , -0.217747, 9.920642, 1767763456.000000, -37.660000,  -36.189999,  71.680000, 4029348352.000000,  1005.735046 
 28796416.000000, 13.634303 , 0.100499, 8.348558, 1767783680.000000, 26.250000,  -92.120003,  -7.420000, 0.000000,  0.000000 
 28816384.000000, 11.140982 , -0.095713, 6.608976, 1767803136.000000, 96.599998,  -141.750000,  -75.809998, 0.000000,  0.000000 
 28836352.000000, 8.133204 , -1.014557, 7.444071, 1767823104.000000, 124.949997,  -172.899994,  -147.770004, 0.000000,  0.000000 
 28856832.000000, 7.085148 , -8.350951, 11.138590, 1767843072.000000, 67.690002,  -192.710007,  -195.649994, 0.000000,  0.000000 
 28878848.000000, 9.683753 , -25.323242, 24.160328, 1767863296.000000, -7.210000,  -211.750000,  -227.009995, 0.000000,  0.000000 
 28896256.000000, -1.473979 , -33.592838, 30.991838, 1767885568.000000, -30.730000,  -216.790009,  -230.860001, 0.000000,  0.000000 
 28916480.000000, -2.758924 , -31.546974, 30.348171, 1767902976.000000, 19.950001,  -237.300003,  -308.209991, 0.000000,  0.000000 
 28936448.000000, -4.852644 , -22.071394, 22.198217, 1767922944.000000, 93.660004,  -269.570007,  -280.839996, 0.000000,  0.000000 
 28956672.000000, -6.642475 , -17.290537, 19.479969, 1767942912.000000, 55.510002,  -301.489990,  -288.610016, 0.000000,  0.000000 
 28976896.000000, -10.030712 , -10.937593, 16.220945, 1767963392.000000, -7.070000,  -304.290009,  -315.420013, 0.000000,  0.000000 
 28996352.000000, -10.145569 , -5.836094, 10.439885, 1767983616.000000, -31.290001,  -267.119995,  -327.880005, 0.000000,  0.000000 
 29016320.000000, -7.432107 , -0.342174, 4.292724, 1768003072.000000, 44.660000,  -195.509995,  -278.739990, 0.000000,  0.000000 
 29036288.000000, -7.049256 , 3.505485, 2.830709, 1768023040.000000, 93.099998,  -133.699997,  -206.850006, 0.000000,  0.000000 
 29056768.000000, -11.399406 , 3.751946, 1.588834, 1768043008.000000, 35.000000,  -69.930000,  -197.190002, 0.000000,  0.000000 
 29076992.000000, -14.653646 , 1.871187, -1.414158, 1768063488.000000, -16.379999,  -11.760000,  -189.770004, 0.000000,  0.000000 
 29096192.000000, -12.665211 , 3.299703, -3.311667, 1768083456.000000, 28.280001,  39.689999,  -157.009995, 0.000000,  0.000000 
 29116160.000000, -11.241481 , 4.520042, -4.366901, 1768102912.000000, 72.940002,  65.590004,  -52.990002, 0.000000,  0.000000 
 29136128.000000, -11.815758 , 2.478964, -4.051049, 1768122880.000000, 36.680000,  79.379997,  26.670000, 0.000000,  0.000000 
 29156608.000000, -10.171888 , -0.423530, -2.828316, 1768142848.000000, -54.950001,  97.930000,  37.869999, 0.000000,  0.000000 
 29176832.000000, -6.692725 , -1.562513, -0.914058, 1768163328.000000, -70.489998,  118.300003,  96.320000, 0.000000,  0.000000 
 29196288.000000, -3.842873 , -0.921237, 3.838088, 1768183552.000000, -8.890000,  135.589996,  183.119995, 0.000000,  0.000000 
 29216256.000000, -7.147361 , -6.809973, 8.705089, 1768203008.000000, 31.850000,  174.860001,  263.760010, 0.000000,  0.000000 
 29236224.000000, -12.100503 , -17.620745, 17.649460, 1768222976.000000, -28.840000,  233.309998,  291.480011, 0.000000,  0.000000 
 29256448.000000, -14.909678 , -28.479374, 30.836306, 1768242944.000000, -171.080002,  264.739990,  345.799988, 0.000000,  0.000000 
 29276672.000000, -8.202596 , -26.014769, 29.144579, 1768263168.000000, -234.220001,  274.119995,  381.360016, 0.000000,  0.000000 
 29296128.000000, -2.368894 , -19.506290, 27.378677, 1768283392.000000, -157.500000,  250.529999,  354.480011, 0.000000,  0.000000 
 29316096.000000, -0.267996 , -14.739788, 23.109880, 1768302848.000000, -110.879997,  255.430008,  287.140015, 0.000000,  0.000000 
 29336064.000000, 1.488336 , -11.696117, 19.305294, 1768322816.000000, -93.379997,  246.750000,  202.300003, 0.000000,  0.000000 
 29356544.000000, 3.206382 , -8.851050, 15.005391, 1768342784.000000, -72.449997,  204.610001,  160.160004, 0.000000,  0.000000 
 29376768.000000, 4.395615 , -6.747760, 11.040483, 1768363008.000000, -53.619999,  144.270004,  161.000000, 0.000000,  0.000000 
 29396224.000000, 5.804988 , -6.802795, 8.886944, 1768383488.000000, -79.449997,  89.320000,  165.199997, 0.000000,  0.000000 
 29416192.000000, 6.841080 , -6.836295, 7.893922, 1768402688.000000, -126.070000,  43.400002,  181.089996, 0.000000,  0.000000 
 29436160.000000, 9.324830 , -5.225924, 6.841080, 1768422656.000000, -121.940002,  3.780000,  178.500000, 0.000000,  0.000000 
 29456384.000000, 13.730016 , -2.947958, 6.300302, 1768442880.000000, -67.760002,  -31.710001,  166.600006, 0.000000,  0.000000 
 29476608.000000, 17.412571 , -1.275374, 5.852845, 1768463104.000000, -16.170000,  -62.369999,  137.690002, 0.000000,  0.000000 
 29496064.000000, 16.651653 , -0.966700, 6.666404, 1768483328.000000, 11.270000,  -81.900002,  63.770000, 0.000000,  0.000000 
 29516032.000000, 15.139388 , -2.347359, 8.035098, 1768502784.000000, 28.420000,  -82.110001,  -48.930000, 0.000000,  0.000000 
 29536000.000000, 10.729417 , -6.386444, 6.924829, 1768522752.000000, 56.000000,  -84.840004,  -139.509995, 0.000000,  0.000000 
 29556224.000000, 8.159525 , -14.340185, 11.844472, 1768542720.000000, 73.500000,  -87.779999,  -234.919998, 0.000000,  0.000000 
 29576704.000000, 6.510870 , -27.251858, 21.820150, 1768562944.000000, 13.510000,  -97.090004,  -294.420013, 0.000000,  0.000000 
 29595904.000000, -0.313460 , -35.205601, 27.718458, 1768583168.000000, -35.000000,  -111.160004,  -307.019989, 0.000000,  0.000000 
 29615872.000000, -3.486342 , -33.351162, 26.586651, 1768602624.000000, 81.550003,  -146.720001,  -371.070007, 0.000000,  0.000000 
 29636096.000000, -4.606184 , -26.469402, 22.597815, 1768622592.000000, 191.520004,  -211.190002,  -385.489990, 0.000000,  0.000000 
 29656320.000000, -6.197411 , -18.647268, 19.499113, 1768642560.000000, 177.169998,  -267.540009,  -380.029999, 0.000000,  0.000000 
 29676544.000000, -8.616554 , -13.505091, 16.297516, 1768663040.000000, 119.209999,  -291.339996,  -368.480011, 0.000000,  0.000000 
 29696000.000000, -11.418550 , -9.059227, 12.837494, 1768683264.000000, 78.610001,  -265.089996,  -332.149994, 0.000000,  0.000000 
 29715968.000000, -14.493326 , -4.847858, 5.869594, 1768702720.000000, 85.330002,  -224.839996,  -290.640015, 0.000000,  0.000000 
 29735936.000000, -14.354543 , -0.062213, 2.356930, 1768722688.000000, 73.290001,  -196.699997,  -265.019989, 0.000000,  0.000000 
 29756160.000000, -12.638889 , 2.730211, -1.801795, 1768762880.000000, 29.610001,  -65.099998,  -144.550003, 4030347776.000000,  1005.734131 
 29776384.000000, -11.851650 , 3.510271, -3.172883, 0.000000, 0.000000,  0.000000,  0.000000, 0.000000,  0.000000 
 29795840.000000, -14.459827 , 3.247060, -3.141776, 1768783104.000000, -7.210000,  3.360000,  -109.760002, 0.000000,  0.000000 
 29815808.000000, -14.639289 , 3.318845, -3.225525, 1768802560.000000, -37.240002,  52.009998,  -72.379997, 0.000000,  0.000000 
 29835776.000000, -10.604989 , 3.479164, -0.588634, 1768822528.000000, -15.190001,  82.529999,  -12.600000, 0.000000,  0.000000 
 29856256.000000, -8.216952 , 2.766103, 0.306281, 1768842496.000000, 31.500000,  99.330002,  61.740002, 0.000000,  0.000000 
 29878272.000000, -5.632704 , 1.454836, 2.371287, 1768862720.000000, 53.060001,  124.879997,  129.220001, 0.000000,  0.000000 
 29895936.000000, -6.515656 , -3.407379, 6.556334, 1768884992.000000, 55.860001,  138.460007,  207.059998, 0.000000,  0.000000 
 29915904.000000, -9.317651 , -9.446864, 13.584054, 1768902400.000000, 56.910000,  169.399994,  240.800003, 0.000000,  0.000000 
 29935872.000000, -6.917650 , -19.326828, 24.674786, 1768922368.000000, 13.650000,  214.759995,  276.850006, 0.000000,  0.000000 
 29956096.000000, -3.905087 , -16.948362, 31.520651, 1768942592.000000, -26.880001,  245.979996,  331.799988, 0.000000,  0.000000 
 29976320.000000, -3.601198 , -14.091332, 31.403406, 1768962816.000000, -11.690000,  269.779999,  376.390015, 0.000000,  0.000000 
 29995776.000000, -3.909872 , -12.964314, 27.156143, 1768983040.000000, 2.730000,  262.779999,  348.459991, 0.000000,  0.000000 
 30015744.000000, 0.212961 , -12.535997, 23.392235, 1769002496.000000, -92.750000,  273.559998,  263.829987, 0.000000,  0.000000 
 30035712.000000, 3.275774 , -8.626125, 22.514069, 1769022464.000000, -92.470001,  246.259995,  225.820007, 0.000000,  0.000000 
 30055936.000000, 4.553542 , -4.888536, 16.912472, 1769042432.000000, -30.730000,  211.259995,  203.139999, 0.000000,  0.000000 
 30076416.000000, 5.496314 , -4.955536, 12.320643, 1769062656.000000, 4.340000,  176.610001,  179.619995, 0.000000,  0.000000 
 30095616.000000, 7.068398 , -5.302495, 9.645468, 1769082880.000000, -44.939999,  146.369995,  146.860001, 0.000000,  0.000000 
 30115840.000000, 9.511470 , -5.079963, 8.819944, 1769122304.000000, -117.879997,  85.820000,  123.199997, 0.000000,  0.000000 
 30135808.000000, 12.607781 , -3.716053, 8.523234, 0.000000, 0.000000,  0.000000,  0.000000, 0.000000,  0.000000 
 30156032.000000, 15.211173 , -1.636691, 7.231110, 1769142272.000000, -51.939999,  45.360001,  113.190002, 0.000000,  0.000000 
 30176256.000000, 16.656439 , 0.296710, 5.285746, 1769182976.000000, 34.509998,  -58.520000,  12.810000, 0.000000,  0.000000 
 30195712.000000, 15.352350 , 1.036092, 5.627919, 0.000000, 0.000000,  0.000000,  0.000000, 0.000000,  0.000000 
 30215680.000000, 12.361321 , -0.983450, 7.688138, 1769202432.000000, 11.970000,  -108.080002,  -70.000000, 0.000000,  0.000000 
 30235648.000000, 9.755538 , -4.091727, 9.075976, 1769222400.000000, -9.940000,  -148.610001,  -153.789993, 0.000000,  0.000000 
 30255872.000000, 7.881958 , -9.456435, 11.320443, 1769242368.000000, 5.530000,  -186.759995,  -217.839996, 0.000000,  0.000000 
 30276096.000000, 9.315259 , -21.320049, 21.958933, 1769262592.000000, -27.090000,  -222.250000,  -279.790009, 0.000000,  0.000000 
 30295552.000000, 5.393422 , -37.753956, 32.437103, 1769282816.000000, -147.699997,  -235.410004,  -313.390015, 0.000000,  0.000000 
 30315520.000000, -6.271588 , -37.789848, 30.833914, 1769302272.000000, -185.360001,  -234.080002,  -349.860016, 0.000000,  0.000000 
 30335488.000000, -6.446264 , -23.906691, 22.844278, 1769322240.000000, 40.950001,  -261.589996,  -407.959991, 0.000000,  0.000000 
 30355968.000000, -3.943372 , -14.512468, 16.450655, 1769342208.000000, 179.690002,  -319.410004,  -353.989990, 0.000000,  0.000000 
 30376192.000000, -6.484549 , -9.454042, 14.904892, 1769362688.000000, 133.419998,  -346.779999,  -330.610016, 0.000000,  0.000000 
 30395648.000000, -9.111869 , -5.962914, 10.863414, 1769382912.000000, 39.270000,  -300.720001,  -326.899994, 0.000000,  0.000000 
 30415616.000000, -9.071191 , -0.952343, 3.548556, 1769402368.000000, 37.520000,  -208.250000,  -287.140015, 0.000000,  0.000000 
 30435584.000000, -7.491928 , 3.890730, 1.045663, 1769422336.000000, 70.629997,  -155.539993,  -218.540009, 0.000000,  0.000000 
 30455808.000000, -7.520642 , 5.379066, 0.181855, 1769442304.000000, 43.959999,  -93.660004,  -189.910004, 0.000000,  0.000000 
 30476032.000000, -9.769895 , 3.254239, -0.241675, 1769462528.000000, -20.299999,  -21.559999,  -190.889999, 0.000000,  0.000000 
 30495488.000000, -10.301102 , 4.173083, -0.581456, 1769482752.000000, -33.740002,  48.020000,  -188.509995, 0.000000,  0.000000 
 30515456.000000, -10.913664 , 5.178068, -1.730011, 1769502208.000000, 6.720000,  83.720001,  -99.750000, 0.000000,  0.000000 
 30535424.000000, -13.038490 , 4.409972, -0.787239, 1769522176.000000, 40.459999,  108.570000,  -4.200000, 0.000000,  0.000000 
 30555904.000000, -10.655239 , 2.215754, 0.586242, 1769542144.000000, 2.030000,  140.000000,  50.259998, 0.000000,  0.000000 
 30576128.000000, -7.501499 , 0.827917, 2.687140, 1769562368.000000, -53.549999,  152.669998,  125.440002, 0.000000,  0.000000 
 30595328.000000, -6.613762 , -0.887737, 5.166104, 1769582848.000000, -84.910004,  158.970001,  191.800003, 0.000000,  0.000000 
 30615552.000000, -6.707082 , -5.199604, 10.183852, 1769602048.000000, -107.940002,  168.839996,  227.290009, 0.000000,  0.000000 
 30635520.000000, -5.211568 , -10.762917, 16.158731, 1769622016.000000, -100.660004,  180.110001,  245.070007, 0.000000,  0.000000 
 30655744.000000, -1.488336 , -13.572090, 22.011574, 1769641984.000000, -20.020000,  192.080002,  282.239990, 0.000000,  0.000000 
 30675968.000000, -7.008578 , -14.679967, 27.694530, 1769662464.000000, 59.360001,  212.869995,  355.320007, 0.000000,  0.000000 
 30695424.000000, -10.930414 , -17.123037, 26.763721, 1769682688.000000, 56.490002,  267.190002,  328.790009, 0.000000,  0.000000 
 30715392.000000, -2.356930 , -13.808979, 24.904497, 1769702144.000000, 1.820000,  278.670013,  274.260010, 0.000000,  0.000000 
 30735360.000000, 4.441079 , -8.975478, 22.224537, 1769722112.000000, -36.330002,  265.860016,  236.529999, 0.000000,  0.000000 
 30755840.000000, 4.668397 , -9.104690, 19.384256, 1769762304.000000, -31.990000,  247.589996,  122.360001, 0.000000,  0.000000 
 30776064.000000, 1.763510 , -9.915856, 18.300308, 0.000000, 0.000000,  0.000000,  0.000000, 4031347200.000000,  1005.733154 
 30795264.000000, 3.390630 , -7.999206, 15.397814, 1769782528.000000, -42.139999,  209.089996,  75.250000, 0.000000,  0.000000 
 30815232.000000, 6.151947 , -4.828716, 11.856436, 1769801984.000000, -40.670002,  152.460007,  88.199997, 0.000000,  0.000000 
 30835200.000000, 9.241080 , -2.270789, 8.650054, 1769821952.000000, -51.939999,  99.680000,  103.180000, 0.000000,  0.000000 
 30855680.000000, 12.937992 , 0.562313, 7.305287, 1769841920.000000, -78.120003,  62.860001,  111.790001, 0.000000,  0.000000 
 30877952.000000, 13.205987 , 2.254039, 8.092526, 1769862400.000000, -105.840004,  30.799999,  115.570000, 0.000000,  0.000000 
 30895360.000000, 12.335001 , 2.531606, 9.595219, 1769884416.000000, -122.849998,  -7.840000,  62.369999, 0.000000,  0.000000 
 30915584.000000, 14.474185 , 3.747160, 5.548956, 1769902080.000000, -64.889999,  -64.470001,  3.920000, 0.000000,  0.000000 
 30935296.000000, 13.062418 , 4.591826, 2.773281, 1769922304.000000, 96.529999,  -135.240005,  -23.940001, 0.000000,  0.000000 
 30955776.000000, 10.023535 , 3.988836, 2.931208, 1769942016.000000, 207.130005,  -196.699997,  -85.400002, 0.000000,  0.000000 
 30975744.000000, 9.973285 , 1.191626, 3.859623, 1769962240.000000, 199.009995,  -224.630005,  -124.110001, 0.000000,  0.000000 
 30995200.000000, 13.799409 , -3.744767, 17.024933, 1769982464.000000, 123.340004,  -234.710007,  -138.669998, 0.000000,  0.000000 
 31015168.000000, 14.368899 , -25.624739, 35.633915, 1770001920.000000, 12.880000,  -217.070007,  -148.399994, 0.000000,  0.000000 
 31035136.000000, 0.246461 , -30.089745, 40.685162, 1770021888.000000, -108.500000,  -190.820007,  -157.220001, 0.000000,  0.000000 
 31055616.000000, -9.705289 , -16.106089, 35.801411, 1770041856.000000, 83.230003,  -177.800003,  -238.279999, 0.000000,  0.000000 
 31075840.000000, -8.786445 , -9.803394, 26.964718, 1770062080.000000, 239.399994,  -244.229996,  -222.320007, 0.000000,  0.000000 
 31095296.000000, -4.711468 , -8.575876, 21.080769, 1770082560.000000, 55.160000,  -346.010010,  -151.339996, 0.000000,  0.000000 
 31115264.000000, -5.565705 , -5.685347, 15.601204, 1770101760.000000, -83.090004,  -362.880005,  -201.110001, 0.000000,  0.000000 
 31135232.000000, -8.953942 , -3.168097, 9.662218, 1770121728.000000, -110.599998,  -298.130005,  -242.970001, 0.000000,  0.000000 
 31155456.000000, -10.559525 , 0.368495, 4.567898, 1770141952.000000, -64.190002,  -213.779999,  -266.980011, 0.000000,  0.000000 
 31175680.000000, -12.476178 , 3.814159, 1.354338, 1770162176.000000, -34.650002,  -159.669998,  -248.080002, 0.000000,  0.000000 
 31195136.000000, -17.326429 , 3.603590, -1.878366, 1770182400.000000, -56.000000,  -114.029999,  -232.050003, 0.000000,  0.000000 
 31215104.000000, -17.783459 , 3.256632, -2.653640, 1770201856.000000, -107.099998,  -41.020000,  -232.050003, 0.000000,  0.000000 
 31235072.000000, -12.799208 , 3.737589, -2.928815, 1770221824.000000, -141.050003,  0.840000,  -172.339996, 0.000000,  0.000000 
 31255296.000000, -11.485549 , 4.208975, -3.203990, 1770241792.000000, -144.339996,  11.970000,  -58.240002, 0.000000,  0.000000 
 31275776.000000, -10.408779 , 3.747160, -3.101098, 1770262016.000000, -136.289993,  52.990002,  25.480000, 0.000000,  0.000000 
 31294976.000000, -8.106883 , 2.730211, -2.203789, 1770282240.000000, -124.949997,  83.300003,  112.419998, 0.000000,  0.000000 
 31314944.000000, -4.845466 , 1.438086, -1.234696, 1770301696.000000, -105.209999,  105.699997,  199.779999, 0.000000,  0.000000 
 31334912.000000, -4.460221 , -3.247060, 3.359523, 1770321664.000000, -85.470001,  143.080002,  289.309998, 0.000000,  0.000000 
 31355392.000000, -12.390036 , -11.825329, 14.703895, 1770341632.000000, -94.220001,  229.180008,  358.959991, 0.000000,  0.000000 
 31375616.000000, -24.423540 , -27.414570, 25.801805, 1770362112.000000, -162.399994,  318.570007,  427.350006, 0.000000,  0.000000 
 31395072.000000, -17.180466 , -41.192440, 32.618958, 1770382336.000000, -216.649994,  340.899994,  442.820007, 0.000000,  0.000000 
 31415040.000000, -2.397608 , -27.661030, 31.068409, 1770401792.000000, -138.949997,  269.360016,  369.250000, 0.000000,  0.000000 
 31435008.000000, -1.074377 , -21.162125, 26.007591, 1770421760.000000, -47.740002,  203.000000,  376.320007, 0.000000,  0.000000 
 31455232.000000, -0.440279 , -15.823736, 22.112072, 1770441728.000000, -56.209999,  194.880005,  227.430008, 0.000000,  0.000000 
 31475456.000000, 3.388237 , -9.475577, 15.579668, 1770461952.000000, -23.660000,  150.850006,  172.479996, 0.000000,  0.000000 
 31494912.000000, 5.271388 , -5.991628, 12.411572, 1770482176.000000, 7.840000,  95.410004,  174.440002, 0.000000,  0.000000 
 31514880.000000, 5.020142 , -4.421937, 9.317651, 1770501632.000000, -45.290001,  52.150002,  147.910004, 0.000000,  0.000000 
 31534848.000000, 6.865008 , -3.390630, 6.324231, 1770521600.000000, -83.160004,  16.590000,  119.489998, 0.000000,  0.000000 
 31555328.000000, 8.403593 , -2.261217, 4.759324, 1770541568.000000, -87.220001,  -5.180000,  117.110001, 0.000000,  0.000000 
 31575552.000000, 10.305886 , -0.777667, 5.185246, 1770561792.000000, -64.050003,  -21.700001,  104.019997, 0.000000,  0.000000 
 31595008.000000, 12.366108 , 0.131605, 5.271388, 1770582272.000000, -28.210001,  -41.299999,  96.879997, 0.000000,  0.000000 
 31614976.000000, 13.478769 , 1.277767, 4.677969, 1770601472.000000, 26.809999,  -65.169998,  82.459999, 0.000000,  0.000000 
 31634944.000000, 11.973685 , 0.801596, 5.582455, 1770621440.000000, 58.869999,  -86.449997,  42.910000, 0.000000,  0.000000 
 31655168.000000, 10.255639 , -2.837888, 9.643075, 1770641664.000000, 17.639999,  -107.590004,  -26.460001, 0.000000,  0.000000 
 31675392.000000, 8.408379 , -9.186047, 11.822936, 1770661888.000000, -39.759998,  -129.570007,  -97.160004, 0.000000,  0.000000 
 31694848.000000, 7.826923 , -18.309877, 16.532011, 1770682112.000000, -23.799999,  -159.600006,  -176.399994, 0.000000,  0.000000 
 31714816.000000, 7.460821 , -27.065218, 23.858835, 1770701568.000000, 4.130000,  -194.949997,  -249.199997, 0.000000,  0.000000 
 31734784.000000, 3.735196 , -33.868011, 27.527033, 1770721536.000000, -23.590000,  -225.119995,  -285.600006, 0.000000,  0.000000 
 31755264.000000, -1.557728 , -30.008390, 26.112873, 1770741504.000000, -79.940002,  -256.130005,  -364.279999, 0.000000,  0.000000 
 31775488.000000, -5.225924 , -20.425133, 15.641882, 1770761728.000000, 13.720000,  -278.320007,  -388.079987, 4032346624.000000,  1005.733459 
 31794688.000000, -4.867002 , -13.856836, 13.622340, 1770781952.000000, 93.800003,  -290.709991,  -398.790009, 0.000000,  0.000000 
 31814656.000000, -9.951750 , -10.545169, 14.670395, 1770801408.000000, 118.510002,  -294.140015,  -380.450012, 0.000000,  0.000000 
 31834880.000000, -14.550755 , -6.798009, 6.855437, 1770821376.000000, 3.150000,  -247.169998,  -377.089996, 0.000000,  0.000000 
 31855104.000000, -11.078769 , 0.081356, 2.955136, 1770841344.000000, 26.389999,  -163.660004,  -368.690002, 0.000000,  0.000000 
 31877376.000000, -10.073784 , 3.208775, 2.584249, 1770861824.000000, 108.430000,  -101.430000,  -289.380005, 0.000000,  0.000000 
 31894784.000000, -15.201601 , 4.800002, 1.337588, 1770884096.000000, 62.439999,  -57.820000,  -215.880005, 0.000000,  0.000000 
 31914752.000000, -16.520048 , 3.335595, -0.421137, 1770901504.000000, 10.150000,  -8.050000,  -205.029999, 0.000000,  0.000000 
 31934720.000000, -10.717452 , 5.402994, -2.177469, 1770921472.000000, 19.670000,  31.780001,  -140.559998, 0.000000,  0.000000 
 31955200.000000, -9.561719 , 6.111269, -3.187240, 1770941440.000000, 31.360001,  47.459999,  -2.660000, 0.000000,  0.000000 
 31975168.000000, -10.104890 , 3.022135, -2.335395, 1770961920.000000, -31.010000,  77.840004,  61.180000, 0.000000,  0.000000 
 31994624.000000, -9.738789 , -0.507278, -1.732404, 1770981888.000000, -104.510002,  104.510002,  91.070000, 0.000000,  0.000000 
 32014592.000000, -7.829315 , -0.679562, -0.148355, 1771001344.000000, -101.290001,  133.000000,  167.860001, 0.000000,  0.000000 
 32034560.000000, -12.813565 , -6.041877, 11.265409, 1771021312.000000, -52.080002,  156.660004,  259.209991, 0.000000,  0.000000 
 32055040.000000, -21.454048 , -10.985448, 7.611568, 1771041280.000000, -11.830000,  87.290001,  292.950012, 0.000000,  0.000000 
 32075264.000000, -7.544570 , -24.940390, 21.942183, 1771061504.000000, -112.070000,  471.589996,  331.519989, 0.000000,  0.000000 
 32094720.000000, -10.731809 , -31.680971, 27.725636, 1771081984.000000, -237.860001,  251.649994,  459.059998, 0.000000,  0.000000 
 32114688.000000, -5.898308 , -32.183464, 26.890541, 1771101184.000000, -289.100006,  211.610001,  381.779999, 0.000000,  0.000000 
 32134656.000000, 2.974278 , -23.174488, 23.507088, 1771121408.000000, -239.820007,  162.610001,  343.630005, 0.000000,  0.000000 
 32154880.000000, 6.183054 , -16.546368, 18.697515, 1771141376.000000, -127.260002,  146.160004,  314.019989, 0.000000,  0.000000 
 32175104.000000, 5.106283 , -11.437693, 14.285151, 1771161600.000000, -4.970000,  134.330002,  240.449997, 0.000000,  0.000000 
 32194560.000000, 5.340781 , -7.659425, 11.282159, 1771181824.000000, 67.269997,  103.669998,  170.589996, 0.000000,  0.000000 
 32214528.000000, 8.250452 , -5.204390, 9.217153, 1771201280.000000, 62.369999,  67.970001,  144.899994, 0.000000,  0.000000 
 32234496.000000, 9.678967 , -3.034099, 8.788837, 1771221248.000000, 42.490002,  34.509998,  152.460007, 0.000000,  0.000000 
 32254976.000000, 11.059627 , -1.938186, 8.501699, 1771241216.000000, 37.590000,  7.420000,  137.410004, 0.000000,  0.000000 
 32275200.000000, 13.390236 , 0.205783, 8.846266, 1771261440.000000, 67.480003,  -23.100000,  125.440002, 0.000000,  0.000000 
 32294400.000000, 13.277774 , 2.474179, 7.960921, 1771281920.000000, 116.620003,  -64.260002,  109.340004, 0.000000,  0.000000 
 32314624.000000, 12.662818 , 3.177669, 6.623333, 1771301120.000000, 149.380005,  -112.770004,  61.740002, 0.000000,  0.000000 
 32334592.000000, 11.648260 , 1.239482, 5.953342, 1771321088.000000, 133.699997,  -162.399994,  -0.140000, 0.000000,  0.000000 
 32354816.000000, 9.171689 , -4.551149, 6.606583, 1771341056.000000, 47.110001,  -202.020004,  -57.260002, 0.000000,  0.000000 
 32375040.000000, 7.642675 , -14.742181, 8.702696, 1771361536.000000, -67.760002,  -229.110001,  -119.699997, 0.000000,  0.000000 
 32394496.000000, 7.848458 , -25.603203, 17.661423, 1771381760.000000, -124.809998,  -252.559998,  -186.830002, 0.000000,  0.000000 
 32414464.000000, 3.964907 , -31.221550, 23.018953, 1771401216.000000, -110.250000,  -255.009995,  -243.600006, 0.000000,  0.000000 
 32434432.000000, 0.277567 , -30.972694, 22.171894, 1771421184.000000, 1.820000,  -246.610001,  -278.880005, 0.000000,  0.000000 
 32454656.000000, -1.363909 , -20.817558, 16.218552, 1771441152.000000, 23.450001,  -261.380005,  -317.869995, 0.000000,  0.000000 
 32475136.000000, -1.509871 , -13.933406, 12.581462, 1771461376.000000, 9.030000,  -270.410004,  -321.790009, 0.000000,  0.000000 
 32494336.000000, -2.725425 , -11.547763, 13.514663, 1771481600.000000, -35.279999,  -253.259995,  -330.610016, 0.000000,  0.000000 
 32514304.000000, -8.015956 , -9.042477, 12.760924, 1771501056.000000, -103.809998,  -189.839996,  -316.959991, 0.000000,  0.000000 
 32534272.000000, -9.439686 , -3.708875, 8.666803, 1771521024.000000, -84.769997,  -106.050003,  -310.519989, 0.000000,  0.000000 
 32554752.000000, -7.515855 , 1.651048, 7.329216, 1771561472.000000, 8.750000,  -22.049999,  -221.970001, 0.000000,  0.000000 
 32574976.000000, -9.968499 , 5.419744, 5.309673, 0.000000, 0.000000,  0.000000,  0.000000, 0.000000,  0.000000 
 32594432.000000, -13.942977 , 5.692525, 2.995814, 1771581696.000000, 8.960000,  18.270000,  -220.639999, 0.000000,  0.000000 
 32614400.000000, -11.504691 , 5.618347, 1.677369, 1771601152.000000, 27.020000,  58.869999,  -197.820007, 0.000000,  0.000000 
 32634368.000000, -9.533006 , 7.960921, -0.378066, 1771621120.000000, 60.410000,  72.309998,  -127.540001, 0.000000,  0.000000 
 32654592.000000, -10.671989 , 7.197611, -1.083949, 1771641088.000000, 55.439999,  75.529999,  -30.380001, 0.000000,  0.000000 
 32674816.000000, -9.690931 , 4.371687, -0.648455, 1771661312.000000, -15.050000,  91.980003,  20.090000, 0.000000,  0.000000 
 32694272.000000, -6.876972 , 3.081956, 0.409173, 1771681536.000000, -74.410004,  113.959999,  83.930000, 0.000000,  0.000000 
 32714240.000000, -5.888737 , 0.248854, 5.032106, 1771700992.000000, -97.650002,  140.910004,  161.139999, 0.000000,  0.000000 
 32734208.000000, -9.186047 , -7.391429, 11.526227, 1771720960.000000, -107.239998,  178.220001,  223.860001, 0.000000,  0.000000 
 32754688.000000, -12.196217 , -19.417757, 20.973089, 1771740928.000000, -112.279999,  222.740005,  285.390015, 0.000000,  0.000000 
 32774912.000000, -10.983055 , -26.572294, 29.556143, 1771761408.000000, -152.669998,  249.759995,  339.079987, 4033346048.000000,  1005.731262 
 32794112.000000, -6.199803 , -24.277578, 27.204002, 1771781632.000000, -168.770004,  255.570007,  338.029999, 0.000000,  0.000000 
 32814336.000000, 0.160319 , -18.991835, 25.402205, 1771800832.000000, -162.750000,  225.889999,  289.309998, 0.000000,  0.000000 
 32834304.000000, 4.208975 , -14.043476, 21.042482, 1771820800.000000, -189.910004,  208.039993,  239.119995, 0.000000,  0.000000 
 32854528.000000, 4.634897 , -10.578669, 16.668402, 1771840768.000000, -136.850006,  187.949997,  208.809998, 0.000000,  0.000000 
 32876800.000000, 4.610970 , -7.219146, 13.409377, 1771861248.000000, -44.660000,  152.880005,  170.660004, 0.000000,  0.000000 
 32894208.000000, 7.496714 , -5.230711, 10.664811, 1771900928.000000, 2.730000,  67.129997,  163.309998, 0.000000,  0.000000 
 32914176.000000, 10.571491 , -2.804388, 8.126025, 0.000000, 0.000000,  0.000000,  0.000000, 0.000000,  0.000000 
 32934144.000000, 13.095919 , -0.854238, 6.735795, 1771920896.000000, 16.450001,  28.000000,  171.779999, 0.000000,  0.000000 
 32954368.000000, 13.895120 , 0.200997, 5.639884, 1771940864.000000, 14.490000,  -8.190000,  159.320007, 0.000000,  0.000000 
 32974848.000000, 14.560326 , 0.512064, 4.551149, 1771961088.000000, 14.490000,  -46.970001,  128.169998, 0.000000,  0.000000 
 32994048.000000, 14.483756 , 0.007178, 4.206582, 1771981312.000000, -9.310000,  -88.900002,  59.709999, 0.000000,  0.000000 
 33014016.000000, 11.767902 , -2.400001, 4.998606, 1772000768.000000, -41.720001,  -120.260002,  -28.210001, 0.000000,  0.000000 
 33033984.000000, 9.195618 , -6.575477, 5.520242, 1772020736.000000, -62.650002,  -130.690002,  -125.510002, 0.000000,  0.000000 
 33054464.000000, 9.274581 , -12.921242, 9.073583, 1772040704.000000, -24.500000,  -132.860001,  -201.110001, 0.000000,  0.000000 
 33074688.000000, 10.858629 , -24.308687, 18.805193, 1772061184.000000, 4.620000,  -136.430008,  -249.550003, 0.000000,  0.000000 
 33094144.000000, 3.701697 , -32.561531, 22.633709, 1772081408.000000, -25.129999,  -144.410004,  -236.460007, 0.000000,  0.000000 
 33114112.000000, 0.823131 , -29.324041, 21.669403, 1772100864.000000, -46.900002,  -172.410004,  -333.269989, 0.000000,  0.000000 
 33134080.000000, -0.294317 , -20.676382, 16.369299, 1772120832.000000, 6.650000,  -220.710007,  -344.540009, 0.000000,  0.000000 
 33154304.000000, -1.998007 , -15.184854, 13.966907, 1772140800.000000, 41.509998,  -249.410004,  -347.200012, 0.000000,  0.000000 
 33174528.000000, -4.689932 , -11.064411, 12.040684, 1772161024.000000, 26.389999,  -238.350006,  -337.399994, 0.000000,  0.000000 
 33193984.000000, -8.611769 , -5.994020, 6.886543, 1772181248.000000, 3.150000,  -180.880005,  -297.920013, 0.000000,  0.000000 
 33213952.000000, -9.360723 , -1.349552, 5.711668, 1772200704.000000, -28.630001,  -113.120003,  -270.339996, 0.000000,  0.000000 
 33233920.000000, -7.678568 , 1.459622, 5.094319, 1772220672.000000, -76.650002,  -27.860001,  -252.139999, 0.000000,  0.000000 
 33254400.000000, -11.449656 , 2.969493, 1.406980, 1772240640.000000, -71.610001,  45.080002,  -218.960007, 0.000000,  0.000000 
 33274624.000000, -14.344972 , 6.027520, -0.770489, 1772260864.000000, 27.090000,  101.779999,  -199.360001, 0.000000,  0.000000 
 33294080.000000, -10.181459 , 6.345766, -2.811567, 1772281344.000000, 82.389999,  122.919998,  -106.540001, 0.000000,  0.000000 
 33314048.000000, -9.513863 , 5.529813, -3.510271, 1772300544.000000, 78.400002,  114.800003,  7.840000, 0.000000,  0.000000 
 33334016.000000, -9.793823 , 4.455436, -3.072384, 1772320512.000000, 13.230000,  116.970001,  47.950001, 0.000000,  0.000000 
 33354240.000000, -8.932407 , 1.914258, 0.528814, 1772340736.000000, -67.550003,  130.339996,  130.830002, 0.000000,  0.000000 
 33374464.000000, -9.442079 , -3.766303, 5.656632, 1772360960.000000, -122.779999,  137.059998,  199.850006, 0.000000,  0.000000 
 33393920.000000, -11.944970 , -13.265808, 11.523834, 1772381184.000000, -132.020004,  142.729996,  232.750000, 0.000000,  0.000000 
 33413888.000000, -11.519048 , -20.377277, 18.642481, 1772400640.000000, -80.570000,  137.690002,  258.929993, 0.000000,  0.000000 
 33433856.000000, -10.277173 , -21.456440, 21.590439, 1772420608.000000, -35.209999,  135.869995,  324.309998, 0.000000,  0.000000 
 33454080.000000, -9.332008 , -21.779470, 22.736601, 1772440576.000000, -39.480000,  143.500000,  329.350006, 0.000000,  0.000000 
 33474560.000000, -5.824130 , -20.511278, 22.363321, 1772460800.000000, -116.620003,  164.850006,  278.040009, 0.000000,  0.000000 
 33493760.000000, -1.598405 , -15.610775, 20.319851, 1772481024.000000, -173.460007,  167.580002,  232.610001, 0.000000,  0.000000 
 33513728.000000, 1.816152 , -10.889735, 16.500904, 1772500480.000000, -89.040001,  153.020004,  212.589996, 0.000000,  0.000000 
 33533952.000000, 2.955136 , -7.733603, 13.064812, 1772520448.000000, 34.509998,  129.289993,  210.699997, 0.000000,  0.000000 
 33554176.000000, 2.321038 , -6.357729, 10.928021, 1772540416.000000, 54.670002,  100.730003,  200.199997, 0.000000,  0.000000 
 33574400.000000, 4.445865 , -6.905686, 9.473185, 1772560896.000000, -19.180000,  69.230003,  180.529999, 0.000000,  0.000000 
 33593856.000000, 7.066005 , -6.726225, 8.551948, 1772581120.000000, -88.059998,  38.360001,  187.949997, 0.000000,  0.000000 
 33613824.000000, 9.186047 , -5.812167, 7.989635, 1772600576.000000, -109.690002,  8.890000,  192.430008, 0.000000,  0.000000 
 33633792.000000, 12.318252 , -4.388437, 8.011170, 1772620544.000000, -96.110001,  -22.190001,  180.880005, 0.000000,  0.000000 
 33654016.000000, 16.120445 , -2.153540, 8.956335, 1772640512.000000, -77.629997,  -59.990002,  162.050003, 0.000000,  0.000000 
 33674240.000000, 17.362320 , -1.253839, 11.961720, 1772660736.000000, -81.410004,  -102.550003,  107.940002, 0.000000,  0.000000 
 33693696.000000, 14.991035 , -4.618148, 16.304693, 1772680960.000000, -94.709999,  -122.430000,  7.000000, 0.000000,  0.000000 
 33713664.000000, 11.657832 , -10.042676, 19.903500, 1772700416.000000, -144.830002,  -159.740005,  -54.599998, 0.000000,  0.000000 
 33733632.000000, 8.250452 , -17.034504, 16.208981, 1772720384.000000, -210.770004,  -221.339996,  -170.729996, 0.000000,  0.000000 
 33754112.000000, 6.709475 , -25.418953, 15.077175, 1772760832.000000, -249.550003,  -369.950012,  -387.100006, 4034345728.000000,  1005.733093 
 33774336.000000, 3.244668 , -27.814171, 14.768501, 0.000000, 0.000000,  0.000000,  0.000000, 0.000000,  0.000000 
 33793792.000000, -2.086541 , -28.864618, 9.231510, 1772781056.000000, -89.529999,  -398.929993,  -397.880005, 0.000000,  0.000000 
 33813760.000000, 2.574677 , -23.935404, 4.943572, 1772800256.000000, 97.370003,  -409.149994,  -405.160004, 0.000000,  0.000000 
 33833728.000000, -0.375673 , -22.260429, 2.462214, 1772820480.000000, 80.010002,  -371.559998,  -312.339996, 0.000000,  0.000000 
 33853952.000000, -3.888337 , -18.666409, 2.979064, 1772840448.000000, -59.220001,  -304.149994,  -315.559998, 0.000000,  0.000000 
 33876224.000000, -2.909672 , -13.055241, 0.763310, 1772860672.000000, -159.250000,  -176.680008,  -307.089996, 0.000000,  0.000000 
 33893632.000000, -0.736989 , -7.613962, 0.162712, 1772882944.000000, -164.990005,  -29.049999,  -274.890015, 0.000000,  0.000000 
 33913600.000000, -3.601198 , -3.881158, 0.447458, 1772900352.000000, -101.989998,  106.120003,  -221.899994, 0.000000,  0.000000 
 33933568.000000, -7.791030 , -0.602991, 2.651247, 1772920320.000000, -58.240002,  208.389999,  -222.949997, 0.000000,  0.000000 
 33953792.000000, -11.090734 , 0.610170, 2.617748, 1772940288.000000, -33.389999,  265.230011,  -212.589996, 0.000000,  0.000000 
 33974272.000000, -13.287343 , 2.959922, 3.199204, 1772960512.000000, 44.730000,  283.290009,  -162.539993, 0.000000,  0.000000 
 33993472.000000, -10.164711 , 4.352544, 2.210968, 1772980992.000000, 119.699997,  267.540009,  -99.050003, 0.000000,  0.000000 
 34013696.000000, -9.274581 , 6.116055, 0.942772, 1773000192.000000, 145.389999,  228.550003,  7.140000, 0.000000,  0.000000 
 34033664.000000, -8.879765 , 6.192625, 2.435893, 1773020160.000000, 106.050003,  190.750000,  58.869999, 0.000000,  0.000000 
 34053888.000000, -7.726424 , 3.058028, 2.656033, 1773040128.000000, 12.880000,  164.919998,  101.290001, 0.000000,  0.000000 
 34074112.000000, -7.733603 , 2.471786, 0.720240, 1773060608.000000, -23.870001,  147.350006,  147.419998, 0.000000,  0.000000 
 34093568.000000, -5.484349 , 1.696511, 5.175675, 1773080832.000000, -28.490000,  132.369995,  204.960007, 0.000000,  0.000000 
 34113536.000000, -7.465607 , -3.519842, 10.765309, 1773100288.000000, -69.580002,  130.410004,  268.869995, 0.000000,  0.000000 
 34133504.000000, -11.119448 , -14.636896, 12.842279, 1773120256.000000, -131.669998,  135.589996,  296.309998, 0.000000,  0.000000 
 34153728.000000, -17.565710 , -21.571295, 18.128025, 1773140224.000000, -83.650002,  129.850006,  304.149994, 0.000000,  0.000000 
 34173952.000000, -21.693331 , -30.137600, 22.686352, 1773160448.000000, -136.919998,  159.250000,  376.459991, 0.000000,  0.000000 
 34193408.000000, -7.161718 , -24.861425, 21.832115, 1773180672.000000, -273.000000,  174.229996,  379.610016, 0.000000,  0.000000 
 34213376.000000, -3.704089 , -18.451056, 19.460827, 1773200128.000000, -136.639999,  173.250000,  255.639999, 0.000000,  0.000000 
 34233344.000000, -0.471386 , -14.474185, 16.201803, 1773220096.000000, -62.930000,  179.479996,  220.080002, 0.000000,  0.000000 
 34253824.000000, 0.555135 , -13.308880, 13.450057, 1773240064.000000, -2.100000,  169.190002,  183.889999, 0.000000,  0.000000 
 34274048.000000, -1.002593 , -12.179466, 11.282159, 1773260544.000000, -7.210000,  141.610001,  173.949997, 0.000000,  0.000000 
 34293504.000000, 1.215554 , -11.227123, 10.078569, 1773280768.000000, -35.840000,  95.199997,  147.210007, 0.000000,  0.000000 
 34313472.000000, 4.651647 , -9.513863, 10.523634, 1773299968.000000, -88.410004,  52.570000,  149.449997, 0.000000,  0.000000 
 34333440.000000, 8.123632 , -7.489535, 10.530812, 1773320192.000000, -95.970001,  22.960001,  157.220001, 0.000000,  0.000000 
 34353664.000000, 12.976277 , -5.103891, 11.210374, 1773340160.000000, -44.660000,  -14.210000,  158.479996, 0.000000,  0.000000 
 34373888.000000, 18.209379 , -2.227718, 12.916457, 1773360384.000000, 5.180000,  -68.110001,  147.910004, 0.000000,  0.000000 
 34393344.000000, 17.058434 , -1.830509, 13.689339, 1773380608.000000, 21.910000,  -130.970001,  103.040001, 0.000000,  0.000000 
 34413312.000000, 15.041284 , -4.390830, 12.586248, 1773400064.000000, 31.290001,  -175.490005,  7.000000, 0.000000,  0.000000 
 34433280.000000, 12.435498 , -8.384450, 10.004392, 1773420032.000000, 71.120003,  -221.690002,  -69.860001, 0.000000,  0.000000 
 34453760.000000, 7.965706 , -14.478970, 8.977871, 1773440000.000000, 111.930000,  -265.369995,  -138.389999, 0.000000,  0.000000 
 34473984.000000, 5.560920 , -23.789444, 15.615561, 1773460224.000000, 68.040001,  -292.670013,  -227.779999, 0.000000,  0.000000 
 34493184.000000, 0.693919 , -32.939598, 19.774286, 1773480704.000000, -42.420002,  -299.250000,  -269.850006, 0.000000,  0.000000 
 34513408.000000, -3.268596 , -30.728626, 18.448662, 1773499904.000000, -64.050003,  -284.130005,  -301.000000, 0.000000,  0.000000 
 34533376.000000, -3.244668 , -22.277180, 14.639289, 1773519872.000000, 16.450001,  -278.739990,  -344.049988, 0.000000,  0.000000 
 34553600.000000, -4.785645 , -16.704294, 12.102897, 1773539840.000000, 66.779999,  -285.809998,  -325.920013, 0.000000,  0.000000 
 34573824.000000, -6.273981 , -12.732209, 10.741381, 1773560320.000000, 26.880001,  -251.089996,  -340.619995, 0.000000,  0.000000 
 34593280.000000, -8.379664 , -8.300702, 7.633104, 1773580544.000000, -26.740000,  -190.750000,  -338.519989, 0.000000,  0.000000 
 34613248.000000, -9.308081 , -3.792624, 6.113662, 1773600000.000000, -56.420002,  -99.330002,  -314.160004, 0.000000,  0.000000 
 34633216.000000, -9.336794 , 0.933201, 7.140182, 1773619968.000000, -57.959999,  -26.250000,  -290.779999, 0.000000,  0.000000 
 34653440.000000, -12.339786 , 3.522235, 2.919244, 1773639936.000000, -23.309999,  26.880001,  -252.559998, 0.000000,  0.000000 
 34673920.000000, -16.175482 , 6.525227, -0.844666, 1773660160.000000, 76.650002,  76.230003,  -216.160004, 0.000000,  0.000000 
 34693120.000000, -12.720245 , 9.736395, -0.045464, 1773680384.000000, 132.720001,  107.239998,  -165.270004, 0.000000,  0.000000 
 34713088.000000, -8.630912 , 9.765109, 0.397209, 1773699840.000000, 104.720001,  93.099998,  -53.130001, 0.000000,  0.000000 
 34733056.000000, -10.238889 , 8.934800, -0.677169, 1773719808.000000, 91.489998,  94.360001,  22.190001, 0.000000,  0.000000 
 34753536.000000, -10.559525 , 7.936993, -0.586242, 1773760256.000000, 30.100000,  154.979996,  129.009995, 4035345152.000000,  1005.734375 
 34773760.000000, -8.020741 , 5.649454, 1.835295, 0.000000, 0.000000,  0.000000,  0.000000, 0.000000,  0.000000 
 34793216.000000, -8.810372 , 1.856830, 6.606583, 1773780480.000000, -29.540001,  164.919998,  183.820007, 0.000000,  0.000000 
 34813184.000000, -10.059426 , -5.072784, 10.872985, 1773799936.000000, -63.420002,  186.199997,  209.789993, 0.000000,  0.000000 
 34833152.000000, -8.688338 , -13.890336, 17.678173, 1773819904.000000, -57.820000,  201.250000,  249.410004, 0.000000,  0.000000 
 34853376.000000, -5.556134 , -21.980469, 27.716064, 1773839872.000000, -75.879997,  228.199997,  299.739990, 0.000000,  0.000000 
 34875648.000000, -8.293523 , -24.782463, 30.032318, 1773860096.000000, -104.930000,  255.850006,  353.360016, 0.000000,  0.000000 
 34893056.000000, -2.103291 , -19.628325, 27.493532, 1773882368.000000, -77.840004,  238.839996,  255.990005, 0.000000,  0.000000 
 34913280.000000, 7.427321 , -10.095319, 23.313271, 1773899776.000000, -20.790001,  184.940002,  194.110001, 0.000000,  0.000000 
 34932992.000000, 8.298308 , -5.383851, 18.367306, 1773920000.000000, -1.540000,  151.059998,  165.759995, 0.000000,  0.000000 
 34953472.000000, 2.880959 , -4.194618, 15.969698, 1773939712.000000, -7.980000,  135.240005,  93.169998, 0.000000,  0.000000 
 34973696.000000, 4.704289 , -4.232903, 14.390435, 1773959936.000000, -55.369999,  121.800003,  35.910000, 0.000000,  0.000000 
 34993152.000000, 6.405586 , -1.998007, 10.937593, 1773980416.000000, -67.760002,  73.779999,  66.709999, 0.000000,  0.000000 
 35013120.000000, 6.649654 , 0.282353, 8.394022, 1773999616.000000, -36.540001,  29.469999,  91.000000, 0.000000,  0.000000 
 35033088.000000, 7.568498 , 0.686740, 5.446064, 1774019584.000000, -24.080000,  -1.050000,  103.669998, 0.000000,  0.000000 
 35053312.000000, 8.714661 , 0.851845, 3.869194, 1774039808.000000, -20.370001,  -27.790001,  120.889999, 0.000000,  0.000000 
 35073536.000000, 9.580862 , 1.440479, 4.118048, 1774060032.000000, -31.710001,  -57.049999,  127.330002, 0.000000,  0.000000 
 35092992.000000, 11.002198 , 1.277767, 3.318845, 1774080256.000000, -47.459999,  -88.760002,  121.309998, 0.000000,  0.000000 
 35112960.000000, 13.371094 , 0.748954, 2.230111, 1774099712.000000, -39.900002,  -121.239998,  94.639999, 0.000000,  0.000000 
 35132928.000000, 13.320844 , -0.650848, 1.974079, 1774119680.000000, -41.509998,  -145.460007,  46.200001, 0.000000,  0.000000 
 35153152.000000, 12.665211 , -3.326023, 3.725625, 1774139648.000000, -84.769997,  -144.550003,  -27.090000, 0.000000,  0.000000 
 35173632.000000, 12.827922 , -10.042676, 6.056234, 1774159872.000000, -130.130005,  -139.229996,  -106.889999, 0.000000,  0.000000 
 35192832.000000, 12.184253 , -20.872591, 15.562919, 1774180096.000000, -122.919998,  -133.910004,  -167.860001, 0.000000,  0.000000 
 35212800.000000, 4.376472 , -30.752554, 23.909084, 1774199552.000000, -104.019997,  -105.419998,  -197.539993, 0.000000,  0.000000 
 35233024.000000, 4.527221 , -33.731621, 30.405596, 1774219520.000000, -88.900002,  -96.669998,  -285.739990, 0.000000,  0.000000 
 35253248.000000, -3.165704 , -29.678181, 25.854448, 1774239488.000000, -66.849998,  -134.119995,  -278.390015, 0.000000,  0.000000 
 35273472.000000, -4.594220 , -21.705294, 19.580467, 1774259968.000000, -67.059998,  -157.850006,  -358.750000, 0.000000,  0.000000 
 35292928.000000, -4.620540 , -12.074183, 15.869200, 1774280192.000000, -56.560001,  -186.759995,  -380.660004, 0.000000,  0.000000 
 35312896.000000, -7.367501 , -5.903094, 12.667603, 1774299648.000000, -41.650002,  -165.619995,  -385.630005, 0.000000,  0.000000 
 35332864.000000, -7.733603 , -2.464607, 9.432507, 1774319616.000000, -48.860001,  -104.370003,  -385.910004, 0.000000,  0.000000 
 35353088.000000, -7.412964 , 0.416351, 5.955735, 1774339584.000000, 9.310000,  -54.599998,  -331.869995, 0.000000,  0.000000 
 35373312.000000, -8.707481 , 3.811767, 2.581856, 1774359808.000000, 99.260002,  -36.119999,  -276.149994, 0.000000,  0.000000 
 35392768.000000, -9.023334 , 5.850451, -1.801795, 1774380032.000000, 160.369995,  -22.680000,  -227.570007, 0.000000,  0.000000 
 35412736.000000, -6.920043 , 6.716653, -3.505485, 1774399488.000000, 160.930008,  -4.830000,  -166.809998, 0.000000,  0.000000 
 35432704.000000, -6.874579 , 5.570491, -2.907279, 1774419456.000000, 72.519997,  17.990000,  -117.389999, 0.000000,  0.000000 
 35453184.000000, -10.380065 , 3.833302, -1.835295, 1774439424.000000, -60.270000,  47.810001,  -76.160004, 0.000000,  0.000000 
 35473408.000000, -9.645468 , 1.859223, 0.203390, 1774459648.000000, -166.949997,  68.529999,  -52.009998, 0.000000,  0.000000 
 35492864.000000, -6.697510 , 1.021735, 3.452843, 1774480128.000000, -206.009995,  77.139999,  -25.900000, 0.000000,  0.000000 
 35512832.000000, -5.546563 , -1.083949, 5.706882, 1774499328.000000, -190.889999,  76.300003,  20.230000, 0.000000,  0.000000 
 35532800.000000, -5.639884 , -4.721039, 8.853443, 1774519552.000000, -107.660004,  77.139999,  92.330002, 0.000000,  0.000000 
 35553024.000000, -5.721239 , -7.652246, 8.465806, 1774539520.000000, 7.070000,  74.480003,  155.680008, 0.000000,  0.000000 
 35573248.000000, -0.918844 , -8.707481, 8.092526, 1774559744.000000, 85.820000,  71.050003,  208.250000, 0.000000,  0.000000 
 35592704.000000, 2.452643 , -11.708081, 12.543176, 1774579968.000000, 95.059998,  78.260002,  301.000000, 0.000000,  0.000000 
 35612672.000000, -6.063413 , -17.106289, 17.625532, 1774599424.000000, 6.440000,  124.250000,  352.799988, 0.000000,  0.000000 
 35632640.000000, -6.484549 , -22.755743, 19.341187, 1774619392.000000, -204.190002,  188.860001,  388.149994, 0.000000,  0.000000 
 35652864.000000, 6.300302 , -21.099911, 22.408785, 1774639360.000000, -328.790009,  179.830002,  335.440002, 0.000000,  0.000000 
 35673344.000000, 8.377272 , -17.869600, 20.702702, 1774659584.000000, -267.750000,  163.029999,  356.649994, 0.000000,  0.000000 
 35692544.000000, 3.371487 , -14.684752, 17.867207, 1774679808.000000, -152.880005,  168.770004,  346.779999, 0.000000,  0.000000 
 35712768.000000, 2.129612 , -13.584054, 15.352350, 1774699264.000000, -44.240002,  167.020004,  208.320007, 0.000000,  0.000000 
 35732736.000000, 6.111269 , -9.312866, 11.722438, 1774719232.000000, 39.200001,  135.940002,  173.809998, 0.000000,  0.000000 
 35752960.000000, 8.963513 , -5.209175, 7.460821, 1774739200.000000, 134.330002,  94.919998,  196.210007, 0.000000,  0.000000 
 35773184.000000, 9.578469 , -2.151148, 5.070391, 1774759680.000000, 156.029999,  67.900002,  189.839996, 4036344576.000000,  1005.735901 
 35792640.000000, 9.896714 , -1.024128, 5.407779, 1774779904.000000, 62.439999,  57.750000,  171.220001, 0.000000,  0.000000 
 35812608.000000, 11.392227 , -1.354338, 6.606583, 1774799360.000000, -68.040001,  37.660000,  157.220001, 0.000000,  0.000000 
 35832576.000000, 12.823137 , -2.287539, 7.161718, 1774819328.000000, -130.339996,  -4.270000,  132.789993, 0.000000,  0.000000 
 35852800.000000, 13.095919 , -2.916851, 7.056434, 1774839296.000000, -107.099998,  -41.160000,  70.349998, 0.000000,  0.000000 
 35875072.000000, 11.176874 , -4.828716, 8.561519, 1774859520.000000, -78.120003,  -59.150002,  -24.010000, 0.000000,  0.000000 
 35892480.000000, 9.056834 , -10.995021, 10.195816, 1774881792.000000, -75.110001,  -59.849998,  -117.529999, 0.000000,  0.000000 
 35912448.000000, 7.633104 , -21.147766, 14.294723, 1774899200.000000, -50.680000,  -72.660004,  -191.449997, 0.000000,  0.000000 
 35932416.000000, 4.115655 , -27.890739, 19.434505, 1774919168.000000, 19.180000,  -91.559998,  -247.940002, 0.000000,  0.000000 
 35952896.000000, 1.462015 , -31.573296, 19.133011, 1774939136.000000, 104.860001,  -116.129997,  -291.760010, 0.000000,  0.000000 
 35973120.000000, 1.064806 , -28.634909, 21.312872, 1774959616.000000, 77.559998,  -168.699997,  -339.709991, 0.000000,  0.000000 
 35992576.000000, -4.747360 , -19.886749, 15.512670, 1774979840.000000, 28.210001,  -198.169998,  -342.649994, 0.000000,  0.000000 
 36012544.000000, -5.127820 , -15.062819, 12.268002, 1774999040.000000, 60.410000,  -218.190002,  -403.970001, 0.000000,  0.000000 
 36032512.000000, -5.326423 , -10.959127, 11.676974, 1775019264.000000, 66.290001,  -216.720001,  -383.040009, 0.000000,  0.000000 
 36052736.000000, -7.515855 , -7.058826, 10.382458, 1775039232.000000, 30.170000,  -181.089996,  -361.970001, 0.000000,  0.000000 
 36072960.000000, -6.704689 , -3.684947, 7.458428, 1775059456.000000, 26.040001,  -122.430000,  -334.320007, 0.000000,  0.000000 
 36092416.000000, -5.402994 , -0.399601, 4.474578, 1775079680.000000, 64.050003,  -84.629997,  -265.019989, 0.000000,  0.000000 
 36112384.000000, -7.154540 , 2.859423, 3.060420, 1775099136.000000, 86.379997,  -63.139999,  -213.149994, 0.000000,  0.000000 
 36132352.000000, -10.238889 , 3.940979, 1.320838, 1775119104.000000, 59.360001,  -35.700001,  -185.710007, 0.000000,  0.000000 
 36152832.000000, -10.071390 , 3.385844, 0.488136, 1775139072.000000, 15.120000,  -0.350000,  -157.779999, 0.000000,  0.000000 
 36173056.000000, -9.104690 , 3.330809, -0.634098, 1775159296.000000, -9.240000,  21.840000,  -107.730003, 0.000000,  0.000000 
 36192256.000000, -9.655040 , 3.244668, -1.773082, 1775179776.000000, -10.080000,  29.400000,  -41.160000, 0.000000,  0.000000 
 36212480.000000, -9.092726 , 2.938386, -1.024128, 1775198976.000000, -21.280001,  40.180000,  12.040000, 0.000000,  0.000000 
 36232448.000000, -6.563512 , 2.043471, 0.220140, 1775238912.000000, -53.689999,  63.070000,  131.039993, 0.000000,  0.000000 
 36252672.000000, -4.752146 , 1.452443, 2.199004, 0.000000, 0.000000,  0.000000,  0.000000, 0.000000,  0.000000 
 36272896.000000, -5.084748 , 0.220140, 4.783253, 1775259392.000000, -28.420000,  86.449997,  192.009995, 0.000000,  0.000000 
 36292352.000000, -6.955935 , -7.523034, 6.649654, 1775279616.000000, -60.760002,  124.389999,  254.240005, 0.000000,  0.000000 
 36312320.000000, -8.030313 , -21.375086, 7.779066, 1775299072.000000, -231.979996,  153.789993,  299.880005, 0.000000,  0.000000 
 36332288.000000, -8.934800 , -37.856846, 12.076575, 1775319040.000000, -498.119995,  145.110001,  351.470001, 0.000000,  0.000000 
 36352512.000000, -6.781260 , -40.606201, 16.247265, 1775339008.000000, -648.059998,  101.290001,  395.850006, 0.000000,  0.000000 
 36372992.000000, 0.500100 , -28.450661, 14.414362, 1775359232.000000, -501.130005,  19.460001,  368.130005, 0.000000,  0.000000 
 36392192.000000, 4.864608 , -23.803799, 12.303895, 1775379456.000000, -183.889999,  -14.070000,  355.529999, 0.000000,  0.000000 
 36412160.000000, 5.711668 , -21.403797, 10.435099, 1775398912.000000, -8.820000,  2.940000,  326.899994, 0.000000,  0.000000 
 36432128.000000, 5.213961 , -16.539190, 7.881958, 1775418880.000000, 120.959999,  8.540000,  282.450012, 0.000000,  0.000000 
 36452608.000000, 6.463014 , -11.418550, 5.316852, 1775438848.000000, 215.320007,  6.580000,  238.000000, 0.000000,  0.000000 
 36472832.000000, 8.805587 , -7.972885, 3.972085, 1775459328.000000, 208.949997,  -9.380000,  220.779999, 0.000000,  0.000000 
 36492288.000000, 10.150353 , -6.180661, 4.000800, 1775479552.000000, 139.160004,  -26.600000,  212.309998, 0.000000,  0.000000 
 36512256.000000, 11.112268 , -5.156533, 5.273781, 1775499008.000000, 54.950001,  -34.230000,  189.279999, 0.000000,  0.000000 
 36532224.000000, 13.871193 , -4.689932, 4.878965, 1775518976.000000, 5.950000,  -51.170002,  150.220001, 0.000000,  0.000000 
 36552448.000000, 17.594425 , -3.967300, 3.768696, 1775538944.000000, 17.990000,  -84.840004,  105.559998, 0.000000,  0.000000 
 36572672.000000, 16.139589 , -2.998207, 4.723432, 1775559168.000000, 48.580002,  -113.470001,  34.930000, 0.000000,  0.000000 
 36592128.000000, 12.631711 , -5.769095, 6.731010, 1775579392.000000, 35.420002,  -106.680000,  -77.139999, 0.000000,  0.000000 
 36612096.000000, 11.399406 , -11.954542, 6.702296, 1775598848.000000, 10.010000,  -103.739998,  -185.149994, 0.000000,  0.000000 
 36632064.000000, 10.159925 , -19.252651, 9.061620, 1775618816.000000, 26.180000,  -121.239998,  -256.690002, 0.000000,  0.000000 
 36652544.000000, 6.587440 , -27.567711, 15.201601, 1775638784.000000, 59.920002,  -121.029999,  -321.510010, 0.000000,  0.000000 
 36672768.000000, 1.497907 , -32.537601, 18.745371, 1775659008.000000, 34.160000,  -107.379997,  -354.269989, 0.000000,  0.000000 
 36691968.000000, -0.739382 , -28.855047, 17.623138, 1775679488.000000, 12.950000,  -117.180000,  -393.959991, 0.000000,  0.000000 
 36712192.000000, -2.091327 , -21.772293, 14.108082, 1775698688.000000, 71.260002,  -151.130005,  -392.559998, 0.000000,  0.000000 
 36732160.000000, -4.204189 , -15.852450, 13.275380, 1775718656.000000, 95.410004,  -169.259995,  -385.489990, 0.000000,  0.000000 
 36752384.000000, -6.996613 , -10.786844, 12.052648, 1775759104.000000, 49.630001,  -115.779999,  -343.980011, 4037344000.000000,  1005.735107 
 36772608.000000, -8.559127 , -5.757132, 8.791230, 0.000000, 0.000000,  0.000000,  0.000000, 0.000000,  0.000000 
 36792064.000000, -7.494320 , -1.033699, 5.204390, 1775779328.000000, 55.299999,  -66.080002,  -283.360016, 0.000000,  0.000000 
 36812032.000000, -6.017949 , 2.548356, 4.118048, 1775798784.000000, 68.040001,  -44.240002,  -216.580002, 0.000000,  0.000000 
 36832000.000000, -8.006385 , 4.398008, 1.780260, 1775818752.000000, 60.410000,  -12.880000,  -174.860001, 0.000000,  0.000000 
 36852224.000000, -10.437491 , 4.383651, -0.966700, 1775838720.000000, 46.759998,  28.910000,  -154.770004, 0.000000,  0.000000 
 36874496.000000, -8.791230 , 4.280759, -1.543371, 1775858944.000000, 37.730000,  66.849998,  -115.779999, 0.000000,  0.000000 
 36891904.000000, -6.891330 , 4.582255, -1.971686, 1775881216.000000, 10.710000,  74.269997,  -37.660000, 0.000000,  0.000000 
 36911872.000000, -7.087541 , 3.964907, -1.351945, 1775898624.000000, -28.000000,  82.110001,  39.759998, 0.000000,  0.000000 
 36931840.000000, -8.006385 , 2.533999, -0.358923, 1775918592.000000, -76.160004,  102.059998,  72.449997, 0.000000,  0.000000 
 36952320.000000, -7.424929 , 1.002593, 1.160519, 1775938560.000000, -108.290001,  119.279999,  105.489998, 0.000000,  0.000000 
 36972544.000000, -6.920043 , -1.170090, 4.938786, 1775959040.000000, -100.590004,  124.669998,  166.809998, 0.000000,  0.000000 
 36992000.000000, -8.236095 , -6.836295, 9.695717, 1775979264.000000, -81.340004,  124.110001,  221.550003, 0.000000,  0.000000 
 37011968.000000, -9.911072 , -16.922041, 14.730216, 1775998720.000000, -68.040001,  124.459999,  256.059998, 0.000000,  0.000000 
 37031936.000000, -7.147361 , -23.217558, 20.295921, 1776018688.000000, -75.250000,  136.080002,  298.899994, 0.000000,  0.000000 
 37052416.000000, -7.594819 , -24.399612, 22.083359, 1776038656.000000, -106.750000,  133.559998,  375.269989, 0.000000,  0.000000 
 37072384.000000, -6.360123 , -24.655645, 20.731415, 1776059136.000000, -152.389999,  145.809998,  328.929993, 0.000000,  0.000000 
 37091840.000000, -0.033500 , -18.575481, 19.920248, 1776079104.000000, -193.339996,  142.520004,  269.010010, 0.000000,  0.000000 
 37111808.000000, 3.933800 , -13.969299, 17.714066, 1776098560.000000, -160.649994,  140.630005,  244.160004, 0.000000,  0.000000 
 37131776.000000, 4.029513 , -12.512069, 16.369299, 1776118528.000000, -73.430000,  134.820007,  216.860001, 0.000000,  0.000000 
 37152256.000000, 2.830709 , -9.987641, 13.442878, 1776138496.000000, 25.340000,  115.080002,  175.490005, 0.000000,  0.000000 
 37172480.000000, 4.639683 , -7.123433, 10.774881, 1776158720.000000, 111.720001,  80.779999,  154.770004, 0.000000,  0.000000 
 37191936.000000, 7.786245 , -4.201797, 8.341379, 1776179200.000000, 146.509995,  32.549999,  171.149994, 0.000000,  0.000000 
 37211904.000000, 9.454042 , -2.464607, 7.051648, 1776198400.000000, 113.610001,  -5.740000,  186.830002, 0.000000,  0.000000 
 37231872.000000, 10.126426 , -1.720440, 7.855636, 1776218368.000000, 34.439999,  -27.020000,  166.740005, 0.000000,  0.000000 
 37252096.000000, 12.318252 , -1.801795, 7.341179, 1776238592.000000, -27.930000,  -56.420002,  139.720001, 0.000000,  0.000000 
 37272320.000000, 15.833307 , -1.076770, 5.036892, 1776258816.000000, -7.770000,  -98.070000,  105.070000, 0.000000,  0.000000 
 37291776.000000, 15.125031 , 0.897308, 3.876373, 1776279040.000000, 45.779999,  -137.059998,  44.590000, 0.000000,  0.000000 
 37311744.000000, 11.801401 , -0.234497, 4.493721, 1776298496.000000, 32.270000,  -145.320007,  -60.830002, 0.000000,  0.000000 
 37331712.000000, 10.274779 , -6.233303, 5.400600, 1776318464.000000, -26.530001,  -148.259995,  -155.259995, 0.000000,  0.000000 
 37351936.000000, 9.956534 , -16.359728, 9.824929, 1776338432.000000, -76.790001,  -157.710007,  -210.839996, 0.000000,  0.000000 
 37372416.000000, 9.528220 , -29.015368, 21.257835, 1776358656.000000, -89.459999,  -153.160004,  -254.309998, 0.000000,  0.000000 
 37391616.000000, -0.160319 , -34.418362, 23.729622, 1776378880.000000, -83.090004,  -136.289993,  -251.300003, 0.000000,  0.000000 
 37411840.000000, -2.517249 , -28.594231, 22.188644, 1776398336.000000, 9.100000,  -144.690002,  -338.730011, 0.000000,  0.000000 
 37431808.000000, -2.143969 , -19.692930, 16.371693, 1776418304.000000, 66.989998,  -206.009995,  -327.809998, 0.000000,  0.000000 
 37452032.000000, -2.950350 , -14.304294, 14.301902, 1776438272.000000, 72.590004,  -243.180008,  -328.089996, 0.000000,  0.000000 
 37472256.000000, -4.374080 , -9.310472, 12.847065, 1776458752.000000, 40.040001,  -238.070007,  -333.690002, 0.000000,  0.000000 
 37491712.000000, -6.056234 , -5.381458, 10.442278, 1776478976.000000, 15.890000,  -191.240005,  -302.119995, 0.000000,  0.000000 
 37511680.000000, -7.427321 , -2.184647, 6.781260, 1776498432.000000, -15.890000,  -156.520004,  -284.829987, 0.000000,  0.000000 
 37531648.000000, -7.147361 , 0.653241, 6.357729, 1776518400.000000, -30.660000,  -100.169998,  -244.369995, 0.000000,  0.000000 
 37551872.000000, -8.128418 , 2.277967, 4.752146, 1776538368.000000, -36.680000,  -50.959999,  -219.380005, 0.000000,  0.000000 
 37572096.000000, -9.174082 , 3.031706, 3.847659, 1776558592.000000, -28.490000,  -5.390000,  -200.690002, 0.000000,  0.000000 
 37591552.000000, -9.602397 , 3.952943, 2.009971, 1776578816.000000, 6.650000,  42.070000,  -186.830002, 0.000000,  0.000000 
 37611520.000000, -9.032906 , 4.627719, 0.385244, 1776598272.000000, 54.529999,  66.919998,  -133.839996, 0.000000,  0.000000 
 37631488.000000, -10.013963 , 5.295317, -1.361516, 1776618240.000000, 76.510002,  68.739998,  -67.410004, 0.000000,  0.000000 
 37651968.000000, -9.372685 , 4.869394, -1.605584, 1776638208.000000, 50.820000,  75.599998,  -16.309999, 0.000000,  0.000000 
 37672192.000000, -6.113662 , 3.292524, -0.988236, 1776658688.000000, -16.940001,  81.550003,  30.660000, 0.000000,  0.000000 
 37691648.000000, -5.149354 , 1.959722, -0.768096, 1776678912.000000, -77.769997,  88.410004,  91.000000, 0.000000,  0.000000 
 37711616.000000, -5.929415 , 1.000200, 2.172683, 1776698112.000000, -99.540001,  112.699997,  145.740005, 0.000000,  0.000000 
 37731584.000000, -7.290931 , -3.026921, 5.194818, 1776718336.000000, -98.349998,  144.339996,  213.289993, 0.000000,  0.000000 
 37751808.000000, -8.293523 , -11.619547, 11.578869, 1776758528.000000, -115.150002,  200.830002,  345.100006, 4038343424.000000,  1005.736816 
 37772032.000000, -10.916058 , -24.335005, 22.241287, 0.000000, 0.000000,  0.000000,  0.000000, 0.000000,  0.000000 
 37791488.000000, -14.713466 , -31.759935, 27.036503, 1776778752.000000, -206.779999,  242.410004,  392.700012, 0.000000,  0.000000 
 37811456.000000, -6.240481 , -27.455246, 26.347370, 1776798208.000000, -187.880005,  240.380005,  351.679993, 0.000000,  0.000000 
 37831424.000000, 1.856830 , -18.996618, 24.433113, 1776818176.000000, -105.000000,  216.369995,  305.339996, 0.000000,  0.000000 
 37851648.000000, 5.123034 , -14.036297, 20.604595, 1776838144.000000, -64.190002,  212.449997,  243.250000, 0.000000,  0.000000 
 37873920.000000, 3.675375 , -10.301102, 17.204393, 1776858368.000000, 2.450000,  193.270004,  167.580002, 0.000000,  0.000000 
 37891328.000000, 2.756532 , -7.446464, 13.629518, 1776880640.000000, 43.540001,  150.289993,  123.690002, 0.000000,  0.000000 
 37911552.000000, 5.216353 , -4.922036, 10.911271, 1776898048.000000, 32.480000,  93.309998,  116.830002, 0.000000,  0.000000 
 37931520.000000, 6.819544 , -3.378666, 8.456236, 1776918016.000000, -21.629999,  35.980000,  145.600006, 0.000000,  0.000000 
 37951744.000000, 7.721639 , -2.208575, 8.645268, 1776937984.000000, -89.529999,  -3.290000,  148.190002, 0.000000,  0.000000 
 37971968.000000, 10.052249 , -1.627119, 8.702696, 1776958464.000000, -121.169998,  -35.560001,  138.529999, 0.000000,  0.000000 
 37991424.000000, 11.129018 , 1.033699, 8.884550, 1776978688.000000, -65.099998,  -77.419998,  137.899994, 0.000000,  0.000000 
 38011392.000000, 10.473385 , 4.888536, 9.315259, 1776998144.000000, 28.630001,  -118.790001,  106.470001, 0.000000,  0.000000 
 38031360.000000, 10.504492 , 6.647261, 9.537791, 1777018112.000000, 85.400002,  -161.139999,  47.599998, 0.000000,  0.000000 
 38051584.000000, 8.480164 , 5.343173, 8.489735, 1777038080.000000, 95.620003,  -215.600006,  9.310000, 0.000000,  0.000000 
 38072064.000000, 6.788438 , -0.071785, 6.106483, 1777058304.000000, 31.710001,  -266.700012,  -35.349998, 0.000000,  0.000000 
 38091264.000000, 9.073583 , -13.411771, 6.333801, 1777078528.000000, -145.669998,  -328.089996,  -98.840004, 0.000000,  0.000000 
 38111232.000000, 17.623138 , -37.119858, 20.712271, 1777097984.000000, -349.160004,  -370.579987,  -170.520004, 0.000000,  0.000000 
 38131200.000000, 1.557728 , -34.748569, 14.924035, 1777117952.000000, -344.890015,  -361.899994,  -142.589996, 0.000000,  0.000000 
 38151680.000000, 0.835095 , -25.409384, 9.693325, 1777137920.000000, 31.360001,  -284.269989,  -342.790009, 0.000000,  0.000000 
 38171904.000000, 6.872187 , -20.712271, 7.463214, 1777158400.000000, 81.059998,  -306.040009,  -314.720001, 0.000000,  0.000000 
 38191360.000000, 3.519842 , -15.938592, 5.682954, 1777178624.000000, -39.970001,  -264.739990,  -277.410004, 0.000000,  0.000000 
 38211328.000000, -0.241675 , -13.342380, 5.285746, 1777197824.000000, -103.669998,  -157.570007,  -344.119995, 0.000000,  0.000000 
 38231296.000000, -2.383251 , -9.119047, 6.281159, 1777218048.000000, -153.160004,  -34.720001,  -366.799988, 0.000000,  0.000000 
 38251520.000000, -4.608576 , -4.926822, 7.164111, 1777238016.000000, -118.440002,  65.099998,  -337.750000, 0.000000,  0.000000 
 38271744.000000, -7.759924 , -0.428315, 6.649654, 1777258240.000000, -17.920000,  124.949997,  -309.540009, 0.000000,  0.000000 
 38291200.000000, -9.702895 , 3.158526, 4.563113, 1777278464.000000, 82.040001,  142.660004,  -269.850006, 0.000000,  0.000000 
 38311168.000000, -8.973085 , 6.171089, 4.177868, 1777297920.000000, 145.880005,  119.559998,  -208.740005, 0.000000,  0.000000 
 38331136.000000, -8.422735 , 6.644868, 1.935793, 1777317888.000000, 123.760002,  87.150002,  -142.940002, 0.000000,  0.000000 
 38351616.000000, -11.392227 , 5.343173, -1.131805, 1777337856.000000, 76.860001,  70.980003,  -54.529999, 0.000000,  0.000000 
 38371840.000000, -11.088341 , 4.228118, -1.308874, 1777358080.000000, -6.580000,  71.680000,  -5.460000, 0.000000,  0.000000 
 38391040.000000, -7.252645 , 2.742175, 1.411765, 1777378560.000000, -137.899994,  68.809998,  36.750000, 0.000000,  0.000000 
 38411264.000000, -7.013363 , 1.057628, 1.244268, 1777397760.000000, -203.630005,  62.860001,  87.430000, 0.000000,  0.000000 
 38431232.000000, -6.623333 , 1.481157, 1.368695, 1777417728.000000, -149.800003,  81.830002,  128.240005, 0.000000,  0.000000 
 38451456.000000, -5.848059 , 0.215354, 4.101298, 1777437696.000000, -101.779999,  94.430000,  195.860001, 0.000000,  0.000000 
 38471680.000000, -8.195417 , -9.025726, 8.420342, 1777458176.000000, -170.449997,  116.970001,  241.430008, 0.000000,  0.000000 
 38491136.000000, -8.930015 , -23.351557, 13.617554, 1777478400.000000, -305.339996,  129.500000,  249.690002, 0.000000,  0.000000 
 38511104.000000, -6.393622 , -33.707691, 16.790438, 1777497856.000000, -413.000000,  122.010002,  299.320007, 0.000000,  0.000000 
 38531072.000000, -5.510671 , -32.169106, 14.957534, 1777517824.000000, -376.529999,  103.529999,  378.209991, 0.000000,  0.000000 
 38551296.000000, -1.921437 , -28.563122, 14.610575, 1777537792.000000, -202.369995,  86.449997,  370.510010, 0.000000,  0.000000 
 38571776.000000, 1.830509 , -25.399813, 13.753943, 1777558016.000000, -100.730003,  99.330002,  346.570007, 0.000000,  0.000000 
 38590976.000000, 2.955136 , -20.831913, 13.933406, 1777578240.000000, -84.629997,  109.550003,  288.190002, 0.000000,  0.000000 
 38610944.000000, 3.445665 , -16.103697, 10.715059, 1777597696.000000, -33.040001,  81.340004,  217.979996, 0.000000,  0.000000 
 38630912.000000, 5.178068 , -11.629118, 7.853244, 1777617664.000000, 48.439999,  30.100000,  175.839996, 0.000000,  0.000000 
 38651392.000000, 6.843473 , -7.487142, 6.541977, 1777637632.000000, 79.590004,  -18.830000,  163.520004, 0.000000,  0.000000 
 38671616.000000, 7.264609 , -5.091926, 6.922436, 1777658112.000000, 43.119999,  -50.400002,  152.669998, 0.000000,  0.000000 
 38691072.000000, 8.305488 , -4.931608, 7.700103, 1777678336.000000, -15.680000,  -67.690002,  135.100006, 0.000000,  0.000000 
 38711040.000000, 10.772489 , -3.967300, 9.547362, 1777697792.000000, -18.830000,  -91.419998,  122.220001, 0.000000,  0.000000 
 38731008.000000, 12.624532 , -1.095913, 12.110075, 1777717760.000000, 50.889999,  -118.160004,  110.739998, 0.000000,  0.000000 
 38751232.000000, 12.827922 , 1.227518, 11.251052, 1777737728.000000, 162.259995,  -140.979996,  79.800003, 0.000000,  0.000000 
 38771456.000000, 12.277573 , 0.701097, 6.484549, 1777757952.000000, 257.670013,  -175.630005,  19.040001, 4039342848.000000,  1005.736633 
 38790912.000000, 10.267602 , -2.483750, 5.192425, 1777778176.000000, 249.619995,  -218.540009,  -45.430000, 0.000000,  0.000000 
 38810880.000000, 8.331808 , -10.724631, 4.453043, 1777797632.000000, 90.720001,  -255.009995,  -105.559998, 0.000000,  0.000000 
 38830848.000000, 8.449057 , -21.513868, 10.805987, 1777817600.000000, -94.360001,  -284.619995,  -180.600006, 0.000000,  0.000000 
 38851328.000000, 6.798009 , -30.731020, 14.701502, 1777837568.000000, -146.440002,  -287.350006,  -255.850006, 0.000000,  0.000000 
 38873344.000000, 2.261217 , -29.582466, 11.901899, 1777857792.000000, 9.240000,  -272.579987,  -286.019989, 0.000000,  0.000000 
 38891008.000000, 3.663411 , -21.372692, 10.334601, 1777880064.000000, 105.840004,  -280.279999,  -338.940002, 0.000000,  0.000000 
 38910976.000000, 3.830909 , -13.957335, 6.163911, 1777897472.000000, 57.540001,  -296.869995,  -286.369995, 0.000000,  0.000000 
 38930944.000000, 3.711268 , -11.724831, 6.317052, 1777917440.000000, -59.990002,  -266.350006,  -288.119995, 0.000000,  0.000000 
 38951168.000000, 2.359323 , -12.363714, 6.958328, 1777937664.000000, -179.199997,  -188.580002,  -283.360016, 0.000000,  0.000000 
 38971392.000000, -0.926022 , -9.652647, 8.456236, 1777957888.000000, -255.009995,  -81.760002,  -271.809998, 0.000000,  0.000000 
 38990848.000000, -3.775874 , -5.589634, 8.963513, 1777978112.000000, -222.740005,  31.010000,  -266.910004, 0.000000,  0.000000 
 39010816.000000, -6.003592 , -1.191626, 8.592626, 1777997568.000000, -128.589996,  106.050003,  -237.440002, 0.000000,  0.000000 
 39030784.000000, -9.377472 , 1.885544, 7.925028, 1778017536.000000, -39.270000,  142.169998,  -213.500000, 0.000000,  0.000000 
 39051008.000000, -12.579069 , 3.952943, 6.163911, 1778037504.000000, 44.730000,  151.410004,  -192.990005, 0.000000,  0.000000 
 39071488.000000, -10.593026 , 6.197411, 3.842873, 1778057728.000000, 97.160004,  143.570007,  -161.770004, 0.000000,  0.000000 
 39090688.000000, -8.944371 , 7.697710, 2.069792, 1778077952.000000, 104.860001,  118.160004,  -82.459999, 0.000000,  0.000000 
 39110656.000000, -9.994821 , 6.101698, 0.344566, 1778097408.000000, 61.880001,  97.650002,  -9.590000, 0.000000,  0.000000 
 39130880.000000, -8.958728 , 4.338188, 1.564906, 1778117376.000000, -31.780001,  101.779999,  9.380000, 0.000000,  0.000000 
 39151104.000000, -6.340980 , 2.184647, 1.744368, 1778157824.000000, -113.540001,  112.070000,  125.440002, 0.000000,  0.000000 
 39171328.000000, -5.477170 , 1.505085, 1.636691, 0.000000, 0.000000,  0.000000,  0.000000, 0.000000,  0.000000 
 39190784.000000, -6.087341 , 0.827917, 5.225924, 1778178048.000000, -76.090004,  128.309998,  187.949997, 0.000000,  0.000000 
 39210752.000000, -8.437093 , -6.649654, 11.198411, 1778197504.000000, -87.849998,  157.919998,  246.820007, 0.000000,  0.000000 
 39230720.000000, -10.344172 , -19.097116, 19.235901, 1778217472.000000, -120.889999,  181.720001,  275.730011, 0.000000,  0.000000 
 39250944.000000, -7.534998 , -26.555548, 25.045673, 1778237440.000000, -154.210007,  196.350006,  303.100006, 0.000000,  0.000000 
 39271168.000000, -6.319445 , -23.124237, 22.624138, 1778257664.000000, -123.480003,  188.580002,  342.929993, 0.000000,  0.000000 
 39290624.000000, -2.912065 , -18.731016, 21.253050, 1778277888.000000, -54.880001,  177.029999,  322.070007, 0.000000,  0.000000 
 39310592.000000, 2.687140 , -14.825929, 19.503897, 1778297344.000000, -58.240002,  175.279999,  281.679993, 0.000000,  0.000000 
