Acc_timestamp,Accx,Accy,Accz,Gyro_timestamp,Gyrox,Gyroy,Gyroz,Baro_timestamp,Pressure_Reading
20854784.000000, -1.060020 , 1.892723, 9.631111, 695148608.000000, -2.800000,  -4.760000,  -7.490000, 0.000000,  0.000000 
 20874816.000000, -0.942772 , 1.749153, 9.487542, 695168000.000000, -5.810000,  -4.970000,  -7.700000, 0.000000,  0.000000 
 20895104.000000, -0.933201 , 1.615155, 9.463614, 695187968.000000, -9.030000,  -5.180000,  -7.840000, 0.000000,  0.000000 
 20914752.000000, -0.988236 , 1.521835, 9.420543, 695208256.000000, -10.570000,  -5.040000,  -7.840000, 0.000000,  0.000000 
 20935360.000000, -0.830309 , 1.385444, 9.418150, 695227968.000000, -8.540000,  -4.620000,  -8.470000, 0.000000,  0.000000 
 20954752.000000, -0.665205 , 1.344766, 9.451650, 695248512.000000, -5.600000,  -4.970000,  -7.630000, 0.000000,  0.000000 
 20974720.000000, -0.796810 , 1.581656, 9.523434, 695267904.000000, -3.430000,  -4.550000,  -6.720000, 0.000000,  0.000000 
 20995072.000000, -1.129412 , 1.799403, 9.607183, 695287936.000000, 1.680000,  -2.310000,  -7.420000, 0.000000,  0.000000 
 21014720.000000, -1.000200 , 1.816152, 9.827322, 695308224.000000, 5.180000,  -0.910000,  -7.070000, 0.000000,  0.000000 
 21035328.000000, -1.107877 , 1.629512, 9.779467, 695327872.000000, -1.400000,  -1.820000,  -4.830000, 0.000000,  0.000000 
 21054720.000000, -1.155733 , 1.617548, 9.623933, 695348480.000000, -5.880000,  -3.010000,  -3.150000, 0.000000,  0.000000 
 21074688.000000, -1.158126 , 1.598405, 9.633504, 695367872.000000, -6.160000,  -4.620000,  -0.910000, 0.000000,  0.000000 
 21094976.000000, -1.122234 , 1.507478, 9.561719, 695387840.000000, -7.070000,  -6.160000,  -0.140000, 0.000000,  0.000000 
 21114688.000000, -1.107877 , 1.552942, 9.525827, 695408192.000000, -6.440000,  -6.440000,  -1.330000, 0.000000,  0.000000 
 21137216.000000, -0.885344 , 1.622334, 9.487542, 695427840.000000, -2.100000,  -5.810000,  -2.450000, 0.000000,  0.000000 
 21154624.000000, -0.859023 , 1.596013, 9.320045, 695450368.000000, 0.280000,  -5.390000,  -3.150000, 0.000000,  0.000000 
 21174656.000000, -1.004985 , 1.758725, 9.296116, 695467840.000000, 0.140000,  -5.250000,  -2.940000, 0.000000,  0.000000 
 21194944.000000, -0.813560 , 1.887937, 9.504292, 695487808.000000, -1.190000,  -4.410000,  -0.630000, 0.000000,  0.000000 
 21214592.000000, -0.677169 , 1.890330, 9.343972, 695508096.000000, -0.980000,  -5.040000,  1.820000, 0.000000,  0.000000 
 21235200.000000, -0.488136 , 1.665405, 9.358330, 695527808.000000, -3.010000,  -6.370000,  1.190000, 0.000000,  0.000000 
 21254592.000000, -0.662812 , 1.813759, 9.497113, 695548352.000000, -6.370000,  -5.600000,  2.870000, 0.000000,  0.000000 
 21274560.000000, -0.882952 , 1.567299, 9.343972, 695567744.000000, -8.120000,  -2.450000,  4.410000, 0.000000,  0.000000 
 21294848.000000, -0.638884 , 1.119841, 9.272188, 695608064.000000, -6.650000,  4.480000,  10.150000, 755956992.000000,  1004.584106 
 21314560.000000, -0.258425 , 0.961915, 9.217153, 0.000000, 0.000000,  0.000000,  0.000000, 0.000000,  0.000000 
 21335168.000000, -0.088534 , 1.294517, 9.150154, 695627712.000000, 4.480000,  7.000000,  9.170000, 0.000000,  0.000000 
 21354496.000000, 0.031107 , 1.421337, 9.650253, 695648320.000000, 15.610000,  10.780000,  9.240000, 0.000000,  0.000000 
 21374528.000000, 0.198604 , 1.476372, 10.037891, 695667712.000000, 16.590000,  13.090000,  9.100000, 0.000000,  0.000000 
 21394816.000000, -0.222532 , 1.639083, 9.958927, 695687680.000000, 14.490000,  14.070000,  7.280000, 0.000000,  0.000000 
 21414528.000000, -0.478565 , 2.067399, 10.231709, 695707968.000000, 19.950001,  14.560000,  6.790000, 0.000000,  0.000000 
 21435136.000000, -0.306281 , 2.239682, 10.786844, 695727680.000000, 21.559999,  12.110000,  7.560000, 0.000000,  0.000000 
 21454464.000000, -0.973879 , 1.923829, 10.777272, 695748288.000000, 11.620000,  7.210000,  8.330000, 0.000000,  0.000000 
 21474432.000000, -1.339981 , 1.789831, 10.305886, 695767680.000000, 3.640000,  2.170000,  6.790000, 0.000000,  0.000000 
 21494784.000000, -0.698704 , 1.842474, 9.528220, 695787648.000000, 2.660000,  -6.720000,  5.110000, 0.000000,  0.000000 
 21514432.000000, -0.447458 , 1.631905, 8.764909, 695807936.000000, -2.590000,  -16.940001,  4.130000, 0.000000,  0.000000 
 21535040.000000, -0.806381 , 1.050449, 8.949157, 695827648.000000, -17.500000,  -19.740000,  3.080000, 0.000000,  0.000000 
 21554432.000000, -0.509671 , 0.289532, 9.442079, 695848192.000000, -31.290001,  -17.080000,  0.910000, 0.000000,  0.000000 
 21574400.000000, -0.196211 , -0.014357, 9.537791, 695867584.000000, -29.960001,  -15.120000,  -0.840000, 0.000000,  0.000000 
 21594880.000000, -0.497707 , 0.789631, 9.107083, 695887552.000000, -9.030000,  -14.280000,  -1.680000, 0.000000,  0.000000 
 21614400.000000, -1.174876 , 1.639083, 8.681160, 695908032.000000, 13.370000,  -10.010000,  -1.470000, 0.000000,  0.000000 
 21635008.000000, -1.873580 , 1.531406, 8.566305, 695927552.000000, 9.730000,  -5.810000,  -4.480000, 0.000000,  0.000000 
 21654336.000000, -1.988436 , 1.074377, 8.482556, 695948160.000000, -9.240000,  -5.530000,  -13.020000, 0.000000,  0.000000 
 21674368.000000, -1.842474 , 1.232304, 8.516055, 695967552.000000, -22.049999,  -5.180000,  -16.799999, 0.000000,  0.000000 
 21694656.000000, -1.679761 , 1.725225, 8.508877, 695987520.000000, -22.540001,  -2.030000,  -17.920000, 0.000000,  0.000000 
 21714304.000000, -1.127020 , 2.220540, 9.121440, 696007808.000000, -13.090000,  3.220000,  -19.180000, 0.000000,  0.000000 
 21734912.000000, -0.279960 , 2.191825, 10.461421, 696027520.000000, -11.130000,  5.320000,  -24.150000, 0.000000,  0.000000 
 21754304.000000, -0.191426 , 0.933201, 11.528620, 696048128.000000, -23.730000,  7.280000,  -24.500000, 0.000000,  0.000000 
 21774272.000000, -0.430708 , 0.282353, 12.026326, 696067456.000000, -33.599998,  8.890000,  -19.809999, 0.000000,  0.000000 
 21794624.000000, -0.811167 , 0.775275, 11.657832, 696087488.000000, -20.790001,  2.520000,  -14.840000, 0.000000,  0.000000 
 21814272.000000, -0.973879 , 1.584049, 10.729417, 696107776.000000, 7.140000,  -6.720000,  -12.460000, 0.000000,  0.000000 
 21834880.000000, -0.789631 , 1.808974, 9.530612, 696127424.000000, 19.530001,  -16.730000,  -8.540000, 0.000000,  0.000000 
 21854272.000000, -0.512064 , 1.598405, 8.908479, 696148032.000000, 8.190000,  -26.389999,  -7.490000, 0.000000,  0.000000 
 21874240.000000, -0.368495 , 1.373480, 8.681160, 696187392.000000, -12.670000,  -25.410000,  -9.240000, 0.000000,  0.000000 
 21894528.000000, -0.110070 , 1.473979, 8.319844, 0.000000, 0.000000,  0.000000,  0.000000, 0.000000,  0.000000 
 21914240.000000, 0.289532 , 1.215554, 8.422735, 696207744.000000, -4.760000,  -17.360001,  -10.010000, 0.000000,  0.000000 
 21934784.000000, 0.275175 , 0.892523, 8.645268, 696248000.000000, -8.190000,  6.090000,  -0.980000, 0.000000,  0.000000 
 21954176.000000, 0.117248 , 0.806381, 9.585647, 0.000000, 0.000000,  0.000000,  0.000000, 0.000000,  0.000000 
 21974208.000000, -0.196211 , 0.849452, 10.162319, 696267392.000000, -1.890000,  14.000000,  2.450000, 0.000000,  0.000000 
 21994496.000000, -0.949951 , 1.110270, 10.238889, 696287360.000000, 6.440000,  17.219999,  1.470000, 0.000000,  0.000000 
 22014208.000000, -0.921237 , 1.603191, 10.102496, 696307648.000000, 14.840000,  17.639999,  0.770000, 0.000000,  0.000000 
 22034752.000000, -0.622134 , 1.600798, 9.875179, 696327360.000000, 17.150000,  11.970000,  0.280000, 0.000000,  0.000000 
 22054144.000000, -0.631705 , 1.483550, 9.736395, 696347904.000000, 9.240000,  7.420000,  3.710000, 0.000000,  0.000000 
 22074176.000000, -0.452243 , 1.339981, 9.355937, 696367360.000000, 2.380000,  3.850000,  5.040000, 0.000000,  0.000000 
 22094464.000000, -0.196211 , 1.399801, 9.052048, 696387328.000000, 2.030000,  0.070000,  6.580000, 0.000000,  0.000000 
 22114112.000000, -0.129212 , 1.375873, 8.803195, 696407616.000000, 1.190000,  -1.260000,  7.560000, 0.000000,  0.000000 
 22136640.000000, -0.184247 , 1.213161, 8.982656, 696427328.000000, -6.860000,  -0.350000,  10.220000, 0.000000,  0.000000 
 22154112.000000, -0.325424 , 0.942772, 9.683753, 696449792.000000, -12.670000,  2.100000,  11.970000, 0.000000,  0.000000 
 22174080.000000, -0.370888 , 0.820738, 10.040283, 696467264.000000, -11.340000,  3.920000,  9.940000, 0.000000,  0.000000 
 22194368.000000, -0.811167 , 1.146162, 10.116854, 696487296.000000, -4.060000,  5.180000,  8.050000, 0.000000,  0.000000 
 22214080.000000, -1.119841 , 1.701297, 10.004392, 696507584.000000, 9.450000,  6.160000,  6.160000, 0.000000,  0.000000 
 22234624.000000, -0.813560 , 1.942972, 9.667004, 696527232.000000, 17.780001,  4.830000,  5.950000, 0.000000,  0.000000 
 22254016.000000, -0.564706 , 1.981257, 9.497113, 696547840.000000, 13.370000,  1.470000,  8.190000, 0.000000,  0.000000 
 22274048.000000, -0.693919 , 1.895115, 8.968300, 696567232.000000, 5.180000,  -0.910000,  10.150000, 0.000000,  0.000000 
 22294336.000000, -0.942772 , 1.555335, 8.664411, 696587200.000000, 1.120000,  -0.210000,  10.990000, 0.000000,  0.000000 
 22313984.000000, -0.636491 , 1.402194, 9.229117, 696607488.000000, -1.470000,  2.590000,  13.300000, 756956416.000000,  1004.585144 
 22334592.000000, -0.555135 , 1.639083, 9.389436, 696627200.000000, -6.020000,  7.910000,  14.350000, 0.000000,  0.000000 
 22353984.000000, -0.751346 , 1.746760, 9.923036, 696647744.000000, 3.150000,  16.870001,  11.340000, 0.000000,  0.000000 
 22373952.000000, -0.957129 , 1.739582, 10.906486, 696667136.000000, 18.410000,  23.940001,  11.830000, 0.000000,  0.000000 
 22394304.000000, -0.624527 , 2.294717, 10.470992, 696687168.000000, 28.210001,  24.290001,  11.270000, 0.000000,  0.000000 
 22413952.000000, -0.248854 , 2.988636, 10.408779, 696707456.000000, 43.610001,  18.059999,  12.040000, 0.000000,  0.000000 
 22434560.000000, -0.117248 , 3.136991, 10.013963, 696727104.000000, 47.250000,  9.870000,  17.150000, 0.000000,  0.000000 
 22453952.000000, -0.550349 , 2.435893, 9.501899, 696747776.000000, 21.210001,  3.780000,  17.290001, 0.000000,  0.000000 
 22473920.000000, -0.442672 , 1.361516, 9.480364, 696767104.000000, -11.760000,  -3.710000,  17.780001, 0.000000,  0.000000 
 22494208.000000, -0.203390 , 0.571885, 8.968300, 696787072.000000, -34.509998,  -12.320000,  23.730000, 0.000000,  0.000000 
 22513920.000000, -0.174676 , 0.272782, 8.726624, 696807424.000000, -42.700001,  -17.990000,  26.809999, 0.000000,  0.000000 
 22534464.000000, -0.272782 , 0.174676, 8.858230, 696827072.000000, -36.470001,  -18.620001,  29.469999, 0.000000,  0.000000 
 22553856.000000, -0.445065 , -0.002393, 8.673983, 696847680.000000, -28.000000,  -17.080000,  27.020000, 0.000000,  0.000000 
 22573888.000000, -0.763310 , 0.047856, 9.171689, 696867072.000000, -24.780001,  -13.930000,  21.490000, 0.000000,  0.000000 
 22594176.000000, -0.803988 , 0.267996, 9.633504, 696887040.000000, -21.490000,  -10.920000,  14.910000, 0.000000,  0.000000 
 22613824.000000, -1.093520 , 0.270389, 9.712467, 696907328.000000, -19.040001,  -8.050000,  7.350000, 0.000000,  0.000000 
 22634432.000000, -1.050449 , 0.296710, 10.052249, 696927040.000000, -13.300000,  -4.410000,  1.890000, 0.000000,  0.000000 
 22653824.000000, -0.947558 , 0.485743, 10.305886, 696947584.000000, -8.960000,  -3.010000,  -3.920000, 0.000000,  0.000000 
 22673792.000000, -0.880559 , 1.074377, 10.210175, 696966976.000000, -3.920000,  -2.310000,  -8.680000, 0.000000,  0.000000 
 22694144.000000, -0.617348 , 1.636691, 9.973285, 696987008.000000, 6.230000,  -3.220000,  -14.210000, 0.000000,  0.000000 
 22713792.000000, -0.303888 , 1.835295, 9.655040, 697007296.000000, 8.050000,  -5.320000,  -19.670000, 0.000000,  0.000000 
 22734400.000000, 0.074178 , 1.864009, 9.592826, 697026944.000000, 4.830000,  -5.320000,  -20.160000, 0.000000,  0.000000 
 22753728.000000, 0.205783 , 1.739582, 9.777073, 697047552.000000, 0.490000,  -3.920000,  -14.770000, 0.000000,  0.000000 
 22773760.000000, -0.011964 , 1.677369, 9.803394, 697066944.000000, -3.430000,  -0.910000,  -8.890000, 0.000000,  0.000000 
 22794048.000000, -0.203390 , 1.450050, 10.061819, 697086912.000000, -2.520000,  2.030000,  -1.750000, 0.000000,  0.000000 
 22813696.000000, -0.435494 , 1.148555, 9.999605, 697107264.000000, -2.870000,  2.590000,  4.900000, 0.000000,  0.000000 
 22834304.000000, -0.770489 , 0.667598, 9.655040, 697126912.000000, -7.700000,  1.190000,  8.400000, 0.000000,  0.000000 
 22853696.000000, -0.667598 , 0.492921, 9.437292, 697147520.000000, -8.820000,  -0.910000,  10.220000, 0.000000,  0.000000 
 22873664.000000, -0.306281 , 0.413958, 9.008978, 697166912.000000, -8.890000,  -4.270000,  9.660000, 0.000000,  0.000000 
 22894016.000000, -0.253639 , 0.449851, 8.973085, 697186880.000000, -8.820000,  -4.760000,  6.790000, 0.000000,  0.000000 
 22913664.000000, -0.241675 , 0.629312, 9.133404, 697207168.000000, -6.090000,  -2.730000,  2.940000, 0.000000,  0.000000 
 22934272.000000, -0.478565 , 0.806381, 8.985049, 697226816.000000, -3.990000,  -0.630000,  -0.840000, 0.000000,  0.000000 
 22953664.000000, -0.521635 , 0.933201, 8.882158, 697247424.000000, -6.790000,  2.170000,  -0.700000, 0.000000,  0.000000 
 22973632.000000, -0.203390 , 1.227518, 8.891729, 697266816.000000, -0.840000,  3.500000,  -1.610000, 0.000000,  0.000000 
 22993920.000000, 0.019143 , 1.210768, 9.444471, 697286784.000000, 5.950000,  4.480000,  0.140000, 0.000000,  0.000000 
 23013632.000000, -0.165105 , 1.076770, 10.442278, 697307136.000000, 9.100000,  7.280000,  3.500000, 0.000000,  0.000000 
 23034176.000000, -1.019342 , 1.306481, 10.557133, 697326784.000000, 17.150000,  10.780000,  5.180000, 0.000000,  0.000000 
 23053568.000000, -1.143769 , 2.117648, 10.320245, 697347392.000000, 26.809999,  13.160000,  4.760000, 0.000000,  0.000000 
 23073600.000000, -0.483350 , 3.022135, 9.535398, 697366784.000000, 56.000000,  12.670000,  5.320000, 0.000000,  0.000000 
 23093888.000000, 0.038285 , 3.314059, 8.819944, 697386752.000000, 78.050003,  7.490000,  4.550000, 0.000000,  0.000000 
 23113536.000000, 0.114855 , 3.074777, 9.114261, 697407040.000000, 67.970001,  5.320000,  5.250000, 0.000000,  0.000000 
 23136128.000000, -0.189033 , 1.883151, 9.324830, 697426752.000000, 27.160000,  7.910000,  13.160000, 0.000000,  0.000000 
 23153536.000000, -0.729811 , 0.835095, 9.420543, 697449280.000000, -14.560000,  12.880000,  14.350000, 0.000000,  0.000000 
 23173504.000000, -0.600598 , 0.885344, 9.312866, 697466688.000000, -19.740000,  19.180000,  12.810000, 0.000000,  0.000000 
 23193856.000000, -0.205783 , 1.234696, 8.796017, 697486720.000000, -3.150000,  21.910000,  16.240000, 0.000000,  0.000000 
 23213504.000000, -0.521635 , 1.304088, 8.571091, 697507008.000000, 12.810000,  25.690001,  18.969999, 0.000000,  0.000000 
 23234112.000000, -1.081556 , 1.280160, 8.884550, 697526656.000000, 18.900000,  32.480000,  19.879999, 0.000000,  0.000000 
 23253504.000000, -1.189233 , 1.679761, 9.020942, 697547264.000000, 23.309999,  36.959999,  18.059999, 0.000000,  0.000000 
 23273472.000000, -0.485743 , 2.823531, 8.994620, 697566656.000000, 37.099998,  34.230000,  12.040000, 0.000000,  0.000000 
 23293760.000000, 0.126820 , 3.706482, 8.980263, 697606976.000000, 51.099998,  27.090000,  5.320000, 757955904.000000,  1004.585266 
 23313472.000000, -0.291924 , 3.993621, 9.408579, 0.000000, 0.000000,  0.000000,  0.000000, 0.000000,  0.000000 
 23334016.000000, -0.818345 , 3.601198, 10.516455, 697626624.000000, 19.879999,  27.090000,  4.550000, 0.000000,  0.000000 
 23353408.000000, -1.268196 , 2.969493, 10.805987, 697647232.000000, -8.960000,  23.100000,  6.020000, 0.000000,  0.000000 
 23373440.000000, -1.581656 , 2.600998, 10.281959, 697666624.000000, -12.250000,  15.890000,  7.980000, 0.000000,  0.000000 
 23393728.000000, -1.268196 , 3.091527, 9.915856, 697686592.000000, 2.240000,  4.060000,  10.080000, 0.000000,  0.000000 
 23413376.000000, -0.983450 , 3.081956, 9.355937, 697706880.000000, 10.990000,  -7.840000,  12.810000, 0.000000,  0.000000 
 23434048.000000, -1.194018 , 2.335395, 9.133404, 697726592.000000, -1.960000,  -11.130000,  15.120000, 0.000000,  0.000000 
 23453376.000000, -1.079163 , 1.758725, 9.645468, 697747200.000000, -30.240000,  -11.690000,  16.450001, 0.000000,  0.000000 
 23473344.000000, -1.191626 , 1.215554, 9.745967, 697766528.000000, -47.040001,  -13.230000,  15.890000, 0.000000,  0.000000 
 23493696.000000, -1.631905 , 0.808774, 9.748360, 697786560.000000, -47.459999,  -13.370000,  13.790000, 0.000000,  0.000000 
 23513344.000000, -1.361516 , 1.153341, 10.004392, 697806848.000000, -37.799999,  -16.730000,  10.430000, 0.000000,  0.000000 
 23533952.000000, -1.277767 , 1.433301, 10.045070, 697826496.000000, -26.530001,  -22.049999,  5.110000, 0.000000,  0.000000 
 23553344.000000, -1.538585 , 1.397408, 10.011569, 697847104.000000, -22.330000,  -21.840000,  1.890000, 0.000000,  0.000000 
 23573312.000000, -1.679761 , 1.117448, 9.805787, 697866496.000000, -32.270000,  -22.330000,  -4.340000, 0.000000,  0.000000 
 23593600.000000, -1.737189 , 1.332802, 8.987441, 697886464.000000, -33.459999,  -24.710001,  -11.760000, 0.000000,  0.000000 
 23613312.000000, -1.280160 , 2.170290, 8.496914, 697906816.000000, -23.030001,  -25.620001,  -18.270000, 0.000000,  0.000000 
 23633856.000000, -0.741775 , 2.478964, 8.293523, 697926464.000000, -12.950000,  -25.129999,  -18.620001, 0.000000,  0.000000 
 23653248.000000, -0.275175 , 2.072184, 8.403593, 697947072.000000, -12.180000,  -18.900000,  -14.350000, 0.000000,  0.000000 
 23673280.000000, 0.148355 , 1.332802, 9.095119, 697966464.000000, -19.950001,  -9.800000,  -7.630000, 0.000000,  0.000000 
 23693568.000000, 0.232104 , 1.311267, 9.310472, 697986432.000000, -18.620001,  -1.540000,  -1.260000, 0.000000,  0.000000 
 23713216.000000, 0.244068 , 1.933401, 9.504292, 698006720.000000, 0.910000,  6.300000,  4.760000, 0.000000,  0.000000 
 23733824.000000, 0.210568 , 2.242075, 10.669596, 698026432.000000, 23.170000,  10.710000,  8.820000, 0.000000,  0.000000 
 23753216.000000, 0.167498 , 1.672583, 12.124433, 698046976.000000, 27.440001,  10.220000,  8.050000, 0.000000,  0.000000 
 23773184.000000, -0.236889 , 0.928415, 12.172288, 698066368.000000, 17.570000,  4.620000,  4.830000, 0.000000,  0.000000 
 23793472.000000, -0.564706 , 1.332802, 10.588240, 698086400.000000, 20.230000,  -4.550000,  3.500000, 0.000000,  0.000000 
 23813184.000000, -0.433101 , 2.364109, 9.128618, 698106688.000000, 35.910000,  -15.960000,  2.730000, 0.000000,  0.000000 
 23833792.000000, 0.203390 , 2.009971, 9.032906, 698126336.000000, 26.809999,  -25.549999,  2.940000, 0.000000,  0.000000 
 23853184.000000, 0.313460 , 0.744168, 9.300901, 698146944.000000, -17.080000,  -31.500000,  3.290000, 0.000000,  0.000000 
 23873152.000000, -0.263210 , -0.088534, 9.590433, 698166336.000000, -59.849998,  -29.820000,  -0.630000, 0.000000,  0.000000 
 23893440.000000, -0.799203 , -0.323031, 9.265009, 698186304.000000, -58.380001,  -24.570000,  -3.080000, 0.000000,  0.000000 
 23913152.000000, -0.504886 , 0.440279, 8.537591, 698206592.000000, -23.730000,  -21.910000,  -5.740000, 0.000000,  0.000000 
 23933696.000000, -0.205783 , 1.182054, 7.965706, 698226304.000000, 10.290000,  -20.230000,  -6.090000, 0.000000,  0.000000 
 23953088.000000, -0.174676 , 1.672583, 8.063812, 698246912.000000, 25.690001,  -14.840000,  -6.020000, 0.000000,  0.000000 
 23973120.000000, -0.246461 , 1.466800, 8.102098, 698266304.000000, 14.770000,  -6.370000,  -11.060000, 0.000000,  0.000000 
 23993408.000000, -0.021535 , 1.399801, 8.475377, 698286272.000000, 3.290000,  1.470000,  -16.940001, 0.000000,  0.000000 
 24013056.000000, 0.287139 , 1.612763, 9.276974, 698306560.000000, -2.660000,  6.230000,  -20.719999, 0.000000,  0.000000 
 24033664.000000, -0.038285 , 1.995614, 9.463614, 698326272.000000, -4.200000,  10.290000,  -21.000000, 0.000000,  0.000000 
 24053056.000000, -0.251246 , 2.254039, 9.413363, 698346816.000000, 0.770000,  14.280000,  -19.180000, 0.000000,  0.000000 
 24073024.000000, -0.119641 , 2.428715, 9.499505, 698366208.000000, 7.840000,  13.790000,  -15.260000, 0.000000,  0.000000 
 24093312.000000, -0.047856 , 2.395216, 10.011569, 698386240.000000, 8.470000,  12.740000,  -10.290000, 0.000000,  0.000000 
 24113024.000000, -0.315853 , 2.301895, 10.432706, 698406528.000000, 2.520000,  12.810000,  -4.970000, 0.000000,  0.000000 
 24135552.000000, -0.468993 , 2.194218, 10.092925, 698426176.000000, 0.700000,  12.180000,  -1.190000, 0.000000,  0.000000 
 24153024.000000, -0.251246 , 2.096112, 10.145569, 698448768.000000, 2.940000,  9.030000,  1.470000, 0.000000,  0.000000 
 24172992.000000, -0.157926 , 1.825724, 10.267602, 698466176.000000, 0.280000,  4.130000,  5.040000, 0.000000,  0.000000 
 24193280.000000, -0.361316 , 1.502693, 10.045070, 698486144.000000, -6.860000,  1.610000,  4.900000, 0.000000,  0.000000 
 24212992.000000, -0.198604 , 1.397408, 9.889536, 698506432.000000, -6.370000,  0.350000,  3.290000, 0.000000,  0.000000 
 24233536.000000, -0.052642 , 1.275374, 9.923036, 698526144.000000, -6.230000,  -2.660000,  4.060000, 0.000000,  0.000000 
 24252928.000000, -0.232104 , 1.048056, 9.674182, 698546752.000000, -13.160000,  -3.780000,  4.200000, 0.000000,  0.000000 
 24272960.000000, -0.236889 , 0.942772, 9.391829, 698566144.000000, -15.750000,  -4.410000,  1.680000, 0.000000,  0.000000 
 24293248.000000, -0.272782 , 0.940379, 9.047262, 698586112.000000, -13.930000,  -6.090000,  -0.350000, 0.000000,  0.000000 
 24312896.000000, -0.229711 , 0.911665, 8.836694, 698606400.000000, -14.210000,  -5.810000,  -2.240000, 758955328.000000,  1004.584839 
 24333504.000000, -0.253639 , 0.928415, 9.097511, 698626048.000000, -15.260000,  -3.500000,  -2.590000, 0.000000,  0.000000 
 24352896.000000, -0.258425 , 1.040878, 9.408579, 698646656.000000, -11.830000,  -0.280000,  -3.220000, 0.000000,  0.000000 
 24372864.000000, -0.282353 , 1.186840, 9.408579, 698666048.000000, -1.680000,  2.800000,  -4.410000, 0.000000,  0.000000 
 24393152.000000, -0.334995 , 1.481157, 9.588040, 698686080.000000, 10.220000,  5.390000,  -4.480000, 0.000000,  0.000000 
 24412864.000000, -0.342174 , 1.844866, 9.848858, 698706368.000000, 17.780001,  7.070000,  -3.430000, 0.000000,  0.000000 
 24433472.000000, -0.160319 , 2.045863, 9.832108, 698726016.000000, 18.969999,  6.160000,  -2.170000, 0.000000,  0.000000 
 24452800.000000, -0.184247 , 1.811367, 9.824929, 698746624.000000, 13.160000,  4.550000,  -1.680000, 0.000000,  0.000000 
 24472832.000000, -0.114855 , 1.521835, 10.078569, 698766016.000000, 1.260000,  3.150000,  -0.070000, 0.000000,  0.000000 
 24493120.000000, -0.239282 , 1.205983, 10.021141, 698785984.000000, -9.100000,  1.050000,  0.770000, 0.000000,  0.000000 
 24512768.000000, -0.311067 , 1.162912, 9.767502, 698806272.000000, -8.960000,  -1.680000,  1.120000, 0.000000,  0.000000 
 24533376.000000, -0.260818 , 1.261017, 9.473185, 698825984.000000, -3.710000,  -3.920000,  1.050000, 0.000000,  0.000000 
 24552768.000000, -0.399601 , 1.150948, 9.415757, 698846592.000000, -1.120000,  -4.410000,  0.840000, 0.000000,  0.000000 
 24572736.000000, -0.562313 , 1.122234, 9.552148, 698865920.000000, -4.130000,  -3.570000,  -1.610000, 0.000000,  0.000000 
 24593088.000000, -0.792024 , 1.127020, 9.049655, 698885952.000000, -2.940000,  -2.030000,  -3.780000, 0.000000,  0.000000 
 24612736.000000, -0.459422 , 1.328017, 8.547162, 698906240.000000, 4.900000,  -0.070000,  -5.600000, 0.000000,  0.000000 
 24633344.000000, -0.272782 , 1.689333, 8.683553, 698925888.000000, 13.160000,  1.190000,  -4.830000, 0.000000,  0.000000 
 24652736.000000, -0.399601 , 1.696511, 9.379865, 698946496.000000, 15.120000,  6.090000,  -3.780000, 0.000000,  0.000000 
 24672704.000000, -0.497707 , 1.605584, 9.817751, 698965888.000000, 17.990000,  13.020000,  -2.380000, 0.000000,  0.000000 
 24692992.000000, -0.102891 , 1.902294, 10.059426, 698985856.000000, 30.380001,  18.830000,  1.540000, 0.000000,  0.000000 
 24712704.000000, 0.267996 , 2.455036, 10.336994, 699006208.000000, 51.310001,  21.770000,  6.930000, 0.000000,  0.000000 
 24733248.000000, 0.220140 , 3.046063, 10.219746, 699025856.000000, 72.239998,  22.330000,  8.960000, 0.000000,  0.000000 
 24752640.000000, -0.019143 , 3.524628, 10.076177, 699046464.000000, 82.949997,  21.280001,  8.120000, 0.000000,  0.000000 
 24772672.000000, -0.315853 , 3.850052, 9.872787, 699065856.000000, 78.959999,  18.830000,  6.860000, 0.000000,  0.000000 
 24792960.000000, -0.299103 , 3.792624, 9.556933, 699085824.000000, 64.330002,  15.260000,  6.860000, 0.000000,  0.000000 
 24812608.000000, -0.232104 , 3.378666, 9.241080, 699106112.000000, 41.930000,  11.620000,  6.930000, 0.000000,  0.000000 
 24833216.000000, -0.344566 , 2.790031, 9.482756, 699125824.000000, 17.710001,  8.470000,  5.740000, 0.000000,  0.000000 
 24852608.000000, -0.624527 , 2.560320, 9.497113, 699146368.000000, 3.220000,  5.530000,  4.620000, 0.000000,  0.000000 
 24872576.000000, -0.866202 , 2.471786, 8.750552, 699165760.000000, 3.850000,  3.780000,  5.110000, 0.000000,  0.000000 
 24892928.000000, -0.713061 , 2.816352, 8.666803, 699185792.000000, 13.160000,  1.400000,  7.490000, 0.000000,  0.000000 
 24912576.000000, -0.725025 , 3.151347, 8.666803, 699206080.000000, 20.230000,  -0.700000,  7.700000, 0.000000,  0.000000 
 24933184.000000, -0.897308 , 3.266203, 8.477771, 699225728.000000, 20.020000,  -1.120000,  7.980000, 0.000000,  0.000000 
 24952576.000000, -0.835095 , 3.395415, 8.721838, 699246336.000000, 17.010000,  -1.470000,  7.490000, 0.000000,  0.000000 
 24972544.000000, -0.978664 , 3.424129, 8.504091, 699265728.000000, 7.560000,  -1.540000,  6.790000, 0.000000,  0.000000 
 24992832.000000, -0.669990 , 3.292524, 8.216952, 699285696.000000, 1.540000,  0.210000,  5.530000, 0.000000,  0.000000 
 25012544.000000, -0.440279 , 3.153740, 8.157133, 699306048.000000, -3.080000,  0.770000,  4.480000, 0.000000,  0.000000 
 25033088.000000, -0.571885 , 3.031706, 8.212167, 699325696.000000, -9.450000,  0.210000,  1.610000, 0.000000,  0.000000 
 25052480.000000, -0.832702 , 2.971886, 8.341379, 699346304.000000, -13.160000,  3.430000,  0.210000, 0.000000,  0.000000 
 25072512.000000, -0.794417 , 2.880959, 8.764909, 699365696.000000, -14.490000,  7.140000,  1.540000, 0.000000,  0.000000 
 25092800.000000, -0.801596 , 2.924029, 9.075976, 699385664.000000, -12.180000,  10.080000,  2.310000, 0.000000,  0.000000 
 25112448.000000, -0.801596 , 3.036492, 9.286544, 699405952.000000, -7.630000,  13.020000,  3.920000, 0.000000,  0.000000 
 25135040.000000, -0.945165 , 3.361916, 9.698111, 699425664.000000, -3.290000,  13.580000,  5.460000, 0.000000,  0.000000 
 25152448.000000, -1.100698 , 3.620341, 9.975677, 699448192.000000, -3.570000,  12.670000,  5.320000, 0.000000,  0.000000 
 25172416.000000, -1.117448 , 3.534199, 10.090532, 699465600.000000, -10.290000,  11.620000,  4.410000, 0.000000,  0.000000 
 25192704.000000, -0.861416 , 3.206382, 10.121639, 699485632.000000, -23.520000,  8.680000,  1.890000, 0.000000,  0.000000 
 25212416.000000, -0.495314 , 2.811567, 10.049855, 699505920.000000, -35.139999,  3.640000,  -2.030000, 0.000000,  0.000000 
 25233024.000000, -0.064606 , 2.522035, 10.231709, 699525568.000000, -39.970001,  -2.870000,  -6.020000, 0.000000,  0.000000 
 25252416.000000, 0.014357 , 2.163112, 10.937593, 699546176.000000, -47.110001,  -8.890000,  -4.200000, 0.000000,  0.000000 
 25272384.000000, -0.562313 , 1.639083, 11.148161, 699565568.000000, -52.570000,  -13.230000,  -3.920000, 0.000000,  0.000000 
 25292672.000000, -1.220340 , 1.584049, 10.597812, 699585536.000000, -42.209999,  -16.940001,  -6.300000, 0.000000,  0.000000 
 25312384.000000, -1.136591 , 2.361716, 9.841680, 699605888.000000, -13.860000,  -24.290001,  -4.690000, 759954816.000000,  1004.585999 
 25332928.000000, -0.789631 , 2.744568, 9.458827, 699625536.000000, 8.400000,  -32.759998,  -0.560000, 0.000000,  0.000000 
 25352320.000000, -1.107877 , 2.344966, 9.458827, 699646144.000000, -1.890000,  -36.330002,  -1.260000, 0.000000,  0.000000 
 25372352.000000, -1.581656 , 1.718047, 8.891729, 699665536.000000, -30.660000,  -34.650002,  -3.010000, 0.000000,  0.000000 
 25392640.000000, -1.359123 , 1.055235, 8.556733, 699685504.000000, -42.560001,  -29.469999,  -6.230000, 0.000000,  0.000000 
 25412288.000000, -0.873380 , 0.928415, 8.185846, 699705792.000000, -34.720001,  -24.710001,  -8.190000, 0.000000,  0.000000 
 25432960.000000, -0.339781 , 1.277767, 7.800602, 699725504.000000, -24.430000,  -18.410000,  -10.500000, 0.000000,  0.000000 
 25452288.000000, 0.047856 , 1.883151, 7.925028, 699746112.000000, -7.350000,  -10.570000,  -13.160000, 0.000000,  0.000000 
 25472256.000000, 0.253639 , 2.129612, 8.422735, 699765440.000000, 8.050000,  -1.260000,  -17.219999, 0.000000,  0.000000 
 25492544.000000, 0.217747 , 2.244468, 9.202796, 699785472.000000, 15.890000,  10.360000,  -15.610000, 0.000000,  0.000000 
 25512256.000000, -0.545564 , 2.586641, 9.518648, 699805760.000000, 15.750000,  18.620001,  -11.970000, 0.000000,  0.000000 
 25532800.000000, -0.880559 , 3.136991, 9.693325, 699825408.000000, 16.030001,  22.190001,  -9.590000, 0.000000,  0.000000 
 25552256.000000, -0.370888 , 3.440879, 10.705488, 699846016.000000, 22.680000,  17.710001,  -5.600000, 0.000000,  0.000000 
 25572224.000000, -0.452243 , 3.328416, 11.676974, 699865408.000000, 18.270000,  8.050000,  -3.780000, 0.000000,  0.000000 
 25592768.000000, -1.141376 , 2.991028, 11.428121, 699885376.000000, 3.780000,  -0.070000,  -3.990000, 0.000000,  0.000000 
 25612160.000000, -1.328017 , 2.691926, 10.418350, 699905984.000000, -1.050000,  -9.590000,  -3.570000, 0.000000,  0.000000 
 25632768.000000, -1.148555 , 2.383251, 9.257831, 699925376.000000, 2.030000,  -19.040001,  -1.190000, 0.000000,  0.000000 
 25652160.000000, -0.674776 , 2.110470, 8.109276, 699945984.000000, -2.660000,  -24.430000,  2.240000, 0.000000,  0.000000 
 25672192.000000, -0.112463 , 1.428515, 7.434500, 699965376.000000, -15.680000,  -25.410000,  5.600000, 0.000000,  0.000000 
 25692480.000000, 0.586242 , 1.134198, 7.374680, 699985344.000000, -23.240000,  -21.280001,  6.720000, 0.000000,  0.000000 
 25712128.000000, 0.976272 , 0.902094, 7.805387, 700005632.000000, -25.690001,  -12.460000,  5.880000, 0.000000,  0.000000 
 25732736.000000, 0.799203 , 0.904487, 8.779266, 700025344.000000, -24.150000,  1.400000,  4.900000, 0.000000,  0.000000 
 25752128.000000, 0.507278 , 1.225125, 9.707682, 700045888.000000, -22.750000,  14.000000,  0.840000, 0.000000,  0.000000 
 25772096.000000, 0.289532 , 1.490728, 10.293922, 700065280.000000, -20.160000,  21.490000,  -6.020000, 0.000000,  0.000000 
 25792384.000000, 0.358923 , 1.418944, 10.456635, 700085312.000000, -15.680000,  21.350000,  -10.850000, 0.000000,  0.000000 
 25812096.000000, 0.256032 , 1.471586, 10.248460, 700105600.000000, -14.350000,  16.100000,  -14.980000, 0.000000,  0.000000 
 25832704.000000, -0.062213 , 1.689333, 9.564112, 700125248.000000, -12.670000,  10.290000,  -15.960000, 0.000000,  0.000000 
 25852096.000000, -0.014357 , 1.919044, 8.908479, 700145856.000000, -7.070000,  4.970000,  -12.950000, 0.000000,  0.000000 
 25872064.000000, 0.691526 , 1.538585, 8.776874, 700165248.000000, -9.870000,  0.490000,  -7.280000, 0.000000,  0.000000 
 25892352.000000, 0.681954 , 0.713061, 9.367901, 700185216.000000, -22.820000,  -1.400000,  -1.890000, 0.000000,  0.000000 
 25912064.000000, -0.021535 , 0.016750, 10.016356, 700205504.000000, -32.480000,  2.380000,  0.980000, 0.000000,  0.000000 
 25932608.000000, -0.478565 , 0.342174, 10.260423, 700225216.000000, -21.840000,  7.490000,  3.080000, 0.000000,  0.000000 
 25952000.000000, -0.435494 , 1.239482, 10.341780, 700245760.000000, 6.020000,  8.260000,  4.410000, 0.000000,  0.000000 
 25971968.000000, 0.114855 , 1.773082, 9.961320, 700265216.000000, 32.480000,  6.510000,  2.520000, 0.000000,  0.000000 
 25992320.000000, 0.229711 , 1.610370, 9.779467, 700285184.000000, 34.860001,  3.990000,  -0.490000, 0.000000,  0.000000 
 26011968.000000, -0.267996 , 1.464408, 9.731609, 700305472.000000, 14.630000,  3.360000,  -1.540000, 0.000000,  0.000000 
 26032576.000000, -0.497707 , 1.529014, 9.614362, 700325184.000000, -0.490000,  2.870000,  -3.360000, 0.000000,  0.000000 
 26051968.000000, -0.425922 , 1.318445, 9.487542, 700345728.000000, -3.080000,  0.070000,  -4.900000, 0.000000,  0.000000 
 26071936.000000, -0.162712 , 1.182054, 9.233903, 700365120.000000, -5.180000,  -3.360000,  -5.040000, 0.000000,  0.000000 
 26092224.000000, -0.239282 , 1.172483, 9.142976, 700385152.000000, -9.030000,  -4.690000,  -3.010000, 0.000000,  0.000000 
 26111936.000000, -0.473779 , 1.246661, 9.207582, 700405440.000000, -7.140000,  -2.590000,  -2.730000, 0.000000,  0.000000 
 26134464.000000, -0.684347 , 1.399801, 9.439686, 700425088.000000, 2.380000,  -0.210000,  -2.800000, 0.000000,  0.000000 
 26151872.000000, -0.741775 , 1.457229, 9.578469, 700447616.000000, 10.570000,  1.610000,  -3.010000, 0.000000,  0.000000 
 26171904.000000, -0.658026 , 1.579263, 9.652647, 700465088.000000, 18.480000,  2.800000,  -3.220000, 0.000000,  0.000000 
 26192192.000000, -0.686740 , 1.952543, 9.616754, 700485056.000000, 28.559999,  4.340000,  -2.660000, 0.000000,  0.000000 
 26211840.000000, -0.897308 , 2.457429, 9.638289, 700505344.000000, 39.270000,  6.440000,  -1.330000, 0.000000,  0.000000 
 26232448.000000, -0.906880 , 2.775674, 9.937392, 700525056.000000, 42.910000,  7.840000,  0.560000, 0.000000,  0.000000 
 26251840.000000, -0.753739 , 2.845066, 9.930215, 700545600.000000, 36.049999,  6.860000,  1.190000, 0.000000,  0.000000 
 26271808.000000, -0.648455 , 2.821138, 9.903893, 700564992.000000, 22.610001,  4.760000,  0.280000, 0.000000,  0.000000 
 26292160.000000, -0.677169 , 2.768496, 9.755538, 700585024.000000, 8.260000,  2.170000,  -1.190000, 0.000000,  0.000000 
 26311808.000000, -0.686740 , 2.536392, 9.513863, 700605312.000000, -4.690000,  -0.910000,  -3.920000, 760954240.000000,  1004.588867 
 26332416.000000, -0.375673 , 2.146362, 9.442079, 700624960.000000, -14.000000,  -4.410000,  -5.810000, 0.000000,  0.000000 
 26351808.000000, -0.339781 , 1.871187, 9.722038, 700645568.000000, -20.580000,  -7.490000,  -6.650000, 0.000000,  0.000000 
 26371776.000000, -0.808774 , 1.837688, 9.710074, 700664960.000000, -22.260000,  -8.820000,  -7.210000, 0.000000,  0.000000 
 26392064.000000, -1.074377 , 1.995614, 9.099905, 700684928.000000, -14.000000,  -8.890000,  -9.100000, 0.000000,  0.000000 
 26411776.000000, -0.842274 , 1.971686, 8.848659, 700705280.000000, -3.850000,  -10.010000,  -9.100000, 0.000000,  0.000000 
 26432384.000000, -0.720240 , 1.722832, 9.025726, 700724928.000000, -6.930000,  -11.060000,  -6.720000, 0.000000,  0.000000 
 26451712.000000, -0.851845 , 1.660619, 9.181261, 700745536.000000, -17.570000,  -10.710000,  -5.810000, 0.000000,  0.000000 
 26471744.000000, -0.736989 , 1.610370, 8.949157, 700764928.000000, -19.040001,  -10.150000,  -6.860000, 0.000000,  0.000000 
 26492032.000000, -0.368495 , 1.641476, 8.939585, 700784896.000000, -15.470000,  -10.080000,  -6.790000, 0.000000,  0.000000 
 26511680.000000, -0.052642 , 1.689333, 9.267403, 700805184.000000, -12.950000,  -8.890000,  -7.280000, 0.000000,  0.000000 
 26532288.000000, -0.011964 , 1.636691, 9.681360, 700824896.000000, -13.020000,  -5.460000,  -8.610000, 0.000000,  0.000000 
 26551680.000000, 0.004786 , 1.768296, 10.021141, 700845440.000000, -8.540000,  -2.100000,  -12.950000, 0.000000,  0.000000 
 26571648.000000, -0.045464 , 1.911865, 9.784252, 700864832.000000, 0.140000,  -0.770000,  -15.890000, 0.000000,  0.000000 
 26592000.000000, -0.014357 , 2.002793, 9.454042, 700884864.000000, 7.210000,  -1.400000,  -17.920000, 0.000000,  0.000000 
 26611648.000000, 0.301496 , 2.057827, 9.542577, 700905152.000000, 7.980000,  -2.870000,  -16.240000, 0.000000,  0.000000 
 26632256.000000, 0.392423 , 1.801795, 9.650253, 700924800.000000, -0.280000,  -4.480000,  -11.900000, 0.000000,  0.000000 
 26651648.000000, 0.260818 , 1.174876, 9.810574, 700945408.000000, -10.570000,  -4.620000,  -8.260000, 0.000000,  0.000000 
 26671616.000000, 0.265603 , 0.904487, 9.667004, 700964800.000000, -15.540000,  -5.040000,  -3.990000, 0.000000,  0.000000 
 26691904.000000, 0.512064 , 1.028914, 9.578469, 700984768.000000, -10.640000,  -5.390000,  -1.610000, 0.000000,  0.000000 
 26711552.000000, 0.449851 , 1.261017, 9.260223, 701005056.000000, -1.820000,  -5.880000,  -0.070000, 0.000000,  0.000000 
 26732160.000000, 0.332602 , 1.294517, 9.200402, 701024768.000000, -1.120000,  -4.900000,  0.280000, 0.000000,  0.000000 
 26751552.000000, 0.595813 , 0.988236, 9.463614, 701045376.000000, -6.230000,  -4.130000,  -0.910000, 0.000000,  0.000000 
 26771584.000000, 0.521635 , 0.777667, 9.719646, 701064768.000000, -14.210000,  -4.200000,  -3.500000, 0.000000,  0.000000 
 26791872.000000, 0.215354 , 0.981057, 9.923036, 701084736.000000, -14.770000,  -3.150000,  -6.300000, 0.000000,  0.000000 
 26811520.000000, -0.026321 , 1.138984, 9.891929, 701105024.000000, -4.830000,  -2.870000,  -9.660000, 0.000000,  0.000000 
 26832128.000000, 0.002393 , 1.284946, 9.810574, 701124736.000000, 2.170000,  -3.850000,  -12.670000, 0.000000,  0.000000 
 26851520.000000, 0.098106 , 1.464408, 9.786645, 701145280.000000, 1.890000,  -5.670000,  -12.810000, 0.000000,  0.000000 
 26871488.000000, -0.301496 , 1.581656, 9.561719, 701164672.000000, -1.680000,  -6.090000,  -12.460000, 0.000000,  0.000000 
 26891776.000000, -0.586242 , 1.701297, 9.147761, 701184640.000000, -4.970000,  -4.830000,  -14.280000, 0.000000,  0.000000 
 26911488.000000, -0.507278 , 1.792224, 8.834301, 701204992.000000, -1.260000,  -2.730000,  -15.470000, 0.000000,  0.000000 
 26932096.000000, -0.344566 , 1.971686, 8.901299, 701224640.000000, -0.560000,  -1.050000,  -12.320000, 0.000000,  0.000000 
 26951424.000000, -0.514457 , 1.947758, 9.485149, 701245248.000000, -3.430000,  1.820000,  -9.730000, 0.000000,  0.000000 
 26971456.000000, -0.677169 , 1.990828, 9.743573, 701264640.000000, -4.970000,  6.650000,  -8.820000, 0.000000,  0.000000 
 26991744.000000, -0.409173 , 1.691726, 9.812965, 701284608.000000, -3.710000,  9.520000,  -8.610000, 0.000000,  0.000000 
 27011392.000000, -0.433101 , 1.715654, 10.076177, 701304896.000000, -0.700000,  9.450000,  -8.400000, 0.000000,  0.000000 
 27032000.000000, -0.830309 , 1.746760, 10.286745, 701324608.000000, -4.480000,  8.540000,  -6.300000, 0.000000,  0.000000 
 27051392.000000, -1.002593 , 1.706082, 10.305886, 701345216.000000, -4.970000,  6.790000,  -4.830000, 0.000000,  0.000000 
 27071360.000000, -0.957129 , 1.741975, 10.004392, 701364544.000000, 0.210000,  2.100000,  -5.390000, 0.000000,  0.000000 
 27091712.000000, -1.220340 , 1.868794, 9.970891, 701384576.000000, 4.690000,  -2.240000,  -4.900000, 0.000000,  0.000000 
 27111360.000000, -0.993021 , 2.258825, 9.643075, 701404864.000000, 11.620000,  -4.270000,  -0.490000, 0.000000,  0.000000 
 27133888.000000, -0.552742 , 1.990828, 8.616554, 701424512.000000, 18.200001,  -6.650000,  7.350000, 0.000000,  0.000000 
 27151360.000000, 0.155533 , 1.581656, 8.437093, 701447104.000000, 14.770000,  -6.790000,  9.940000, 0.000000,  0.000000 
 27171328.000000, 0.674776 , 0.768096, 8.932407, 701464512.000000, -5.320000,  -4.620000,  9.310000, 0.000000,  0.000000 
 27191616.000000, 0.198604 , -0.086142, 9.547362, 701484480.000000, -24.990000,  0.420000,  10.080000, 0.000000,  0.000000 
 27211328.000000, -0.184247 , 0.244068, 9.659825, 701504832.000000, -22.330000,  6.090000,  8.890000, 0.000000,  0.000000 
 27231872.000000, -0.358923 , 0.634098, 9.473185, 701524480.000000, -22.330000,  6.860000,  8.260000, 0.000000,  0.000000 
 27251264.000000, -0.641276 , 1.349552, 9.547362, 701545088.000000, 16.100000,  6.160000,  5.110000, 0.000000,  0.000000 
 27271296.000000, -0.897308 , 1.548156, 10.210175, 701564480.000000, 17.639999,  6.440000,  0.700000, 0.000000,  0.000000 
 27291584.000000, -0.392423 , 2.079363, 9.724431, 701584448.000000, 13.510000,  4.550000,  -4.480000, 0.000000,  0.000000 
 27311232.000000, -0.535992 , 2.292324, 9.870394, 701604736.000000, 17.219999,  3.710000,  -3.990000, 761953664.000000,  1004.587219 
 27331840.000000, -0.440279 , 2.115255, 9.915856, 701624448.000000, 9.590000,  3.220000,  -9.240000, 0.000000,  0.000000 
 27351232.000000, 0.208176 , 2.407180, 9.341579, 701644992.000000, 2.030000,  1.120000,  -8.610000, 0.000000,  0.000000 
 27371200.000000, 0.311067 , 2.531606, 9.832108, 701664384.000000, 10.290000,  1.120000,  -4.200000, 0.000000,  0.000000 
 27391552.000000, 0.143569 , 2.603391, 9.903893, 701684416.000000, 18.760000,  -0.630000,  4.480000, 0.000000,  0.000000 
 27411520.000000, 0.035892 , 2.206182, 10.037891, 701704704.000000, 13.440001,  -0.420000,  9.520000, 0.000000,  0.000000 
 27431808.000000, 0.009571 , 0.813560, 10.418350, 701724672.000000, -2.940000,  -1.120000,  11.620000, 0.000000,  0.000000 
 27451200.000000, -0.047856 , 0.143569, 10.284351, 701745024.000000, -26.600000,  -5.600000,  10.920000, 0.000000,  0.000000 
 27471168.000000, -0.236889 , 0.126820, 9.434900, 701764352.000000, -32.759998,  -10.570000,  9.450000, 0.000000,  0.000000 
 27491456.000000, 0.105284 , 0.796810, 8.384450, 701784320.000000, -21.559999,  -12.600000,  3.010000, 0.000000,  0.000000 
 27511168.000000, 0.203390 , 1.019342, 7.544570, 701804672.000000, -11.760000,  -10.500000,  -3.710000, 0.000000,  0.000000 
 27531712.000000, 0.533599 , 1.392623, 7.396214, 701824320.000000, -4.690000,  -3.500000,  -8.470000, 0.000000,  0.000000 
 27551104.000000, 1.050449 , 1.536192, 7.637890, 701844928.000000, 4.270000,  3.080000,  -2.730000, 0.000000,  0.000000 
 27571136.000000, 0.837488 , 1.313660, 8.705089, 701864320.000000, 4.830000,  9.380000,  2.030000, 0.000000,  0.000000 
 27591424.000000, 0.131605 , 1.734797, 9.724431, 701884288.000000, 2.100000,  16.520000,  0.630000, 0.000000,  0.000000 
 27611072.000000, -0.425922 , 2.562713, 11.186446, 701904576.000000, 14.490000,  21.420000,  -2.310000, 0.000000,  0.000000 
 27631680.000000, -0.966700 , 2.825923, 11.552547, 701924288.000000, 30.520000,  20.160000,  -3.920000, 0.000000,  0.000000 
 27651072.000000, -0.753739 , 2.586641, 11.184053, 701944832.000000, 26.040001,  12.530000,  -8.680000, 0.000000,  0.000000 
 27671040.000000, 0.007178 , 1.938186, 10.657632, 701964224.000000, 6.370000,  0.350000,  -6.300000, 0.000000,  0.000000 
 27691392.000000, 0.090927 , 1.033699, 9.973285, 701984256.000000, -14.910000,  -9.940000,  0.420000, 0.000000,  0.000000 
 27711040.000000, 0.055035 , 0.184247, 9.607183, 702004544.000000, -29.680000,  -13.300000,  2.170000, 0.000000,  0.000000 
 27731648.000000, -0.040678 , -0.423530, 9.712467, 702024192.000000, -28.840000,  -13.440001,  0.980000, 0.000000,  0.000000 
 27751040.000000, 0.193819 , 0.141177, 9.451650, 702044800.000000, -20.160000,  -12.390000,  -2.940000, 0.000000,  0.000000 
 27771008.000000, 0.363709 , 1.136591, 9.578469, 702084160.000000, 5.880000,  -9.870000,  -6.790000, 0.000000,  0.000000 
 27791296.000000, -0.277567 , 1.852045, 9.999605, 0.000000, 0.000000,  0.000000,  0.000000, 0.000000,  0.000000 
 27811008.000000, -1.249053 , 2.486143, 10.052249, 702104512.000000, 12.110000,  -6.160000,  -10.640000, 0.000000,  0.000000 
 27831552.000000, -1.174876 , 2.392823, 9.851252, 702124160.000000, 13.160000,  -4.060000,  -17.150000, 0.000000,  0.000000 
 27850944.000000, -0.423530 , 2.036292, 9.437292, 702144768.000000, -5.740000,  -7.700000,  -19.040001, 0.000000,  0.000000 
 27870976.000000, -0.581456 , 2.024328, 9.164511, 702164160.000000, -29.680000,  -11.480000,  -11.970000, 0.000000,  0.000000 
 27891264.000000, -0.311067 , 1.579263, 8.999406, 702184128.000000, -37.099998,  -9.660000,  -8.820000, 0.000000,  0.000000 
 27910912.000000, -0.220140 , 1.119841, 8.788837, 702204416.000000, -34.720001,  -10.500000,  -5.040000, 0.000000,  0.000000 
 27931520.000000, 0.064606 , 0.449851, 9.286544, 702224128.000000, -34.439999,  -8.890000,  -1.960000, 0.000000,  0.000000 
 27950912.000000, 0.313460 , -0.150748, 9.600004, 702244672.000000, -38.709999,  -7.280000,  -0.840000, 0.000000,  0.000000 
 27970880.000000, 0.179462 , 0.215354, 8.997013, 702264064.000000, -35.070000,  -7.210000,  -0.420000, 0.000000,  0.000000 
 27991168.000000, 0.157926 , 1.098306, 8.717053, 702284096.000000, -14.000000,  -4.340000,  0.560000, 0.000000,  0.000000 
 28010880.000000, 0.380459 , 1.825724, 9.090333, 702304384.000000, 10.570000,  -0.210000,  0.770000, 0.000000,  0.000000 
 28031488.000000, 0.449851 , 2.165504, 9.020942, 702324032.000000, 20.510000,  3.150000,  3.150000, 0.000000,  0.000000 
 28050880.000000, 0.179462 , 1.718047, 9.734003, 702344640.000000, 16.170000,  6.720000,  5.880000, 0.000000,  0.000000 
 28070848.000000, 0.169890 , 0.928415, 10.296316, 702364032.000000, 6.720000,  10.150000,  6.860000, 0.000000,  0.000000 
 28091136.000000, 0.284746 , 0.332602, 10.564312, 702384000.000000, -0.070000,  10.080000,  6.090000, 0.000000,  0.000000 
 28110848.000000, 0.251246 , -0.160319, 10.817951, 702404352.000000, -2.940000,  7.070000,  9.660000, 0.000000,  0.000000 
 28133376.000000, 0.253639 , -0.588634, 10.631311, 702424000.000000, -6.790000,  3.220000,  9.590000, 0.000000,  0.000000 
 28150784.000000, 0.277567 , -0.332602, 10.023535, 702446528.000000, -7.630000,  -1.330000,  6.510000, 0.000000,  0.000000 
 28170752.000000, 0.430708 , 0.354138, 9.533006, 702464000.000000, 0.420000,  -3.710000,  3.570000, 0.000000,  0.000000 
 28191104.000000, 0.399601 , 0.993021, 9.477970, 702483968.000000, 11.410000,  -3.500000,  0.140000, 0.000000,  0.000000 
 28210752.000000, 0.145962 , 1.244268, 9.516255, 702504256.000000, 14.280000,  -0.840000,  -3.430000, 0.000000,  0.000000 
 28231360.000000, 0.016750 , 1.387837, 9.600004, 702523968.000000, 11.060000,  2.100000,  -5.600000, 0.000000,  0.000000 
 28250752.000000, -0.052642 , 1.239482, 10.071390, 702544512.000000, 5.320000,  3.850000,  -6.580000, 0.000000,  0.000000 
 28270720.000000, -0.430708 , 1.411765, 10.133603, 702563904.000000, 2.240000,  3.990000,  -6.510000, 0.000000,  0.000000 
 28291072.000000, -0.641276 , 1.777867, 9.781858, 702583936.000000, 5.670000,  3.710000,  -6.860000, 0.000000,  0.000000 
 28310720.000000, -0.354138 , 1.928615, 9.188439, 702604224.000000, 10.290000,  1.540000,  -5.530000, 762953152.000000,  1004.586487 
 28331328.000000, 0.052642 , 1.473979, 8.853443, 702623872.000000, 3.080000,  -2.310000,  -2.730000, 0.000000,  0.000000 
 28350656.000000, 0.198604 , 1.024128, 9.116654, 702644480.000000, -10.290000,  -3.920000,  1.540000, 0.000000,  0.000000 
 28370688.000000, -0.038285 , 1.162912, 9.056834, 702663872.000000, -16.240000,  -2.730000,  4.760000, 0.000000,  0.000000 
 28390976.000000, -0.083749 , 1.210768, 9.047262, 702683840.000000, -6.230000,  -0.350000,  7.070000, 0.000000,  0.000000 
 28410624.000000, 0.110070 , 0.906880, 9.332008, 702704192.000000, 0.070000,  1.470000,  6.650000, 0.000000,  0.000000 
 28431296.000000, -0.074178 , 0.679562, 9.430114, 702723840.000000, -7.420000,  2.100000,  6.930000, 0.000000,  0.000000 
 28450624.000000, -0.287139 , 1.160519, 9.475577, 702744448.000000, -9.660000,  3.710000,  7.490000, 0.000000,  0.000000 
 28470592.000000, -0.236889 , 1.715654, 9.674182, 702763776.000000, 1.470000,  4.760000,  7.910000, 0.000000,  0.000000 
 28490944.000000, -0.004786 , 1.536192, 9.894321, 702783808.000000, 7.490000,  4.340000,  7.630000, 0.000000,  0.000000 
 28510592.000000, 0.066999 , 0.971486, 9.858429, 702804096.000000, -3.920000,  3.010000,  7.210000, 0.000000,  0.000000 
 28531200.000000, 0.095713 , 0.263210, 9.894321, 702823744.000000, -19.180000,  1.750000,  6.160000, 0.000000,  0.000000 
 28550592.000000, 0.320638 , -0.346959, 9.801002, 702844352.000000, -24.080000,  1.260000,  3.780000, 0.000000,  0.000000 
 28570560.000000, 0.533599 , -0.504886, 9.968499, 702863744.000000, -20.580000,  1.190000,  0.630000, 0.000000,  0.000000 
 28590848.000000, 0.468993 , -0.205783, 9.985250, 702883712.000000, -12.040000,  1.190000,  -0.420000, 0.000000,  0.000000 
 28610560.000000, 0.370888 , 0.236889, 10.119246, 702904064.000000, -2.660000,  1.610000,  -2.310000, 0.000000,  0.000000 
 28631104.000000, 0.382852 , 0.698704, 10.755738, 702923712.000000, 5.740000,  0.350000,  -4.760000, 0.000000,  0.000000 
 28650496.000000, -0.153141 , 1.316052, 10.348958, 702944320.000000, 10.360000,  -1.540000,  -6.090000, 0.000000,  0.000000 
 28670528.000000, -0.358923 , 1.466800, 9.891929, 702963712.000000, 14.210000,  -2.170000,  -8.890000, 0.000000,  0.000000 
 28690816.000000, -0.227318 , 1.289732, 9.054441, 702983680.000000, 11.550000,  -4.060000,  -8.540000, 0.000000,  0.000000 
 28710464.000000, -0.114855 , 1.124627, 8.685946, 703003968.000000, -0.210000,  -5.810000,  -6.160000, 0.000000,  0.000000 
 28731072.000000, 0.033500 , 0.878166, 8.499306, 703023680.000000, -6.440000,  -4.830000,  -0.420000, 0.000000,  0.000000 
 28750464.000000, 0.100499 , 0.844666, 8.606983, 703044288.000000, -6.160000,  -3.780000,  0.280000, 0.000000,  0.000000 
 28770432.000000, 0.117248 , 0.971486, 9.123833, 703063616.000000, -2.800000,  -0.630000,  0.350000, 0.000000,  0.000000 
 28790784.000000, 0.177069 , 0.748954, 9.690931, 703083648.000000, -3.500000,  3.010000,  0.070000, 0.000000,  0.000000 
 28810432.000000, 0.071785 , 0.543171, 9.693325, 703103936.000000, -9.170000,  4.620000,  -1.120000, 0.000000,  0.000000 
 28831040.000000, -0.095713 , 0.330210, 9.803394, 703144192.000000, -7.350000,  4.480000,  -0.770000, 0.000000,  0.000000 
 28850432.000000, -0.165105 , 0.598206, 10.133603, 0.000000, 0.000000,  0.000000,  0.000000, 0.000000,  0.000000 
 28870400.000000, -0.191426 , 0.770489, 10.047462, 703163584.000000, 1.750000,  3.290000,  0.350000, 0.000000,  0.000000 
 28890688.000000, -0.153141 , 0.787239, 9.702895, 703183552.000000, 6.300000,  1.890000,  0.630000, 0.000000,  0.000000 
 28910400.000000, 0.064606 , 0.698704, 9.690931, 703203904.000000, 8.190000,  0.490000,  1.750000, 0.000000,  0.000000 
 28930944.000000, 0.301496 , 0.373280, 9.779467, 703223552.000000, 8.050000,  -0.210000,  2.100000, 0.000000,  0.000000 
 28950336.000000, 0.346959 , 0.284746, 9.920642, 703244160.000000, 4.830000,  0.140000,  0.630000, 0.000000,  0.000000 
 28970368.000000, 0.306281 , 0.538385, 9.829715, 703263552.000000, 4.620000,  0.910000,  0.420000, 0.000000,  0.000000 
 28990656.000000, -0.021535 , 0.976272, 9.839286, 703283520.000000, 14.910000,  1.610000,  -0.280000, 0.000000,  0.000000 
 29010304.000000, 0.160319 , 1.153341, 9.755538, 703303808.000000, 21.559999,  3.290000,  -3.290000, 0.000000,  0.000000 
 29030912.000000, 0.287139 , 0.780060, 9.853643, 703323520.000000, 16.590000,  2.520000,  -2.520000, 0.000000,  0.000000 
 29050304.000000, -0.033500 , 0.602991, 9.942179, 703344064.000000, 6.930000,  1.400000,  -1.820000, 0.000000,  0.000000 
 29070272.000000, -0.272782 , 0.832702, 9.786645, 703363456.000000, 2.380000,  1.190000,  -2.800000, 0.000000,  0.000000 
 29090560.000000, -0.507278 , 1.115055, 9.389436, 703383488.000000, 8.610000,  0.560000,  -3.710000, 0.000000,  0.000000 
 29110272.000000, -0.449851 , 1.399801, 9.250652, 703403776.000000, 9.240000,  0.070000,  -4.970000, 0.000000,  0.000000 
 29132800.000000, -0.394816 , 1.605584, 9.415757, 703423424.000000, 8.610000,  0.700000,  -3.010000, 0.000000,  0.000000 
 29150272.000000, -0.421137 , 1.856830, 9.300901, 703446016.000000, 10.150000,  1.960000,  -5.250000, 0.000000,  0.000000 
 29170240.000000, -0.325424 , 2.124826, 9.116654, 703463424.000000, 14.560000,  3.920000,  -5.530000, 0.000000,  0.000000 
 29190528.000000, 0.083749 , 1.852045, 9.023334, 703483392.000000, 15.960000,  4.690000,  -3.990000, 0.000000,  0.000000 
 29210240.000000, 0.349352 , 1.354338, 9.513863, 703503744.000000, 6.160000,  5.180000,  -3.780000, 0.000000,  0.000000 
 29230784.000000, 0.325424 , 0.892523, 10.363315, 703523392.000000, -7.000000,  6.790000,  -2.730000, 0.000000,  0.000000 
 29250176.000000, 0.356531 , 0.768096, 10.346564, 703544000.000000, -10.500000,  7.700000,  -1.400000, 0.000000,  0.000000 
 29270208.000000, 0.349352 , 1.000200, 10.009177, 703563392.000000, -1.960000,  5.880000,  -1.190000, 0.000000,  0.000000 
 29290496.000000, 0.208176 , 1.052842, 10.157533, 703603648.000000, 6.160000,  3.220000,  -0.910000, 763952576.000000,  1004.588562 
 29310144.000000, -0.011964 , 1.014557, 10.325029, 0.000000, 0.000000,  0.000000,  0.000000, 0.000000,  0.000000 
 29330752.000000, -0.267996 , 1.328017, 9.949356, 703623360.000000, 5.530000,  1.680000,  -3.360000, 0.000000,  0.000000 
 29350144.000000, -0.490529 , 1.789831, 9.401401, 703643904.000000, 13.160000,  -0.210000,  -4.760000, 0.000000,  0.000000 
 29370432.000000, -0.332602 , 2.048256, 8.781659, 703663296.000000, 14.420000,  -2.450000,  -5.670000, 0.000000,  0.000000 
 29390400.000000, -0.514457 , 1.911865, 8.398808, 703683584.000000, 3.080000,  -3.430000,  -5.530000, 0.000000,  0.000000 
 29410112.000000, -0.693919 , 1.567299, 8.786445, 703703616.000000, -12.670000,  -1.260000,  -5.530000, 0.000000,  0.000000 
 29430720.000000, -0.674776 , 1.182054, 9.298509, 703723264.000000, -24.150000,  1.610000,  -4.200000, 0.000000,  0.000000 
 29450112.000000, -0.641276 , 1.213161, 9.355937, 703743936.000000, -25.690001,  2.520000,  -3.780000, 0.000000,  0.000000 
 29470080.000000, -0.468993 , 1.184447, 9.533006, 703763264.000000, -18.690001,  3.290000,  -0.840000, 0.000000,  0.000000 
 29490368.000000, -0.253639 , 1.091127, 9.870394, 703783232.000000, -13.300000,  2.450000,  1.890000, 0.000000,  0.000000 
 29510080.000000, -0.253639 , 1.244268, 10.339387, 703803520.000000, -8.820000,  2.310000,  4.060000, 0.000000,  0.000000 
 29530624.000000, -0.445065 , 1.536192, 10.377672, 703823232.000000, 1.120000,  2.730000,  5.180000, 0.000000,  0.000000 
 29550016.000000, -0.251246 , 1.335195, 10.085747, 703843840.000000, 7.420000,  2.380000,  6.580000, 0.000000,  0.000000 
 29570048.000000, -0.251246 , 0.713061, 10.533205, 703863232.000000, 1.540000,  1.190000,  5.320000, 0.000000,  0.000000 
 29590464.000000, -0.334995 , 0.478565, 10.676775, 703883200.000000, -6.650000,  1.190000,  4.690000, 0.000000,  0.000000 
 29609984.000000, -0.332602 , 0.832702, 10.250853, 703903680.000000, 1.610000,  -0.140000,  5.180000, 0.000000,  0.000000 
 29630592.000000, 0.078963 , 1.280160, 9.609575, 703923200.000000, 17.639999,  -2.800000,  5.110000, 0.000000,  0.000000 
 29649984.000000, 0.196211 , 0.981057, 9.269794, 703943744.000000, 16.799999,  -4.620000,  5.320000, 0.000000,  0.000000 
 29669952.000000, -0.112463 , 0.696311, 9.272188, 703963136.000000, 2.310000,  -3.920000,  6.510000, 0.000000,  0.000000 
 29690240.000000, -0.344566 , 0.847059, 9.064013, 703983168.000000, -2.520000,  -0.910000,  3.920000, 0.000000,  0.000000 
 29709952.000000, 0.143569 , 1.191626, 9.157332, 704003456.000000, 8.470000,  0.910000,  -0.560000, 0.000000,  0.000000 
 29730496.000000, 0.088534 , 1.280160, 9.446864, 704023104.000000, 9.520000,  0.910000,  -0.070000, 0.000000,  0.000000 
 29749952.000000, -0.569492 , 1.411765, 9.475577, 704043712.000000, 2.590000,  1.540000,  2.030000, 0.000000,  0.000000 
 29769920.000000, -0.600598 , 1.481157, 9.820145, 704063104.000000, 2.310000,  3.990000,  1.400000, 0.000000,  0.000000 
 29790208.000000, -0.380459 , 1.493121, 10.009177, 704083072.000000, 3.920000,  2.800000,  -0.980000, 0.000000,  0.000000 
 29809856.000000, -0.356531 , 1.517050, 9.384650, 704103360.000000, 1.680000,  1.470000,  -0.910000, 0.000000,  0.000000 
 29830464.000000, -0.430708 , 1.203590, 9.288938, 704123072.000000, -1.400000,  -0.070000,  1.960000, 0.000000,  0.000000 
 29849856.000000, -0.519243 , 1.196411, 9.389436, 704143616.000000, -3.850000,  -0.770000,  2.100000, 0.000000,  0.000000 
 29869824.000000, -0.392423 , 1.406980, 9.303294, 704163008.000000, -1.960000,  -0.630000,  1.470000, 0.000000,  0.000000 
 29890176.000000, -0.212961 , 1.150948, 9.418150, 704183040.000000, 1.820000,  -0.630000,  1.610000, 0.000000,  0.000000 
 29909824.000000, -0.102891 , 0.835095, 9.499505, 704203328.000000, -1.890000,  0.630000,  1.400000, 0.000000,  0.000000 
 29930432.000000, -0.007178 , 0.964308, 9.353544, 704222976.000000, -5.460000,  1.470000,  1.050000, 0.000000,  0.000000 
 29949824.000000, 0.351745 , 1.337588, 8.930015, 704243584.000000, 2.380000,  2.450000,  0.630000, 0.000000,  0.000000 
 29969792.000000, 0.677169 , 1.505085, 9.370294, 704262976.000000, 13.090000,  3.500000,  0.280000, 0.000000,  0.000000 
 29990080.000000, 0.464208 , 1.418944, 9.623933, 704282944.000000, 13.020000,  4.410000,  2.730000, 0.000000,  0.000000 
 30009792.000000, 0.069392 , 1.598405, 9.803394, 704303296.000000, 6.860000,  5.810000,  5.950000, 0.000000,  0.000000 
 30030336.000000, -0.064606 , 1.581656, 10.377672, 704322944.000000, 8.260000,  5.810000,  6.720000, 0.000000,  0.000000 
 30049728.000000, -0.088534 , 1.021735, 10.664811, 704343552.000000, 5.670000,  3.710000,  3.220000, 0.000000,  0.000000 
 30069760.000000, -0.162712 , 0.459422, 10.480563, 704362944.000000, -6.510000,  -0.350000,  2.030000, 0.000000,  0.000000 
 30090048.000000, -0.327817 , 0.244068, 10.179067, 704382912.000000, -16.170000,  -4.900000,  1.680000, 0.000000,  0.000000 
 30109696.000000, -0.385244 , 0.591027, 9.791430, 704403200.000000, -14.350000,  -8.820000,  -2.030000, 0.000000,  0.000000 
 30132288.000000, -0.358923 , 1.198804, 9.506684, 704422912.000000, -1.260000,  -10.640000,  -5.950000, 0.000000,  0.000000 
 30149696.000000, -0.380459 , 1.710868, 9.083155, 704445440.000000, 8.330000,  -10.920000,  -7.420000, 0.000000,  0.000000 
 30169664.000000, -0.425922 , 2.036292, 8.774480, 704462848.000000, 7.420000,  -9.520000,  -8.190000, 0.000000,  0.000000 
 30190016.000000, -0.244068 , 2.122434, 8.973085, 704482880.000000, 4.550000,  -6.440000,  -9.520000, 0.000000,  0.000000 
 30209664.000000, -0.256032 , 2.141576, 9.298509, 704503168.000000, 2.380000,  -2.870000,  -9.380000, 0.000000,  0.000000 
 30230272.000000, -0.382852 , 2.098505, 9.430114, 704522816.000000, 1.470000,  0.840000,  -8.050000, 0.000000,  0.000000 
 30249664.000000, -0.160319 , 1.849652, 9.549755, 704543424.000000, 0.840000,  3.080000,  -6.020000, 0.000000,  0.000000 
 30269632.000000, -0.124427 , 1.538585, 9.707682, 704562816.000000, -1.470000,  3.150000,  -3.710000, 0.000000,  0.000000 
 30289920.000000, -0.136391 , 1.445265, 9.688539, 704603136.000000, 0.420000,  2.730000,  0.070000, 764952064.000000,  1004.585876 
 30309632.000000, 0.007178 , 1.469193, 9.674182, 0.000000, 0.000000,  0.000000,  0.000000, 0.000000,  0.000000 
 30330176.000000, 0.160319 , 1.371087, 9.911072, 704622784.000000, 2.240000,  2.450000,  0.630000, 0.000000,  0.000000 
 30349568.000000, 0.114855 , 1.208375, 9.908678, 704643392.000000, -0.280000,  1.820000,  1.120000, 0.000000,  0.000000 
 30369600.000000, -0.023928 , 1.270589, 9.719646, 704662784.000000, -2.660000,  0.490000,  1.750000, 0.000000,  0.000000 
 30389888.000000, -0.009571 , 1.337588, 9.480364, 704682752.000000, -2.590000,  -0.910000,  1.820000, 0.000000,  0.000000 
 30409536.000000, 0.172283 , 1.483550, 9.458827, 704703040.000000, -1.260000,  -2.240000,  1.960000, 0.000000,  0.000000 
 30430208.000000, 0.057428 , 1.378266, 9.183653, 704722752.000000, -3.430000,  -2.800000,  1.050000, 0.000000,  0.000000 
 30449536.000000, -0.129212 , 1.138984, 9.418150, 704743360.000000, -9.030000,  -2.030000,  -2.240000, 0.000000,  0.000000 
 30469504.000000, -0.179462 , 1.093520, 9.719646, 704762688.000000, -13.510000,  0.980000,  -0.630000, 0.000000,  0.000000 
 30489792.000000, -0.339781 , 1.392623, 9.537791, 704782720.000000, -7.210000,  1.120000,  1.120000, 0.000000,  0.000000 
 30509504.000000, -0.442672 , 1.569692, 9.509077, 704803008.000000, 2.870000,  0.980000,  2.940000, 0.000000,  0.000000 
 30530112.000000, -0.325424 , 1.387837, 9.755538, 704822656.000000, 1.750000,  0.910000,  0.630000, 0.000000,  0.000000 
 30549504.000000, -0.241675 , 1.241875, 9.891929, 704843264.000000, -3.500000,  0.560000,  0.210000, 0.000000,  0.000000 
 30569472.000000, -0.217747 , 1.438086, 9.588040, 704862656.000000, -0.420000,  -0.420000,  0.560000, 0.000000,  0.000000 
 30589888.000000, 0.064606 , 1.643869, 9.533006, 704882624.000000, 3.850000,  -0.980000,  0.280000, 0.000000,  0.000000 
 30609472.000000, 0.208176 , 1.593620, 9.937392, 704903040.000000, 5.110000,  -1.260000,  0.490000, 0.000000,  0.000000 
 30630016.000000, 0.093320 , 1.172483, 10.138390, 704922624.000000, 1.540000,  -0.840000,  0.140000, 0.000000,  0.000000 
 30649408.000000, 0.131605 , 1.014557, 9.999605, 704943232.000000, -1.190000,  -0.490000,  0.280000, 0.000000,  0.000000 
 30669440.000000, -0.026321 , 1.088734, 9.889536, 704962624.000000, -3.850000,  -1.260000,  -0.070000, 0.000000,  0.000000 
 30689728.000000, -0.019143 , 1.320838, 9.418150, 704982592.000000, -1.260000,  -1.960000,  -0.070000, 0.000000,  0.000000 
 30709376.000000, 0.038285 , 1.507478, 9.401401, 705002880.000000, 2.310000,  -1.610000,  -1.610000, 0.000000,  0.000000 
 30729984.000000, 0.112463 , 1.598405, 9.717253, 705022592.000000, 3.780000,  -1.120000,  -1.750000, 0.000000,  0.000000 
 30749376.000000, -0.229711 , 1.919044, 9.375079, 705043136.000000, 1.610000,  0.140000,  -0.840000, 0.000000,  0.000000 
 30769344.000000, -0.191426 , 2.098505, 9.389436, 705062528.000000, 2.170000,  2.100000,  0.490000, 0.000000,  0.000000 
 30789632.000000, 0.165105 , 1.694118, 9.406186, 705082560.000000, 3.920000,  2.520000,  1.610000, 0.000000,  0.000000 
 30809344.000000, 0.186640 , 1.028914, 9.001799, 705102848.000000, -5.530000,  0.770000,  3.080000, 0.000000,  0.000000 
 30829952.000000, 0.189033 , 0.899701, 8.817552, 705122496.000000, -15.400000,  0.210000,  7.350000, 0.000000,  0.000000 
 30849344.000000, 0.033500 , 1.074377, 9.205189, 705143104.000000, -13.580000,  0.280000,  8.540000, 0.000000,  0.000000 
 30869312.000000, -0.107677 , 1.354338, 9.628718, 705162496.000000, -5.670000,  2.730000,  5.040000, 0.000000,  0.000000 
 30889600.000000, -0.141177 , 1.261017, 9.647861, 705182464.000000, -1.750000,  5.180000,  2.170000, 0.000000,  0.000000 
 30909248.000000, -0.289532 , 0.940379, 10.636096, 705202752.000000, -6.580000,  4.970000,  -0.210000, 0.000000,  0.000000 
 30929856.000000, -0.634098 , 0.926022, 10.882557, 705222464.000000, -10.850000,  4.620000,  -1.680000, 0.000000,  0.000000 
 30949248.000000, -0.725025 , 1.414158, 10.530812, 705243008.000000, -0.140000,  3.640000,  -4.270000, 0.000000,  0.000000 
 30969216.000000, -0.643669 , 1.639083, 9.683753, 705262464.000000, 13.720000,  1.680000,  -5.250000, 0.000000,  0.000000 
 30989568.000000, -0.552742 , 1.667797, 9.260223, 705282432.000000, 10.220000,  -0.910000,  -3.780000, 0.000000,  0.000000 
 31009216.000000, -0.227318 , 1.646262, 8.872586, 705302720.000000, 0.280000,  -1.750000,  -3.150000, 0.000000,  0.000000 
 31029824.000000, 0.148355 , 1.615155, 8.676375, 705322432.000000, -2.240000,  -1.470000,  -3.500000, 0.000000,  0.000000 
 31049216.000000, 0.181855 , 1.170090, 8.865408, 705342976.000000, -9.730000,  0.280000,  -0.560000, 0.000000,  0.000000 
 31069184.000000, 0.081356 , 0.806381, 9.382257, 705362368.000000, -21.210001,  2.380000,  2.170000, 0.000000,  0.000000 
 31089472.000000, -0.076570 , 0.504886, 9.932607, 705382336.000000, -22.260000,  3.430000,  4.060000, 0.000000,  0.000000 
 31109184.000000, -0.354138 , 0.744168, 10.023535, 705402688.000000, -14.420000,  2.940000,  5.390000, 0.000000,  0.000000 
 31131712.000000, -0.440279 , 0.928415, 9.724431, 705422336.000000, -4.830000,  1.610000,  6.090000, 0.000000,  0.000000 
 31149184.000000, -0.361316 , 1.100698, 9.521042, 705444928.000000, -0.980000,  -0.420000,  5.250000, 0.000000,  0.000000 
 31169152.000000, -0.313460 , 1.239482, 9.607183, 705462336.000000, -3.080000,  -2.870000,  4.130000, 0.000000,  0.000000 
 31189440.000000, -0.390030 , 1.162912, 9.968499, 705482304.000000, -4.060000,  -3.780000,  4.270000, 0.000000,  0.000000 
 31209152.000000, -0.287139 , 0.971486, 10.006784, 705502592.000000, -6.720000,  -5.040000,  3.570000, 0.000000,  0.000000 
 31229696.000000, -0.277567 , 0.605384, 10.403993, 705522304.000000, -7.420000,  -6.300000,  3.220000, 0.000000,  0.000000 
 31249088.000000, -0.287139 , 0.370888, 10.339387, 705542912.000000, -9.030000,  -6.510000,  0.420000, 0.000000,  0.000000 
 31269120.000000, 0.119641 , 0.394816, 9.848858, 705562304.000000, -9.030000,  -6.720000,  -1.890000, 0.000000,  0.000000 
 31289408.000000, 0.009571 , 0.612563, 9.604790, 705602560.000000, 0.840000,  -6.020000,  -3.780000, 765951488.000000,  1004.586609 
 31309056.000000, -0.011964 , 0.629312, 9.281759, 0.000000, 0.000000,  0.000000,  0.000000, 0.000000,  0.000000 
 31329664.000000, 0.208176 , 0.748954, 9.116654, 705622272.000000, 0.840000,  -5.180000,  -6.230000, 0.000000,  0.000000 
 31349056.000000, 0.387637 , 0.787239, 8.872586, 705642816.000000, -1.610000,  -4.270000,  -6.160000, 0.000000,  0.000000 
 31369024.000000, 0.605384 , 0.686740, 8.453842, 705662208.000000, -4.340000,  -2.380000,  -5.180000, 0.000000,  0.000000 
 31389312.000000, 0.971486 , 0.739382, 8.434700, 705682240.000000, -4.410000,  -0.420000,  -4.270000, 0.000000,  0.000000 
 31409024.000000, 1.019342 , 0.775275, 9.765109, 705702528.000000, -2.170000,  1.610000,  -1.540000, 0.000000,  0.000000 
 31429632.000000, 0.416351 , 1.165305, 9.726824, 705722176.000000, 2.870000,  4.480000,  2.380000, 0.000000,  0.000000 
 31448960.000000, 0.186640 , 1.799403, 10.011569, 705742784.000000, 14.560000,  6.860000,  2.800000, 0.000000,  0.000000 
 31468992.000000, 0.461815 , 1.454836, 10.478169, 705762176.000000, 20.860001,  6.720000,  1.820000, 0.000000,  0.000000 
 31489280.000000, 0.378066 , 0.758525, 10.449455, 705782144.000000, 6.510000,  2.940000,  0.070000, 0.000000,  0.000000 
 31508928.000000, 0.167498 , 0.222532, 10.205389, 705802432.000000, -9.310000,  -1.190000,  5.390000, 0.000000,  0.000000 
 31529536.000000, 0.143569 , 0.071785, 10.066606, 705822144.000000, -10.640000,  -5.320000,  4.970000, 0.000000,  0.000000 
 31548928.000000, 0.028714 , 0.437887, 10.260423, 705842688.000000, -4.060000,  -8.400000,  1.890000, 0.000000,  0.000000 
 31568896.000000, -0.437887 , 0.973879, 10.037891, 705862080.000000, 3.640000,  -7.630000,  -0.980000, 0.000000,  0.000000 
 31589248.000000, -0.612563 , 1.167697, 9.454042, 705882112.000000, 4.970000,  -5.040000,  -5.180000, 0.000000,  0.000000 
 31608896.000000, -0.282353 , 1.194018, 9.415757, 705902400.000000, 2.030000,  -3.010000,  -9.660000, 0.000000,  0.000000 
 31629504.000000, -0.485743 , 1.165305, 9.415757, 705922048.000000, -3.640000,  -1.330000,  -10.710000, 0.000000,  0.000000 
 31648896.000000, -0.559920 , 1.478764, 9.458827, 705942656.000000, -4.690000,  2.940000,  -10.360000, 0.000000,  0.000000 
 31668864.000000, -0.351745 , 1.497907, 9.597611, 705962048.000000, -1.120000,  5.600000,  -10.920000, 0.000000,  0.000000 
 31689152.000000, -0.155533 , 1.153341, 9.848858, 705982016.000000, -2.030000,  6.300000,  -9.660000, 0.000000,  0.000000 
 31708864.000000, -0.126820 , 1.000200, 9.793823, 706002368.000000, -7.350000,  5.250000,  -6.580000, 0.000000,  0.000000 
 31729408.000000, -0.169890 , 0.921237, 9.664611, 706022016.000000, -6.650000,  3.710000,  -3.780000, 0.000000,  0.000000 
 31748800.000000, -0.078963 , 1.000200, 9.439686, 706042624.000000, -3.850000,  1.470000,  -2.170000, 0.000000,  0.000000 
 31768832.000000, 0.086142 , 1.179662, 9.212367, 706062016.000000, -1.610000,  -0.700000,  0.140000, 0.000000,  0.000000 
 31789120.000000, 0.167498 , 1.100698, 9.068797, 706081984.000000, -2.380000,  -1.680000,  1.330000, 0.000000,  0.000000 
 31808768.000000, 0.284746 , 0.921237, 9.209974, 706102272.000000, -6.580000,  -2.170000,  2.030000, 0.000000,  0.000000 
 31829376.000000, 0.189033 , 0.610170, 9.396614, 706121984.000000, -11.970000,  -2.170000,  2.590000, 0.000000,  0.000000 
 31848768.000000, 0.205783 , 0.495314, 9.628718, 706142528.000000, -12.670000,  -0.980000,  3.080000, 0.000000,  0.000000 
 31868736.000000, 0.205783 , 0.394816, 10.138390, 706161920.000000, -5.950000,  0.420000,  3.220000, 0.000000,  0.000000 
 31889088.000000, 0.062213 , 0.267996, 10.289137, 706181952.000000, -0.700000,  0.840000,  4.480000, 0.000000,  0.000000 
 31908736.000000, -0.074178 , 0.334995, 10.253245, 706202240.000000, 0.140000,  0.630000,  4.970000, 0.000000,  0.000000 
 31929344.000000, -0.217747 , 0.739382, 10.219746, 706221888.000000, 3.220000,  -0.490000,  5.460000, 0.000000,  0.000000 
 31948736.000000, -0.136391 , 1.153341, 10.114462, 706242496.000000, 9.240000,  -0.490000,  3.290000, 0.000000,  0.000000 
 31968704.000000, 0.040678 , 0.976272, 10.258030, 706261888.000000, 10.640000,  -0.490000,  1.330000, 0.000000,  0.000000 
 31988992.000000, -0.260818 , 0.698704, 10.456635, 706281856.000000, 0.770000,  -1.960000,  1.470000, 0.000000,  0.000000 
 32008704.000000, -0.500100 , 0.736989, 10.191031, 706302208.000000, -5.670000,  -2.100000,  0.630000, 0.000000,  0.000000 
 32029248.000000, -0.267996 , 1.055235, 9.812965, 706321856.000000, 0.490000,  -2.450000,  -1.610000, 0.000000,  0.000000 
 32048640.000000, -0.272782 , 1.246661, 9.238688, 706342464.000000, 4.620000,  -3.920000,  -0.910000, 0.000000,  0.000000 
 32068672.000000, 0.023928 , 1.244268, 8.752945, 706361856.000000, 3.150000,  -3.780000,  -0.210000, 0.000000,  0.000000 
 32088960.000000, 0.248854 , 1.045663, 8.642875, 706381824.000000, -0.280000,  -3.360000,  0.490000, 0.000000,  0.000000 
 32108608.000000, 0.277567 , 0.775275, 8.740981, 706402112.000000, -3.080000,  -1.120000,  3.220000, 0.000000,  0.000000 
 32131136.000000, 0.416351 , 0.643669, 8.659625, 706421824.000000, -3.640000,  1.680000,  5.530000, 0.000000,  0.000000 
 32148608.000000, 0.602991 , 0.729811, 8.769694, 706444352.000000, -0.770000,  2.450000,  8.750000, 0.000000,  0.000000 
 32168576.000000, 0.638884 , 0.815953, 9.248260, 706461760.000000, 3.500000,  2.870000,  11.200000, 0.000000,  0.000000 
 32188864.000000, 0.191426 , 1.447658, 9.442079, 706481792.000000, 9.800000,  3.920000,  13.300000, 0.000000,  0.000000 
 32208576.000000, 0.021535 , 1.574477, 10.009177, 706502080.000000, 16.730000,  6.300000,  12.040000, 0.000000,  0.000000 
 32229120.000000, 0.248854 , 0.784846, 10.645668, 706521728.000000, 12.040000,  5.880000,  8.400000, 0.000000,  0.000000 
 32248512.000000, 0.071785 , 0.052642, 10.808380, 706542336.000000, -6.860000,  1.190000,  7.700000, 0.000000,  0.000000 
 32268544.000000, -0.009571 , -0.107677, 10.459028, 706561728.000000, -15.260000,  -2.660000,  7.210000, 0.000000,  0.000000 
 32288832.000000, 0.167498 , 0.282353, 10.116854, 706601984.000000, 7.000000,  -6.580000,  -0.350000, 766950976.000000,  1004.588745 
 32308480.000000, 0.358923 , 0.567099, 10.013963, 0.000000, 0.000000,  0.000000,  0.000000, 0.000000,  0.000000 
 32329088.000000, 0.260818 , 0.717847, 9.920642, 706621696.000000, 4.620000,  -5.740000,  -2.310000, 0.000000,  0.000000 
 32348480.000000, 0.244068 , 0.957129, 9.659825, 706642304.000000, 1.330000,  -4.340000,  -4.830000, 0.000000,  0.000000 
 32368448.000000, 0.239282 , 1.304088, 9.506684, 706661632.000000, 6.370000,  -2.870000,  -6.020000, 0.000000,  0.000000 
 32388800.000000, 0.124427 , 1.536192, 9.284152, 706681664.000000, 10.850000,  -0.840000,  -5.950000, 0.000000,  0.000000 
 32408448.000000, 0.102891 , 1.691726, 9.174082, 706701952.000000, 9.800000,  1.190000,  -4.900000, 0.000000,  0.000000 
 32429056.000000, 0.110070 , 1.591227, 9.049655, 706721600.000000, 6.300000,  2.170000,  -2.520000, 0.000000,  0.000000 
 32448448.000000, 0.294317 , 1.469193, 8.693125, 706742272.000000, 5.880000,  3.220000,  -0.770000, 0.000000,  0.000000 
 32468416.000000, 0.727418 , 1.146162, 8.767302, 706761600.000000, 6.440000,  4.270000,  0.700000, 0.000000,  0.000000 
 32488704.000000, 0.631705 , 0.978664, 8.908479, 706781568.000000, 1.260000,  4.970000,  2.800000, 0.000000,  0.000000 
 32508416.000000, 0.325424 , 1.253839, 9.075976, 706801920.000000, 1.610000,  7.560000,  2.940000, 0.000000,  0.000000 
 32529024.000000, 0.232104 , 1.363909, 9.667004, 706821568.000000, 8.890000,  10.080000,  0.910000, 0.000000,  0.000000 
 32548352.000000, 0.086142 , 1.124627, 10.109675, 706842176.000000, 10.710000,  10.570000,  0.140000, 0.000000,  0.000000 
 32568384.000000, 0.023928 , 0.976272, 10.399208, 706861568.000000, 7.910000,  10.710000,  -1.330000, 0.000000,  0.000000 
 32588672.000000, 0.169890 , 0.641276, 10.755738, 706881536.000000, 0.280000,  9.170000,  -4.270000, 0.000000,  0.000000 
 32608320.000000, 0.165105 , 0.495314, 10.770095, 706901824.000000, -6.300000,  5.320000,  -5.110000, 0.000000,  0.000000 
 32628928.000000, 0.124427 , 0.488136, 10.049855, 706921536.000000, -8.680000,  5.320000,  -5.110000, 0.000000,  0.000000 
 32648320.000000, 0.174676 , 0.847059, 9.707682, 706942144.000000, -1.330000,  -3.780000,  -4.200000, 0.000000,  0.000000 
 32668288.000000, -0.004786 , 1.316052, 9.477970, 706961472.000000, 7.140000,  -6.020000,  -2.380000, 0.000000,  0.000000 
 32688640.000000, -0.095713 , 1.397408, 9.537791, 706981504.000000, 6.580000,  -5.180000,  -5.040000, 0.000000,  0.000000 
 32708288.000000, -0.200997 , 1.153341, 9.946963, 707001792.000000, -1.050000,  -3.640000,  -6.510000, 0.000000,  0.000000 
 32728896.000000, -0.476172 , 1.136591, 9.777073, 707021440.000000, -9.730000,  -3.150000,  -8.260000, 0.000000,  0.000000 
 32748288.000000, -0.361316 , 1.263410, 9.439686, 707042048.000000, -6.930000,  -2.450000,  -11.830000, 0.000000,  0.000000 
 32768256.000000, 0.002393 , 1.189233, 9.712467, 707061440.000000, -3.920000,  -3.080000,  -14.210000, 0.000000,  0.000000 
 32788544.000000, -0.023928 , 1.349552, 9.963714, 707081408.000000, -8.470000,  -3.500000,  -12.390000, 0.000000,  0.000000 
 32808256.000000, -0.263210 , 1.928615, 9.475577, 707101760.000000, -6.930000,  -3.640000,  -9.310000, 0.000000,  0.000000 
 32828800.000000, -0.117248 , 2.132005, 9.126225, 707121408.000000, 3.990000,  -4.060000,  -6.650000, 0.000000,  0.000000 
 32848192.000000, 0.189033 , 1.591227, 9.351151, 707142016.000000, 3.220000,  -3.710000,  -4.550000, 0.000000,  0.000000 
 32868224.000000, 0.148355 , 0.823131, 9.521042, 707161408.000000, -14.000000,  -2.030000,  -3.080000, 0.000000,  0.000000 
 32888512.000000, 0.124427 , 0.468993, 9.719646, 707181376.000000, -22.680000,  0.420000,  -0.560000, 0.000000,  0.000000 
 32908160.000000, 0.083749 , 0.531207, 9.626326, 707201664.000000, -15.680000,  1.680000,  1.190000, 0.000000,  0.000000 
 32928768.000000, 0.102891 , 0.897308, 9.571291, 707221376.000000, -1.820000,  3.430000,  2.030000, 0.000000,  0.000000 
 32948160.000000, 0.145962 , 1.000200, 9.829715, 707241920.000000, 5.040000,  4.340000,  2.940000, 0.000000,  0.000000 
 32968128.000000, -0.136391 , 0.820738, 9.853643, 707261312.000000, 1.260000,  3.920000,  4.130000, 0.000000,  0.000000 
 32988416.000000, -0.157926 , 0.777667, 9.734003, 707281344.000000, -1.190000,  3.220000,  4.270000, 0.000000,  0.000000 
 33008128.000000, 0.023928 , 0.973879, 9.777073, 707301632.000000, 0.490000,  1.120000,  4.550000, 0.000000,  0.000000 
 33028736.000000, 0.083749 , 0.926022, 9.805787, 707321280.000000, 0.280000,  -0.490000,  5.180000, 0.000000,  0.000000 
 33048128.000000, 0.169890 , 0.758525, 9.820145, 707341888.000000, -1.890000,  -1.050000,  5.110000, 0.000000,  0.000000 
 33068096.000000, 0.119641 , 0.739382, 9.717253, 707361280.000000, -3.780000,  -2.100000,  5.040000, 0.000000,  0.000000 
 33088384.000000, 0.011964 , 0.995414, 9.477970, 707381248.000000, -1.260000,  -2.240000,  4.620000, 0.000000,  0.000000 
 33108096.000000, 0.189033 , 1.150948, 9.322437, 707401600.000000, 3.640000,  -1.470000,  3.080000, 0.000000,  0.000000 
 33130624.000000, 0.289532 , 1.064806, 9.468399, 707421248.000000, 3.570000,  -0.630000,  2.660000, 0.000000,  0.000000 
 33148032.000000, 0.122034 , 0.899701, 9.468399, 707443776.000000, -1.120000,  0.280000,  3.430000, 0.000000,  0.000000 
 33168064.000000, 0.105284 , 0.713061, 9.535398, 707461248.000000, -1.890000,  1.120000,  2.310000, 0.000000,  0.000000 
 33188352.000000, 0.031107 , 0.574277, 9.856036, 707481216.000000, -1.470000,  1.120000,  1.820000, 0.000000,  0.000000 
 33208000.000000, 0.057428 , 0.698704, 9.683753, 707501504.000000, -2.310000,  1.540000,  1.050000, 0.000000,  0.000000 
 33228608.000000, 0.095713 , 0.978664, 9.619147, 707521216.000000, 0.210000,  1.330000,  0.280000, 0.000000,  0.000000 
 33248000.000000, 0.059821 , 1.069592, 9.765109, 707541760.000000, 2.730000,  0.910000,  0.280000, 0.000000,  0.000000 
 33267968.000000, 0.035892 , 1.110270, 9.588040, 707561152.000000, 1.050000,  1.050000,  -0.560000, 0.000000,  0.000000 
 33288320.000000, 0.138784 , 1.019342, 9.626326, 707581184.000000, -0.770000,  0.980000,  -0.420000, 0.000000,  0.000000 
 33307968.000000, 0.093320 , 0.957129, 9.724431, 707601472.000000, -4.130000,  0.140000,  -0.350000, 767950400.000000,  1004.588379 
 33328576.000000, -0.014357 , 1.052842, 9.911072, 707621120.000000, -5.180000,  0.770000,  -1.750000, 0.000000,  0.000000 
 33347968.000000, -0.133998 , 1.067199, 9.934999, 707641728.000000, -1.470000,  1.610000,  -2.660000, 0.000000,  0.000000 
 33368256.000000, -0.090927 , 0.897308, 9.868000, 707661120.000000, 0.070000,  2.240000,  -2.870000, 0.000000,  0.000000 
 33388224.000000, -0.023928 , 0.619741, 9.834501, 707681408.000000, -1.400000,  2.170000,  -2.170000, 0.000000,  0.000000 
 33407936.000000, -0.023928 , 0.777667, 9.753145, 707701376.000000, -0.840000,  1.890000,  -1.330000, 0.000000,  0.000000 
 33428544.000000, -0.031107 , 1.088734, 9.518648, 707721088.000000, 4.060000,  1.750000,  -0.770000, 0.000000,  0.000000 
 33447872.000000, 0.179462 , 1.318445, 9.482756, 707741696.000000, 9.660000,  1.750000,  -1.120000, 0.000000,  0.000000 
 33467840.000000, 0.198604 , 1.127020, 9.600004, 707761088.000000, 9.240000,  1.610000,  -0.490000, 0.000000,  0.000000 
 33488192.000000, 0.181855 , 0.837488, 9.643075, 707781056.000000, 2.870000,  2.100000,  -0.350000, 0.000000,  0.000000 
 33507840.000000, 0.131605 , 0.856631, 9.657433, 707801344.000000, 0.490000,  2.170000,  0.140000, 0.000000,  0.000000 
 33528448.000000, 0.019143 , 1.019342, 9.485149, 707821056.000000, 4.480000,  1.820000,  1.750000, 0.000000,  0.000000 
 33547840.000000, 0.153141 , 1.170090, 9.439686, 707841600.000000, 8.120000,  1.610000,  2.590000, 0.000000,  0.000000 
 33567808.000000, 0.265603 , 1.165305, 9.662218, 707860992.000000, 7.140000,  0.560000,  3.500000, 0.000000,  0.000000 
 33588288.000000, -0.043071 , 1.060020, 9.901501, 707880960.000000, 2.450000,  0.350000,  3.780000, 0.000000,  0.000000 
 33607808.000000, -0.057428 , 0.990629, 10.011569, 707901440.000000, -0.560000,  0.420000,  2.240000, 0.000000,  0.000000 
 33628416.000000, -0.014357 , 1.105484, 9.966106, 707920960.000000, -0.630000,  -2.100000,  1.190000, 0.000000,  0.000000 
 33647744.000000, -0.141177 , 1.289732, 9.446864, 707941568.000000, -0.070000,  -4.830000,  2.380000, 0.000000,  0.000000 
 33667776.000000, -0.007178 , 1.428515, 9.265009, 707960960.000000, 2.030000,  -5.530000,  2.450000, 0.000000,  0.000000 
 33688064.000000, 0.102891 , 1.244268, 9.516255, 707980928.000000, 1.120000,  -5.530000,  2.170000, 0.000000,  0.000000 
 33707712.000000, 0.165105 , 0.933201, 9.705289, 708001280.000000, -3.990000,  -3.920000,  2.380000, 0.000000,  0.000000 
 33728320.000000, 0.181855 , 0.847059, 9.741181, 708020928.000000, -7.630000,  -2.730000,  2.100000, 0.000000,  0.000000 
 33747712.000000, 0.177069 , 0.870987, 9.640682, 708041536.000000, -4.900000,  -1.890000,  1.540000, 0.000000,  0.000000 
 33767680.000000, 0.291924 , 1.014557, 9.590433, 708060864.000000, -4.900000,  -0.840000,  0.350000, 0.000000,  0.000000 
 33788032.000000, 0.265603 , 1.215554, 9.576077, 708080896.000000, 2.310000,  -0.840000,  0.210000, 0.000000,  0.000000 
 33807680.000000, 0.358923 , 1.356731, 9.681360, 708101184.000000, 3.010000,  0.840000,  0.770000, 0.000000,  0.000000 
 33828288.000000, 0.301496 , 1.098306, 9.786645, 708120832.000000, 1.540000,  1.050000,  0.840000, 0.000000,  0.000000 
 33847680.000000, 0.318245 , 0.866202, 9.714860, 708141440.000000, -3.080000,  0.350000,  0.490000, 0.000000,  0.000000 
 33867648.000000, 0.361316 , 0.813560, 9.626326, 708160832.000000, -5.600000,  -0.560000,  0.490000, 0.000000,  0.000000 
 33887936.000000, 0.241675 , 0.894916, 9.571291, 708180800.000000, -3.360000,  -1.050000,  -0.210000, 0.000000,  0.000000 
 33907648.000000, 0.208176 , 0.897308, 9.547362, 708201152.000000, -0.630000,  -0.910000,  -0.770000, 0.000000,  0.000000 
 33928192.000000, 0.129212 , 1.095913, 9.449257, 708220800.000000, 0.350000,  -0.420000,  -1.050000, 0.000000,  0.000000 
 33947584.000000, 0.043071 , 1.239482, 9.542577, 708241408.000000, 0.840000,  0.070000,  -1.470000, 0.000000,  0.000000 
 33967616.000000, 0.124427 , 1.110270, 9.556933, 708260800.000000, 0.210000,  0.560000,  -1.890000, 0.000000,  0.000000 
 33987904.000000, 0.011964 , 0.937986, 9.588040, 708280768.000000, -2.380000,  0.140000,  -1.890000, 0.000000,  0.000000 
 34007552.000000, -0.066999 , 0.923629, 9.690931, 708301056.000000, -4.060000,  0.140000,  -1.680000, 0.000000,  0.000000 
 34028160.000000, -0.210568 , 1.086342, 9.669396, 708320768.000000, -2.030000,  0.070000,  -2.170000, 0.000000,  0.000000 
 34047552.000000, -0.100499 , 1.225125, 9.633504, 708341312.000000, 0.700000,  0.280000,  -2.870000, 0.000000,  0.000000 
 34067520.000000, 0.033500 , 1.220340, 9.638289, 708360704.000000, 0.840000,  0.070000,  -3.430000, 0.000000,  0.000000 
 34087872.000000, -0.004786 , 1.119841, 9.731609, 708380736.000000, -1.330000,  -0.350000,  -3.080000, 0.000000,  0.000000 
 34107520.000000, 0.078963 , 1.062413, 9.803394, 708401024.000000, -2.940000,  -0.070000,  -2.870000, 0.000000,  0.000000 
 34130048.000000, 0.215354 , 1.060020, 9.808180, 708420672.000000, -2.100000,  -0.420000,  -2.870000, 0.000000,  0.000000 
 34147520.000000, 0.246461 , 1.050449, 9.753145, 708443264.000000, -0.210000,  -0.560000,  -2.310000, 0.000000,  0.000000 
 34167488.000000, 0.224925 , 0.993021, 9.597611, 708460672.000000, 0.560000,  -0.350000,  -2.030000, 0.000000,  0.000000 
 34187776.000000, 0.390030 , 1.024128, 9.296116, 708480640.000000, 1.680000,  0.070000,  -1.680000, 0.000000,  0.000000 
 34207488.000000, 0.564706 , 1.048056, 9.367901, 708500992.000000, 2.730000,  0.560000,  -0.980000, 0.000000,  0.000000 
 34228032.000000, 0.428315 , 1.007378, 9.418150, 708520640.000000, 0.770000,  1.610000,  -0.070000, 0.000000,  0.000000 
 34247424.000000, 0.373280 , 0.756132, 9.454042, 708541248.000000, -0.630000,  2.940000,  0.350000, 0.000000,  0.000000 
 34267456.000000, 0.265603 , 0.705883, 9.863215, 708560640.000000, -0.350000,  3.500000,  2.030000, 0.000000,  0.000000 
 34287744.000000, 0.098106 , 0.990629, 10.040283, 708600896.000000, 6.720000,  3.990000,  2.310000, 768949824.000000,  1004.586731 
 34307392.000000, 0.107677 , 1.397408, 9.848858, 0.000000, 0.000000,  0.000000,  0.000000, 0.000000,  0.000000 
 34328000.000000, 0.031107 , 1.584049, 9.872787, 708620608.000000, 12.390000,  2.660000,  2.520000, 0.000000,  0.000000 
 34347392.000000, -0.205783 , 1.576870, 9.750752, 708641152.000000, 7.350000,  1.260000,  2.380000, 0.000000,  0.000000 
 34367360.000000, -0.083749 , 1.557728, 9.439686, 708660544.000000, 1.190000,  1.260000,  1.960000, 0.000000,  0.000000 
 34387712.000000, -0.083749 , 1.406980, 9.434900, 708680576.000000, 1.190000,  -1.610000,  2.590000, 0.000000,  0.000000 
 34407360.000000, 0.007178 , 1.119841, 9.358330, 708700864.000000, -3.640000,  -1.540000,  2.590000, 0.000000,  0.000000 
 34427968.000000, 0.157926 , 0.878166, 9.454042, 708720512.000000, -8.400000,  -0.350000,  2.240000, 0.000000,  0.000000 
 34447360.000000, 0.217747 , 0.641276, 9.535398, 708741184.000000, -9.590000,  -0.350000,  1.680000, 0.000000,  0.000000 
 34467328.000000, 0.038285 , 0.646062, 9.741181, 708760512.000000, -10.500000,  0.560000,  0.770000, 0.000000,  0.000000 
 34487616.000000, 0.055035 , 0.847059, 9.693325, 708780480.000000, -6.930000,  1.960000,  0.560000, 0.000000,  0.000000 
 34507328.000000, 0.098106 , 1.016950, 9.824929, 708800768.000000, -0.140000,  2.940000,  -0.840000, 0.000000,  0.000000 
 34527872.000000, 0.124427 , 1.205983, 10.124033, 708820480.000000, 3.570000,  3.290000,  -2.730000, 0.000000,  0.000000 
 34547264.000000, -0.009571 , 1.270589, 10.174281, 708841088.000000, 2.870000,  3.570000,  -3.430000, 0.000000,  0.000000 
 34567296.000000, -0.222532 , 1.237089, 10.085747, 708860480.000000, 0.980000,  2.520000,  -5.670000, 0.000000,  0.000000 
 34587584.000000, -0.136391 , 1.332802, 9.688539, 708880448.000000, -0.560000,  -0.210000,  -4.130000, 0.000000,  0.000000 
 34607232.000000, 0.023928 , 1.459622, 9.523434, 708900736.000000, -0.910000,  -3.220000,  -1.750000, 0.000000,  0.000000 
 34627840.000000, -0.069392 , 1.320838, 9.544970, 708920448.000000, -2.240000,  -4.690000,  -0.070000, 0.000000,  0.000000 
 34647232.000000, 0.011964 , 1.057628, 9.516255, 708940992.000000, -7.700000,  -4.550000,  -0.210000, 0.000000,  0.000000 
 34667200.000000, -0.004786 , 0.839881, 9.525827, 708960384.000000, -12.530000,  -4.900000,  0.420000, 0.000000,  0.000000 
 34687488.000000, -0.047856 , 0.564706, 9.442079, 708980416.000000, -13.720000,  -5.390000,  0.700000, 0.000000,  0.000000 
 34707200.000000, 0.129212 , 0.576670, 9.217153, 709000704.000000, -12.740000,  -6.370000,  0.070000, 0.000000,  0.000000 
 34727808.000000, 0.351745 , 0.787239, 9.250652, 709020352.000000, -6.090000,  -7.490000,  0.350000, 0.000000,  0.000000 
 34747200.000000, 0.315853 , 0.983450, 9.473185, 709040960.000000, 0.980000,  -6.300000,  0.420000, 0.000000,  0.000000 
 34767168.000000, 0.490529 , 1.237089, 9.801002, 709060352.000000, 4.760000,  -3.430000,  -0.070000, 0.000000,  0.000000 
 34787456.000000, 0.605384 , 1.531406, 10.028319, 709080320.000000, 10.010000,  -0.700000,  1.330000, 0.000000,  0.000000 
 34807168.000000, 0.366102 , 1.540978, 10.159925, 709100608.000000, 14.420000,  1.890000,  3.850000, 0.000000,  0.000000 
 34827712.000000, 0.306281 , 1.220340, 10.238889, 709120320.000000, 12.600000,  2.520000,  5.880000, 0.000000,  0.000000 
 34847104.000000, 0.411566 , 0.784846, 10.277173, 709140928.000000, 4.760000,  2.520000,  7.420000, 0.000000,  0.000000 
 34867136.000000, 0.334995 , 0.504886, 9.980463, 709160320.000000, -2.730000,  -3.430000,  8.260000, 0.000000,  0.000000 
 34887424.000000, 0.401994 , 0.435494, 9.657433, 709180288.000000, -4.760000,  -6.160000,  7.840000, 0.000000,  0.000000 
 34907072.000000, 0.480957 , 0.725025, 9.064013, 709200576.000000, -2.590000,  -7.910000,  6.230000, 0.000000,  0.000000 
 34927680.000000, 0.602991 , 0.937986, 8.920443, 709220288.000000, -0.140000,  -7.280000,  4.340000, 0.000000,  0.000000 
 34947072.000000, 0.148355 , 0.957129, 9.104690, 709240832.000000, -0.070000,  -3.430000,  4.340000, 0.000000,  0.000000 
 34967040.000000, -0.205783 , 0.863809, 9.238688, 709260224.000000, -2.730000,  1.540000,  2.240000, 0.000000,  0.000000 
 34987328.000000, -0.272782 , 0.593420, 9.377472, 709280256.000000, -1.470000,  4.970000,  1.680000, 0.000000,  0.000000 
 35007040.000000, -0.299103 , 0.746561, 9.911072, 709300544.000000, -2.380000,  7.140000,  2.380000, 0.000000,  0.000000 
 35027648.000000, -0.045464 , 1.105484, 9.858429, 709320192.000000, -0.770000,  8.470000,  1.330000, 0.000000,  0.000000 
 35047040.000000, 0.184247 , 1.531406, 9.652647, 709340800.000000, 9.800000,  7.000000,  -0.840000, 0.000000,  0.000000 
 35067008.000000, -0.033500 , 1.581656, 9.516255, 709360192.000000, 17.290001,  4.550000,  2.590000, 0.000000,  0.000000 
 35087296.000000, 0.186640 , 1.708475, 8.946764, 709380160.000000, 13.440001,  3.360000,  3.360000, 0.000000,  0.000000 
 35107008.000000, 0.595813 , 1.940579, 8.286345, 709400448.000000, 5.250000,  2.240000,  0.700000, 0.000000,  0.000000 
 35129536.000000, 0.600598 , 1.768296, 8.415558, 709420160.000000, 5.250000,  2.940000,  1.680000, 0.000000,  0.000000 
 35146944.000000, 0.555135 , 0.961915, 9.133404, 709442688.000000, -12.810000,  8.890000,  6.020000, 0.000000,  0.000000 
 35166976.000000, 0.301496 , -0.165105, 10.664811, 709460160.000000, -39.480000,  15.680000,  5.040000, 0.000000,  0.000000 
 35187264.000000, 0.179462 , -0.741775, 12.294323, 709480128.000000, -65.379997,  21.490000,  4.060000, 0.000000,  0.000000 
 35206912.000000, 0.935594 , -0.691526, 12.167502, 709500416.000000, -63.560001,  18.549999,  -0.070000, 0.000000,  0.000000 
 35227520.000000, 1.603191 , -0.181855, 11.346765, 709520128.000000, -35.209999,  7.000000,  -5.950000, 0.000000,  0.000000 
 35246912.000000, 1.323231 , -0.124427, 10.533205, 709540672.000000, -16.799999,  -7.000000,  -8.540000, 0.000000,  0.000000 
 35266880.000000, 1.222732 , -0.177069, 9.439686, 709560064.000000, -11.620000,  -15.330000,  -7.070000, 0.000000,  0.000000 
 35287168.000000, 1.411765 , -0.296710, 8.683553, 709580032.000000, -7.280000,  -20.230000,  -10.780000, 0.000000,  0.000000 
 35306880.000000, 0.849452 , 0.007178, 8.633304, 709600384.000000, -1.190000,  -23.030001,  -11.970000, 769949312.000000,  1004.582764 
 35327424.000000, -0.244068 , 0.488136, 8.336594, 709620032.000000, 5.110000,  -19.389999,  -10.290000, 0.000000,  0.000000 
 35346816.000000, -0.890130 , 0.856631, 8.394022, 709640640.000000, 16.379999,  -11.830000,  -10.850000, 0.000000,  0.000000 
 35366848.000000, -0.473779 , 0.753739, 9.126225, 709660032.000000, 21.210001,  -7.070000,  -12.040000, 0.000000,  0.000000 
 35387136.000000, -0.117248 , 0.619741, 9.482756, 709680000.000000, 12.670000,  -6.650000,  -10.010000, 0.000000,  0.000000 
 35406784.000000, -0.306281 , 0.890130, 9.454042, 709700288.000000, 5.320000,  -3.150000,  -7.700000, 0.000000,  0.000000 
 35427456.000000, -0.449851 , 1.239482, 9.604790, 709720000.000000, 10.990000,  0.770000,  -5.390000, 0.000000,  0.000000 
 35446784.000000, -0.248854 , 1.464408, 9.461221, 709740608.000000, 17.080000,  1.680000,  -3.290000, 0.000000,  0.000000 
 35466752.000000, -0.069392 , 1.533799, 9.633504, 709759936.000000, 20.299999,  4.480000,  -2.380000, 0.000000,  0.000000 
 35487104.000000, -0.033500 , 1.505085, 10.157533, 709779968.000000, 19.040001,  7.910000,  0.070000, 0.000000,  0.000000 
 35506752.000000, -0.071785 , 1.344766, 10.313066, 709800256.000000, 11.970000,  11.270000,  2.240000, 0.000000,  0.000000 
 35527360.000000, 0.325424 , 1.179662, 10.205389, 709819904.000000, 7.210000,  11.900000,  0.280000, 0.000000,  0.000000 
 35546752.000000, 0.595813 , 0.966700, 10.494920, 709840512.000000, 6.580000,  9.450000,  1.050000, 0.000000,  0.000000 
 35566720.000000, 0.318245 , 0.811167, 10.365707, 709859904.000000, 3.710000,  7.980000,  2.660000, 0.000000,  0.000000 
 35587136.000000, 0.404387 , 0.619741, 9.870394, 709879872.000000, 2.380000,  7.280000,  2.660000, 0.000000,  0.000000 
 35606720.000000, 0.729811 , 0.394816, 9.930215, 709900288.000000, 2.870000,  3.850000,  -1.260000, 0.000000,  0.000000 
 35627264.000000, 0.471386 , 0.275175, 9.755538, 709919872.000000, -0.910000,  -0.840000,  0.140000, 0.000000,  0.000000 
 35646656.000000, 0.205783 , 0.253639, 9.640682, 709940480.000000, -4.970000,  -2.310000,  0.140000, 0.000000,  0.000000 
 35666688.000000, 0.294317 , 0.416351, 9.714860, 709959872.000000, -2.170000,  -3.710000,  -2.450000, 0.000000,  0.000000 
 35686976.000000, 0.366102 , 0.713061, 9.899107, 709979840.000000, 2.660000,  -4.550000,  -3.290000, 0.000000,  0.000000 
 35706624.000000, 0.239282 , 0.971486, 9.954143, 710000128.000000, 6.370000,  -5.110000,  -3.990000, 0.000000,  0.000000 
 35727232.000000, -0.043071 , 1.234696, 9.932607, 710019840.000000, 8.330000,  -5.950000,  -5.040000, 0.000000,  0.000000 
 35746624.000000, 0.157926 , 1.406980, 10.006784, 710040384.000000, 11.270000,  -7.000000,  -6.860000, 0.000000,  0.000000 
 35766592.000000, 0.380459 , 1.418944, 10.188639, 710059776.000000, 11.620000,  -9.590000,  -7.490000, 0.000000,  0.000000 
 35786880.000000, 0.043071 , 1.490728, 9.846465, 710079808.000000, 5.250000,  -10.920000,  -7.420000, 0.000000,  0.000000 
 35806592.000000, -0.047856 , 1.306481, 9.595219, 710100096.000000, 2.730000,  -10.850000,  -7.980000, 0.000000,  0.000000 
 35827200.000000, 0.270389 , 0.813560, 9.147761, 710119744.000000, 0.910000,  -12.600000,  -6.720000, 0.000000,  0.000000 
 35846592.000000, 0.236889 , 0.495314, 8.666803, 710140352.000000, -6.020000,  -14.000000,  -1.960000, 0.000000,  0.000000 
 35866560.000000, 0.155533 , 0.524028, 8.377272, 710159744.000000, -10.080000,  -12.180000,  1.120000, 0.000000,  0.000000 
 35886848.000000, 0.497707 , 0.758525, 8.336594, 710179712.000000, -7.910000,  -9.520000,  1.470000, 0.000000,  0.000000 
 35906560.000000, 0.803988 , 0.777667, 8.461020, 710200064.000000, -5.880000,  -6.580000,  0.840000, 0.000000,  0.000000 
 35927104.000000, 0.543171 , 0.739382, 8.903693, 710219712.000000, -9.660000,  -2.590000,  3.010000, 0.000000,  0.000000 
 35946496.000000, 0.378066 , 0.844666, 9.832108, 710240320.000000, -13.370000,  3.500000,  2.660000, 0.000000,  0.000000 
 35966528.000000, 0.212961 , 1.146162, 10.518847, 710259712.000000, -9.730000,  6.790000,  -0.210000, 0.000000,  0.000000 
 35986816.000000, 0.275175 , 1.160519, 10.614561, 710279680.000000, -0.350000,  7.630000,  -3.640000, 0.000000,  0.000000 
 36006464.000000, 0.483350 , 1.100698, 10.277173, 710299968.000000, 6.860000,  5.880000,  -2.940000, 0.000000,  0.000000 
 36027072.000000, 0.492921 , 1.083949, 9.726824, 710319680.000000, 5.180000,  2.660000,  -1.400000, 0.000000,  0.000000 
 36046464.000000, 0.710668 , 1.220340, 9.757930, 710340224.000000, 6.440000,  0.630000,  0.210000, 0.000000,  0.000000 
 36066432.000000, 0.885344 , 1.158126, 9.824929, 710359616.000000, 7.840000,  -0.980000,  2.800000, 0.000000,  0.000000 
 36086720.000000, 0.906880 , 1.012164, 9.741181, 710379648.000000, 2.870000,  -1.890000,  4.550000, 0.000000,  0.000000 
 36106432.000000, 0.935594 , 0.772882, 9.686146, 710399936.000000, -3.360000,  -2.590000,  5.600000, 0.000000,  0.000000 
 36128960.000000, 0.887737 , 0.550349, 9.717253, 710419584.000000, -8.820000,  -2.940000,  7.140000, 0.000000,  0.000000 
 36146368.000000, 0.677169 , 0.370888, 9.834501, 710442176.000000, -13.020000,  -2.590000,  7.560000, 0.000000,  0.000000 
 36166400.000000, 0.512064 , 0.457029, 9.820145, 710459584.000000, -10.640000,  -2.520000,  6.930000, 0.000000,  0.000000 
 36186688.000000, 0.294317 , 0.705883, 9.327222, 710499840.000000, 2.940000,  -3.010000,  4.480000, 0.000000,  0.000000 
 36206336.000000, 0.239282 , 0.825524, 8.973085, 0.000000, 0.000000,  0.000000,  0.000000, 0.000000,  0.000000 
 36226944.000000, 0.361316 , 0.789631, 9.020942, 710519552.000000, 2.800000,  -1.960000,  4.060000, 0.000000,  0.000000 
 36246336.000000, 0.435494 , 0.842274, 9.054441, 710540160.000000, 0.630000,  -0.560000,  3.570000, 0.000000,  0.000000 
 36266304.000000, 0.478565 , 1.124627, 8.863015, 710559552.000000, 2.590000,  1.470000,  1.960000, 0.000000,  0.000000 
 36286656.000000, 0.655633 , 1.148555, 9.221939, 710599808.000000, 5.250000,  5.040000,  2.310000, 770948736.000000,  1004.584778 
 36306304.000000, 0.461815 , 1.122234, 9.475577, 0.000000, 0.000000,  0.000000,  0.000000, 0.000000,  0.000000 
 36326912.000000, 0.232104 , 1.213161, 9.805787, 710619520.000000, 3.990000,  7.770000,  1.960000, 0.000000,  0.000000 
 36346304.000000, 0.519243 , 1.146162, 10.432706, 710640064.000000, 5.390000,  8.890000,  1.190000, 0.000000,  0.000000 
 36366272.000000, 0.387637 , 1.153341, 10.523634, 710659456.000000, 8.260000,  8.190000,  1.260000, 0.000000,  0.000000 
 36386560.000000, 0.155533 , 1.244268, 10.205389, 710679424.000000, 6.160000,  5.880000,  2.380000, 0.000000,  0.000000 
 36406272.000000, 0.289532 , 1.313660, 9.978070, 710699776.000000, 7.280000,  5.180000,  0.980000, 0.000000,  0.000000 
 36426880.000000, 0.655633 , 1.205983, 9.786645, 710719424.000000, 9.520000,  1.680000,  1.190000, 0.000000,  0.000000 
 36446208.000000, 0.576670 , 1.004985, 9.497113, 710740032.000000, 4.200000,  -0.700000,  3.150000, 0.000000,  0.000000 
 36466240.000000, 0.789631 , 0.890130, 9.714860, 710759424.000000, -2.730000,  0.350000,  2.940000, 0.000000,  0.000000 
 36486528.000000, 0.851845 , 0.727418, 9.734003, 710779392.000000, -6.790000,  0.700000,  2.940000, 0.000000,  0.000000 
 36506176.000000, 0.617348 , 0.696311, 9.683753, 710799680.000000, -7.700000,  2.170000,  1.750000, 0.000000,  0.000000 
 36526784.000000, 0.569492 , 0.851845, 9.858429, 710819392.000000, -5.740000,  2.800000,  -0.700000, 0.000000,  0.000000 
 36546176.000000, 0.323031 , 0.911665, 9.731609, 710839936.000000, -5.320000,  1.890000,  -1.540000, 0.000000,  0.000000 
 36566208.000000, 0.196211 , 0.954736, 9.600004, 710859392.000000, -4.550000,  1.470000,  -3.710000, 0.000000,  0.000000 
 36586496.000000, 0.409173 , 0.847059, 9.712467, 710879360.000000, -4.620000,  -0.280000,  -5.110000, 0.000000,  0.000000 
 36606144.000000, 0.535992 , 0.792024, 9.367901, 710899648.000000, -7.000000,  -3.430000,  -4.340000, 0.000000,  0.000000 
 36626752.000000, 0.519243 , 0.808774, 8.953942, 710919360.000000, -5.950000,  -4.620000,  -2.940000, 0.000000,  0.000000 
 36646144.000000, 0.602991 , 0.693919, 9.087940, 710939904.000000, -3.290000,  -5.180000,  -1.470000, 0.000000,  0.000000 
 36666112.000000, 0.555135 , 0.538385, 9.535398, 710959296.000000, -6.160000,  -4.410000,  -1.330000, 0.000000,  0.000000 
 36686400.000000, 0.449851 , 0.478565, 9.650253, 710979328.000000, -5.880000,  -3.010000,  -1.680000, 0.000000,  0.000000 
 36706112.000000, 0.208176 , 0.669990, 9.602397, 710999616.000000, 0.210000,  -2.030000,  -0.910000, 0.000000,  0.000000 
 36726656.000000, 0.162712 , 0.892523, 9.434900, 711019264.000000, 5.390000,  -1.120000,  -0.490000, 0.000000,  0.000000 
 36746048.000000, 0.600598 , 1.127020, 9.521042, 711039872.000000, 8.470000,  -0.770000,  -1.680000, 0.000000,  0.000000 
 36766080.000000, 0.576670 , 1.251446, 9.487542, 711059264.000000, 8.190000,  -1.260000,  -1.610000, 0.000000,  0.000000 
 36786368.000000, 0.562313 , 1.258625, 9.399008, 711079232.000000, 7.700000,  0.910000,  -1.820000, 0.000000,  0.000000 
 36806016.000000, 0.777667 , 1.004985, 9.466006, 711099520.000000, 6.160000,  2.660000,  -2.240000, 0.000000,  0.000000 
 36826624.000000, 0.760918 , 0.708275, 9.803394, 711119232.000000, 2.730000,  4.340000,  -1.260000, 0.000000,  0.000000 
 36846016.000000, 0.583849 , 0.646062, 10.028319, 711139776.000000, -3.010000,  5.740000,  -1.540000, 0.000000,  0.000000 
 36865984.000000, 0.421137 , 0.849452, 10.030712, 711159232.000000, -4.970000,  6.440000,  -2.030000, 0.000000,  0.000000 
 36886336.000000, 0.308674 , 1.258625, 10.083356, 711179200.000000, 0.630000,  5.530000,  -2.380000, 0.000000,  0.000000 
 36905984.000000, 0.325424 , 1.552942, 9.686146, 711199488.000000, 6.160000,  3.780000,  -2.870000, 0.000000,  0.000000 
 36926592.000000, 0.535992 , 1.306481, 9.341579, 711219136.000000, 7.070000,  2.240000,  -1.470000, 0.000000,  0.000000 
 36945984.000000, 0.705883 , 0.684347, 9.384650, 711239744.000000, -0.350000,  1.050000,  -0.350000, 0.000000,  0.000000 
 36965952.000000, 0.808774 , 0.289532, 9.638289, 711259136.000000, -14.070000,  0.560000,  -2.730000, 0.000000,  0.000000 
 36986240.000000, 0.971486 , 0.361316, 9.743573, 711279104.000000, -17.080000,  0.210000,  -3.010000, 0.000000,  0.000000 
 37005952.000000, 0.978664 , 0.547956, 9.174082, 711299456.000000, -11.760000,  -0.420000,  -3.220000, 0.000000,  0.000000 
 37026496.000000, 0.602991 , 0.851845, 8.609376, 711319104.000000, -3.290000,  0.070000,  -2.380000, 0.000000,  0.000000 
 37045888.000000, -0.050249 , 0.789631, 9.664611, 711339712.000000, -4.480000,  3.990000,  -1.400000, 0.000000,  0.000000 
 37065920.000000, -0.521635 , 0.150748, 10.258030, 711359104.000000, -15.540000,  7.630000,  1.540000, 0.000000,  0.000000 
 37086208.000000, -0.059821 , -0.117248, 9.879964, 711379072.000000, -20.510000,  6.020000,  2.380000, 0.000000,  0.000000 
 37105856.000000, 0.078963 , 1.251446, 10.435099, 711399360.000000, -12.740000,  1.330000,  2.730000, 0.000000,  0.000000 
 37128384.000000, 0.057428 , 3.261417, 9.808180, 711419072.000000, 4.760000,  0.490000,  7.910000, 0.000000,  0.000000 
 37145856.000000, 0.882952 , 3.577270, 9.243474, 711441600.000000, 30.380001,  1.820000,  16.100000, 0.000000,  0.000000 
 37165824.000000, 0.818345 , 2.641676, 9.540184, 711459008.000000, 34.580002,  3.500000,  13.020000, 0.000000,  0.000000 
 37186176.000000, 0.241675 , 1.679761, 9.640682, 711479040.000000, 0.070000,  7.280000,  -0.980000, 0.000000,  0.000000 
 37205824.000000, 0.497707 , 1.555335, 10.116854, 711499328.000000, -19.460001,  10.920000,  5.670000, 0.000000,  0.000000 
 37226432.000000, 0.409173 , 1.433301, 10.604989, 711518976.000000, -16.520000,  11.130000,  18.969999, 0.000000,  0.000000 
 37245824.000000, 0.442672 , 1.052842, 10.205389, 711539584.000000, -2.100000,  9.800000,  28.490000, 0.000000,  0.000000 
 37265792.000000, 0.926022 , 0.787239, 9.315259, 711558976.000000, 11.830000,  4.900000,  35.630001, 0.000000,  0.000000 
 37286080.000000, 1.050449 , 0.497707, 9.214760, 711599296.000000, 8.260000,  -1.820000,  38.920002, 771948224.000000,  1004.587646 
 37305792.000000, 0.947558 , 0.191426, 9.580862, 0.000000, 0.000000,  0.000000,  0.000000, 0.000000,  0.000000 
 37326336.000000, 0.940379 , 0.011964, 10.179067, 711618944.000000, -7.560000,  -3.010000,  35.139999, 0.000000,  0.000000 
 37345728.000000, 0.533599 , -0.464208, 10.214959, 711639552.000000, -24.080000,  -5.250000,  29.330000, 0.000000,  0.000000 
 37365760.000000, -0.112463 , -0.327817, 9.906286, 711658944.000000, -27.860001,  -6.860000,  21.840000, 0.000000,  0.000000 
 37386048.000000, -0.124427 , -0.026321, 9.396614, 711678912.000000, -17.639999,  -8.260000,  15.330000, 0.000000,  0.000000 
 37405696.000000, 0.033500 , 0.081356, 8.874979, 711699200.000000, -1.470000,  -12.810000,  10.710000, 0.000000,  0.000000 
 37426304.000000, 0.136391 , -0.098106, 9.351151, 711718912.000000, -3.220000,  -14.000000,  8.260000, 0.000000,  0.000000 
 37445696.000000, 0.239282 , -0.313460, 10.279566, 711739520.000000, -24.080000,  -10.010000,  4.760000, 0.000000,  0.000000 
 37465664.000000, 0.172283 , -0.978664, 10.150353, 711758848.000000, -41.650002,  -7.700000,  0.700000, 0.000000,  0.000000 
 37485952.000000, -0.445065 , -1.325624, 9.351151, 711799168.000000, -3.780000,  -3.430000,  -4.620000, 0.000000,  0.000000 
 37505664.000000, -0.514457 , -0.581456, 8.784052, 0.000000, 0.000000,  0.000000,  0.000000, 0.000000,  0.000000 
 37526208.000000, 0.038285 , 0.921237, 9.037691, 711818816.000000, 22.469999,  -5.460000,  -7.210000, 0.000000,  0.000000 
 37545600.000000, -0.090927 , 1.816152, 9.171689, 711839424.000000, 26.389999,  -3.150000,  -11.130000, 0.000000,  0.000000 
 37565632.000000, -0.119641 , 1.907080, 8.882158, 711858816.000000, 28.280001,  4.550000,  -15.120000, 0.000000,  0.000000 
 37586112.000000, 0.504886 , 1.842474, 8.772088, 711878784.000000, 41.160000,  9.870000,  -9.730000, 0.000000,  0.000000 
 37605568.000000, 1.205983 , 2.158326, 9.631111, 711899264.000000, 45.360001,  13.650000,  -3.290000, 0.000000,  0.000000 
 37626176.000000, 1.560120 , 2.191825, 10.822738, 711918784.000000, 31.500000,  17.290001,  1.330000, 0.000000,  0.000000 
 37645568.000000, 1.502693 , 1.519442, 9.927821, 711939392.000000, 6.650000,  17.219999,  4.900000, 0.000000,  0.000000 
 37665536.000000, 1.153341 , 0.765703, 9.260223, 711958720.000000, -1.400000,  16.170000,  11.200000, 0.000000,  0.000000 
 37685888.000000, 0.835095 , 0.387637, 10.358529, 711978752.000000, 1.330000,  20.440001,  10.990000, 0.000000,  0.000000 
 37705536.000000, 0.552742 , 0.598206, 10.904092, 711999040.000000, 5.320000,  16.730000,  15.960000, 0.000000,  0.000000 
 37726144.000000, 0.504886 , 0.579063, 10.222138, 712018688.000000, 3.850000,  7.560000,  13.090000, 0.000000,  0.000000 
 37745536.000000, 0.588634 , 0.440279, 10.214959, 712039296.000000, -6.650000,  -2.800000,  6.160000, 0.000000,  0.000000 
 37765504.000000, 0.200997 , -0.076570, 10.207782, 712058688.000000, -29.820000,  -8.680000,  -2.450000, 0.000000,  0.000000 
 37785792.000000, -0.215354 , 0.102891, 8.839087, 712078656.000000, -34.090000,  -9.310000,  -14.070000, 0.000000,  0.000000 
 37805504.000000, -0.736989 , 0.696311, 8.075776, 712099008.000000, -8.400000,  -6.510000,  -14.350000, 0.000000,  0.000000 
 37826048.000000, -0.811167 , 0.861416, 7.975278, 712118656.000000, 17.010000,  -2.310000,  -9.870000, 0.000000,  0.000000 
 37845440.000000, -0.334995 , 0.746561, 8.087741, 712139264.000000, 16.660000,  0.770000,  -8.470000, 0.000000,  0.000000 
 37865472.000000, -0.222532 , 0.904487, 8.729016, 712158656.000000, 4.690000,  4.480000,  -9.170000, 0.000000,  0.000000 
 37885760.000000, -0.193819 , 1.445265, 9.700503, 712178624.000000, 0.910000,  10.150000,  -9.030000, 0.000000,  0.000000 
 37905408.000000, 0.172283 , 1.871187, 10.260423, 712198912.000000, 10.850000,  15.750000,  -8.820000, 0.000000,  0.000000 
 37926016.000000, 0.739382 , 1.954936, 10.473385, 712218624.000000, 21.629999,  16.309999,  -8.680000, 0.000000,  0.000000 
 37945408.000000, 1.284946 , 1.627119, 10.246067, 712239232.000000, 21.280001,  13.090000,  -4.690000, 0.000000,  0.000000 
 37965376.000000, 1.222732 , 1.438086, 10.143176, 712258560.000000, 7.560000,  8.890000,  -1.050000, 0.000000,  0.000000 
 37985728.000000, 1.012164 , 1.177269, 10.511670, 712278592.000000, -5.180000,  6.930000,  -0.350000, 0.000000,  0.000000 
 38005376.000000, 0.988236 , 1.083949, 10.145569, 712298880.000000, -6.160000,  3.010000,  -0.700000, 0.000000,  0.000000 
 38025984.000000, 0.696311 , 1.186840, 9.128618, 712318528.000000, -3.640000,  -2.380000,  1.540000, 0.000000,  0.000000 
 38045376.000000, 0.299103 , 0.997807, 8.908479, 712339136.000000, -6.860000,  -4.550000,  5.040000, 0.000000,  0.000000 
 38065344.000000, -0.069392 , 0.519243, 9.231510, 712358528.000000, -20.090000,  -2.940000,  6.650000, 0.000000,  0.000000 
 38085632.000000, -0.327817 , 0.519243, 9.396614, 712378496.000000, -33.599998,  0.280000,  4.830000, 0.000000,  0.000000 
 38105344.000000, -0.397209 , -0.035892, 9.678967, 712398848.000000, -32.689999,  1.890000,  4.060000, 0.000000,  0.000000 
 38127872.000000, -0.445065 , -0.009571, 9.949356, 712418496.000000, -22.049999,  3.220000,  3.150000, 0.000000,  0.000000 
 38145280.000000, -0.368495 , -0.011964, 10.128819, 712441024.000000, -14.210000,  3.500000,  0.070000, 0.000000,  0.000000 
 38165312.000000, -0.133998 , 0.011964, 10.171888, 712458496.000000, -10.710000,  2.310000,  -3.570000, 0.000000,  0.000000 
 38185600.000000, 0.229711 , 0.473779, 10.011569, 712478464.000000, -0.210000,  0.210000,  -7.980000, 0.000000,  0.000000 
 38205248.000000, 0.011964 , 0.849452, 10.181459, 712498752.000000, 11.550000,  -1.260000,  -7.490000, 0.000000,  0.000000 
 38225856.000000, -0.229711 , 0.904487, 10.715059, 712518464.000000, 14.140000,  -1.050000,  -10.500000, 0.000000,  0.000000 
 38245248.000000, -0.337388 , 1.098306, 10.564312, 712539008.000000, 10.780000,  -0.910000,  -11.060000, 0.000000,  0.000000 
 38265216.000000, -0.325424 , 1.304088, 9.990034, 712558400.000000, 6.720000,  -2.450000,  -13.230000, 0.000000,  0.000000 
 38285568.000000, -0.483350 , 1.555335, 9.341579, 712598720.000000, 5.880000,  -6.790000,  -10.710000, 772947648.000000,  1004.589172 
 38305216.000000, -0.547956 , 1.701297, 9.068797, 0.000000, 0.000000,  0.000000,  0.000000, 0.000000,  0.000000 
 38325824.000000, -0.138784 , 1.674976, 8.496914, 712618368.000000, 3.220000,  -6.020000,  -7.070000, 0.000000,  0.000000 
 38345216.000000, 0.059821 , 1.215554, 8.391629, 712638976.000000, 0.840000,  -4.270000,  -0.980000, 0.000000,  0.000000 
 38365184.000000, -0.035892 , 0.361316, 8.757731, 712658368.000000, -11.690000,  0.350000,  2.450000, 0.000000,  0.000000 
 38385472.000000, -0.193819 , -0.069392, 9.332008, 712678336.000000, -21.910000,  5.110000,  5.740000, 0.000000,  0.000000 
 38405184.000000, 0.035892 , -0.332602, 9.518648, 712698688.000000, -16.030001,  6.860000,  7.770000, 0.000000,  0.000000 
 38425792.000000, 0.126820 , -0.428315, 10.128819, 712718336.000000, -7.560000,  6.370000,  9.870000, 0.000000,  0.000000 
 38445120.000000, 0.220140 , -0.413958, 10.420743, 712738944.000000, -5.880000,  5.180000,  6.860000, 0.000000,  0.000000 
 38465152.000000, -0.081356 , 0.016750, 10.624132, 712758336.000000, 4.130000,  2.800000,  3.640000, 0.000000,  0.000000 
 38485440.000000, -0.222532 , 0.823131, 10.198210, 712778304.000000, 18.129999,  1.330000,  -3.780000, 0.000000,  0.000000 
 38505088.000000, 0.071785 , 1.584049, 9.590433, 712798592.000000, 30.240000,  -1.050000,  -6.860000, 0.000000,  0.000000 
 38525696.000000, 0.423530 , 1.670190, 9.540184, 712818304.000000, 28.070000,  -3.780000,  -7.630000, 0.000000,  0.000000 
 38545088.000000, 0.684347 , 1.586441, 9.674182, 712838848.000000, 11.620000,  -4.620000,  -8.050000, 0.000000,  0.000000 
 38565056.000000, 0.638884 , 1.797010, 9.140583, 712858240.000000, 1.890000,  -4.970000,  -2.940000, 0.000000,  0.000000 
 38585344.000000, 0.533599 , 1.804188, 9.202796, 712878272.000000, 2.590000,  -2.730000,  2.590000, 0.000000,  0.000000 
 38605056.000000, 0.490529 , 1.136591, 9.856036, 712898560.000000, -3.150000,  0.700000,  7.000000, 0.000000,  0.000000 
 38625664.000000, 0.263210 , 0.543171, 10.047462, 712918208.000000, -14.140000,  2.450000,  10.780000, 0.000000,  0.000000 
 38645056.000000, -0.119641 , 0.373280, 10.006784, 712938816.000000, -13.860000,  3.430000,  13.860000, 0.000000,  0.000000 
 38665024.000000, -0.191426 , 0.413958, 9.956534, 712958208.000000, -5.950000,  4.410000,  15.470000, 0.000000,  0.000000 
 38685312.000000, -0.186640 , 0.200997, 9.980463, 712978176.000000, -1.190000,  5.530000,  14.210000, 0.000000,  0.000000 
 38705024.000000, -0.289532 , 0.019143, 10.061819, 712998528.000000, -2.100000,  6.650000,  9.450000, 0.000000,  0.000000 
 38725568.000000, -0.370888 , 0.337388, 9.815358, 713018176.000000, -4.410000,  6.300000,  6.440000, 0.000000,  0.000000 
 38744960.000000, -0.413958 , 0.677169, 9.336794, 713038784.000000, 2.730000,  4.480000,  4.200000, 0.000000,  0.000000 
 38764992.000000, -0.239282 , 0.890130, 9.092726, 713058176.000000, 9.520000,  2.450000,  0.770000, 0.000000,  0.000000 
 38785280.000000, 0.110070 , 1.055235, 9.018548, 713078144.000000, 7.630000,  0.770000,  -0.910000, 0.000000,  0.000000 
 38804928.000000, 0.275175 , 1.351945, 8.970692, 713098432.000000, 3.290000,  -0.280000,  -1.120000, 0.000000,  0.000000 
 38825536.000000, 0.217747 , 1.445265, 8.738588, 713118144.000000, 0.840000,  -0.210000,  0.280000, 0.000000,  0.000000 
 38844928.000000, 0.200997 , 1.536192, 8.824730, 713138688.000000, -0.770000,  1.330000,  2.100000, 0.000000,  0.000000 
 38864896.000000, 0.270389 , 1.299303, 9.442079, 713158080.000000, -3.220000,  2.940000,  4.620000, 0.000000,  0.000000 
 38885184.000000, 0.246461 , 0.916451, 9.836893, 713178112.000000, -6.300000,  3.360000,  7.420000, 0.000000,  0.000000 
 38904896.000000, 0.131605 , 0.684347, 10.066606, 713198400.000000, -8.540000,  3.080000,  10.150000, 0.000000,  0.000000 
 38925440.000000, -0.016750 , 0.708275, 10.133603, 713218048.000000, -7.770000,  2.240000,  12.180000, 0.000000,  0.000000 
 38944832.000000, -0.057428 , 0.545564, 10.291530, 713238656.000000, -3.080000,  1.960000,  12.950000, 0.000000,  0.000000 
 38964864.000000, 0.270389 , -0.078963, 10.865808, 713258048.000000, -1.890000,  1.050000,  11.270000, 0.000000,  0.000000 
 38985152.000000, 0.019143 , -0.344566, 12.102897, 713278016.000000, -6.790000,  -1.050000,  8.190000, 0.000000,  0.000000 
 39004800.000000, -0.725025 , -0.081356, 11.349157, 713298368.000000, -5.250000,  -1.610000,  3.150000, 0.000000,  0.000000 
 39025408.000000, -0.734596 , 0.978664, 10.040283, 713318016.000000, 14.840000,  -1.680000,  -1.960000, 0.000000,  0.000000 
 39044800.000000, 0.021535 , 1.622334, 9.358330, 713338624.000000, 35.000000,  -4.200000,  -2.660000, 0.000000,  0.000000 
 39064768.000000, 0.229711 , 1.677369, 8.197811, 713357952.000000, 28.000000,  -6.510000,  -7.560000, 0.000000,  0.000000 
 39085120.000000, 0.521635 , 1.514657, 7.685746, 713377984.000000, 6.370000,  -4.480000,  -5.530000, 0.000000,  0.000000 
 39104768.000000, 0.559920 , 1.124627, 8.020741, 713398272.000000, -5.810000,  -0.210000,  -1.400000, 0.000000,  0.000000 
 39127296.000000, 0.193819 , 0.957129, 8.425128, 713417920.000000, -10.080000,  5.950000,  -0.560000, 0.000000,  0.000000 
 39144768.000000, 0.184247 , 0.815953, 8.554340, 713440512.000000, -7.980000,  9.940000,  3.640000, 0.000000,  0.000000 
 39164736.000000, 0.148355 , 0.605384, 9.360723, 713457920.000000, -3.710000,  11.970000,  10.290000, 0.000000,  0.000000 
 39185024.000000, -0.083749 , 0.368495, 10.028319, 713477888.000000, -2.170000,  13.090000,  10.360000, 0.000000,  0.000000 
 39204736.000000, -0.055035 , 0.165105, 10.356135, 713498240.000000, 0.070000,  11.830000,  7.630000, 0.000000,  0.000000 
 39225280.000000, -0.256032 , 0.454636, 10.341780, 713517888.000000, 7.000000,  7.280000,  4.830000, 0.000000,  0.000000 
 39244672.000000, -0.416351 , 0.906880, 10.296316, 713538496.000000, 13.650000,  2.030000,  0.980000, 0.000000,  0.000000 
 39264704.000000, -0.186640 , 1.368695, 10.138390, 713557888.000000, 15.400000,  -3.500000,  -3.850000, 0.000000,  0.000000 
 39284992.000000, 0.248854 , 1.447658, 9.875179, 713577856.000000, 11.550000,  -10.010000,  -6.790000, 0.000000,  0.000000 
 39304640.000000, 0.382852 , 1.356731, 9.533006, 713598208.000000, 0.910000,  -14.490000,  -6.440000, 773947136.000000,  1004.588867 
 39325248.000000, 0.502493 , 1.337588, 9.504292, 713617856.000000, -9.660000,  -14.490000,  -4.200000, 0.000000,  0.000000 
 39344640.000000, 0.588634 , 1.048056, 9.882358, 713638400.000000, -12.040000,  -12.600000,  -3.360000, 0.000000,  0.000000 
 39364608.000000, 0.631705 , 0.610170, 10.124033, 713657792.000000, -11.550000,  -9.590000,  -1.120000, 0.000000,  0.000000 
 39384960.000000, 0.521635 , 0.437887, 10.023535, 713677824.000000, -11.060000,  -6.650000,  1.610000, 0.000000,  0.000000 
 39404608.000000, 0.275175 , 0.500100, 10.045070, 713698112.000000, -6.650000,  -3.500000,  1.540000, 0.000000,  0.000000 
 39425216.000000, -0.031107 , 0.614955, 9.968499, 713717760.000000, 0.070000,  -3.500000,  -1.050000, 0.000000,  0.000000 
 39444608.000000, -0.129212 , 0.732204, 9.702895, 713738432.000000, 3.990000,  2.240000,  -4.690000, 0.000000,  0.000000 
 39464576.000000, -0.153141 , 0.897308, 9.432507, 713757760.000000, 5.460000,  2.730000,  -8.470000, 0.000000,  0.000000 
 39484864.000000, -0.215354 , 1.038485, 8.908479, 713777728.000000, 5.390000,  2.940000,  -9.800000, 0.000000,  0.000000 
 39504576.000000, -0.165105 , 1.179662, 8.848659, 713798080.000000, 4.480000,  4.060000,  -10.010000, 0.000000,  0.000000 
 39525120.000000, -0.105284 , 1.160519, 9.190832, 713817728.000000, 4.200000,  4.690000,  -8.820000, 0.000000,  0.000000 
 39544512.000000, -0.193819 , 1.201197, 9.245867, 713838336.000000, 2.310000,  4.830000,  -7.280000, 0.000000,  0.000000 
 39564544.000000, -0.172283 , 1.208375, 9.245867, 713857728.000000, 1.540000,  3.780000,  -4.480000, 0.000000,  0.000000 
 39584832.000000, -0.294317 , 1.296910, 9.399008, 713877696.000000, 1.750000,  2.030000,  -2.660000, 0.000000,  0.000000 
 39604480.000000, -0.433101 , 1.399801, 9.274581, 713897984.000000, 1.680000,  0.630000,  -1.750000, 0.000000,  0.000000 
 39625088.000000, -0.212961 , 1.383051, 9.341579, 713917696.000000, 1.400000,  -1.120000,  -0.280000, 0.000000,  0.000000 
 39644480.000000, 0.047856 , 1.253839, 9.547362, 713938240.000000, -1.400000,  -3.640000,  1.050000, 0.000000,  0.000000 
 39664448.000000, 0.196211 , 1.131805, 9.669396, 713957632.000000, -4.620000,  -4.830000,  1.540000, 0.000000,  0.000000 
 39684736.000000, 0.277567 , 1.203590, 9.741181, 713977664.000000, -3.640000,  -3.710000,  2.520000, 0.000000,  0.000000 
 39704448.000000, 0.296710 , 1.179662, 10.049855, 713997952.000000, -1.330000,  -2.170000,  2.030000, 0.000000,  0.000000 
 39725056.000000, 0.325424 , 0.844666, 9.920642, 714017600.000000, -2.520000,  -1.050000,  1.540000, 0.000000,  0.000000 
 39744448.000000, 0.579063 , 0.722632, 10.085747, 714038208.000000, -5.530000,  0.070000,  3.080000, 0.000000,  0.000000 
 39764416.000000, 0.636491 , 0.571885, 10.454242, 714057600.000000, -6.440000,  1.190000,  4.130000, 0.000000,  0.000000 
 39784704.000000, 0.390030 , 0.777667, 10.667203, 714077568.000000, -4.760000,  3.990000,  1.120000, 0.000000,  0.000000 
 39804416.000000, 0.248854 , 1.282553, 10.356135, 714097920.000000, 5.530000,  6.720000,  -1.260000, 0.000000,  0.000000 
 39824960.000000, 0.337388 , 1.311267, 10.047462, 714117568.000000, 20.299999,  4.620000,  1.680000, 0.000000,  0.000000 
 39844352.000000, 0.399601 , 1.007378, 9.726824, 714138176.000000, 13.020000,  -0.140000,  -0.140000, 0.000000,  0.000000 
 39864384.000000, 0.119641 , 1.016950, 9.463614, 714157568.000000, -4.900000,  -3.150000,  -1.470000, 0.000000,  0.000000 
 39884672.000000, 0.019143 , 0.954736, 9.226725, 714177536.000000, -9.450000,  -3.850000,  -1.960000, 0.000000,  0.000000 
 39904320.000000, 0.064606 , 0.787239, 9.032906, 714197824.000000, -8.190000,  -4.690000,  -1.890000, 0.000000,  0.000000 
 39924928.000000, 0.236889 , 0.823131, 8.650054, 714217536.000000, -8.330000,  -3.920000,  -0.910000, 0.000000,  0.000000 
 39944320.000000, 0.437887 , 0.856631, 8.573483, 714238080.000000, -6.790000,  -2.450000,  0.840000, 0.000000,  0.000000 
 39964288.000000, 0.346959 , 0.868595, 8.609376, 714257472.000000, -5.950000,  -0.980000,  1.890000, 0.000000,  0.000000 
 39984576.000000, 0.504886 , 0.863809, 8.743374, 714277504.000000, -8.260000,  1.540000,  0.420000, 0.000000,  0.000000 
 40004288.000000, 0.413958 , 0.689133, 9.300901, 714297792.000000, -9.100000,  3.500000,  -0.140000, 0.000000,  0.000000 
 40024832.000000, -0.031107 , 0.413958, 9.870394, 714317440.000000, -11.970000,  5.180000,  -0.350000, 0.000000,  0.000000 
 40044288.000000, -0.330210 , 0.387637, 10.499706, 714338048.000000, -12.950000,  5.810000,  -0.980000, 0.000000,  0.000000 
 40064256.000000, -0.473779 , 0.703490, 10.652846, 714357440.000000, -5.740000,  4.060000,  -3.360000, 0.000000,  0.000000 
 40084544.000000, -0.629312 , 0.947558, 10.191031, 714377408.000000, 7.070000,  0.350000,  -4.900000, 0.000000,  0.000000 
 40104256.000000, -0.473779 , 1.057628, 10.537991, 714397696.000000, 11.130000,  -3.710000,  -5.880000, 0.000000,  0.000000 
 40126784.000000, -0.308674 , 1.079163, 11.751152, 714417408.000000, 7.420000,  -5.390000,  -6.930000, 0.000000,  0.000000 
 40144192.000000, -0.327817 , 1.426122, 11.621940, 714439936.000000, -0.350000,  -8.750000,  -7.560000, 0.000000,  0.000000 
 40164224.000000, -0.320638 , 2.093720, 10.925629, 714457408.000000, 4.900000,  -10.570000,  -8.050000, 0.000000,  0.000000 
 40184512.000000, -0.110070 , 2.136791, 10.229317, 714477376.000000, 20.930000,  -10.290000,  -9.800000, 0.000000,  0.000000 
 40204160.000000, -0.050249 , 2.182254, 9.820145, 714497664.000000, 24.080000,  -9.870000,  -8.120000, 0.000000,  0.000000 
 40224768.000000, 0.148355 , 1.727618, 8.956335, 714517376.000000, 5.950000,  -8.400000,  -3.570000, 0.000000,  0.000000 
 40244160.000000, 0.612563 , 1.062413, 8.439486, 714537920.000000, -11.130000,  -5.950000,  -1.050000, 0.000000,  0.000000 
 40264128.000000, 0.849452 , 0.744168, 7.807780, 714557312.000000, -24.430000,  -4.060000,  2.450000, 0.000000,  0.000000 
 40284416.000000, 0.782453 , 0.516850, 7.657032, 714597632.000000, -27.160000,  4.830000,  9.660000, 774946560.000000,  1004.586731 
 40304128.000000, 0.531207 , 0.311067, 7.901100, 0.000000, 0.000000,  0.000000,  0.000000, 0.000000,  0.000000 
