time,seconds_elapsed,z,y,x
1634126019698508300,0.03650830078125,-0.6232119780868292,0.00016834230422973633,0.27815540873184796
1634126019718388200,0.05638818359375,-0.532263294661045,-0.03146247523427009,0.15793883750662208
1634126019738267400,0.076267333984375,-0.4871352821677923,-0.07677227403521537,0.10362389447316527
1634126019758147300,0.096147216796875,-0.6514940697193146,0.26824644752740856,0.14094327904209494
1634126019778027300,0.11602734375,-0.9400187506437301,0.5403805501431227,0.223277571118623
1634126019797906400,0.135906494140625,-0.3297843275517225,0.724905342888832,0.10676204636842011
1634126019817786000,0.1557861328125,0.3511971179366112,0.431181924277544,-0.2535330086506903
1634126019837666300,0.175666259765625,0.7468442029744387,0.2753945657163858,-0.44709728628993034
1634126019857545500,0.19554541015625,0.5155933148890733,0.27893969097733495,-0.383554350053519
1634126019877425200,0.215425048828125,0.3657347618550062,0.25330665254890916,-0.16290011317580938
1634126019897305300,0.235305419921875,0.240966226413846,0.03855798645317554,-0.13565657081082463
1634126019917185300,0.255185302734375,0.23460429016649723,-0.032625673794746395,0.04145253885090351
1634126019937064400,0.275064453125,0.3693938688844442,-0.11417875236570835,0.10024988799542188
1634126019956944100,0.294944091796875,0.3861193782359361,-0.2430231589436531,0.12217004338055848
1634126019976824300,0.31482421875,0.18436521826982497,-0.2517892337232828,0.19845204968079924
1634126019996703500,0.334703369140625,-0.029398528441786764,-0.11903612926900387,0.3022239743225276
1634126020016583200,0.354583251953125,-0.02904313913285732,-0.06668342621922492,0.37661432165727016
1634126020036463400,0.37446337890625,-0.10772738426923752,-0.25737317133545873,0.2213344742268324
1634126020056342300,0.39434228515625,-0.04522212051749229,-0.20866028609275816,0.20250819320380686
1634126020076222500,0.414222412109375,-0.022148118922114372,-0.05861000987887382,0.17231676081866024
1634126020096101600,0.4341015625,-0.05048457109034061,0.1255880351305008,0.16644611521959304
1634126020115980500,0.45398046875,-0.11258534569442272,0.16202654521167278,0.07482596227303147
1634126020135860500,0.473860595703125,-0.056384735044836994,0.15500760636031627,0.05659954683929681
1634126020155740400,0.493740478515625,0.058926236221194264,0.0911491744339466,0.0006526186898350715
1634126020175619600,0.51361962890625,0.18105039463341235,0.14881576598286628,-0.02971519317552447
1634126020195499800,0.533499755859375,0.10847849489748478,0.2112204919695854,0.026190526180714366
1634126020215379500,0.55337939453125,0.13115794421732424,0.18612112202644346,-0.01037497128099203
1634126020235259600,0.573259765625,-0.01933306150138378,0.24880232686698436,-0.10985738203525543
1634126020255138600,0.593138671875,-0.0879202755153179,0.2879085948526859,-0.04963000008761882
1634126020275018500,0.6130185546875,-0.009134908092021941,0.28558570486307144,-0.03254690947011113
1634126020294898400,0.6328984375,-0.033249358651041984,0.430937594127655,-0.22655922313779592
1634126020314777600,0.652777587890625,0.06161269882619381,0.4123638265609741,-0.03494841765388846
1634126020334657800,0.67265771484375,0.04292845662236214,0.5788292310029268,0.04310205962359905
1634126020354537500,0.692537353515625,0.36773207315206524,0.7478373056650162,0.1752868626706302
1634126020374416600,0.712416748046875,0.5100421105027199,0.7093389404445887,0.1647642996124923
1634126020394296600,0.732296630859375,0.5689759455084801,0.5410691169291735,0.269151141282171
1634126020414176500,0.752176513671875,0.6009545535713434,0.4818436055004596,0.3362874258354306
1634126020434055700,0.7720556640625,0.7478601020187139,0.3399655298262834,0.31245179221779107
1634126020453935600,0.791935546875,0.9040624711215496,0.031015900510549543,0.19698504586815832
1634126020473815600,0.811815673828125,1.2213321850150822,-0.061086044603586194,0.04692015660703182
1634126020493694500,0.831694580078125,1.2325585124284029,-0.09937222837805747,-0.058096215137839316
1634126020513574700,0.85157470703125,1.1784902376323938,-0.15908640010654926,-0.11426876873672008
1634126020533454600,0.87145458984375,1.0447451995313166,-0.42206455184221264,-0.23563743260651826
1634126020553333500,0.89133349609375,0.6739888101220131,-0.747419664774835,-0.3746045892700553
1634126020573213700,0.911213623046875,0.1603834541797638,-0.8049944863870739,-0.38615035789608954
1634126020593093600,0.93109375,-0.4898708446115255,-0.6958280092254281,-0.33493089665994047
1634126020612973600,0.9509736328125,-1.0519657984346151,-0.6043535483598709,-0.3480947680070996
1634126020632852500,0.9708525390625,-1.4521359138548373,-0.5032154793530702,-0.4169524695254862
1634126020652732700,0.990732666015625,-1.6405530378639697,-0.3002665566444397,-0.405646208743751
1634126020672612600,1.010612548828125,-1.6239005937486886,-0.13964578657746315,-0.3557813769869506
1634126020692491500,1.030491455078125,-1.4027666105300187,-0.20889964780658482,-0.40930999194830653
1634126020712371700,1.050371826171875,-0.7852157269448041,-0.3444800846412778,-0.574420913041383
1634126020732251600,1.070251708984375,-0.34048692335188385,-0.46965544731765985,-0.7388961665794253
1634126020752130600,1.090130615234375,-0.0412087932229042,-0.4393377582043409,-0.7436383926704525
1634126020772010500,1.110010498046875,-0.12954700188934803,-0.4147144813403487,-0.8039366478972136
1634126020791890700,1.129890625,-0.2853922281175852,-0.24278818114399908,-0.6105084177277982
1634126020811769600,1.14976953125,-0.392630367565155,-0.1393213769286871,-0.388199107119441
1634126020831649500,1.1696494140625,-0.4727811781227588,-0.20610855578333137,-0.310958046528697
1634126020851529500,1.189529541015625,-0.43313831904232497,-0.1471922564342618,-0.12124759477339685
1634126020871408400,1.209408447265625,-0.32727789768874643,-0.12067395960390567,0.07285239717774093
1634126020891288600,1.22928857421875,-0.2729863355308771,-0.16007453436106442,0.035231910770386454
1634126020911168500,1.24916845703125,-0.17613631910681724,-0.1000812534302473,0.16300255063697694
1634126020931047400,1.26904736328125,0.012168576699495314,0.07326046652197837,0.2762226871035993
1634126020950927600,1.288927734375,0.1877536916643381,0.19959785871505736,0.36199309110864997
1634126020970807600,1.3088076171875,0.2752572030723095,0.27864216933548447,0.414081736394763
1634126020990686700,1.328686767578125,0.2729115167289972,0.29724574751853944,0.5392573913320898
1634126021010566400,1.34856640625,0.21299334686100482,0.28336335263848306,0.5810102283038199
1634126021030446600,1.368446533203125,0.25371347978413106,0.35144144808650013,0.6332761298529803
1634126021050326500,1.388326416015625,0.3939811976522207,0.4365799839287996,0.6946973977603018
1634126021070205400,1.408205322265625,0.48998541090190406,0.3750368432074785,0.6022608138643205
1634126021090085600,1.428085693359375,0.4188040887415409,0.2509428460270166,0.6145820969074964
1634126021109965800,1.4479658203125,0.3270961113810539,0.12795710234940053,0.646604105720669
1634126021129845000,1.467844970703125,0.36944355324506756,-0.020702596288919448,0.6261047769188881
1634126021149724700,1.487724609375,0.45997605708539485,-0.1356780519902706,0.5118199338302016
1634126021169604900,1.50760498046875,0.4705915591239929,-0.08293313475251197,0.4194866641782224
1634126021189483800,1.52748388671875,0.31276363464593887,-0.024676760616898535,0.37638314324989913
1634126021209363700,1.54736376953125,0.03782090435028076,0.06776362267136574,0.354767085377872
1634126021229243600,1.56724365234375,-0.03874035728275776,0.059229018560051916,0.27622502519115805
1634126021249122800,1.587122802734375,0.053207274052500725,0.031029344514012337,0.15926877093613148
1634126021269003000,1.6070029296875,0.10688041205108165,-0.06404723249673842,0.037230391111224885
1634126021288882700,1.626882568359375,-0.07255436407923697,-0.1634796666294336,-0.10373517282791435
1634126021308761900,1.646761962890625,-0.18933657694160938,-0.134105103585124,-0.0953333282507956
1634126021328641800,1.666641845703125,-0.17303718404769897,-0.041566520619392394,-0.02398804770037532
1634126021348521700,1.686521728515625,-0.12860475260317325,0.05400514643192291,0.04712137826755643
1634126021368401000,1.70640087890625,-0.008670797711610794,0.07348492292761802,0.031069968785345552
1634126021388280800,1.72628076171875,0.02057224790751934,-0.06751958478242158,-0.20394334057345986
1634126021408161000,1.7461611328125,0.18982991341650485,-0.3005076719239354,-0.3825869663260877
1634126021428039700,1.766039794921875,0.3570388297021389,-0.3873012814968824,-0.43965383841618894
1634126021447919900,1.785919921875,0.39589550684094427,-0.24727526343017814,-0.3624840894959867
1634126021467799800,1.8057998046875,0.22038754876554012,-0.10124591329544783,-0.2569759887114167
1634126021487678700,1.8256787109375,0.09958265625834464,-0.05423574031740427,-0.13460676949694753
1634126021507559000,1.845558837890625,0.21750936298072338,-0.18897300432622433,-0.1013503965832293
1634126021527438800,1.86543896484375,0.29479543175697326,-0.4107569758862257,-0.029640082112699747
1634126021547317800,1.88531787109375,0.29215105472803116,-0.5156619962111115,0.2001731743849814
1634126021567197700,1.90519775390625,0.09210720581114291,-0.4752434765830636,0.40211956898756324
1634126021587078000,1.925077880859375,0.02646422855556011,-0.13588438821732998,0.7519001711897552
1634126021606957800,1.944957763671875,-0.11546294695734977,-0.18144319334328174,0.7567861166004091
1634126021626836700,1.964836669921875,0.16182254707217217,-0.17929039922356604,0.5319949991136789
1634126021646717000,1.984717041015625,0.44263679974973197,-0.1376128194451332,0.29452472505681215
1634126021666596900,2.004596923828125,0.6201490833848714,-0.0842430483072996,-0.06453713490553199
1634126021686475800,2.024475830078125,0.45319501864314077,-0.13386632639318705,-0.4645778517924249
1634126021706355700,2.044355712890625,0.0966606313318014,0.014563947403430939,-0.7668753297425807
1634126021726236000,2.06423583984375,-0.24806699832975862,0.33355215565264223,-0.8327171905711293
1634126021746114800,2.08411474609375,-0.4483575154840946,0.4713625434964895,-0.793592656276375
1634126021765994800,2.103994873046875,-0.5797440077602863,0.48293958404362197,-0.8036502321712672
1634126021785875000,2.123875,-0.5332908841431141,0.3801636847019195,-0.9064503891713916
1634126021805753600,2.143753662109375,-0.40750411157011984,0.2786293098539114,-0.9394166930973529
1634126021825633800,2.1636337890625,-0.25391397079229355,0.22142215251028535,-0.8495109428532421
1634126021845513700,2.183513671875,0.03357669090926647,0.1784521948337555,-0.7420670517005026
1634126021865393000,2.203392822265625,0.3311702289521694,0.15047347006201744,-0.68828037032485
1634126021885272800,2.22327294921875,0.42093525555133815,0.09118804513961076,-0.5456827482044696
1634126021905152800,2.24315283203125,0.5521756173551082,0.09352204104512929,-0.42968562130518256
1634126021925032000,2.263031982421875,0.564209169498086,-0.03447393200993538,-0.434091381983459
1634126021944911600,2.28291162109375,0.5343816019892692,-0.020582769301533698,-0.32946663990467784
1634126021964791800,2.302791748046875,0.5238227985739707,0.03896422916650772,-0.27040523299649355
1634126021984671000,2.3226708984375,0.3714332657575607,0.05921323646903038,-0.19254837859496474
1634126022004550700,2.342550537109375,0.20036592047810553,-0.01845247927457094,-0.13162307751104235
1634126022024430800,2.362430908203125,0.06220072784721851,-0.09146656982004642,-0.03607040742114186
1634126022044309800,2.382309814453125,0.009275193345546722,-0.17804098368436097,-0.015964315720647573
1634126022064190000,2.40218994140625,-0.10573299558162688,-0.26416122404038905,-0.04911795891225338
1634126022084069600,2.422069580078125,-0.17831424766778944,-0.22002865232527255,-0.042147389247268435
1634126022103948800,2.44194873046875,-0.34065351209044453,-0.15385726728141308,-0.02350903201177716
1634126022123828700,2.461828857421875,-0.3389689200043678,-0.016097148320078847,0.04510477774813771
1634126022143708700,2.481708740234375,-0.3401110757768154,0.026359014615416527,0.06978139223456382
1634126022163587800,2.501587890625,-0.1827437545478344,0.03701777127385139,0.08130071124508977
1634126022183467500,2.521467529296875,-0.10530454103648662,-0.05618687438517809,0.0029798925936222074
1634126022203347700,2.54134765625,-0.061545478808879846,-0.0058592474222183225,0.04944003047347068
1634126022223227000,2.561226806640625,-0.09178045807480811,0.04168371725827455,0.12748729288056493
1634126022243106800,2.58110693359375,-0.07510404856204986,0.036595746469497675,0.17735504724681375
1634126022262986800,2.60098681640625,0.006684007808566093,0.00783610045313835,0.21074746763035654
1634126022282865700,2.62086572265625,0.06543722555041313,-0.05797434232383966,0.14870470682382583
1634126022302745900,2.640745849609375,0.1757546263128519,-0.08904606467485428,0.13442732127681373
1634126022322625500,2.66062548828125,0.15288754546642302,-0.1410159058868885,0.06834989812672138
1634126022342504700,2.680504638671875,0.15763444773256777,-0.09791969148218631,0.0739681763999164
1634126022362385000,2.700385009765625,0.03864391117095947,-0.04080459633618593,0.11981076690331101
1634126022382264600,2.7202646484375,-0.079725278621912,-0.014482991121709346,0.09148556678146123
1634126022402143700,2.740143798828125,-0.11274492017030716,-0.012423428243398666,0.11944500233083963
1634126022422023700,2.760023681640625,-0.04005962318778038,-0.012918810544908047,0.0966848889902234
1634126022441903900,2.77990380859375,-0.020056699600815773,-0.0441805025100708,0.08196355906799435
1634126022461782800,2.79978271484375,-0.026341478958725927,-0.005608779792487621,0.09034472618326544
1634126022481662700,2.819662841796875,-0.14747662633359432,0.04957739311754703,0.10743424654155968
1634126022501543000,2.83954296875,-0.20094109001755714,0.106381814879179,0.13812880614325404
1634126022521421600,2.859421630859375,-0.09113514590859413,0.13973901781886816,0.13157237023711205
1634126022541301800,2.8793017578125,-0.022652561312913894,0.16309446670413016,0.03530614505037665
1634126022561181700,2.899181640625,-0.03774783911406994,0.23752602283209562,0.06731609809957444
1634126022581062000,2.919061767578125,-0.008116670960187911,0.23170564611554145,0.041448958654329175
1634126022600940800,2.93894091796875,0.07748422169685364,0.19004180260151624,-0.0007391279295086861
1634126022620820700,2.95882080078125,0.18705051183104515,0.13640461269915102,-0.02516279056817293
1634126022640699600,2.97869970703125,0.15455051024258135,0.09012246173471213,-0.11905578381754457
1634126022660579600,2.99857958984375,0.06712181763648986,0.17493834149390458,-0.04699921319261193
1634126022680459800,3.018459716796875,0.03626841421127319,0.13052081535756588,-0.03311959479153156
1634126022700339700,3.038339599609375,-0.009751578685641289,0.033953707528114316,-0.10038666611760855
1634126022720218600,3.058218505859375,0.07334463767409324,-0.022608137649297713,-0.10364391434788703
1634126022740098800,3.078098876953125,0.07153554242551326,-0.04058627741038799,-0.06796104493960738
1634126022759978800,3.097978759765625,0.12119652217328547,-0.041182489737868304,-0.13573986518010497
1634126022779857700,3.117857666015625,0.06371580858528614,-0.06845189719647168,-0.18014307053014636
1634126022799737600,3.137737548828125,0.10612813237905502,-0.04926292034089565,-0.17076127500496804
1634126022819616800,3.15761669921875,0.07599427540004253,-0.06086480306833982,-0.268750159265846
1634126022839496700,3.17749658203125,0.11803484327197074,-0.021483517533540726,-0.2505471247076988
1634126022859376600,3.197376708984375,0.02301905653774738,-0.002861526910960674,-0.2665055952094495
1634126022879255800,3.217255859375,-0.03615150983333587,0.03777297355532646,-0.20693945364952085
1634126022899135700,3.2371357421875,-0.11130991893112659,0.033528175592422486,-0.24928514194786547
1634126022919015700,3.257015625,-0.014470423901081084,0.05707680896222591,-0.18398031060546635
1634126022938894800,3.276894775390625,0.0921907924413681,0.02185761154294014,-0.1860511255301535
1634126022958774800,3.29677490234375,0.14973463439345358,0.042237844009697434,-0.17684578255042432
1634126022978654700,3.31665478515625,-0.056253217619657514,0.022515198668837545,-0.13251637308895586
1634126022998534700,3.33653466796875,-0.22684359303712842,0.09078384825289249,-0.02262918043732643
1634126023018413800,3.356413818359375,-0.3014887919157743,0.10169628741145133,0.05139774041250348
1634126023038293800,3.376293701171875,-0.2304138527393341,0.10581892029941081,0.08495616501271724
1634126023058173700,3.396173583984375,-0.0669067135810852,0.11364274579286575,0.08887859915345907
1634126023078052900,3.416052978515625,0.05952770924568176,0.11120821212232113,0.06853358413055538
1634126023097933300,3.435933349609375,0.03918400939702987,0.08738952963948249,0.05605053465440869
1634126023117813200,3.455813232421875,-0.13234978435039518,0.05351444030553102,0.125345166285336
1634126023137692200,3.475692138671875,-0.29079028776884075,0.11378478461205958,0.25798838062435386
1634126023157572400,3.495572265625,-0.3607236556947231,0.1413210263133049,0.30759368466213344
1634126023177451300,3.515451171875,-0.1839759266912937,0.1705997277677059,0.3248885183341801
1634126023197331200,3.535331298828125,0.0870493378996849,0.14358487959206104,0.2943696075603366
1634126023217211100,3.555211181640625,0.24268413624763488,0.0914765066921711,0.23097543214485047
1634126023237091300,3.57509130859375,0.23228607635200021,0.059330140846967694,0.24914836382567881
1634126023256970500,3.594970458984375,0.10768939034640788,0.1489440685376525,0.31091252688653764
1634126023276850200,3.61485009765625,0.04277180475592613,0.19199293666929004,0.3898955357737839
1634126023296729300,3.634729248046875,0.16905132928192615,0.1275686875537038,0.32949973845668135
1634126023316609300,3.654609375,0.4248743485659361,0.013274492114782332,0.24970906644836066
1634126023336489200,3.6744892578125,0.5644920780926942,-0.07677928829789162,0.13373217861950396
1634126023356368400,3.694368408203125,0.5195101960718631,-0.10012158544063568,0.10409370394200086
1634126023376248300,3.714248291015625,0.29620237594544885,-0.14176087903529405,0.07954597653225064
1634126023396128500,3.73412841796875,0.11453998689353466,-0.09498977551013231,0.10562865842431783
1634126023416007200,3.754007080078125,0.06018938802480697,-0.09138415223360061,0.06083594230003655
1634126023435887400,3.773887451171875,0.07697334956526755,-0.08467325641810894,-0.04054886800944805
1634126023455767300,3.793767333984375,0.16675474277734756,-0.021082535517215728,-0.11347191927060485
1634126023475646200,3.813646240234375,0.08826280534267425,0.047854807108640665,-0.18791195096597074
1634126023495526400,3.8335263671875,-0.021370120286941525,0.11365239040404558,-0.14621931974887847
1634126023515406300,3.85340625,-0.10828735623955726,0.03644377077817917,-0.18427052572369573
1634126023535285200,3.87328515625,-0.05954466038048267,-0.03680968148112297,-0.21995836356803775
1634126023555165200,3.893165283203125,-0.02011515178978443,0.0279155964076519,-0.2216330187819898
1634126023575045400,3.91304541015625,-0.0023684826970100403,0.12990239119827746,-0.183580936024338
1634126023594924300,3.93292431640625,0.0392132354915142,0.13660919536054134,-0.16874372463747858
1634126023614804200,3.95280419921875,0.06622048488259315,0.06530512360334396,-0.18628654172122477
1634126023634684400,3.972684326171875,0.11158581326305865,-0.028937925192713737,-0.19335662623792885
1634126023654563300,3.992563232421875,0.0807534526258707,-0.05591507170647382,-0.2085566795878112
1634126023674443300,4.012443359375,-0.02340776359438896,-0.05140577758848667,-0.11708178033083677
1634126023694323200,4.0323232421875,-0.134231944835186,-0.06736351743787526,-0.08915931579098105
1634126023714202400,4.052202392578125,-0.1346025317132473,-0.06773088944554329,-0.07262465283647179
1634126023734082300,4.072082275390625,-0.07559972312450408,-0.046420098130404944,-0.08340002161189913
1634126023753962200,4.091962158203125,-0.05640577783286571,-0.04905307698249817,-0.0637054333217442
1634126023773841400,4.11184130859375,-0.023814006307721135,-0.04746639231294393,-0.03666713120527565
1634126023793721000,4.13172119140625,0.05066051217913627,-0.08283435055315494,-0.03282558028101921
1634126023813601300,4.151601318359375,0.14231471352577207,-0.09973726229816675,-0.06983531437888742
1634126023833480400,4.17148046875,0.12212123580276965,-0.09692834235727786,-0.034875790809094906
1634126023853360400,4.1913603515625,0.07201543489694595,-0.05256283866912126,-0.04282558076977729
1634126023873240300,4.211240234375,0.07864625121355057,0.006475333493947982,-0.01307005558386445
1634126023893119200,4.231119140625,0.04206979396641254,0.030374972258508205,-0.06492028900422156
1634126023912999400,4.25099951171875,-0.012796353209018707,-0.01241845980733633,-0.03604629589319229
1634126023932879000,4.270879150390625,-0.041135143464803695,-0.049881344500184055,-0.030598844142258167
1634126023952758300,4.29075830078125,-0.03588964402675628,-0.05940028347373008,-0.02559416772276163
1634126023972638500,4.310638427734375,-0.05553308665156364,-0.07199965280592441,-0.004646949023008346
1634126023992518400,4.330518310546875,-0.050748190462589264,-0.07362111652791499,-0.005185439813882112
1634126024012397300,4.350397216796875,0.004705985733866692,-0.07657119850516318,-0.019095014961808918
1634126024032277200,4.37027734375,0.06775368579924106,-0.04606733916997909,-0.0017725626304745674
1634126024052157400,4.390157470703125,0.08345160566866397,-0.049077042379975316,-0.04245397097840905
1634126024072036400,4.410036376953125,0.03436988711357117,-0.012490063738822936,-0.003217500741779804
1634126024091916300,4.429916259765625,0.005849895071983337,0.013610007679462433,0.04684124615192413
1634126024111796000,4.4497958984375,-0.05277648141980171,0.006248246739804744,0.04711472933106124
1634126024131675000,4.4696748046875,0.01308335345685482,0.041922494450211525,0.07784063391909003
1634126024151554800,4.489554931640625,0.06718611504435539,0.027634441378712654,-0.001295300507545471
1634126024171434000,4.50943408203125,0.11043898131549358,0.0329915844976902,0.04167451103851199
1634126024191313700,4.529313720703125,0.11522153941690921,-0.002918517795205116,0.013154518996924162
1634126024211193900,4.54919384765625,0.06996317854225635,0.02521510527729988,0.004874328038096428
1634126024231073000,4.569072998046875,-0.009965513697266578,0.06257248376905918,0.0467161584675312
1634126024250953000,4.588952880859375,-0.08590893569290638,0.0675149086073041,0.052828576933220024
1634126024270833000,4.6088330078125,0.006170213067531585,0.09903642055243253,0.05337035565972328
1634126024290711800,4.6287119140625,0.0882996302217245,0.04406652074158191,0.076991177482903
1634126024310592000,4.648592041015625,0.20118015947043894,-0.020177987892925738,0.003428878470137715
1634126024330471700,4.6684716796875,0.16598901910185812,-0.0467944844007492,-0.038844109918177126
1634126024350350800,4.688350830078125,0.06206921042203903,0.030819793416559695,0.03405278398841619
1634126024370231000,4.70823095703125,0.04636252272427082,0.08082242620885371,0.05979951192438602
1634126024390110700,4.72811083984375,0.10273556733131409,0.04065905038565397,-0.0345537192478776
1634126024409990000,4.747989990234375,0.12256021174192427,-0.026410452541708946,-0.07648162052556871
1634126024429869800,4.767869873046875,0.09339081588089465,-0.06317132644504309,-0.06874686155505479
1634126024449750000,4.78775,-0.0010801964521408081,-0.05130377851873636,-0.040092210283130404
1634126024469629000,4.80762890625,-0.02966097877025604,0.01267155778557062,-0.042434827886521816
1634126024489508900,4.8275087890625,-0.03573825285732746,0.04811345804482698,-0.06480287316963076
1634126024509388800,4.847388916015625,-0.0185217451184988,0.013911328713595867,-0.12777297795414924
1634126024529267700,4.867267822265625,-0.03259177152514457,0.03636602936685085,-0.11783917456939816
1634126024549148000,4.88714794921875,-0.07027765131890773,-0.004514262554049492,-0.1281283672630787
1634126024569027800,4.90702783203125,-0.04837853872179985,-0.010118073910474777,-0.10103460863232612
1634126024588906800,4.92690673828125,0.06721475661695003,0.014066519275307655,-0.1326912912644446
1634126024608787000,4.946786865234375,0.1523445246309042,0.061792731568217275,-0.09980287488028407
1634126024628667000,4.9666669921875,0.08147124550640583,0.014349427869915962,-0.07107581595927477
1634126024648545800,4.9865458984375,-0.028856092128157613,-0.05912818853408098,0.004208557605743408
1634126024668425700,5.00642578125,-0.1386409934490919,-0.10903408295363187,0.007378565943986177
1634126024688305000,5.026304931640625,-0.1383230135411024,-0.06772270613908768,0.04306939946301281
1634126024708184800,5.046184814453125,0.02135784532725811,0.002167114906013012,0.06794760093614459
1634126024728064800,5.066064697265625,0.0766191293001175,-0.0007239303603768348,-0.05924962295666337
1634126024747944000,5.08594384765625,0.054144262641668314,0.03423457029610872,-0.027589140932261943
1634126024767824000,5.105823974609375,-0.0706236882776022,0.11959551671743392,-0.026339506197348237
1634126024787703800,5.125703857421875,-0.10279811117351055,0.1776353254929185,0.01771642008498311
1634126024807583000,5.1455830078125,-0.06153729550242424,0.15472177515625954,0.027762890063971278
1634126024827463000,5.165462890625,0.048991117662191386,0.06618541356921195,-0.017760405357182023
1634126024847342800,5.1853427734375,0.1562619903355837,0.006738368344306946,-0.002722264570742845
1634126024867221800,5.2052216796875,0.18237024506032465,-0.048457156915962696,-0.0025116174947470427
1634126024887102000,5.22510205078125,0.15205577081739902,-0.0663315440416336,0.026020284180343148
1634126024906982000,5.24498193359375,0.10559972459077835,-0.0626981559753418,0.0689589699357748
1634126024926860800,5.26486083984375,0.08468903850913047,-0.08640987095236778,0.0846520674996078
1634126024946741000,5.284740966796875,0.0622580109924078,-0.13463000424206256,0.09700403794199228
1634126024966621000,5.304620849609375,0.00511690462231636,-0.13328443485200403,0.10684928626045584
1634126024986499800,5.324499755859375,-0.09711889649331569,-0.07216594928354024,0.12926701590418815
1634126025006379800,5.3443798828125,-0.130279992339015,-0.017390110740065575,0.18870317440889775
1634126025026260000,5.364260009765625,-0.06866144829392433,-0.033008243371546266,0.11797609882205724
1634126025046139000,5.384138916015625,0.12436872246861456,-0.027638533031940457,0.034179771368950604
1634126025066018800,5.404018798828125,0.16253098760247228,-0.01127864212244749,-0.03803798116706311
1634126025085898800,5.423898681640625,0.14645546659231184,0.020544190856814384,0.0242883458212018
1634126025105778400,5.4437783203125,0.043480829808115955,-0.0018646248281002043,-0.023529636408388614
1634126025125658600,5.46365869140625,0.02600245626270771,0.07858020024001598,0.015359481695294379
1634126025145537300,5.483537353515625,0.04265957655310631,0.13488134865462778,0.07016717668175697
1634126025165417500,5.50341748046875,0.07853869918584823,0.13669628912210463,0.01360796185284853
1634126025185297400,5.52329736328125,0.14256138176321984,0.08889116637408732,-0.02864639490023255
1634126025205176300,5.54317626953125,0.0884393309533596,0.08380524141192436,-0.06739128222763538
1634126025225056500,5.563056396484375,0.06132043788135051,0.11181962201893329,-0.024624445907771585
1634126025244936400,5.5829365234375,0.024065350720286368,0.08250292664170265,-0.06540522297695278
1634126025264815400,5.6028154296875,-0.03900982187390327,0.10789718787819147,-0.08395429449379443
1634126025284695300,5.6226953125,-0.06788871035575866,0.17642624196410178,-0.06407163628563284
1634126025304575500,5.642575439453125,-0.06339022989273072,0.18038813133239745,-0.04920344523862004
1634126025324454700,5.66245458984375,-0.061135144442319864,0.07854805153608321,-0.05471431761458516
1634126025344334300,5.682334228515625,-0.034739304947853086,0.018392565780878067,-0.03494827152341604
1634126025364214500,5.702214599609375,0.0322597630918026,0.008539280286431312,0.014024141438305377
1634126025384093400,5.722093505859375,0.10628770685493945,-0.018931202702224252,-0.004348842859268188
1634126025403973400,5.741973388671875,0.14316227026581763,-0.0694821170270443,-0.03158610161393881
1634126025423853300,5.761853271484375,0.06538344953656196,-0.08541793730556964,0.0181024967931211
1634126025443732500,5.781732421875,0.012084990069270133,-0.0515220974445343,0.017526742731779812
1634126025463612400,5.8016123046875,-0.01047170965373516,-0.03535129936635494,0.0345814109724015
1634126025483492400,5.821492431640625,-0.03323649916946888,-0.06053308689594268,0.014120660615339875
1634126025503371500,5.84137158203125,-0.005789689317345619,0.055253685188293454,0.027677403737604616
1634126025523251500,5.86125146484375,-0.04068389256596565,-0.030597382837533948,0.054299307072907685
1634126025543130400,5.88113037109375,0.06851297973394394,-0.0661094257235527,-0.015990034683793782
1634126025563010600,5.901010498046875,0.10719430030584334,-0.007181143675744533,-0.04422901782691478
1634126025582890500,5.920890380859375,0.12419219685792922,0.09896277079433202,0.009577245032042265
1634126025602769400,5.940769287109375,0.13276830202341078,0.083251991443336,0.008117255482077599
1634126025622649300,5.9606494140625,0.22506956910192966,0.039454935292899604,-0.022579788337647913
1634126025642529500,5.980529541015625,0.26891455604732034,0.05818798507452011,-0.008420037820935249
1634126025662408400,6.000408447265625,0.24425357752144336,0.11939093405604362,0.03143018039986491
1634126025682288400,6.020288330078125,0.18960896414220332,0.0928504253938794,0.045531332597136494
1634126025702168600,6.04016845703125,0.15839432618916033,0.026316344517469406,-0.021245324863493443
1634126025722047200,6.060047119140625,0.12964753965437412,-0.02920388265252113,-0.027222645707428453
1634126025741927400,6.079927490234375,0.13465747677087783,-0.030564941872656345,-0.044806744649633766
1634126025761806600,6.099806640625,0.03143266461789608,0.025925591634213922,-0.08220401676036417
1634126025781686500,6.1196865234375,-0.08535539346337317,0.0733180419281125,-0.04037716470435262
1634126025801566500,6.13956640625,-0.1973614779651165,0.047451487004756925,-0.11734028513655066
1634126025821445400,6.1594453125,-0.31770109104812144,0.04547580301761627,-0.025862755531072614
1634126025841325600,6.17932568359375,-0.26274200489223004,0.051904667021334165,0.020350567980855702
1634126025861205200,6.199205322265625,-0.09696633628010749,-0.03725830203145742,-0.043843087249249214
1634126025881084400,6.21908447265625,0.03687923958599567,-0.04736936167925596,-0.06610263065658509
1634126025900964600,6.238964599609375,0.09225918150246143,-0.08003741331100464,-0.04721344046518206
1634126025920844300,6.25884423828125,0.10923311265707016,-0.10082973370999097,-0.05182736400142312
1634126025940723500,6.278723388671875,0.05838204634189605,-0.09182955791354179,-0.03804185362458229
1634126025960603400,6.298603271484375,0.00830196439921856,-0.10960253049135207,0.009791910696029662
1634126025980483600,6.318483642578125,-0.025794366469979284,-0.12120762808918953,0.03792421859428286
1634126026000362500,6.338362548828125,-0.03035246816575527,-0.08841653459966183,0.045668110719323154
1634126026020242400,6.358242431640625,-0.017736147698760033,-0.025208675536513327,0.037692163404077286
1634126026040121300,6.378121337890625,0.021524434065818786,0.008536942198872566,-0.0005630407102406024
1634126026060001300,6.398001220703125,0.03862696003615856,0.05021832136958837,-0.027292130747064946
1634126026079881500,6.417881591796875,0.04817337153851985,0.08773936599045991,-0.024863150034472346
1634126026099760400,6.437760498046875,0.0758650960624218,0.08194996893405913,-0.0369064198538661
1634126026119640300,6.457640380859375,0.1261234571814537,0.06092413204014301,-0.03175575909242034
1634126026139520500,6.4775205078125,0.13202771278917788,0.061443187478184697,-0.08100523542985319
1634126026159399200,6.497399169921875,0.1040589248895645,0.11703034240454435,-0.037479689697176216
1634126026179279400,6.517279296875,-0.009074117815494536,0.13228168755024672,-0.01509052856080234
1634126026199159300,6.5371591796875,-0.055448330977559086,0.1018979474633932,-0.008013941238075493
1634126026219038200,6.5570380859375,0.024596096596121785,0.029707155999541282,-0.02031958832070231
1634126026238918400,6.57691845703125,0.12684125006198882,-0.04479658858180046,-0.042659430422633884
1634126026258798300,6.59679833984375,0.16989070271551607,-0.08023352040499449,-0.06822765998654066
1634126026278677500,6.616677490234375,0.06342413216233253,-0.0642205432370305,-0.010324702398478984
1634126026298557200,6.63655712890625,-0.08561550570428371,0.02553308518528938,0.040386151728406545
1634126026318436400,6.656436279296875,-0.14384148470163344,0.06501666205078363,0.06324183439798653
1634126026338316500,6.676316650390625,-0.09199263952076435,0.021719664376974104,0.05436243543699384
1634126026358196200,6.6961962890625,-0.0010129764348268508,-0.011268120728433131,0.03920826705545187
1634126026378075400,6.716075439453125,0.10786591595709323,-0.01626607514619827,0.04212634645923972
1634126026397955300,6.735955322265625,0.10315057787299156,-0.01515460677295923,-0.019214695818722247
1634126026417835300,6.755835205078125,0.035136779832839964,0.01739595595896244,0.0037760114073753354
1634126026437714400,6.77571435546875,0.06893500453829765,0.11715922948122023,0.06308920111954212
1634126026457594400,6.795594482421875,-0.02300268992483616,-0.03125847709476948,0.04736936167925596
1634126026477473300,6.815473388671875,0.05409048662781715,-0.08433043432980776,-0.011534005123004317
1634126026497353200,6.835353271484375,0.0803442873030901,-0.031387071910500525,-0.013564999493956564
1634126026517233400,6.8552333984375,0.061276014217734334,0.08432692719846964,0.03197079008258879
1634126026537112300,6.8751123046875,0.021799743875861168,0.09049187956899404,0.038712738623470064
1634126026556992300,6.8949921875,0.014268179327249527,0.017157763288915155,0.014621303613856433
1634126026576872400,6.91487255859375,0.07394026547968387,-0.023079554553329943,-0.008489888186752797
1634126026596751400,6.93475146484375,0.1547311275064945,-0.019097499179840088,-0.04437441764697432
1634126026616631300,6.95463134765625,0.16787877837121484,0.014127017290890217,-0.00704239279218018
1634126026636510500,6.974510498046875,0.07178104161918163,0.02464958034902811,0.016985256266221403
1634126026656390400,6.994390380859375,-0.04107552223205566,0.01609013405740261,0.03298457023501396
1634126026676270300,7.014270263671875,-0.10422668267190456,0.025885844145715237,0.08378704816810786
1634126026696149200,7.034149169921875,-0.07716390370130538,-0.013519991308450698,0.10346987295523286
1634126026716029400,7.054029541015625,-0.008043605723977089,-0.03148001089096069,0.04372589061036706
1634126026735909400,7.073909423828125,0.01966506993472576,-0.036871640801429746,0.0028229484662413594
1634126026755788300,7.093788330078125,-0.008961305090785026,-0.06540390780270099,-0.0157855981528759
1634126026775668500,7.11366845703125,-0.04802724106609821,-0.045991351324319835,-0.01888210286349058
1634126026795548400,7.13354833984375,-0.046373628640174865,-0.027452655071020123,-0.03769976218864322
1634126026815427300,7.15342724609375,-0.08195932128429412,-0.00981996774673462,-0.07364179398976266
1634126026835307300,7.173307373046875,-0.10081249031424522,0.03467237719148397,-0.06337364408411085
1634126026855186400,7.1931865234375,-0.1449246037632227,0.12033318334221839,-0.043770898795872926
1634126026875066400,7.21306640625,-0.16024667605757711,0.16930267369449137,0.03661825056225061
1634126026894946300,7.2329462890625,-0.06290449220240116,0.11263269196748733,0.03902721140012145
1634126026914825500,7.252825439453125,0.0928618235707283,0.05078647664636373,0.009299304873496294
1634126026934705200,7.272705078125,0.1977396636277437,0.017845745553076265,0.012125468210130929
1634126026954585300,7.29258544921875,0.20641981368958948,0.028763153147697448,0.023198797018826007
1634126026974464500,7.312464599609375,0.14357202011048792,0.07419365571886301,0.030391996458545324
1634126026994344200,7.33234423828125,0.3065332158237696,0.19040186808556317,0.12442549415715037
1634126027014224400,7.352224365234375,0.4906693015128374,0.18162001121491192,-0.007208104747906327
1634126027034103300,7.372103271484375,0.5460059888094664,0.03654021688997745,-0.19195128948464987
1634126027053983500,7.3919833984375,0.5434165568381547,-0.033442250874638556,-0.28174656509160995
1634126027073862400,7.4118623046875,0.5565688838779926,0.015122165808081626,-0.2923318181224167
1634126027093742300,7.431742431640625,0.31232933488190173,0.0542933157235384,-0.23566589151602238
1634126027113622000,7.4516220703125,-0.22392682880759238,-0.0023088614642620083,-0.102872783844918
1634126027133501000,7.4715009765625,-0.7286760935992002,-0.08369915068894625,0.05741528366897255
1634126027153381000,7.491381103515625,-1.0253437489688395,-0.17523907800614832,0.19899039434120058
1634126027173261000,7.511260986328125,-1.05227384147048,-0.2778893051415682,0.26400866382718086
1634126027193140000,7.531139892578125,-0.913153540071845,-0.3025122897446155,0.24343115522265432
1634126027213020200,7.551020263671875,-0.6862526638895273,-0.15409925934374333,0.22527561306804417
1634126027232899000,7.570899169921875,-0.3760831373900175,0.04291209000945091,0.1995246473483741
1634126027252779000,7.590779052734375,-0.025252514678239822,0.10619593691825865,0.07299757780209183
1634126027272659000,7.610658935546875,0.28081249911189077,0.11383037731945514,0.00019683774635195731
1634126027292538000,7.6305380859375,0.36089199799895283,0.11268763702511787,-0.08094882906749844
1634126027312418000,7.65041796875,0.3126233493924141,0.1559057242438197,-0.0281822479872033
1634126027332298000,7.670298095703125,0.26314181786477564,0.19088088377416132,0.05819280738011002
1634126027352177200,7.69017724609375,0.3437573233246803,0.17239771710038185,0.03547346444129944
1634126027372057000,7.71005712890625,0.38875148030519485,0.1019789037451148,0.017704035527445375
1634126027391936000,7.72993603515625,0.3113818248987198,0.08297814293801783,0.07191913491562009
1634126027411816200,7.749816162109375,0.22103519901931284,0.055741176444292065,0.09762976862490176
1634126027431696100,7.769696044921875,0.12222352713346481,-0.0179553434073925,0.13062208377495407
1634126027451575000,7.789574951171875,0.13874796095490455,-0.01665653576850891,0.17337357639521359
1634126027471455000,7.809455078125,0.17782266475856304,0.0031780455142259596,0.1647413571283221
1634126027491334000,7.829333984375,0.26097616426348685,0.06608282997757196,0.17814239823222158
1634126027511214000,7.849214111328125,0.25027006133198737,0.08598550806045532,0.17421353435069323
1634126027531094000,7.869093994140625,0.17025018367767333,0.09895341844409704,0.13645404133144765
1634126027550973200,7.88897314453125,0.12351005981266498,0.1538824017226696,0.2410613573513925
1634126027570853000,7.90885302734375,0.0948831002652645,0.1676610439673066,0.29805925585851073
1634126027590733000,7.928733154296875,0.14154606724083424,0.13495412162989376,0.3248506705418229
1634126027610612200,7.9486123046875,0.1600818408846855,0.15105419255942104,0.3800391084741801
1634126027630492000,7.968491943359375,0.08145137176215649,0.18441548715233802,0.4693330834954977
1634126027650372000,7.9883720703125,-0.002052256354689598,0.1728983600988984,0.538283212537691
1634126027670251000,8.0082509765625,0.0438274512887001,0.12087825000435114,0.5982606383122503
1634126027690131000,8.028130859375,0.12109130823314189,0.049855333276093004,0.6367265625678002
1634126027710010000,8.048010009765624,0.2218342404425144,0.02208762090653181,0.6802833071563392
1634126027729890000,8.06789013671875,0.3487783663570881,-0.07156359947621822,0.6461658604338765
1634126027749770200,8.087770263671874,0.49773792472481726,-0.18726240101605654,0.5983483896609395
1634126027769649200,8.107649169921874,0.39331308913230895,-0.3293833455353975,0.6303833310209215
1634126027789529000,8.127529052734374,0.035300445961952205,-0.3870364930808544,0.6976577088706195
1634126027809408000,8.147407958984376,-0.23314356996417043,-0.35259295620918274,0.7803774931333959
1634126027829288000,8.167287841796876,-0.2481681206166744,-0.35853345217406746,0.6963694226257503
1634126027849168100,8.187168212890626,-0.12435820107460022,-0.38144378764033315,0.48570656453892586
1634126027869047000,8.207047119140626,0.06485328818261624,-0.3597647475346923,0.2825131655499339
1634126027888927000,8.226927001953126,0.2325175470203161,-0.29521190360337496,0.08886837002038955
1634126027908807000,8.246806884765626,0.443556252682209,-0.2567319508224726,-0.16346286162510512
1634126027928686000,8.26668603515625,0.5490478407233953,-0.1477750247582793,-0.25445947584584355
1634126027948566000,8.28656591796875,0.3318453517347574,-0.3417509519383311,-0.2725664296183735
1634126027968445200,8.306445068359375,-0.034010406151413916,-0.8401119769975542,-0.45640210758876054
1634126027988325000,8.3263251953125,-0.3296580708235502,-1.258129299275577,-0.5149282385764643
1634126028008205000,8.346205078125,-0.6538304037123918,-1.4958049597114325,-0.34925489782765506
1634126028028084000,8.366083984375,-1.0580284594744442,-1.3116846561133861,-0.08982433730466291
1634126028047964200,8.385964111328125,-1.4797195018291474,-0.6154585874810814,0.12868658566772936
1634126028067844000,8.405843994140625,-1.7130740841954946,0.3420025886118412,0.45807212316021323
1634126028087723000,8.425722900390625,-1.4696592955857515,0.9358183763444423,0.8056159792862833
1634126028107603200,8.445603271484375,-0.5571580819427967,0.7500000366568564,0.570186490342021
1634126028127482400,8.465482421875,0.46987844241857524,0.2743663917124271,0.005574009873205795
1634126028147362300,8.4853623046875,1.0951228031158446,-0.18173954594135283,-0.33060017397925257
1634126028167242200,8.5052421875,1.4088579131424426,-0.47362639677524565,-0.5880543015964329
1634126028187121400,8.525121337890624,1.3824831164360045,-0.3475029395937919,-0.567905393667519
1634126028207001300,8.54500146484375,0.7807622546672821,0.009649287354946136,-0.31899536864235994
1634126028226880300,8.56488037109375,0.011310498565435409,0.605412702023983,0.11909209723994135
1634126028246760400,8.584760498046874,-0.5017933375954627,1.1917623916596174,0.44068011272400615
1634126028266640400,8.604640380859376,-0.41702305054366584,1.4764292281121014,0.702468616283685
1634126028286519300,8.624519287109376,0.21210428906679152,1.324913555520773,0.7756941576227545
1634126028306399200,8.644399169921876,0.8551543555676937,0.7828577656418084,0.4818669863760471
1634126028326279400,8.664279541015626,1.2585299890309571,0.1724994239091873,0.356645154209435
1634126028346158300,8.684158447265625,1.354566935506463,-0.3304074278861284,0.2659804022915661
1634126028366038300,8.704038330078125,0.9415291552066802,-0.6589321107655763,0.19825513886921106
1634126028385917400,8.72391748046875,0.13758417787253857,-0.5679015942752361,0.472240933766216
1634126028405797000,8.743797119140625,-0.47513680133819575,-0.3443722403526306,0.6909067733056843
1634126028425677300,8.76367724609375,-0.7505939108967781,-0.1382663149178028,0.5997884324014187
1634126028445556500,8.783556396484375,-0.7268032854646443,0.1085252566486597,0.46782530928105115
1634126028465436400,8.8034365234375,-0.3986228859782219,0.3228787859469652,0.3852028479129076
1634126028485315300,8.8233154296875,0.18730419433116913,0.22198563161194323,0.08816577470898627
1634126028505195300,8.8431953125,0.4843552960604429,-0.10873743809461593,-0.40140155691131946
1634126028525075500,8.863075439453125,0.3678174133479595,-0.2726128260433674,-0.6467370844505727
1634126028544954400,8.882954345703125,0.027076222974061964,-0.3487795354008674,-0.6800706142537295
1634126028564834300,8.902834228515625,-0.3924947584867477,-0.25989596781134605,-0.43132805474996566
1634126028584713500,8.92271337890625,-0.7185112579375506,0.05736848538517952,-0.11295330222398042
1634126028604593200,8.94259326171875,-1.0022960508584975,0.5504103612482547,0.19994331115186215
1634126028624473300,8.962473388671874,-1.4005699772685765,0.6184764739975332,0.27980419885218144
1634126028644352500,8.9823525390625,-0.898586085537076,0.7630342902749776,0.5905310669735073
1634126028664232200,9.002232177734374,-0.15376140569150448,0.9966904859364032,0.6556178716510533
1634126028684112400,9.0221123046875,0.6106120242327452,0.9399839715912938,0.21778410653518512
1634126028703991300,9.0419912109375,0.6709557260364294,0.6375041228115558,-0.4270974314428866
1634126028723871200,9.061871337890626,0.4143868568211794,0.11155483360290527,-0.6922511736519634
1634126028743750400,9.08175048828125,-0.016359598648548124,0.2534311557114124,-0.7485448694124818
1634126028763630300,9.10163037109375,-0.5352098695069551,-0.7083566514089703,-1.157440289210528
1634126028783510500,9.121510498046876,-1.7322066546887158,0.17495032419264314,-0.5062108617767691
1634126028803389200,9.14138916015625,-1.9575614704728126,1.4826099625736475,0.9585769553150981
1634126028823269400,9.161269287109375,-1.389371706905961,1.9014076215744018,1.9720593669027089
1634126028843148300,9.181148193359375,-0.38328736968040467,1.632307187566161,2.3200848690658806
1634126028863028200,9.2010283203125,0.23478198482096194,1.0841402213305233,2.2482126420319077
1634126028882908400,9.220908447265625,0.8949924449592829,0.46492052775025366,2.0827035154014824
1634126028902787300,9.240787353515625,1.485907835075259,-0.13137684766501187,1.917649439062178
1634126028922667300,9.260667236328125,1.9989438666969537,-0.5838911905676126,1.6372567727975547
1634126028942547200,9.280547119140625,2.241470766556263,-0.9024164574801922,1.3284898065723478
1634126028962426400,9.30042626953125,1.7692501449257134,-1.2209829331859945,0.9229759920366107
1634126028982306300,9.320306396484375,0.5719979236781597,-0.9473629759266972,0.8716717020612209
1634126029002185500,9.340185546875,-0.8759142350018024,-0.32309915069937706,0.9341453285656869
1634126029022065400,9.3600654296875,-1.736795736044645,0.2766892817020416,0.6080119612695649
1634126029041945300,9.3799453125,-2.008100402098894,0.819146053597331,0.35827129410654307
1634126029061824300,9.39982421875,-2.082256356155872,1.460639246045053,0.3055269979232922
1634126029081704400,9.419704345703124,-1.8901228419721126,1.8319857103019952,0.021228337196074424
1634126029101586700,9.439586669921875,-1.1481208183318377,1.730889726871252,-0.31751214434728026
1634126029121466600,9.459466552734375,-0.40240474260449405,1.1669970759764312,-0.8186640422340482
1634126029141346800,9.479346923828125,0.2859656440913677,0.4592635249018669,-1.2587933161422609
1634126029161225700,9.499225830078124,0.7507289354532957,-0.07155746199637651,-1.4762209921889007
1634126029181105700,9.519105712890624,0.9603215339601039,-0.37157033614069224,-1.5119861330531537
1634126029200984800,9.53898486328125,0.8256693178862333,-0.3548194000869989,-1.486599908992648
1634126029220864800,9.55886474609375,0.5124357276409864,-0.17700988707095383,-1.268713529393077
1634126029240744700,9.57874462890625,0.26787235351800914,-0.1964496238172054,-1.005516547274962
1634126029260623600,9.59862353515625,0.1267079790711403,-0.3444751162052154,-0.9086394236482679
1634126029280503800,9.61850390625,0.2287789450138807,-0.46628392505794763,-0.7975558608189225
1634126029300382700,9.6383828125,0.34335458774268623,-0.6239031752213835,-0.706493049494177
1634126029320262700,9.6582626953125,0.4677800088346004,-0.72648501329571,-0.5925672855088487
1634126029340142800,9.678142822265626,0.4106242894172668,-0.8084718071088194,-0.3575660684466362
1634126029360021500,9.698021484375,0.25733634645640846,-0.873615310409665,0.06260413928264752
1634126029379901700,9.717901611328125,-0.027681203129887578,-0.904962634831667,0.5110617358740419
1634126029399780900,9.73778076171875,-0.2928150715947151,-1.0108411763638256,0.6979813878670335
1634126029419660500,9.75766064453125,-0.49308454596102236,-1.0933423494398593,0.5539613682607188
1634126029439540700,9.777540771484375,-0.8447633099347353,-1.1446440821319819,0.1655693141187541
1634126029459419600,9.797419677734375,-1.2659960871279239,-1.0002858800798653,-0.08057200424489565
1634126029479299800,9.8172998046875,-0.8800573261559009,-0.6701794809669256,-0.03048750642200466
1634126029499178800,9.8371787109375,-0.06383563557267188,-0.31745909898579117,0.033073801154736425
1634126029519058700,9.85705859375,0.6034031157672405,-0.16842472181618212,-0.1981312202285975
1634126029538939000,9.87693896484375,0.9030448185116052,0.05580547385215759,-0.43485224682074036
1634126029558817500,9.896817626953125,0.9199714033931493,0.24954583871066569,-0.5000242820963263
1634126029578697700,9.91669775390625,0.8671277019560336,0.40694940029680726,-0.4816699659666046
1634126029598577000,9.936576904296874,0.6903653599053621,0.5289876339912414,-0.4255788435734808
1634126029618456600,9.95645654296875,0.22773966509401797,0.5744961702346801,-0.39469442395549265
1634126029638336800,9.976336669921874,-0.08868716823458671,0.5834802716791629,-0.2524750240303576
1634126029658215700,9.996215576171876,0.028349311649799345,0.6404419298291206,-0.06744030900113285
1634126029678095600,10.016095703125,0.2013946790039539,0.6633920127838849,-0.024193945536017416
1634126029697974800,10.035974853515626,0.3401157519519329,0.666845952630043,0.08100819457191974
1634126029717854700,10.055854736328126,0.5993932956039906,0.6444692856490611,0.09016472997386007
1634126029737735000,10.07573486328125,0.6825088011860847,0.5707908859759568,0.09819664526004343
1634126029757613600,10.095613525390625,0.643164048269391,0.524057191851735,0.328900055530481
1634126029777493800,10.11549365234375,0.7027367657005786,1.0192243893057107,0.6713296739153564
1634126029797372700,10.13537255859375,0.4645195457339287,0.7094839018732308,0.7239967036113143
1634126029817252600,10.155252685546875,0.43505788892805575,0.506731378519535,0.708875341520831
1634126029837132800,10.1751328125,0.48012160401344295,0.28883973822295667,0.8381964256998151
1634126029857011700,10.19501171875,0.2685854702234268,-0.1387152277290821,0.8719283802360296
1634126029876891600,10.2148916015625,-0.13286182552576065,-0.3565045766949653,0.751352181918174
1634126029896770800,10.234770751953125,-0.5263263058274984,-0.28823300450146194,0.776140367020294
1634126029916650800,10.254650634765625,-0.8229454458802938,-0.06125614047348499,0.9257664995379745
1634126029936530700,10.27453076171875,-0.7681956185609102,0.3496124790936708,1.0885532154671846
1634126029956409600,10.29440966796875,-0.3673860361933708,0.4758996024042368,0.9047102675057948
1634126029976289800,10.314289794921875,0.3740419869512319,0.44605859089195726,0.6300956001207232
1634126029996168700,10.334168701171874,0.8715519481390714,0.2941056959271431,0.25985760856233536
1634126030016048600,10.354048583984374,0.8841378734678029,0.0019546411991119383,-0.023560990527877582
1634126030035928800,10.3739287109375,0.6532236699908971,-0.18691490275263786,-0.15509784192703663
1634126030055807500,10.393807373046876,0.3022679595947265,-0.34898704067170616,-0.23627116393279282
1634126030075687700,10.413687744140624,-0.2030734258711338,-0.5146440513402223,-0.16566468251831828
1634126030095566800,10.43356689453125,-0.654658086708188,-0.508462147834897,-0.13100410536248236
1634126030115444000,10.45344384765625,-0.9603115970879793,-0.3118593792825937,-0.061939702290855346
1634126030135324000,10.473323974609375,-1.1054127264618874,-0.00402326416671276,0.09788867528941482
1634126030155202800,10.493202880859375,-0.9230863205432891,0.3352431774795055,0.2168343863286078
1634126030175083000,10.5130830078125,-0.46330490924715995,0.43680502485632894,0.12976347591793164
1634126030194962000,10.5329619140625,0.11183891124129294,0.34512744263410566,-0.06141458243820816
1634126030214842000,10.552842041015625,0.5399141016751527,0.2447095045953989,-0.2810419787525199
1634126030234721800,10.5727216796875,0.6792869165301323,0.11736030501127243,-0.41981385030597446
1634126030254601000,10.59260107421875,0.7004635600715875,-0.03820201262235641,-0.47425146987102923
1634126030274481200,10.612481201171875,0.697581282633543,-0.19044073879122733,-0.6055251494225115
1634126030294359800,10.63235986328125,0.6056342358201742,-0.15771744984090327,-0.7985624075129628
1634126030314240000,10.652239990234374,0.46086160774827,0.04088321453034877,-0.847792959954217
1634126030334120000,10.672119873046874,0.13199556408524513,0.2991775923639536,-0.859034338806197
1634126030353998800,10.691998779296876,-0.36249066536724567,0.5465472560793161,-0.8124861573167145
1634126030373879000,10.711879150390626,-0.4615080889582634,0.6113119891956448,-0.8656997880447656
1634126030393758000,10.731758056640626,-0.46844519474506374,0.4008119204550981,-0.9860694309398531
1634126030413638000,10.751637939453126,-0.4596002095103264,0.0942863034158945,-1.1194136331550777
1634126030433517800,10.771517822265626,-0.43443829572498793,-0.05913841766715049,-1.2295581615686415
1634126030453397000,10.79139697265625,-0.6453413923084735,-0.039678514915704725,-1.1353754646576941
1634126030473277200,10.811277099609375,-1.1190139663130045,0.05573211635500192,-0.9129401165168732
1634126030493155800,10.83115576171875,-1.3159879062652586,0.1713239503890276,-0.6297833193011582
1634126030513036000,10.8510361328125,-1.3986124134600162,0.10656535475254059,-0.5203165440186858
1634126030532915000,10.8709150390625,-1.2826824335128069,0.1018614148452878,-0.18665106418468058
1634126030552795000,10.890794921875,-0.91530750323534,0.041239480622112745,0.16661434792596846
1634126030572675000,10.910675048828125,-0.3039817777752876,-0.3061675973817706,0.033710546422004696
1634126030592554000,10.930553955078125,0.27724691558480263,-0.5412541181072592,-0.2263411234077066
1634126030612434000,10.950433837890625,0.49219198103547096,-0.6119254449188709,-0.2076574291931465
1634126030632313000,10.97031298828125,0.2816922045558691,-0.545870379731059,-0.1141533987287432
1634126030652193000,10.990193115234375,-0.036762919729948045,-0.2900686954960227,-0.01881188717149198
1634126030672073000,11.010072998046875,-0.3278039673894644,0.23235592671781777,0.1700278461638838
1634126030691951900,11.029951904296874,-0.53350365011096,0.5359124648183584,0.35776714397668835
1634126030711832000,11.04983203125,-0.5343944614708424,0.6858291777804494,0.4405366126000881
1634126030731711000,11.0697109375,-0.3816325882107019,0.6189204183727502,0.4335302409693598
1634126030751591000,11.0895908203125,-0.13766367284953593,0.5447819999724626,0.4473194776732474
1634126030771471000,11.10947119140625,-0.00705751729607582,0.5748001216173172,0.5124444954693317
1634126030791349800,11.129349853515626,-0.1206944178700447,0.7132552371054888,0.7313687667492776
1634126030811230000,11.14922998046875,-0.29875965921282766,0.9349147055029868,0.9492262125153094
1634126030831109000,11.169109130859376,-0.26739772174358367,0.9624497781604527,1.080007213179022
1634126030850988800,11.18898876953125,0.10009177482426165,0.7743775220662354,1.069705380199477
1634126030870869000,11.208868896484375,0.6540338173300028,0.48913843868374823,0.8279165122911334
1634126030890748000,11.228747802734375,1.0400170019656418,0.2032739168792963,0.6216623374920338
1634126030910628000,11.248628173828125,1.1901730766415595,0.057308864152431485,0.47673846438117323
1634126030930507000,11.268507080078125,1.020939961051941,0.05428747050464153,0.4784678454570472
1634126030950387000,11.288386962890625,0.6873936506181955,0.04241670770794153,0.5493587333034724
1634126030970265900,11.308265869140625,0.31520810518860815,-0.07407938168942928,0.5393582213580608
1634126030990146000,11.32814599609375,0.1323842711418867,-0.14130319839566946,0.4425914262380451
1634126031010026000,11.34802587890625,0.1936930185854435,-0.20619418824017047,0.38399624860212206
1634126031029905200,11.3679052734375,0.2150678150475025,-0.3496595331057906,0.27336335214972496
1634126031049784800,11.387784912109375,0.15302081645727156,-0.3731917998626828,0.11244440285377204
1634126031069664000,11.4076640625,0.011580547678470611,-0.30368337935060263,0.07316577397584914
1634126031089544000,11.4275439453125,-0.26474399236440654,-0.30008477033674713,0.05554178141467273
1634126031109423000,11.447423095703124,-0.31507717228531834,-0.4049900829225778,-0.11468239103890955
1634126031129302000,11.467302001953126,-0.23859540562927722,-0.47867403555363414,-0.23455387515351175
1634126031149182200,11.48718212890625,-0.4041641534924507,-0.3629933541923761,-0.17510295747108756
1634126031169060900,11.507060791015626,-0.7197159575521945,0.08597615571022033,0.004256999857351184
1634126031188941000,11.526941162109376,-0.9709259300827979,0.40517391505688427,0.25436843656152486
1634126031208820200,11.5468203125,-0.9161427850157022,0.52953123934865,0.4602119847331196
1634126031228700200,11.5667001953125,-0.7239882280439138,0.37603169946372506,0.515814994815737
1634126031248580000,11.586580078125,-0.4315887515127659,0.14534429048001765,0.36701764127239583
1634126031268459000,11.606458984375,-0.11935469369888305,0.1465542507916689,0.3618828356672078
1634126031288339200,11.626339111328125,0.044486207458376885,0.17171265744566916,0.42035614048913117
1634126031308218000,11.646218017578125,0.18461071746349333,0.15578326690793037,0.44874804917164146
1634126031328098000,11.66609814453125,0.2810468923896551,0.180795543089509,0.41418212802931664
1634126031347978200,11.685978271484375,0.29629297683835026,0.23336159662902353,0.38523580033443866
1634126031367857000,11.70585693359375,0.4117033168256283,0.29597265884280205,0.3691702161964029
1634126031387737000,11.725737060546875,0.524573909202218,0.3472521797031164,0.27658918232843277
1634126031407616300,11.7456162109375,0.5411953736573457,0.3728542384713888,0.2404725976780057
1634126031427496000,11.765495849609374,0.5732061304241418,0.44496553495824337,0.1925898796491325
1634126031447375000,11.785375,0.5939665943801403,0.45645957339704035,0.12395634227544068
1634126031467255000,11.805255126953124,0.3652724050402641,0.4454267227292061,0.12315291693806647
1634126031487135200,11.82513525390625,0.1267161623775959,0.34760289283692836,0.0787045572720468
1634126031507014100,11.84501416015625,0.022579496076703072,0.23899931025505064,-0.026221514974022284
1634126031526894000,11.86489404296875,0.006633738926053047,0.28916180978417394,-0.09933351293602026
1634126031546773000,11.88477294921875,0.013594225588440895,0.31619594718217847,-0.14765469544739462
1634126031566653000,11.90465283203125,-0.10516016412973403,0.2902443443238735,-0.1661777466069907
1634126031586533000,11.924533203125,-0.25052842000722886,0.30052140818834305,-0.16223551178723572
1634126031606412300,11.944412353515625,-0.3282505421131849,0.2785071447789669,-0.18234140255833042
1634126031626292000,11.9642919921875,-0.3161275581210852,0.251951146286726,-0.16032189671825617
1634126031646171100,11.984171142578125,-0.24561843613386153,0.21167057382464408,-0.16487225349899381
1634126031666051000,12.004051025390625,-0.30177170051038266,0.11673603563308715,-0.11182415206357836
1634126031685931000,12.023930908203125,-0.45082185977101324,0.0977501801341772,-0.030106895906850693
1634126031705810200,12.04381005859375,-0.5316290884107351,0.030937574577331543,0.101214787504822
1634126031725690000,12.063690185546875,-0.39204526115357874,-0.017080314138531685,0.048189299760013814
1634126031745569000,12.083569091796875,-0.22219898210167882,0.003160509857535362,-0.0032379590079188343
1634126031765449000,12.103448974609375,-0.24308278017640111,0.11623743846118449,0.08937847496699541
1634126031785328000,12.123328125,-0.28022505461275576,0.08469488372802735,0.022879465403966605
1634126031805208000,12.1432080078125,-0.23040859204232692,0.1478612417370081,-0.030542255116812883
1634126031825088000,12.163087890625,-0.21094284407198427,0.18972879112958907,0.08084317673593759
1634126031844967200,12.18296728515625,-0.16961305481791494,0.18795184458494185,0.18256679054573177
1634126031864846800,12.202846923828124,-0.10147066196203232,0.15585048692524434,0.10737436958048492
1634126031884726000,12.22272607421875,-0.07069149281680584,0.10746142680943012,0.12372454281356185
1634126031904606200,12.242606201171874,0.10131342557370662,0.13347966516315937,0.16354454855918885
1634126031924484900,12.26248486328125,0.24383038367331025,0.09864449862539768,0.1127553319664672
1634126031944365000,12.282364990234376,0.16702888354361056,0.07580313674211502,0.1400605413908139
1634126031964245000,12.302244873046876,0.07660334720909595,0.08842647147178649,0.16442681128643452
1634126031984124000,12.3221240234375,0.038922143590450285,0.07894260381162166,0.18802414263617245
1634126032004004000,12.342004150390625,0.0872059897661209,0.07292553547918797,0.21279084655884653
1634126032023883000,12.361883056640625,0.15005436786711215,0.015828852772712707,0.23938127704365178
1634126032043763200,12.38176318359375,0.17651859642267226,-0.033864860200881954,0.22272724375948308
1634126032063642000,12.40164208984375,0.10587035822570323,-0.022943068692088127,0.24686759594473986
1634126032083522000,12.42152197265625,-0.004024433210492134,-0.029126141241192817,0.3011250731699168
1634126032103402500,12.441402587890625,-0.09838964708149432,-0.13885259037315845,0.28404947173912076
1634126032123281200,12.46128125,-0.08448094871640205,-0.13461772928237914,0.20138218484856188
1634126032143161300,12.481161376953125,-0.07519581849873065,-0.09542962823212146,0.1478880749450065
1634126032163040500,12.50104052734375,-0.012500585132837295,-0.02885141595304012,0.07132887740489095
1634126032182920400,12.52092041015625,0.1339659873753786,0.057739656785130496,-0.025810239892546084
1634126032202799400,12.54079931640625,0.1162502979427576,0.13549626568257808,-0.07082279104627669
1634126032222679300,12.56067919921875,-0.10334171653091907,0.1728741024404764,-0.12626516720708458
1634126032242559500,12.5805595703125,-0.16347791306376455,0.26389117492735387,-0.09042579206284135
1634126032262438400,12.6004384765625,-0.034895372292399404,0.281718508040905,-0.2259589556897059
1634126032282318300,12.620318359375,0.06550035391449928,0.338054727768898,-0.35541590467542405
1634126032302197500,12.640197509765626,0.048265725997090336,0.42070203131735323,-0.4607515715025365
1634126032322077200,12.6600771484375,0.011819032609462737,0.5120516967594623,-0.44449609081558883
1634126032341956400,12.679956298828126,-0.003071078008413315,0.5661404298216104,-0.43209038089197127
1634126032361836500,12.69983642578125,0.06021218437850475,0.5316022004038096,-0.33733284323513507
1634126032381716200,12.71971630859375,0.06746843911707401,0.30906887178122994,-0.31952085382118817
1634126032401595400,12.739595458984375,0.14814999555051325,0.10829729311168193,-0.27066476071551443
1634126032421475300,12.759475341796875,0.11715572234988211,-0.027134675163030624,-0.2892940943943336
1634126032441354200,12.779354248046875,-0.030720132434368132,-0.0527811575949192,-0.12802340905126183
1634126032461234400,12.799234375,-0.05526654466986656,-0.023828034833073615,-0.17463150403443722
1634126032481114400,12.8191142578125,-0.09165069421529769,-0.04454524416923523,-0.14066468129642307
1634126032500993300,12.8389931640625,-0.08817629610300064,-0.0018716390907764435,-0.056297495152801275
1634126032520873200,12.858873291015625,-0.15127543409466743,-0.056284197279810905,-0.0643520971948281
1634126032540752400,12.87875244140625,-0.14419804305434225,-0.013218962535262106,-0.058872862066142256
1634126032560632600,12.898632568359375,-0.16461013196408747,0.019051906472444532,-0.05722495329522062
1634126032580511200,12.91851123046875,-0.16838555884957312,0.09115735774040222,-0.06089651338085532
1634126032600391400,12.938391357421875,-0.11595219177901744,0.10542553706765175,-0.043619544159062204
1634126032620271400,12.958271240234374,0.004697217905521392,0.12508826891481875,-0.021892354062758385
1634126032640150300,12.978150390625,0.01509936945438385,0.12830080122053622,-0.02590929808653891
1634126032660030500,12.998030517578124,-0.0073988780796527855,0.11131225701868533,0.04393237296789884
1634126032679909400,13.017909423828126,-0.1485275966912508,0.02517769587635994,0.08065576440505683
1634126032699789300,13.037789306640626,-0.12705869220495222,0.017098434317111968,0.07248484250698238
1634126032719668500,13.05766845703125,-0.08913841913342475,0.011858780097961425,0.09907744668256491
1634126032739548400,13.07754833984375,0.07468962254226208,0.03412497244179249,0.06795603997092693
1634126032759427300,13.09742724609375,0.03896598273217678,0.024859715968370437,0.06216616799049079
1634126032779307300,13.117307373046875,-0.020771569871902464,0.028946693021059035,0.07369787155855446
1634126032799187500,13.1371875,-0.08384674246609211,0.013234744626283644,0.04839596478063613
1634126032819066400,13.15706640625,0.0037806875824928283,0.05213350734114647,0.071677544712089
1634126032838946300,13.1769462890625,0.07318272511065006,0.043647418546676635,0.0233486172856763
1634126032858825500,13.196825439453125,0.011169628790020942,0.06066285075545311,0.036213578751496965
1634126032878705200,13.216705078125,0.042833764076232905,0.05131868382692337,0.07693802252355962
1634126032898584300,13.236584228515625,0.0820130972981453,0.04743044421672821,0.03436093662213534
1634126032918464500,13.256464599609375,0.09430150098502635,0.10734569147527218,0.033823432211950416
1634126032938344200,13.27634423828125,0.09815291571617125,0.19057927047908305,0.08868260165732353
1634126032958223400,13.296223388671875,0.12276362535953521,0.1211912614762783,0.08601334591545164
1634126032978103300,13.316103271484375,0.16458850465416908,-0.01085164888203144,0.0418595487492159
1634126032997982200,13.335982177734374,0.17285948939323426,-0.06650456252098083,0.0029219153286889196
1634126033017862400,13.3558623046875,0.11116437298059463,-0.031133389410376546,0.011536635471507906
1634126033037741300,13.3757412109375,-0.023110826474428175,0.017059271350502968,0.026327998422645032
1634126033057621200,13.395621337890624,-0.04891863694787025,0.08017652952075004,0.035907545009627936
1634126033077501200,13.415501220703124,-0.016354922473430632,0.08672609729468822,-0.024968332008575088
1634126033097380400,13.43538037109375,0.011854688444733618,0.09554185643494129,-0.05038370453175157
1634126033117263000,13.45526318359375,-0.08182254316210746,0.03459200543165207,-0.007143186285533011
1634126033137142300,13.475142333984374,-0.07455868963897228,-0.021284780091047287,-0.012602766865678131
1634126033157022200,13.495022216796874,0.0030167174726724623,-0.017447393885254858,-0.04435191355422139
1634126033176901000,13.514901123046876,0.08205109122097491,0.013610007679462433,-0.025354769476316867
1634126033196781000,13.534781005859376,0.12119067695438861,0.04680149866342544,-0.07577646793089807
1634126033216661200,13.5546611328125,0.10101298132240771,-0.020865677896142003,-0.09453804968725889
1634126033236540200,13.5745400390625,0.0719908849775791,-0.07548048065900802,-0.09393727991566993
1634126033256420000,13.594420166015626,0.008115501916408538,-0.07313362527191639,-0.08293317128513007
1634126033276299300,13.61429931640625,-0.01815232728421688,-0.0463894107311964,-0.05805556346704252
1634126033296179200,13.63417919921875,-0.08818564845323562,-0.008087444865703583,-0.05999287907201797
1634126033316058000,13.65405810546875,-0.08951075957715511,0.0322463190883398,-0.045985542638041076
1634126033335938300,13.673938232421875,-0.03257365134656429,0.033359833288192746,-0.04680478659905493
1634126033355817000,13.69381689453125,0.06888356661200523,-0.07232640054225921,-0.0948067470934242
1634126033375697200,13.713697265625,0.057009588944911954,-0.14834639490544796,-0.07688673072773963
1634126033395577000,13.7335771484375,0.015106383717060088,-0.0785533122330904,-0.05283464134782553
1634126033415456300,13.753456298828125,-0.03633855683803558,-0.060168929758667944,-0.05665838262075558
1634126033435336200,13.773336181640625,-0.04198153116106987,-0.05657353561520576,-0.030088081608526406
1634126033455215000,13.793215087890625,0.04622340651452541,-0.012204232534766197,-0.04212908640559763
1634126033475095300,13.81309521484375,0.11363280892074107,0.04772913490235805,-0.024988931838609278
1634126033494974200,13.83297412109375,0.1214917057275772,0.04812076456844806,-0.044930882485955954
1634126033514854100,13.852854248046874,0.08067688025832176,0.03615384792089462,-0.0798242272180505
1634126033534734300,13.872734375,0.08371756312847137,0.04103343665599823,-0.062054341646470126
1634126033554613000,13.892613037109374,0.07723463084995746,0.034090485650300976,-0.049094870297610754
1634126033574493200,13.9124931640625,0.17796236549019812,0.015464695635437965,-0.09454162988383323
1634126033594372400,13.932372314453126,0.22149755583405492,0.030709611040353774,-0.11934278406538068
1634126033614252000,13.952251953125,0.16566987015008924,0.11137713894844055,-0.08024610589193179
1634126033634131200,13.972131103515625,0.007438625568151474,0.07814999212920665,-0.06859821033198386
1634126033654011100,13.99201123046875,-0.13634908311963082,0.08016308551728725,0.08403145138323306
1634126033673890000,14.01189013671875,-0.25044307981133457,-0.039081718066334724,0.13075572009198366
1634126033693770200,14.031770263671875,-0.1849520782470703,-0.12217442729473113,0.1261584919622168
1634126033713650200,14.051650146484375,0.011715572234988212,-0.12138473822176456,0.09522855270206927
1634126033733529000,14.071529052734375,0.07185761398673057,-0.0974234323978424,0.03735025463122874
1634126033753409000,14.091408935546875,0.039839258435368535,-0.05078618438541889,0.035712314698472615
1634126033773288200,14.1112880859375,-0.0026297639816999434,-0.03228898918628693,0.09027368850735946
1634126033793168100,14.131168212890625,0.01885550711750984,-0.031160861939191816,0.06461878530699759
1634126033813047300,14.15104736328125,-0.006673486414551734,-0.0636649551808834,0.057122766995802515
1634126033832927200,14.17092724609375,-0.005088263049721717,-0.01972293760180473,0.023674451706558464
1634126033852807200,14.19080712890625,-0.04431728063225746,0.06986322529911995,0.023909392973594366
1634126033872686000,14.21068603515625,-0.0069482117027044295,0.16899930683374403,-0.014686569136101751
1634126033892566300,14.230566162109374,0.025205752927064895,0.1246206514030695,-0.053411308724619445
1634126033912445200,14.250445068359374,0.059470426100492475,0.10612520976960658,-0.08958762420564889
1634126033932325000,14.2703251953125,0.11077683496773243,0.14926467879414557,-0.10815167409591377
1634126033952204300,14.290204345703126,0.0752723908662796,0.18996902962625026,-0.10177457681205124
1634126033972084200,14.310084228515626,-0.017059855872392653,0.17668810777068136,-0.028986075183376668
1634126033991964200,14.329964111328126,-0.024916999113559723,0.12230594471991062,0.0025694851618260142
1634126034011843300,14.34984326171875,-0.0035071313381195065,0.1098322475939989,0.05868877420350909
1634126034031723300,14.36972314453125,0.07086684938371181,0.12336509838402271,0.0730196435034275
1634126034051602200,14.389602294921875,0.1652583667397499,0.12836159149706364,0.0708539533695206
1634126034071482000,14.409482177734375,0.16965981656908988,0.04604395829439163,0.02622943341899663
1634126034091361300,14.429361328125,0.13247428751289844,0.016910218268632888,0.06131393507532775
1634126034111238100,14.449238037109374,0.03105038730204105,-0.01283843878507614,0.06083287356011569
1634126034131118300,14.469118408203125,-0.1338438223004341,-0.022784663259983063,0.11291307981144637
1634126034150997500,14.48899755859375,-0.19232991353869436,-0.047941316348314285,0.07297408732865006
1634126034170877400,14.50887744140625,-0.17428981445729733,-0.007923194214701652,0.1054559504722245
1634126034190756400,14.52875634765625,-0.09427870463132858,0.007205985856056213,0.09941909972708672
1634126034210636300,14.54863623046875,-0.05386544570028782,0.051040451407432554,0.05056881530769169
1634126034230515200,14.56851513671875,-0.028970658418536185,0.049773792472481725,0.07351078802123666
1634126034250395400,14.5883955078125,-0.11240122129917145,-0.01695464193224907,0.07569693642128258
1634126034270274300,14.6082744140625,-0.07653028197288513,-0.0009071779727935791,0.09759732766002416
1634126034290154500,14.628154541015626,0.002146364378929138,-0.0023135376393795012,0.0653032969724387
1634126034310034200,14.6480341796875,0.08550853819847107,0.02810848863124847,0.07328910809457302
1634126034329913300,14.667913330078125,0.12151859373450279,0.04276186788380146,0.054274830218777055
1634126034349793500,14.68779345703125,0.07301321376264094,0.08189736196398735,0.041255591506697234
1634126034369672200,14.707672119140625,0.017054010653495787,0.10753683013319969,0.09340203139465302
1634126034389552400,14.727552490234375,0.055360652694106095,0.05684358472824096,0.02195294340988621
1634126034409431600,14.747431640625,0.11598317143917083,0.027597616499662397,0.0047262978695333
1634126034429311200,14.767311279296875,0.17360767741203306,0.0779296273767948,-0.033425847729109226
1634126034449191400,14.78719140625,0.14952420651316642,0.09146247816681861,-0.056380606858991086
1634126034469070300,14.8070703125,0.03535129936635494,0.06231470961570739,-0.00897544321399182
1634126034488950300,14.8269501953125,-0.03683189331293106,0.023996377137303352,-0.01574340297896415
1634126034508829400,14.846829345703124,-0.03253507290184498,0.05937573355436325,0.003399031321145594
1634126034528709400,14.86670947265625,-0.005803717842698097,0.031058570608496663,0.040768392511643464
1634126034548588300,14.88658837890625,0.0234627086520195,-0.0220335526317358,0.046900611656345424
1634126034568468200,14.90646826171875,-0.022957681739330292,-0.07610708812475205,0.008875161177292465
1634126034588347400,14.926347412109376,-0.03634323301315307,-0.08462941727638244,0.07702416643705219
1634126034608227300,14.946227294921876,0.01953647511899471,-0.0760217479288578,0.03829487853758037
1634126034628107300,14.966107177734376,0.0701923111230135,-0.058655018064379685,0.03880991538763046
1634126034647986400,14.985986328125,0.09610299744904041,-0.027978140249848363,0.0042497663989663126
1634126034667866400,15.005866455078126,-0.010512626186013221,-0.03774199389517307,0.048454124708659944
1634126034687745300,15.025745361328125,-0.15778057820498942,-0.060030982592701905,0.08160857161786407
1634126034707625500,15.04562548828125,-0.20091770914196966,-0.06273965702950954,0.1149879133241251
1634126034727504100,15.065504150390625,-0.15722235980033875,-0.07095628123283386,0.09837843156773596
1634126034747384300,15.08538427734375,-0.05004851776063442,0.010045008674263953,0.06090623105727136
1634126034767264300,15.10526416015625,-0.009845686709880829,0.07563596348166465,0.051742206468619406
1634126034787143200,15.12514306640625,0.0760305157572031,0.0902390738517046,0.04811736703496426
1634126034807023400,15.1450234375,0.0923515359610319,-0.01963116766512394,-0.056339909522421655
1634126034826902300,15.16490234375,0.12653963676691055,-0.00558919830918312,-0.024695976774021983
1634126034846782500,15.184782470703125,0.10160568651854991,0.03641980538070202,-0.04478168327361345
1634126034866661400,15.204661376953124,0.04044716120064258,0.04987842189073562,-0.054385304855927824
1634126034886541300,15.224541259765624,-0.01182721591591835,0.05368365939259529,0.0006891147753223776
1634126034906420200,15.244420166015624,-0.033493104279041286,0.08676818287074566,-0.03341507060676813
1634126034926300200,15.264300048828124,-0.07860825729072093,0.05265256277918815,-0.025910138336755335
1634126034946180400,15.284180419921874,-0.07411796013414859,0.0286345583319664,-0.02884378063585609
1634126034966059500,15.3040595703125,-0.03435702763199806,0.02646773568689823,-0.03435125547833741
1634126034985939200,15.323939208984376,-0.00023147066831588744,-0.0036433249384164807,-0.020502543672174214
1634126035005818400,15.343818359375,0.003951952496170997,-0.01655190635025501,-0.03396938002128154
1634126035025698300,15.3636982421875,0.027786417070031166,-0.017588848182559014,-0.02298508120290935
1634126035045577200,15.3835771484375,-0.005969722059369087,-0.032744331738352776,-0.0208818618459627
1634126035065457400,15.40345751953125,-0.014045476487278937,-0.028016718694567677,0.006026457215286791
1634126035085337300,15.42333740234375,-0.015401567271351814,-0.033436990177631375,0.017239669418707488
1634126035105216300,15.44321630859375,0.029915245792269705,-0.010978490132093429,0.02484415307305753
1634126035125097000,15.463096923828125,0.0029711247652769086,0.0034580314993858333,0.035688531964085994
1634126035144976000,15.482975830078125,-0.0029740473747253415,0.08545067053139209,0.10659052572641521
1634126035164856000,15.50285595703125,0.017594693401455877,0.09085282183587551,0.07464107069279999
1634126035184734700,15.522734619140625,0.10675064819157123,0.00951835445165634,0.03056910659112036
1634126035204615000,15.542614990234375,0.21741467043459414,-0.020609657308459282,-0.031593042811378834
1634126035224494000,15.562494140625,0.23464929835200307,-0.017008417946100234,-0.03291420841254294
1634126035244374000,15.5823740234375,0.16937632345259188,0.00047580081820487974,-0.031868937143310905
1634126035264254000,15.60225390625,0.053071080452203746,0.07019523373246192,-0.021417685755714774
1634126035284132900,15.6221328125,-0.02126198373734951,0.11984744565188885,0.010061338754557073
1634126035304013000,15.642012939453124,-0.057900400304794306,0.0871411078363657,0.027859116980060935
1634126035323892000,15.66189208984375,-0.0904477481663227,0.036349662753939624,0.04611771765034645
1634126035343772000,15.68177197265625,-0.09475041379630565,0.024715923583507535,0.051532326577603815
1634126035363651000,15.701651123046876,-0.021782208219170568,0.030417934617400166,0.020032551540248095
1634126035383530800,15.72153076171875,0.04706219542622566,0.022658991053700447,-0.000490559995919466
1634126035403410000,15.741409912109376,0.04731003270745277,-0.03267594267725944,0.018693192695267497
1634126035423290000,15.7612900390625,0.03307341756224632,-0.043503041639924044,-0.016653613159060478
1634126035443169800,15.781169677734376,0.03421381976902485,-0.027612814068794247,0.018920608242973685
1634126035463049000,15.801049072265625,0.0823088653743267,-0.007846037325263023,0.003778714821115136
1634126035482929000,15.820928955078125,0.1478834535688162,-0.041860535129904744,-0.05252966705188155
1634126035502807800,15.840807861328125,0.15002514177262782,-0.01741115352809429,-0.024359949752688407
1634126035522688000,15.86068798828125,0.08643442087173461,0.011718494844436645,-0.011694164120778441
1634126035542567000,15.88056689453125,0.05699789850711822,0.042185529300570485,-0.020226905068568883
1634126035562446800,15.90044677734375,0.11807575980424881,0.08365735737383365,-0.03901051599364728
1634126035582326000,15.920325927734375,0.2351461419582367,0.06893325097262859,-0.07963361828308552
1634126035602206000,15.9402060546875,0.24294775561988352,0.025448914033174515,-0.112228129754588
1634126035622086100,15.960086181640625,0.19377251356244085,0.05078910699486732,-0.07775854512620717
1634126035641964800,15.97996484375,0.0720826549142599,0.084557521083951,-0.07633494206387549
1634126035661845000,15.999844970703125,-0.07863397625386714,0.09826397487521171,-0.04448584213219583
1634126035681724000,16.019723876953126,-0.09360591993629931,0.13371639652848244,0.08297595098093151
1634126035701603800,16.039603759765626,-0.06846037276387214,0.03638648763298988,0.10637439875770359
1634126035721483000,16.05948291015625,0.052550855970382684,-0.07859948946237563,0.05671075212880969
1634126035741363000,16.079363037109374,0.15408815342783927,-0.1335655898809433,0.016018055201880634
1634126035761241900,16.099241943359374,0.17287527148425577,-0.08838146328628063,0.014859825077466665
1634126035781122000,16.1191220703125,0.07247428458034992,-0.08413198914825916,0.033809842078015205
1634126035801002000,16.139001953125,-0.0007195464462041854,-0.049670916619896886,0.03663881842624396
1634126035820881000,16.158880859375,-0.09823650234639644,-0.04508475787341595,0.0315800006667152
1634126035840760800,16.1787607421875,-0.08864742074608803,-0.015379355439543723,0.055571190172247584
1634126035860640000,16.198639892578125,0.005114566534757614,0.02075520325899124,0.006767302177846431
1634126035880520000,16.21852001953125,-0.008264554998278618,0.0021931261301040648,-0.003987389135733247
1634126035900398800,16.23839892578125,0.005927051961421966,0.015700842478871345,-0.025781141662225126
1634126035920279000,16.258279052734373,0.023509470403194427,-0.0048860184758901595,-0.041173173920251424
1634126035940158000,16.278157958984377,0.03316168036758899,-0.016443769800662995,-0.018894012496992945
1634126035960038000,16.298037841796877,0.059680853980779644,0.0003179799079895019,-0.032961846946552395
1634126035979918000,16.31791796875,0.08443126435577869,-0.01624094070494175,-0.024089791041798887
1634126035999797000,16.337796875,0.11292261482477188,-0.045697336813807485,-0.026661322030238806
1634126036019677000,16.357677001953125,0.038032501274347305,-0.08821604359149933,-0.007097593578137457
1634126036039556000,16.37755615234375,-0.03539923016130924,-0.06801145995259285,-0.007223192719183862
1634126036059435800,16.397435791015624,-0.05810849009752273,-0.04975859490334987,-0.009536492896545679
1634126036079315000,16.41731494140625,-0.07364566644728184,0.06215221253037452,0.0012206461024470627
1634126036099195000,16.43719482421875,-0.0174368724912405,-0.034622985091805454,-0.008941906270571053
1634126036119073500,16.457073486328124,0.023655016353726386,-0.07914718647301197,-0.12775388966118917
1634126036138953700,16.47695361328125,0.05355331101119518,0.04114566485881805,-0.11220635631419718
1634126036158833000,16.4968330078125,0.059276364833116525,0.1086561895519495,-0.09463957383297383
1634126036178712600,16.516712646484375,-0.0009048398852348328,0.08290040152668952,-0.10875778676290064
1634126036198592800,16.5365927734375,-0.03553425471782684,0.07324643799662589,-0.07738014026787132
1634126036218471700,16.5564716796875,-0.06185761349797248,0.12364742245674133,-0.03436069916011766
1634126036238352000,16.576351806640623,-0.09029460343122482,0.13437749078571795,0.02724577085468918
1634126036258230800,16.596230712890623,-0.0831149210602045,-0.0483586649775505,-0.02013743668682873
1634126036278110700,16.61611083984375,0.004005143988132477,-0.07278349665999412,0.025348814659565684
1634126036297989600,16.63598974609375,0.17049334478378295,-0.1057803418546915,-0.039666568749584255
1634126036317869600,16.65586962890625,0.17950491875708102,-0.05456102674901485,-0.05542752565154806
1634126036337748700,16.675748779296875,0.11571779850125312,0.017075053441524504,-0.005230338401533663
1634126036357629000,16.69562890625,-0.04578969127237797,-0.007114215919375419,0.05037701906263828
1634126036377507600,16.715507568359374,-0.14315467148125172,0.008747370079159737,0.03972838193941861
1634126036397387800,16.7353876953125,-0.05526654466986656,0.13298632868826388,0.04215666853226721
1634126036417267700,16.755267822265626,-0.052471945515274995,0.1613862014815211,0.073179583305493
1634126036437146600,16.775146728515626,-0.011311667609214782,0.11664221986979245,0.0849113394903019
1634126036457026800,16.79502685546875,0.2042056447714567,-0.005176233594119548,-0.030829438027739523
1634126036476905700,16.81490576171875,0.3505021214097738,-0.16122662700563667,-0.08476564740929753
1634126036496785700,16.83478564453125,0.2435065585464239,-0.15992635806202887,-0.04617215125132352
1634126036516664800,16.854664794921874,-0.1530056188881397,-0.027969956943392753,0.10866141371633857
1634126036536544800,16.874544677734374,-0.15289982042610645,0.19383505740463733,0.26159235993307084
1634126036556423700,16.894423583984373,0.0001543137788772583,0.13794278205186128,0.22070940113104878
1634126036576303600,16.9143037109375,0.11613456260859965,0.017803075455129144,0.15933993647620082
1634126036596182800,16.934182861328125,0.6397580392181873,-0.06296937413215636,-0.2509340051334351
1634126036616062700,16.954062744140625,-0.05886193881332874,-0.09012450756132602,-0.7811066841907799
1634126036635942700,16.973942626953125,-0.04596154070794582,0.44265199731886384,0.5132148222547024
1634126036655821800,16.99382177734375,-0.17380056963562965,0.19124737899899483,-0.04716189294103533
1634126036675701500,17.013701416015625,-0.2087976487368345,0.07492576938569545,-0.04074004319999367
1634126036695580700,17.03358056640625,-0.04100713317096233,-0.11330606118440627,-0.23542053845282643
