Acc_timestamp,Accx,Accy,Accz,Gyro_timestamp,Gyrox,Gyroy,Gyroz,Baro_timestamp,Pressure_Reading
 62202880.000000, 1.612763 , 5.455636, 8.901299, 0.000000, 0.000000,  0.000000,  0.000000, 0.000000,  0.000000
 0.000000, 1.457229 , 5.793024, 8.587841, 0.000000, 0.000000,  0.000000,  0.000000, 0.000000,  0.000000 
 20480.000000, 1.174876 , 5.606383, 8.238488, 1425561856.000000, -9.800000,  13.090000,  25.340000, 0.000000,  0.000000 
 40448.000000, 0.748954 , 5.922236, 8.329416, 1425582336.000000, -1.610000,  31.710001,  23.799999, 0.000000,  0.000000 
 60928.000000, 1.007378 , 5.357530, 8.819944, 1425602304.000000, -9.100000,  37.029999,  15.260000, 0.000000,  0.000000 
 81920.000000, 0.586242 , 4.520042, 8.879765, 1425622784.000000, -25.690001,  35.209999,  23.240000, 0.000000,  0.000000 
 100608.000000, 0.595813 , 3.996014, 8.776874, 1425643776.000000, -32.480000,  34.230000,  17.360001, 0.000000,  0.000000 
 120576.000000, 0.485743 , 3.917051, 8.717053, 1425662464.000000, -21.700001,  29.330000,  17.080000, 0.000000,  0.000000 
 140544.000000, 0.315853 , 4.000800, 8.719445, 1425682432.000000, -9.380000,  26.600000,  16.870001, 0.000000,  0.000000 
 160768.000000, 0.291924 , 4.072584, 8.559127, 1425702400.000000, -4.760000,  24.290001,  15.190001, 0.000000,  0.000000 
 181248.000000, 0.258425 , 4.211368, 8.054241, 1425722624.000000, -0.980000,  21.490000,  15.470000, 0.000000,  0.000000 
 200448.000000, 0.356531 , 4.287938, 7.472785, 1425743104.000000, 0.910000,  18.059999,  16.170000, 0.000000,  0.000000 
 220672.000000, 0.708275 , 4.304688, 7.302894, 1425762304.000000, -6.440000,  14.700000,  18.200001, 0.000000,  0.000000 
 240640.000000, 1.136591 , 4.362115, 7.362715, 1425782528.000000, -21.280001,  11.550000,  18.270000, 0.000000,  0.000000 
 260864.000000, 1.342373 , 4.405186, 7.501499, 1425802496.000000, -29.750000,  10.780000,  17.219999, 0.000000,  0.000000 
 281088.000000, 1.311267 , 4.252046, 7.334002, 1425822720.000000, -30.380001,  12.810000,  15.400000, 3687406080.000000,  1005.637146 
 300544.000000, 1.442872 , 4.007978, 6.989435, 1425842944.000000, -28.350000,  14.280000,  11.340000, 0.000000,  0.000000 
 321536.000000, 1.323231 , 3.783052, 6.733403, 1425862400.000000, -23.730000,  14.490000,  8.470000, 0.000000,  0.000000 
 341248.000000, 1.674976 , 3.878766, 6.704689, 1425883392.000000, -22.680000,  16.309999,  6.510000, 0.000000,  0.000000 
 361728.000000, 2.065006 , 4.012764, 6.604190, 1425903104.000000, -26.530001,  18.410000,  5.740000, 0.000000,  0.000000 
 384000.000000, 2.072184 , 3.744767, 6.824330, 1425923584.000000, -32.060001,  21.280001,  4.060000, 0.000000,  0.000000 
 401408.000000, 2.182254 , 3.302095, 7.238289, 1425945856.000000, -42.910000,  27.510000,  2.870000, 0.000000,  0.000000 
 421888.000000, 2.572284 , 3.153740, 7.728817, 1425963264.000000, -49.420002,  31.570000,  1.260000, 0.000000,  0.000000 
 441600.000000, 3.005385 , 3.120241, 8.219346, 1425983744.000000, -43.610001,  33.389999,  -2.730000, 0.000000,  0.000000 
 462080.000000, 2.677568 , 3.201597, 8.652447, 1426003456.000000, -31.710001,  35.770000,  -6.300000, 0.000000,  0.000000 
 482304.000000, 2.301895 , 3.148954, 9.121440, 1426023936.000000, -20.230000,  39.970001,  -8.330000, 0.000000,  0.000000 
 501760.000000, 2.280360 , 3.072384, 9.808180, 1426044160.000000, -12.600000,  41.299999,  -8.120000, 0.000000,  0.000000 
 521984.000000, 2.160719 , 3.014957, 10.336994, 1426063616.000000, -11.410000,  38.920002,  -7.980000, 0.000000,  0.000000 
 541952.000000, 2.354537 , 3.005385, 10.755738, 1426083840.000000, -20.510000,  35.630001,  -7.840000, 0.000000,  0.000000 
 562176.000000, 2.782853 , 3.079563, 11.315658, 1426103808.000000, -31.780001,  29.400000,  -8.190000, 0.000000,  0.000000 
 582656.000000, 2.675175 , 3.067599, 11.574083, 1426124032.000000, -38.990002,  25.969999,  -9.660000, 0.000000,  0.000000 
 602112.000000, 2.354537 , 3.304488, 11.624333, 1426144512.000000, -46.970001,  30.240000,  -12.670000, 0.000000,  0.000000 
 621824.000000, 1.718047 , 3.438486, 11.052447, 1426163968.000000, -56.209999,  38.779999,  -13.930000, 0.000000,  0.000000 
 643072.000000, 1.722832 , 3.163311, 9.662218, 1426183680.000000, -62.369999,  51.730000,  -10.780000, 0.000000,  0.000000 
 663296.000000, 2.105684 , 2.486143, 8.688338, 1426204928.000000, -66.360001,  65.590004,  -7.840000, 0.000000,  0.000000 
 683776.000000, 1.799403 , 1.902294, 8.635696, 1426225152.000000, -74.059998,  85.470001,  -9.310000, 0.000000,  0.000000 
 702976.000000, 0.150748 , 1.825724, 7.934600, 1426245632.000000, -59.150002,  113.959999,  -17.219999, 0.000000,  0.000000 
 723200.000000, -2.715853 , 1.928615, 9.348758, 1426264832.000000, -13.790000,  151.059998,  -14.210000, 0.000000,  0.000000 
 742912.000000, -6.269196 , 1.785046, 10.760524, 1426285056.000000, 11.760000,  182.630005,  -11.410000, 0.000000,  0.000000 
 763392.000000, -9.480364 , 2.256432, 11.454442, 1426304768.000000, 6.300000,  200.690002,  -9.240000, 0.000000,  0.000000 
 783616.000000, -9.774680 , 2.421536, 12.859028, 1426325248.000000, -6.720000,  194.529999,  -12.180000, 0.000000,  0.000000 
 803072.000000, -7.456036 , 1.923829, 14.009976, 1426345472.000000, -0.140000,  148.190002,  1.120000, 0.000000,  0.000000 
 823040.000000, -6.008378 , 1.548156, 14.926428, 1426364928.000000, 10.850000,  81.900002,  3.010000, 0.000000,  0.000000 
 843008.000000, -5.910272 , 1.842474, 15.759130, 1426384896.000000, 31.290001,  38.080002,  -6.860000, 0.000000,  0.000000 
 863232.000000, -6.419943 , 3.053242, 15.424134, 1426404864.000000, 73.639999,  3.640000,  -5.390000, 0.000000,  0.000000 
 883712.000000, -6.132804 , 4.618148, 13.301701, 1426425088.000000, 145.740005,  -33.040001,  3.010000, 0.000000,  0.000000 
 902912.000000, -5.352744 , 7.020542, 10.597812, 1426445568.000000, 232.259995,  -71.959999,  27.440001, 0.000000,  0.000000 
 922880.000000, -4.692325 , 9.327222, 7.884350, 1426464768.000000, 282.660004,  -99.540001,  59.779999, 0.000000,  0.000000 
 942848.000000, -4.319045 , 10.150353, 6.262017, 1426484736.000000, 259.559998,  -107.800003,  91.629997, 0.000000,  0.000000 
 963072.000000, -4.118048 , 8.128418, 6.096912, 1426504704.000000, 156.660004,  -100.870003,  107.239998, 0.000000,  0.000000 
 983552.000000, -4.555934 , 5.326423, 6.362515, 1426524928.000000, 16.030001,  -87.709999,  105.980003, 0.000000,  0.000000 
 1002752.000000, -4.457829 , 3.005385, 6.144768, 1426545408.000000, -86.800003,  -77.349998,  101.430000, 0.000000,  0.000000 
 1022976.000000, -3.914658 , 1.124627, 5.886343, 1426564608.000000, -118.510002,  -76.930000,  102.830002, 0.000000,  0.000000 
 1042944.000000, -3.467200 , 1.153341, 5.431707, 1426584832.000000, -84.139999,  -79.169998,  108.989998, 0.000000,  0.000000 
 1063168.000000, -2.770889 , 2.196611, 3.866802, 1426604800.000000, -18.200001,  -74.690002,  118.580002, 0.000000,  0.000000 
 1083392.000000, -2.036292 , 2.593820, 3.160919, 1426625024.000000, 31.990000,  -67.199997,  122.779999, 0.000000,  0.000000 
 1102848.000000, -2.105684 , 2.845066, 3.019742, 1426645248.000000, 32.340000,  -54.320000,  108.570000, 0.000000,  0.000000 
 1122816.000000, -1.902294 , 2.426322, 2.062613, 1426664704.000000, 23.100000,  -34.580002,  94.989998, 0.000000,  0.000000 
 1142784.000000, -1.215554 , 2.672783, 0.777667, 1426684672.000000, 23.799999,  -21.070000,  86.730003, 0.000000,  0.000000 
 1163008.000000, -0.945165 , 2.268396, -1.765903, 1426704640.000000, 15.540000,  -8.190000,  75.110001, 0.000000,  0.000000 
 1183232.000000, -1.861616 , 1.483550, -2.739782, 1426724864.000000, -19.530001,  10.500000,  62.580002, 0.000000,  0.000000 
 1202688.000000, -3.840480 , 0.832702, -2.395216, 1426745088.000000, -99.959999,  43.119999,  38.500000, 0.000000,  0.000000 
 1222656.000000, -6.419943 , 0.672383, -1.885544, 1426764544.000000, -169.399994,  78.610001,  12.880000, 0.000000,  0.000000 
 1242624.000000, -7.865208 , 0.464208, -1.978864, 1426784512.000000, -198.169998,  122.500000,  -10.710000, 0.000000,  0.000000 
 1263104.000000, -7.745567 , -0.217747, -1.808974, 1426824960.000000, -142.380005,  167.649994,  -15.750000, 3688408320.000000,  1005.636475 
 1283328.000000, -8.743374 , -1.081556, -1.854438, 0.000000, 0.000000,  0.000000,  0.000000, 0.000000,  0.000000 
 1302528.000000, -10.755738 , -1.380659, -2.232504, 1426845184.000000, -89.879997,  206.990005,  -15.190001, 0.000000,  0.000000 
 1322496.000000, -12.892529 , -1.045663, -2.088934, 1426864384.000000, -45.570000,  251.580002,  -15.750000, 0.000000,  0.000000 
 1342720.000000, -14.440684 , -0.741775, -1.179662, 1426884352.000000, -13.020000,  288.540009,  -17.430000, 0.000000,  0.000000 
 1362944.000000, -15.507884 , -0.760918, -0.715454, 1426904576.000000, 22.680000,  313.320007,  -21.490000, 0.000000,  0.000000 
 1385216.000000, -17.685352 , -0.911665, -0.660419, 1426924800.000000, 66.500000,  331.380005,  -27.020000, 0.000000,  0.000000 
 1402624.000000, -19.496719 , -0.232104, 0.181855, 1426947072.000000, 97.930000,  355.390015,  -48.860001, 0.000000,  0.000000 
 1422592.000000, -20.719452 , -0.045464, -0.172283, 1426964480.000000, 104.160004,  372.399994,  -65.800003, 0.000000,  0.000000 
 1442560.000000, -22.925634 , -0.282353, 0.263210, 1426984448.000000, 101.570000,  379.679993,  -83.650002, 0.000000,  0.000000 
 1462784.000000, -24.902105 , -0.212961, 1.423729, 1427004416.000000, 103.809998,  394.730011,  -108.360001, 0.000000,  0.000000 
 1483008.000000, -25.591238 , 0.337388, 2.385644, 1427024640.000000, 132.089996,  394.519989,  -120.050003, 0.000000,  0.000000 
 1502464.000000, -27.311678 , 1.959722, 2.218147, 1427044864.000000, 186.619995,  371.279999,  -132.440002, 0.000000,  0.000000 
 1522432.000000, -27.538996 , 3.512664, 1.490728, 1427064320.000000, 221.130005,  349.160004,  -155.960007, 0.000000,  0.000000 
 1542400.000000, -25.804201 , 4.407579, 3.108276, 1427084288.000000, 204.050003,  315.279999,  -174.860001, 0.000000,  0.000000 
 1562880.000000, -24.100512 , 4.522435, 4.828716, 1427104256.000000, 169.190002,  268.730011,  -184.100006, 0.000000,  0.000000 
 1583104.000000, -22.547567 , 5.771489, 5.089533, 1427124736.000000, 167.860001,  215.809998,  -201.389999, 0.000000,  0.000000 
 1602560.000000, -19.872393 , 8.573483, 3.582055, 1427144960.000000, 185.570007,  166.740005,  -212.100006, 0.000000,  0.000000 
 1622528.000000, -16.912472 , 12.354142, 1.878366, 1427164416.000000, 184.449997,  96.739998,  -207.830002, 0.000000,  0.000000 
 1642496.000000, -13.706088 , 14.007583, 2.390430, 1427184384.000000, 141.050003,  41.580002,  -181.369995, 0.000000,  0.000000 
 1662720.000000, -11.114661 , 12.461821, 4.158726, 1427204352.000000, 46.200001,  14.910000,  -139.440002, 0.000000,  0.000000 
 1682944.000000, -11.021341 , 9.734003, 6.020342, 1427224576.000000, -83.370003,  25.059999,  -99.610001, 0.000000,  0.000000 
 1702400.000000, -12.332609 , 7.176075, 7.015756, 1427244800.000000, -183.680008,  55.720001,  -58.240002, 0.000000,  0.000000 
 1722368.000000, -12.691531 , 6.735795, 7.747960, 1427264256.000000, -193.830002,  58.869999,  -14.210000, 0.000000,  0.000000 
 1742336.000000, -12.220145 , 7.231110, 7.472785, 1427284224.000000, -129.149994,  16.240000,  23.309999, 0.000000,  0.000000 
 1762816.000000, -12.129218 , 6.431907, 5.639884, 1427304192.000000, -44.590000,  -31.360001,  57.330002, 0.000000,  0.000000 
 1783040.000000, -12.880564 , 4.728218, 3.522235, 1427324672.000000, 0.770000,  -61.529999,  84.279999, 0.000000,  0.000000 
 1802240.000000, -13.325629 , 3.598805, 2.871387, 1427344896.000000, 7.770000,  -76.790001,  107.099998, 0.000000,  0.000000 
 1822464.000000, -13.741980 , 3.651447, 2.876173, 1427364096.000000, 5.740000,  -99.680000,  128.449997, 0.000000,  0.000000 
 1842432.000000, -14.902499 , 4.271189, 2.596212, 1427384320.000000, 6.650000,  -125.300003,  144.270004, 0.000000,  0.000000 
 1862656.000000, -17.192430 , 4.723432, 2.201397, 1427404288.000000, 9.660000,  -135.660004,  161.419998, 0.000000,  0.000000 
 1882880.000000, -20.743380 , 4.601398, 1.619941, 1427424512.000000, 12.600000,  -146.930008,  170.940002, 0.000000,  0.000000 
 1902336.000000, -21.427727 , 4.811966, 1.631905, 1427444736.000000, 8.470000,  -148.119995,  185.570007, 0.000000,  0.000000 
 1922304.000000, -20.451456 , 5.288138, 1.548156, 1427464192.000000, -4.060000,  -168.910004,  212.800003, 0.000000,  0.000000 
 1942272.000000, -19.156939 , 5.862415, 1.610370, 1427484160.000000, -55.230000,  -215.040009,  246.050003, 0.000000,  0.000000 
 1962496.000000, -21.054445 , 3.165704, 3.163311, 1427504128.000000, -121.099998,  -240.729996,  252.839996, 0.000000,  0.000000 
 1982976.000000, -21.932610 , 2.325824, 3.244668, 1427524352.000000, -178.360001,  -257.179993,  223.300003, 0.000000,  0.000000 
 2002176.000000, -21.994827 , 2.885744, 2.514857, 1427544832.000000, -200.410004,  -280.839996,  188.509995, 0.000000,  0.000000 
 2022144.000000, -21.080769 , 1.830509, 1.667797, 1427564032.000000, -143.430008,  -306.459991,  187.110001, 0.000000,  0.000000 
 2042112.000000, -19.913069 , 0.509671, 0.813560, 1427584000.000000, -86.660004,  -314.649994,  170.100006, 0.000000,  0.000000 
 2062592.000000, -17.979670 , 0.799203, 0.586242, 1427603968.000000, -70.209999,  -303.519989,  153.860001, 0.000000,  0.000000 
 2082816.000000, -15.974483 , 0.275175, -2.103291, 1427624448.000000, -64.260002,  -290.290009,  144.619995, 0.000000,  0.000000 
 2102272.000000, -12.626925 , -0.794417, -3.969693, 1427644672.000000, -66.709999,  -271.809998,  133.419998, 0.000000,  0.000000 
 2122240.000000, -8.877372 , -1.016950, -3.649055, 1427664128.000000, -77.139999,  -261.239990,  110.529999, 0.000000,  0.000000 
 2142208.000000, -6.726225 , -0.564706, -2.057827, 1427684096.000000, -81.269997,  -246.750000,  75.949997, 0.000000,  0.000000 
 2162432.000000, -6.721439 , 0.110070, -1.811367, 1427704064.000000, -53.970001,  -214.339996,  43.400002, 0.000000,  0.000000 
 2182656.000000, -6.967900 , 0.416351, -2.615355, 1427724288.000000, -8.470000,  -174.369995,  27.510000, 0.000000,  0.000000 
 2202112.000000, -6.223732 , 0.557528, -3.675375, 1427744512.000000, 31.010000,  -137.339996,  29.260000, 0.000000,  0.000000 
 2222080.000000, -6.259624 , 1.332802, -4.744967, 1427763968.000000, 43.820000,  -111.160004,  28.070000, 0.000000,  0.000000 
 2242048.000000, -6.156733 , 1.545763, -6.460621, 1427783936.000000, 27.790001,  -77.629997,  23.730000, 0.000000,  0.000000 
 2262528.000000, -5.280960 , 0.289532, -7.121039, 1427803904.000000, -4.130000,  -44.520000,  14.630000, 0.000000,  0.000000 
 2282752.000000, -5.448457 , -0.485743, -6.053841, 1427824384.000000, -67.059998,  -15.120000,  -9.590000, 3689407744.000000,  1005.639343 
 2302208.000000, -8.178668 , -0.141177, -3.426522, 1427844608.000000, -122.360001,  34.230000,  -38.779999, 0.000000,  0.000000 
 2322176.000000, -11.289338 , 0.047856, -1.947758, 1427864064.000000, -141.539993,  100.519997,  -67.830002, 0.000000,  0.000000 
 2342144.000000, -11.356337 , 0.148355, -2.021935, 1427884032.000000, -118.510002,  158.199997,  -87.570000, 0.000000,  0.000000 
 2362368.000000, -10.889735 , 0.428315, -2.045863, 1427904000.000000, -69.790001,  193.479996,  -95.340004, 0.000000,  0.000000 
 2384640.000000, -12.224932 , 0.736989, -2.297110, 1427924224.000000, -13.510000,  229.040009,  -104.230003, 0.000000,  0.000000 
 2402048.000000, -14.469398 , 0.942772, -0.736989, 1427946496.000000, 25.969999,  272.230011,  -110.879997, 0.000000,  0.000000 
 2422016.000000, -15.969698 , 0.334995, -1.301696, 1427963904.000000, 59.290001,  305.339996,  -115.010002, 0.000000,  0.000000 
 2441984.000000, -16.285551 , 2.775674, -0.937986, 1427983872.000000, 122.849998,  312.130005,  -112.209999, 0.000000,  0.000000 
 2462208.000000, -16.359728 , 3.909872, -1.371087, 1428003840.000000, 179.690002,  291.760010,  -107.660004, 0.000000,  0.000000 
 2482688.000000, -16.235302 , 4.048656, -1.665405, 1428024064.000000, 200.059998,  271.880005,  -104.650002, 0.000000,  0.000000 
 2501888.000000, -17.307287 , 5.070391, -0.803988, 1428044544.000000, 169.330002,  262.360016,  -112.770004, 0.000000,  0.000000 
 2521856.000000, -18.984655 , 5.223531, 0.708275, 1428063744.000000, 117.529999,  269.079987,  -115.639999, 0.000000,  0.000000 
 2542080.000000, -20.128426 , 5.046463, 1.399801, 1428083712.000000, 54.389999,  276.640015,  -125.090004, 0.000000,  0.000000 
 2562304.000000, -21.176479 , 4.945964, 1.258625, 1428103936.000000, 3.990000,  273.070007,  -135.100006, 0.000000,  0.000000 
 2582528.000000, -21.035301 , 3.929015, 1.854438, 1428124160.000000, -36.680000,  268.869995,  -135.589996, 0.000000,  0.000000 
 2601984.000000, -21.131016 , 4.127619, 2.263610, 1428144384.000000, -101.919998,  263.339996,  -127.750000, 0.000000,  0.000000 
 2621952.000000, -19.738392 , 3.711268, 2.737389, 1428163840.000000, -135.029999,  260.329987,  -104.440002, 0.000000,  0.000000 
 2641920.000000, -17.553747 , 3.103491, 3.974478, 1428183808.000000, -141.539993,  242.199997,  -84.070000, 0.000000,  0.000000 
 2662144.000000, -15.976876 , 3.426522, 5.479564, 1428203776.000000, -147.210007,  218.750000,  -67.690002, 0.000000,  0.000000 
 2682368.000000, -15.371492 , 3.536592, 7.283752, 1428224000.000000, -140.490005,  206.220001,  -49.070000, 0.000000,  0.000000 
 2701824.000000, -14.682359 , 3.538985, 8.173882, 1428244224.000000, -111.650002,  194.389999,  -34.439999, 0.000000,  0.000000 
 2721792.000000, -13.663017 , 4.177868, 7.968100, 1428263680.000000, -63.770000,  166.809998,  -20.510000, 0.000000,  0.000000 
 2741760.000000, -13.737194 , 4.852644, 8.262416, 1428283648.000000, -15.050000,  127.610001,  -3.850000, 0.000000,  0.000000 
 2762240.000000, -13.952549 , 5.402994, 9.011370, 1428303616.000000, 13.160000,  95.199997,  4.830000, 0.000000,  0.000000 
 2782464.000000, -13.926227 , 5.127820, 8.673983, 1428324096.000000, 18.059999,  56.490002,  14.420000, 0.000000,  0.000000 
 2801920.000000, -13.672589 , 4.371687, 6.788438, 1428344320.000000, 16.870001,  11.480000,  26.040001, 0.000000,  0.000000 
 2821888.000000, -11.710474 , 3.543770, 5.510671, 1428363776.000000, 9.800000,  -36.820000,  33.670002, 0.000000,  0.000000 
 2841856.000000, -10.167104 , 3.117848, 4.883751, 1428383744.000000, -1.540000,  -95.410004,  39.060001, 0.000000,  0.000000 
 2862080.000000, -10.846665 , 2.356930, 4.474578, 1428403712.000000, -9.940000,  -140.910004,  35.700001, 0.000000,  0.000000 
 2882304.000000, -13.787444 , 1.579263, 4.063013, 1428423936.000000, -15.330000,  -160.649994,  30.380001, 0.000000,  0.000000 
 2901760.000000, -16.843079 , 0.803988, 3.151347, 1428444160.000000, -6.370000,  -164.009995,  30.309999, 0.000000,  0.000000 
 2921728.000000, -16.962721 , 0.598206, 1.780260, 1428463616.000000, 25.200001,  -172.830002,  42.770000, 0.000000,  0.000000 
 2941696.000000, -14.340185 , 1.507478, 1.383051, 1428483584.000000, 65.800003,  -215.110001,  62.650002, 0.000000,  0.000000 
 2961920.000000, -13.406984 , 2.964707, 0.904487, 1428503552.000000, 93.590004,  -264.950012,  91.769997, 0.000000,  0.000000 
 2982400.000000, -13.136597 , 3.206382, 0.131605, 1428523776.000000, 90.370003,  -277.339996,  104.930000, 0.000000,  0.000000 
 3001600.000000, -12.703495 , 2.624927, 0.614955, 1428544256.000000, 42.630001,  -281.470001,  97.790001, 0.000000,  0.000000 
 3021568.000000, -13.603197 , 3.340380, 2.079363, 1428563456.000000, -36.750000,  -284.200012,  76.440002, 0.000000,  0.000000 
 3041792.000000, -15.924235 , 3.199204, 1.871187, 1428583424.000000, -97.370003,  -275.100006,  59.080002, 0.000000,  0.000000 
 3062016.000000, -17.079967 , 0.593420, 2.440679, 1428603648.000000, -115.080002,  -252.559998,  54.529999, 0.000000,  0.000000 
 3082240.000000, -16.960327 , 1.395016, 5.082355, 1428623872.000000, -106.959999,  -229.389999,  55.299999, 0.000000,  0.000000 
 3101696.000000, -17.154144 , 2.318645, 2.120041, 1428644096.000000, -44.450001,  -223.229996,  79.099998, 0.000000,  0.000000 
 3121664.000000, -15.993626 , 2.866602, -2.057827, 1428663552.000000, 56.770000,  -212.169998,  111.090004, 0.000000,  0.000000 
 3141632.000000, -13.505091 , 3.701697, -4.029513, 1428683520.000000, 88.059998,  -204.330002,  126.840004, 0.000000,  0.000000 
 3161856.000000, -11.557333 , 3.242275, -3.572484, 1428703488.000000, 50.820000,  -204.539993,  131.250000, 0.000000,  0.000000 
 3182080.000000, -9.767502 , 3.462414, -3.565305, 1428723712.000000, -47.040001,  -189.000000,  104.720001, 0.000000,  0.000000 
 3201536.000000, -7.264609 , 1.825724, -2.986243, 1428743936.000000, -127.540001,  -172.899994,  66.779999, 0.000000,  0.000000 
 3221760.000000, -7.233503 , 0.296710, -0.354138, 1428763392.000000, -189.839996,  -162.750000,  21.559999, 0.000000,  0.000000 
 3242240.000000, -11.045268 , 0.239282, -1.083949, 1428783616.000000, -212.100006,  -120.050003,  -6.510000, 0.000000,  0.000000 
 3261952.000000, -12.710674 , 1.186840, -6.010770, 1428804096.000000, -140.000000,  -64.889999,  5.320000, 0.000000,  0.000000 
 3282176.000000, -9.714860 , 1.414158, -8.645268, 1428823808.000000, -44.590000,  -52.009998,  25.480000, 3690407168.000000,  1005.646423 
 3301632.000000, -6.525227 , 1.478764, -7.554141, 1428844032.000000, -38.080002,  -63.560001,  10.220000, 0.000000,  0.000000 
 3322624.000000, -7.735995 , 1.227518, -4.469792, 1428863488.000000, -91.419998,  -34.650002,  -18.760000, 0.000000,  0.000000 
 3342592.000000, -11.485549 , 0.394816, -2.914458, 1428884480.000000, -129.220001,  45.220001,  -48.790001, 0.000000,  0.000000 
 3362816.000000, -11.186446 , -0.086142, -2.526821, 1428904448.000000, -104.230003,  117.180000,  -49.209999, 0.000000,  0.000000 
 3385088.000000, -9.382257 , 1.201197, -2.864209, 1428924672.000000, -25.059999,  138.320007,  -19.670000, 0.000000,  0.000000 
 3402496.000000, -10.193424 , 1.928615, -2.935993, 1428946944.000000, 62.299999,  149.940002,  1.330000, 0.000000,  0.000000 
 3422976.000000, -12.308680 , 1.131805, -2.184647, 1428964352.000000, 86.730003,  188.020004,  -7.770000, 0.000000,  0.000000 
 3442944.000000, -13.392628 , 0.504886, -1.287339, 1428984832.000000, 76.790001,  219.240005,  -25.480000, 0.000000,  0.000000 
 3463168.000000, -12.631711 , 0.643669, -0.679562, 1429004800.000000, 81.690002,  223.229996,  -37.730000, 0.000000,  0.000000 
 3483392.000000, -11.698510 , 1.196411, 0.205783, 1429025024.000000, 105.629997,  209.860001,  -47.950001, 0.000000,  0.000000 
 3502848.000000, -12.244074 , 1.354338, 0.504886, 1429045248.000000, 133.490005,  204.820007,  -63.700001, 0.000000,  0.000000 
 3523072.000000, -13.871193 , 2.103291, 0.547956, 1429064704.000000, 155.889999,  217.699997,  -80.989998, 0.000000,  0.000000 
 3543040.000000, -15.304493 , 2.825923, 0.787239, 1429084928.000000, 156.660004,  230.440002,  -90.720001, 0.000000,  0.000000 
 3563264.000000, -16.417156 , 2.904887, 0.710668, 1429104896.000000, 140.979996,  234.080002,  -94.849998, 0.000000,  0.000000 
 3583744.000000, -17.355143 , 3.476771, 1.368695, 1429125120.000000, 117.320000,  231.350006,  -96.180000, 0.000000,  0.000000 
 3603200.000000, -17.079967 , 4.402793, 1.988436, 1429145600.000000, 85.330002,  236.110001,  -93.239998, 0.000000,  0.000000 
 3622912.000000, -16.654045 , 4.424329, 2.969493, 1429165056.000000, 41.230000,  236.529999,  -84.559998, 0.000000,  0.000000 
 3644160.000000, -17.024933 , 3.883551, 4.271189, 1429184768.000000, -10.990000,  243.809998,  -83.370003, 0.000000,  0.000000 
 3664384.000000, -17.044075 , 3.639483, 5.601598, 1429206016.000000, -42.700001,  248.919998,  -84.699997, 0.000000,  0.000000 
 3684864.000000, -16.364515 , 4.003192, 6.891330, 1429226240.000000, -32.549999,  234.500000,  -74.900002, 0.000000,  0.000000 
 3704064.000000, -15.347565 , 4.833502, 7.920243, 1429246720.000000, 13.930000,  203.350006,  -60.970001, 0.000000,  0.000000 
 3724032.000000, -13.447663 , 5.680561, 7.585248, 1429265920.000000, 72.309998,  162.399994,  -50.189999, 0.000000,  0.000000 
 3744000.000000, -12.564712 , 6.400801, 6.702296, 1429285888.000000, 119.910004,  108.500000,  -42.139999, 0.000000,  0.000000 
 3764480.000000, -13.110275 , 7.590034, 6.860222, 1429305856.000000, 139.160004,  63.770000,  -38.709999, 0.000000,  0.000000 
 3784704.000000, -12.571891 , 8.216952, 7.439285, 1429326336.000000, 127.889999,  35.000000,  -31.920000, 0.000000,  0.000000 
 3804160.000000, -12.351749 , 7.879565, 7.709675, 1429346560.000000, 103.949997,  -4.130000,  -20.440001, 0.000000,  0.000000 
 3824128.000000, -13.545769 , 7.123433, 6.434300, 1429366016.000000, 83.790001,  -29.680000,  -1.330000, 0.000000,  0.000000 
 3844096.000000, -14.021940 , 6.051448, 4.802395, 1429385984.000000, 73.849998,  -44.939999,  30.450001, 0.000000,  0.000000 
 3864320.000000, -13.086348 , 5.441278, 4.132405, 1429405952.000000, 51.660000,  -73.360001,  60.689999, 0.000000,  0.000000 
 3884544.000000, -12.815958 , 4.644469, 3.345166, 1429426176.000000, 23.590000,  -112.000000,  92.050003, 0.000000,  0.000000 
 3904000.000000, -14.194223 , 3.960121, 2.933600, 1429446400.000000, -4.970000,  -141.960007,  105.840004, 0.000000,  0.000000 
 3923968.000000, -16.697117 , 3.522235, 2.392823, 1429465856.000000, -33.810001,  -155.259995,  110.599998, 0.000000,  0.000000 
 3943936.000000, -18.632910 , 2.868994, 1.820938, 1429485824.000000, -47.880001,  -161.699997,  118.580002, 0.000000,  0.000000 
 3964672.000000, -18.135202 , 2.754139, 1.282553, 1429505792.000000, -59.290001,  -177.029999,  127.330002, 0.000000,  0.000000 
 3984640.000000, -16.594225 , 3.062813, 0.607777, 1429546496.000000, -72.590004,  -238.630005,  142.589996, 0.000000,  0.000000 
 4004096.000000, -16.156338 , 2.730211, -0.289532, 0.000000, 0.000000,  0.000000,  0.000000, 0.000000,  0.000000 
 4024064.000000, -16.074982 , 3.134598, -0.047856, 1429565952.000000, -100.169998,  -250.250000,  130.899994, 0.000000,  0.000000 
 4044032.000000, -15.639489 , 3.500700, 0.028714, 1429585920.000000, -138.949997,  -260.820007,  117.040001, 0.000000,  0.000000 
 4064256.000000, -15.115460 , 2.289931, -0.169890, 1429605888.000000, -168.979996,  -275.589996,  108.010002, 0.000000,  0.000000 
 4084480.000000, -14.900107 , 0.993021, -0.294317, 1429626112.000000, -196.699997,  -285.179993,  90.300003, 0.000000,  0.000000 
 4103936.000000, -14.792429 , 0.026321, -0.150748, 1429646336.000000, -204.119995,  -282.100006,  77.349998, 0.000000,  0.000000 
 4123904.000000, -14.153545 , -0.509671, -0.538385, 1429665792.000000, -186.199997,  -270.690002,  64.190002, 0.000000,  0.000000 
 4143872.000000, -11.968900 , -0.215354, -1.493121, 1429685760.000000, -152.110001,  -257.390015,  50.889999, 0.000000,  0.000000 
 4164096.000000, -9.044869 , -0.076570, -2.907279, 1429705728.000000, -110.669998,  -245.910004,  44.869999, 0.000000,  0.000000 
 4184576.000000, -6.372087 , -0.131605, -3.390630, 1429725952.000000, -83.720001,  -231.350006,  39.060001, 0.000000,  0.000000 
 4203776.000000, -4.744967 , 0.296710, -2.718246, 1429765632.000000, -64.470001,  -150.289993,  21.000000, 0.000000,  0.000000 
 4223744.000000, -4.445865 , 0.308674, -1.531406, 0.000000, 0.000000,  0.000000,  0.000000, 0.000000,  0.000000 
 4243712.000000, -5.204390 , -0.055035, -0.741775, 1429785600.000000, -48.020000,  -94.290001,  13.580000, 0.000000,  0.000000 
 4264192.000000, -6.999006 , 0.167498, -0.983450, 1429826048.000000, -9.660000,  0.980000,  21.770000, 3691409408.000000,  1005.651917 
 4284416.000000, -8.997013 , 0.574277, -1.579263, 0.000000, 0.000000,  0.000000,  0.000000, 0.000000,  0.000000 
 4303616.000000, -10.059426 , 0.720240, -3.443272, 1429846272.000000, 30.030001,  21.559999,  27.650000, 0.000000,  0.000000 
 4323840.000000, -10.181459 , 0.131605, -4.780859, 1429865472.000000, 51.520000,  48.160000,  38.990002, 0.000000,  0.000000 
 4343808.000000, -10.104890 , 0.035892, -4.768896, 1429885696.000000, 38.150002,  59.430000,  44.240002, 0.000000,  0.000000 
 4364032.000000, -10.779665 , -0.155533, -2.294717, 1429905664.000000, -3.360000,  81.760002,  35.630001, 0.000000,  0.000000 
 4386816.000000, -12.275180 , -0.177069, -1.103091, 1429925888.000000, -40.670002,  117.739998,  22.680000, 0.000000,  0.000000 
 4403712.000000, -13.971692 , -0.483350, -0.172283, 1429948672.000000, -57.610001,  176.820007,  -4.060000, 0.000000,  0.000000 
 4423680.000000, -12.303895 , -0.679562, -0.028714, 1429965568.000000, -24.219999,  212.520004,  -16.030001, 0.000000,  0.000000 
 4443648.000000, -12.086146 , 0.272782, 0.535992, 1429985536.000000, 39.759998,  220.220001,  -20.860001, 0.000000,  0.000000 
 4464128.000000, -14.624931 , 1.426122, 2.301895, 1430005504.000000, 93.379997,  247.729996,  -36.330002, 0.000000,  0.000000 
 4484352.000000, -15.866807 , 1.677369, 2.333002, 1430025984.000000, 140.139999,  279.579987,  -48.650002, 0.000000,  0.000000 
 4503552.000000, -14.780465 , 1.868794, 0.562313, 1430046208.000000, 206.779999,  272.160004,  -48.230000, 0.000000,  0.000000 
 4523520.000000, -13.165311 , 2.352145, -0.368495, 1430065408.000000, 271.110016,  233.100006,  -50.750000, 0.000000,  0.000000 
 4543488.000000, -12.423534 , 3.799802, -0.514457, 1430085376.000000, 265.089996,  194.740005,  -65.099998, 0.000000,  0.000000 
 4563968.000000, -12.782458 , 4.847858, -0.200997, 1430105344.000000, 204.259995,  178.990005,  -76.230003, 0.000000,  0.000000 
 4584192.000000, -13.684553 , 4.680361, 0.667598, 1430125824.000000, 117.809998,  181.369995,  -92.330002, 0.000000,  0.000000 
 4603648.000000, -14.878571 , 3.972085, 1.674976, 1430146048.000000, 18.410000,  194.320007,  -109.199997, 0.000000,  0.000000 
 4623616.000000, -16.046268 , 3.538985, 1.682154, 1430165504.000000, -59.779999,  212.240005,  -117.320000, 0.000000,  0.000000 
 4643584.000000, -16.237694 , 2.634498, 1.820938, 1430185472.000000, -98.419998,  224.210007,  -111.230003, 0.000000,  0.000000 
 4663808.000000, -15.704096 , 2.127219, 3.266203, 1430205440.000000, -113.050003,  228.339996,  -94.779999, 0.000000,  0.000000 
 4684032.000000, -15.534204 , 2.548356, 5.182854, 1430225664.000000, -111.790001,  226.729996,  -73.220001, 0.000000,  0.000000 
 4703488.000000, -15.270994 , 2.744568, 6.865008, 1430245888.000000, -85.889999,  227.360001,  -56.209999, 0.000000,  0.000000 
 4723456.000000, -14.624931 , 3.249453, 8.439486, 1430265344.000000, -32.970001,  219.309998,  -44.660000, 0.000000,  0.000000 
 4743424.000000, -14.043476 , 4.146761, 9.131011, 1430285312.000000, 55.230000,  193.830002,  -35.700001, 0.000000,  0.000000 
 4763904.000000, -13.392628 , 5.615955, 7.228717, 1430305280.000000, 172.130005,  153.649994,  -25.760000, 0.000000,  0.000000 
 4784128.000000, -11.696117 , 7.147361, 4.845466, 1430325760.000000, 265.019989,  94.779999,  -15.890000, 0.000000,  0.000000 
 4803584.000000, -10.375278 , 8.446664, 3.864408, 1430345984.000000, 271.250000,  24.430000,  -2.940000, 0.000000,  0.000000 
 4823552.000000, -10.497313 , 8.762517, 4.302295, 1430365440.000000, 198.869995,  -18.200001,  3.780000, 0.000000,  0.000000 
 4843520.000000, -12.725031 , 7.680960, 5.508278, 1430385408.000000, 95.480003,  -33.599998,  12.110000, 0.000000,  0.000000 
 4863744.000000, -15.328422 , 6.183054, 5.905487, 1430405376.000000, 19.600000,  -35.910000,  15.960000, 0.000000,  0.000000 
 4883968.000000, -16.967505 , 4.326223, 4.548756, 1430425600.000000, -6.440000,  -45.920002,  35.910000, 0.000000,  0.000000 
 4903424.000000, -16.165909 , 3.163311, 3.235096, 1430445824.000000, -1.330000,  -71.330002,  64.959999, 0.000000,  0.000000 
 4923392.000000, -14.663218 , 2.562713, 2.550749, 1430465280.000000, 3.080000,  -113.959999,  102.620003, 0.000000,  0.000000 
 4943360.000000, -14.971891 , 2.555535, 1.885544, 1430485248.000000, -5.040000,  -146.089996,  131.389999, 0.000000,  0.000000 
 4963584.000000, -17.194822 , 2.572284, 1.517050, 1430505216.000000, -12.460000,  -158.130005,  143.919998, 0.000000,  0.000000 
 4984064.000000, -19.429720 , 1.897508, 1.600798, 1430525440.000000, -23.870001,  -160.509995,  144.759995, 0.000000,  0.000000 
 5003264.000000, -19.077974 , 1.268196, 0.971486, 1430545920.000000, -54.459999,  -170.520004,  140.910004, 0.000000,  0.000000 
 5023232.000000, -16.878971 , 0.705883, -0.033500, 1430565120.000000, -78.889999,  -203.210007,  144.130005, 0.000000,  0.000000 
 5043200.000000, -15.357137 , 0.466600, -0.636491, 1430585088.000000, -94.639999,  -239.889999,  144.270004, 0.000000,  0.000000 
 5063680.000000, -14.402400 , 0.267996, -0.892523, 1430605056.000000, -113.750000,  -260.959991,  128.100006, 0.000000,  0.000000 
 5083904.000000, -13.792230 , 0.023928, -0.952343, 1430625536.000000, -134.889999,  -276.920013,  102.059998, 0.000000,  0.000000 
 5103360.000000, -13.227524 , -0.586242, -0.813560, 1430645760.000000, -153.089996,  -286.160004,  71.400002, 0.000000,  0.000000 
 5123328.000000, -12.916457 , -1.146162, -0.461815, 1430665216.000000, -165.830002,  -286.299988,  45.009998, 0.000000,  0.000000 
 5143296.000000, -12.693924 , -1.605584, -0.184247, 1430685184.000000, -163.449997,  -275.730011,  24.990000, 0.000000,  0.000000 
 5163520.000000, -12.145968 , -1.875973, -0.004786, 1430705152.000000, -139.649994,  -259.350006,  15.820000, 0.000000,  0.000000 
 5183744.000000, -10.863414 , -1.686940, -1.414158, 1430725376.000000, -101.849998,  -241.149994,  15.400000, 0.000000,  0.000000 
 5203200.000000, -8.520842 , -0.751346, -2.333002, 1430745600.000000, -58.240002,  -224.070007,  22.820000, 0.000000,  0.000000 
 5223168.000000, -6.001199 , 0.062213, -2.986243, 1430765056.000000, -31.080000,  -211.050003,  31.080000, 0.000000,  0.000000 
 5244928.000000, -4.699504 , 0.660419, -2.780460, 1430785024.000000, -29.260000,  -190.610001,  31.150000, 0.000000,  0.000000 
 5264384.000000, -4.989035 , 0.495314, -2.258825, 1430826240.000000, -91.840004,  -92.400002,  9.590000, 3692409856.000000,  1005.654358 
 5284608.000000, -5.517848 , 0.026321, -1.983650, 0.000000, 0.000000,  0.000000,  0.000000, 0.000000,  0.000000 
 5304064.000000, -5.864808 , -0.232104, -1.521835, 1430846464.000000, -115.709999,  -51.590000,  1.960000, 0.000000,  0.000000 
 5324032.000000, -7.070791 , -0.282353, -0.646062, 1430865920.000000, -110.949997,  -16.730000,  -2.380000, 0.000000,  0.000000 
 5344512.000000, -8.678767 , -0.284746, -0.569492, 1430885888.000000, -79.029999,  28.559999,  -5.740000, 0.000000,  0.000000 
 5364736.000000, -9.822537 , -0.244068, -1.854438, 1430926592.000000, 19.110001,  93.309998,  12.180000, 0.000000,  0.000000 
 5387008.000000, -11.081161 , 0.119641, -2.079363, 0.000000, 0.000000,  0.000000,  0.000000, 0.000000,  0.000000 
 5404416.000000, -12.423534 , -0.050249, -1.009771, 1430948864.000000, 45.639999,  131.180008,  16.520000, 0.000000,  0.000000 
 5424384.000000, -13.818550 , -0.124427, 0.028714, 1430966272.000000, 58.170002,  166.110001,  12.880000, 0.000000,  0.000000 
 5444864.000000, -14.026726 , 0.181855, 0.701097, 1430986240.000000, 73.919998,  201.320007,  6.790000, 0.000000,  0.000000 
 5465088.000000, -13.832907 , 0.468993, 1.191626, 1431006720.000000, 102.410004,  223.580002,  2.100000, 0.000000,  0.000000 
 5485312.000000, -14.742181 , 0.619741, 1.552942, 1431026944.000000, 134.960007,  240.869995,  -11.550000, 0.000000,  0.000000 
 5504768.000000, -16.362122 , 0.600598, 1.521835, 1431047168.000000, 171.360001,  259.559998,  -26.180000, 0.000000,  0.000000 
 5524736.000000, -16.740189 , 1.002593, 1.603191, 1431066624.000000, 208.529999,  266.559998,  -37.939999, 0.000000,  0.000000 
 5544448.000000, -15.294923 , 1.938186, 1.289732, 1431086592.000000, 234.919998,  243.250000,  -50.119999, 0.000000,  0.000000 
 5566208.000000, -14.043476 , 3.352344, 0.705883, 1431106304.000000, 258.019989,  200.899994,  -61.459999, 0.000000,  0.000000 
 5586432.000000, -13.258631 , 5.386244, 0.272782, 1431128064.000000, 262.429993,  159.180008,  -82.809998, 0.000000,  0.000000 
 5605888.000000, -12.105289 , 6.470192, -0.057428, 1431148288.000000, 224.000000,  123.480003,  -104.930000, 0.000000,  0.000000 
 5625856.000000, -10.782058 , 6.147161, 0.253639, 1431167744.000000, 126.980003,  99.330002,  -118.020004, 0.000000,  0.000000 
 5645824.000000, -10.470992 , 4.718646, 0.911665, 1431187712.000000, -10.150000,  99.470001,  -124.320000, 0.000000,  0.000000 
 5666048.000000, -10.995021 , 3.065206, 1.509871, 1431207680.000000, -134.960007,  123.270004,  -124.809998, 0.000000,  0.000000 
 5686272.000000, -11.495120 , 1.744368, 2.301895, 1431227904.000000, -216.369995,  151.970001,  -118.090004, 0.000000,  0.000000 
 5705728.000000, -11.799009 , 1.060020, 3.134598, 1431248128.000000, -244.509995,  172.830002,  -102.059998, 0.000000,  0.000000 
 5725696.000000, -12.007183 , 0.674776, 4.024727, 1431267584.000000, -225.399994,  186.690002,  -73.150002, 0.000000,  0.000000 
 5745920.000000, -12.452249 , 0.837488, 5.206782, 1431287552.000000, -173.460007,  197.050003,  -40.880001, 0.000000,  0.000000 
 5765888.000000, -12.631711 , 1.507478, 6.379266, 1431307776.000000, -99.260002,  202.160004,  -12.250000, 0.000000,  0.000000 
 5786368.000000, -12.521641 , 2.629712, 7.489535, 1431327744.000000, -14.210000,  193.970001,  7.350000, 0.000000,  0.000000 
 5805824.000000, -12.961920 , 4.041477, 8.214561, 1431348224.000000, 66.500000,  174.229996,  15.610000, 0.000000,  0.000000 
 5825792.000000, -13.246667 , 5.273781, 7.109076, 1431367680.000000, 136.850006,  146.720001,  17.780001, 0.000000,  0.000000 
 5845760.000000, -12.409179 , 6.649654, 5.015356, 1431387648.000000, 191.729996,  96.739998,  21.490000, 0.000000,  0.000000 
 5865984.000000, -11.590833 , 7.925028, 3.725625, 1431407616.000000, 195.229996,  28.490000,  26.809999, 0.000000,  0.000000 
 5886208.000000, -12.076575 , 8.063812, 3.778267, 1431427840.000000, 122.500000,  -25.830000,  26.320000, 0.000000,  0.000000 
 5905664.000000, -14.045869 , 6.441479, 4.768896, 1431448064.000000, 6.860000,  -52.009998,  20.790001, 0.000000,  0.000000 
 5925632.000000, -15.988840 , 4.084548, 4.823930, 1431467520.000000, -91.279999,  -62.090000,  13.440001, 0.000000,  0.000000 
 5945600.000000, -16.474585 , 2.242075, 3.952943, 1431487488.000000, -127.750000,  -81.550003,  16.379999, 0.000000,  0.000000 
 5965824.000000, -15.024533 , 1.526621, 3.093920, 1431507456.000000, -109.900002,  -114.449997,  33.950001, 0.000000,  0.000000 
 5986304.000000, -13.971692 , 1.462015, 2.596212, 1431527680.000000, -66.779999,  -157.009995,  56.840000, 0.000000,  0.000000 
 6005504.000000, -14.517255 , 1.629512, 2.258825, 1431548160.000000, -31.010000,  -179.270004,  69.510002, 0.000000,  0.000000 
 6025472.000000, -15.948163 , 1.840081, 1.950150, 1431567360.000000, -8.050000,  -184.520004,  72.239998, 0.000000,  0.000000 
 6045696.000000, -17.333607 , 1.768296, 1.497907, 1431587328.000000, 11.270000,  -187.250000,  74.410004, 0.000000,  0.000000 
 6065920.000000, -16.986649 , 2.225325, 1.076770, 1431607552.000000, 26.460001,  -192.289993,  78.959999, 0.000000,  0.000000 
 6086144.000000, -14.895321 , 2.689533, 0.624527, 1431627776.000000, 33.110001,  -210.910004,  88.480003, 0.000000,  0.000000 
 6105600.000000, -13.596018 , 2.845066, 0.315853, 1431648000.000000, 32.060001,  -236.949997,  95.830002, 0.000000,  0.000000 
 6125568.000000, -13.048061 , 2.612962, 0.043071, 1431667456.000000, 10.500000,  -247.589996,  90.300003, 0.000000,  0.000000 
 6145536.000000, -12.413965 , 1.914258, 0.320638, 1431687424.000000, -21.629999,  -248.639999,  82.879997, 0.000000,  0.000000 
 6165760.000000, -12.033505 , 1.098306, 0.303888, 1431707392.000000, -52.849998,  -248.710007,  73.430000, 0.000000,  0.000000 
 6185984.000000, -12.026326 , 0.220140, 0.327817, 1431727616.000000, -65.309998,  -242.970001,  69.160004, 0.000000,  0.000000 
 6205440.000000, -12.057433 , -0.339781, 0.174676, 1431747840.000000, -63.910000,  -228.479996,  66.849998, 0.000000,  0.000000 
 6225408.000000, -11.825329 , -0.428315, 0.275175, 1431767296.000000, -52.849998,  -210.699997,  68.389999, 0.000000,  0.000000 
 6245376.000000, -10.980663 , -0.500100, 0.136391, 1431787264.000000, -38.080002,  -194.740005,  71.959999, 0.000000,  0.000000 
 6265856.000000, -9.889536 , -0.196211, -1.476372, 1431807232.000000, -22.820000,  -187.039993,  76.370003, 0.000000,  0.000000 
 6286080.000000, -8.027920 , 0.612563, -3.897908, 1431827712.000000, -18.900000,  -179.970001,  75.599998, 3693411072.000000,  1005.657043 
 6305280.000000, -5.848059 , 1.021735, -4.146761, 1431847936.000000, -40.880001,  -171.220001,  72.590004, 0.000000,  0.000000 
 6325248.000000, -4.785645 , 0.430708, -2.790031, 1431867136.000000, -100.239998,  -151.339996,  57.400002, 0.000000,  0.000000 
 6345216.000000, -6.008378 , -0.461815, -1.356731, 1431887104.000000, -175.559998,  -107.099998,  24.570000, 0.000000,  0.000000 
 6365696.000000, -8.410772 , -0.457029, -0.330210, 1431907072.000000, -212.169998,  -49.770000,  -5.880000, 0.000000,  0.000000 
 6387968.000000, -9.626326 , -0.351745, -0.772882, 1431927552.000000, -191.380005,  -1.190000,  -21.210001, 0.000000,  0.000000 
 6405376.000000, -9.659825 , -0.605384, -2.577070, 1431949824.000000, -129.919998,  21.700001,  -21.139999, 0.000000,  0.000000 
 6425344.000000, -10.858629 , -0.325424, -3.675375, 1431967232.000000, -66.290001,  36.889999,  -13.230000, 0.000000,  0.000000 
 6445312.000000, -12.466606 , 0.026321, -3.014957, 1431987200.000000, -24.570000,  80.430000,  -12.390000, 0.000000,  0.000000 
 6465536.000000, -13.306486 , 0.397209, -1.351945, 1432007168.000000, -3.080000,  130.130005,  -13.720000, 0.000000,  0.000000 
 6485760.000000, -12.318252 , 0.275175, -0.208176, 1432027392.000000, 15.260000,  165.550003,  -18.549999, 0.000000,  0.000000 
 6505216.000000, -12.196217 , 0.368495, 0.406780, 1432047616.000000, 46.410000,  192.220001,  -20.020000, 0.000000,  0.000000 
 6525184.000000, -13.263416 , 0.337388, 0.038285, 1432067072.000000, 83.860001,  226.380005,  -25.480000, 0.000000,  0.000000 
 6545152.000000, -14.916857 , -0.064606, 0.526421, 1432087040.000000, 124.599998,  257.459991,  -27.860001, 0.000000,  0.000000 
 6565632.000000, -15.890735 , 0.244068, 0.830309, 1432107008.000000, 172.270004,  277.410004,  -28.490000, 0.000000,  0.000000 
 6585856.000000, -14.816358 , 0.973879, 0.768096, 1432127488.000000, 234.290009,  271.880005,  -29.469999, 0.000000,  0.000000 
 6605056.000000, -13.339987 , 2.203789, 0.234497, 1432147712.000000, 297.920013,  238.770004,  -37.029999, 0.000000,  0.000000 
 6625280.000000, -12.256038 , 3.938586, -0.512064, 1432166912.000000, 339.850006,  198.940002,  -57.189999, 0.000000,  0.000000 
 6645248.000000, -11.715261 , 5.505885, -0.602991, 1432187136.000000, 333.480011,  164.149994,  -83.580002, 0.000000,  0.000000 
 6665472.000000, -12.136396 , 6.180661, -0.239282, 1432207104.000000, 266.910004,  139.649994,  -111.930000, 0.000000,  0.000000 
 6685696.000000, -12.892529 , 5.410172, 0.256032, 1432227328.000000, 148.119995,  132.860001,  -135.589996, 0.000000,  0.000000 
 6705152.000000, -13.502698 , 4.053442, 0.679562, 1432247552.000000, 81.550003,  133.559998,  -148.539993, 0.000000,  0.000000 
 6725120.000000, -14.270795 , 3.431308, 1.567299, 1432267008.000000, -37.590000,  135.589996,  -149.940002, 0.000000,  0.000000 
 6745088.000000, -14.519648 , 2.971886, 2.287539, 1432286976.000000, -118.440002,  142.729996,  -144.270004, 0.000000,  0.000000 
 6765312.000000, -14.318651 , 2.605784, 2.636890, 1432306944.000000, -163.869995,  151.130005,  -126.279999, 0.000000,  0.000000 
 6785792.000000, -14.088940 , 2.462214, 2.871387, 1432327168.000000, -184.660004,  161.419998,  -102.410004, 0.000000,  0.000000 
 6804992.000000, -13.385449 , 2.385644, 3.687340, 1432347648.000000, -184.589996,  167.020004,  -77.000000, 0.000000,  0.000000 
 6824960.000000, -12.607781 , 2.629712, 4.630112, 1432366848.000000, -174.300003,  168.139999,  -57.540001, 0.000000,  0.000000 
 6844928.000000, -12.315859 , 2.574677, 6.417551, 1432386816.000000, -155.750000,  163.449997,  -43.400002, 0.000000,  0.000000 
 6865408.000000, -12.433105 , 2.639283, 8.037491, 1432406784.000000, -121.239998,  154.910004,  -36.820000, 0.000000,  0.000000 
 6885632.000000, -12.181859 , 3.153740, 7.767102, 1432427264.000000, -50.470001,  134.960007,  -28.210001, 0.000000,  0.000000 
 6905088.000000, -12.186646 , 4.453043, 6.699903, 1432447488.000000, 51.520000,  94.779999,  -13.510000, 0.000000,  0.000000 
 6925056.000000, -12.674782 , 6.821937, 5.391029, 1432466944.000000, 132.229996,  44.590000,  -0.770000, 0.000000,  0.000000 
 6945024.000000, -12.602997 , 8.353344, 4.474578, 1432486912.000000, 154.419998,  -4.130000,  12.950000, 0.000000,  0.000000 
 6965504.000000, -13.182060 , 7.860423, 4.173083, 1432506880.000000, 109.410004,  -48.020000,  23.100000, 0.000000,  0.000000 
 6985472.000000, -13.852050 , 5.625526, 3.510271, 1432527360.000000, 25.830000,  -72.730003,  27.510000, 0.000000,  0.000000 
 7004928.000000, -13.447663 , 3.948158, 2.833102, 1432547328.000000, -44.730000,  -95.480003,  35.980000, 0.000000,  0.000000 
 7024896.000000, -13.098311 , 3.086741, 2.620141, 1432566784.000000, -84.000000,  -127.820000,  47.740002, 0.000000,  0.000000 
 7044864.000000, -13.861622 , 2.122434, 2.598605, 1432586752.000000, -99.959999,  -154.630005,  53.130001, 0.000000,  0.000000 
 7065344.000000, -15.960127 , 1.289732, 2.660819, 1432606720.000000, -100.800003,  -169.119995,  50.959999, 0.000000,  0.000000 
 7085568.000000, -17.936600 , 0.583849, 2.225325, 1432627200.000000, -78.050003,  -173.669998,  50.820000, 0.000000,  0.000000 
 7105024.000000, -17.675781 , 0.787239, 1.478764, 1432647424.000000, -26.110001,  -181.369995,  62.090000, 0.000000,  0.000000 
 7124992.000000, -15.883555 , 1.739582, 0.646062, 1432666880.000000, 35.070000,  -203.630005,  84.629997, 0.000000,  0.000000 
 7144960.000000, -14.787644 , 2.304288, -0.203390, 1432686848.000000, 75.739998,  -223.440002,  105.000000, 0.000000,  0.000000 
 7165184.000000, -13.701303 , 2.237289, -0.787239, 1432706816.000000, 73.639999,  -230.160004,  109.480003, 0.000000,  0.000000 
 7185408.000000, -12.500106 , 2.045863, -0.787239, 1432727040.000000, 33.950001,  -240.660004,  106.959999, 0.000000,  0.000000 
 7204864.000000, -12.033505 , 1.584049, -0.291924, 1432747264.000000, -25.620001,  -248.639999,  96.879997, 0.000000,  0.000000 
 7224832.000000, -12.184253 , 1.119841, 0.203390, 1432766720.000000, -77.629997,  -245.770004,  80.849998, 0.000000,  0.000000 
 7244800.000000, -12.220145 , 0.186640, 0.148355, 1432786688.000000, -104.230003,  -239.399994,  65.099998, 0.000000,  0.000000 
 7265280.000000, -11.636297 , -0.638884, 0.083749, 1432806656.000000, -105.349998,  -231.070007,  59.150002, 0.000000,  0.000000 
 7285504.000000, -11.172089 , -0.961915, 0.224925, 1432827136.000000, -93.519997,  -220.290009,  57.049999, 3694410496.000000,  1005.663696 
 7304960.000000, -11.229517 , -0.870987, -0.004786, 1432847360.000000, -71.190002,  -208.460007,  60.410000, 0.000000,  0.000000 
 7325440.000000, -10.624132 , -0.220140, -1.617548, 1432866816.000000, -45.009998,  -187.250000,  63.700001, 0.000000,  0.000000 
 7344896.000000, -8.784052 , 0.595813, -3.656233, 1432887296.000000, -29.049999,  -174.089996,  64.050003, 0.000000,  0.000000 
 7365888.000000, -6.506085 , 0.524028, -3.931407, 1432906752.000000, -38.849998,  -165.550003,  64.540001, 0.000000,  0.000000 
 7388160.000000, -5.450850 , 0.038285, -3.000600, 1432927744.000000, -91.139999,  -146.160004,  54.740002, 0.000000,  0.000000 
 7405568.000000, -6.175875 , -0.330210, -1.440479, 1432950016.000000, -159.600006,  -101.150002,  30.309999, 0.000000,  0.000000 
 7425536.000000, -8.293523 , -0.358923, -0.471386, 1432967424.000000, -197.680008,  -43.259998,  6.370000, 0.000000,  0.000000 
 7445504.000000, -9.674182 , -0.646062, -1.007378, 1432987392.000000, -183.399994,  8.260000,  -8.960000, 0.000000,  0.000000 
 7466240.000000, -9.195618 , -0.937986, -2.907279, 1433007360.000000, -127.190002,  42.840000,  -7.420000, 0.000000,  0.000000 
 7486464.000000, -9.533006 , -0.772882, -3.393023, 1433028096.000000, -55.930000,  59.639999,  5.810000, 0.000000,  0.000000 
 7505920.000000, -11.940186 , 0.031107, -1.978864, 1433048320.000000, -4.620000,  100.099998,  14.210000, 0.000000,  0.000000 
 7525888.000000, -14.215759 , 0.476172, -1.325624, 1433067776.000000, 15.610000,  155.820007,  13.790000, 0.000000,  0.000000 
 7545856.000000, -13.871193 , 0.055035, -0.406780, 1433087744.000000, 25.549999,  194.809998,  15.260000, 0.000000,  0.000000 
 7566592.000000, -12.854243 , 0.251246, 0.227318, 1433107712.000000, 42.910000,  207.199997,  13.860000, 0.000000,  0.000000 
 7586816.000000, -13.703696 , 0.933201, 1.282553, 1433128448.000000, 74.199997,  221.059998,  10.570000, 0.000000,  0.000000 
 7606272.000000, -15.572490 , 1.600798, 2.093720, 1433148672.000000, 103.040001,  241.009995,  3.710000, 0.000000,  0.000000 
 7626240.000000, -15.749558 , 2.395216, 1.540978, 1433168128.000000, 128.029999,  254.449997,  -6.580000, 0.000000,  0.000000 
 7646208.000000, -14.220546 , 2.581856, 0.926022, 1433188096.000000, 161.979996,  238.210007,  -12.180000, 0.000000,  0.000000 
 7666176.000000, -12.703495 , 3.278167, 0.940379, 1433208064.000000, 186.970001,  206.639999,  -25.620001, 0.000000,  0.000000 
 7688192.000000, -11.375479 , 4.314260, 1.052842, 1433228032.000000, 174.720001,  181.720001,  -37.869999, 0.000000,  0.000000 
 7707136.000000, -10.779665 , 4.850252, 1.275374, 1433250048.000000, 127.400002,  165.059998,  -48.299999, 0.000000,  0.000000 
 7727360.000000, -11.129018 , 3.862016, 1.287339, 1433268992.000000, 49.700001,  161.699997,  -63.630001, 0.000000,  0.000000 
 7747328.000000, -11.940186 , 2.469393, 1.540978, 1433289216.000000, -33.389999,  170.449997,  -70.209999, 0.000000,  0.000000 
 7767552.000000, -12.655639 , 2.038685, 2.076970, 1433309184.000000, -96.180000,  180.529999,  -66.779999, 0.000000,  0.000000 
 7787776.000000, -13.208381 , 2.100898, 2.557927, 1433329408.000000, -123.550003,  187.669998,  -49.980000, 0.000000,  0.000000 
 7807232.000000, -13.184454 , 1.718047, 2.974278, 1433349632.000000, -127.750000,  194.110001,  -27.580000, 0.000000,  0.000000 
 7827200.000000, -13.071990 , 1.586441, 3.720839, 1433369088.000000, -123.690002,  201.460007,  -7.350000, 0.000000,  0.000000 
 7847168.000000, -13.174881 , 1.887937, 5.075177, 1433389056.000000, -111.580002,  207.830002,  8.820000, 0.000000,  0.000000 
 7867392.000000, -13.220345 , 2.120041, 6.711867, 1433409024.000000, -88.970001,  212.309998,  18.410000, 0.000000,  0.000000 
 7887616.000000, -13.083955 , 2.277967, 8.360522, 1433429248.000000, -51.240002,  203.070007,  21.490000, 0.000000,  0.000000 
 7907072.000000, -13.390236 , 2.610569, 9.198010, 1433449472.000000, 6.020000,  179.899994,  21.629999, 0.000000,  0.000000 
 7927296.000000, -13.153346 , 3.180061, 7.680960, 1433468928.000000, 83.300003,  145.529999,  24.430000, 0.000000,  0.000000 
 7947008.000000, -12.088539 , 4.764110, 5.857630, 1433489152.000000, 155.259995,  87.779999,  24.010000, 0.000000,  0.000000 
 7967488.000000, -11.538191 , 6.465407, 5.826523, 1433508864.000000, 171.990005,  20.650000,  21.070000, 0.000000,  0.000000 
 7987712.000000, -12.153147 , 5.893522, 6.288338, 1433529344.000000, 127.959999,  -25.410000,  11.760000, 0.000000,  0.000000 
 8007168.000000, -14.605788 , 4.328616, 7.013363, 1433549568.000000, 65.730003,  -54.180000,  -0.490000, 0.000000,  0.000000 
 8027136.000000, -16.706688 , 3.251846, 5.850451, 1433569024.000000, 35.070000,  -68.040001,  -3.780000, 0.000000,  0.000000 
 8047104.000000, -16.668402 , 3.098706, 3.620341, 1433588992.000000, 56.420002,  -92.540001,  17.360001, 0.000000,  0.000000 
 8067328.000000, -14.809179 , 3.342773, 2.435893, 1433608960.000000, 86.660004,  -135.380005,  49.070000, 0.000000,  0.000000 
 8087552.000000, -13.768302 , 3.048456, 1.873580, 1433629184.000000, 85.680000,  -177.589996,  73.779999, 0.000000,  0.000000 
 8107008.000000, -14.900107 , 2.529213, 1.737189, 1433649408.000000, 50.330002,  -196.699997,  83.930000, 0.000000,  0.000000 
 8126976.000000, -17.199610 , 2.450250, 1.466800, 1433668864.000000, 5.880000,  -199.430008,  79.590004, 0.000000,  0.000000 
 8146944.000000, -18.527626 , 1.679761, 0.866202, 1433688832.000000, -21.700001,  -202.089996,  78.889999, 0.000000,  0.000000 
 8167424.000000, -17.503498 , 1.454836, 0.550349, 1433708800.000000, -42.910000,  -214.759995,  78.680000, 0.000000,  0.000000 
 8187648.000000, -15.783059 , 2.072184, 0.093320, 1433729280.000000, -59.290001,  -239.610001,  82.949997, 0.000000,  0.000000 
 8206848.000000, -14.878571 , 2.766103, -0.081356, 1433749504.000000, -73.500000,  -262.360016,  79.379997, 0.000000,  0.000000 
 8227072.000000, -15.297315 , 3.378666, 0.435494, 1433768704.000000, -102.480003,  -279.579987,  61.880001, 0.000000,  0.000000 
 8247040.000000, -14.993427 , 2.806781, 0.732204, 1433788928.000000, -133.839996,  -290.079987,  39.759998, 0.000000,  0.000000 
 8267264.000000, -14.141582 , 1.993221, 0.411566, 1433808896.000000, -149.029999,  -306.110016,  32.060001, 0.000000,  0.000000 
 8287488.000000, -14.103296 , 1.098306, 0.105284, 1433829120.000000, -150.149994,  -315.769989,  30.730000, 3695412736.000000,  1005.669312 
 8306944.000000, -13.674981 , 0.191426, 0.076570, 1433849344.000000, -137.130005,  -303.940002,  32.970001, 0.000000,  0.000000 
 8326912.000000, -12.387643 , 0.215354, -0.325424, 1433868800.000000, -118.720001,  -288.049988,  32.549999, 0.000000,  0.000000 
 8346880.000000, -10.408779 , 1.261017, -1.610370, 1433888768.000000, -92.470001,  -271.320007,  30.730000, 0.000000,  0.000000 
 8367104.000000, -7.700103 , 1.615155, -2.342573, 1433908736.000000, -65.660004,  -251.089996,  29.960001, 0.000000,  0.000000 
 8389376.000000, -5.611169 , 1.086342, -2.043471, 1433928960.000000, -62.160000,  -227.009995,  27.790001, 0.000000,  0.000000 
 8406784.000000, -5.096712 , 0.734596, -1.725225, 1433951232.000000, -83.370003,  -185.639999,  20.160000, 0.000000,  0.000000 
 8426752.000000, -5.410172 , 0.504886, -1.304088, 1433968640.000000, -104.230003,  -128.660004,  13.370000, 0.000000,  0.000000 
 8446720.000000, -5.733203 , -0.014357, -0.710668, 1433988608.000000, -107.800003,  -78.540001,  10.640000, 0.000000,  0.000000 
 8466944.000000, -7.058826 , -0.313460, -0.330210, 1434008576.000000, -88.690002,  -37.939999,  12.180000, 0.000000,  0.000000 
 8487424.000000, -8.647661 , -0.208176, -1.354338, 1434028800.000000, -52.009998,  3.780000,  15.680000, 0.000000,  0.000000 
 8506624.000000, -9.652647 , 0.098106, -3.261417, 1434049280.000000, 5.600000,  33.740002,  17.850000, 0.000000,  0.000000 
 8526848.000000, -9.731609 , 0.004786, -3.637090, 1434068480.000000, 48.439999,  57.680000,  21.210001, 0.000000,  0.000000 
 8546816.000000, -10.231709 , 0.172283, -1.794617, 1434088704.000000, 56.840000,  87.360001,  22.190001, 0.000000,  0.000000 
 8567040.000000, -11.507084 , 0.296710, -0.777667, 1434108672.000000, 48.790001,  130.479996,  20.790001, 0.000000,  0.000000 
 8587264.000000, -11.337193 , -0.253639, -0.198604, 1434128896.000000, 52.080002,  177.309998,  17.010000, 0.000000,  0.000000 
 8606720.000000, -11.818150 , -0.294317, -0.624527, 1434149120.000000, 65.940002,  207.270004,  15.190001, 0.000000,  0.000000 
 8626688.000000, -13.464413 , -0.011964, -1.277767, 1434168576.000000, 85.190002,  240.869995,  10.920000, 0.000000,  0.000000 
 8646656.000000, -15.091532 , 0.437887, -0.736989, 1434188544.000000, 88.269997,  280.209991,  3.010000, 0.000000,  0.000000 
 8666880.000000, -16.170694 , 0.837488, 0.524028, 1434208512.000000, 74.410004,  304.709991,  -6.230000, 0.000000,  0.000000 
 8687104.000000, -16.443478 , 0.282353, 2.146362, 1434228736.000000, 59.150002,  320.600006,  -14.490000, 0.000000,  0.000000 
 8706560.000000, -15.725630 , -0.105284, 2.746960, 1434248960.000000, 63.000000,  327.179993,  -17.710001, 0.000000,  0.000000 
 8726528.000000, -15.005391 , 1.184447, 2.821138, 1434268416.000000, 107.239998,  318.920013,  -17.010000, 0.000000,  0.000000 
 8746496.000000, -15.077175 , 2.823531, 1.954936, 1434288384.000000, 164.220001,  298.549988,  -21.910000, 0.000000,  0.000000 
 8766976.000000, -15.309279 , 3.976871, 1.284946, 1434308352.000000, 190.539993,  274.329987,  -31.920000, 0.000000,  0.000000 
 8787200.000000, -15.287744 , 4.524827, 1.610370, 1434328832.000000, 140.210007,  248.919998,  -52.290001, 0.000000,  0.000000 
 8806656.000000, -15.833307 , 4.225725, 3.053242, 1434349056.000000, 37.590000,  229.669998,  -65.239998, 0.000000,  0.000000 
 8826624.000000, -16.792830 , 3.821337, 4.457829, 1434368512.000000, -55.930000,  218.610001,  -77.209999, 0.000000,  0.000000 
 8846592.000000, -16.319050 , 3.297310, 5.709275, 1434388480.000000, -103.250000,  208.320007,  -85.400002, 0.000000,  0.000000 
 8866816.000000, -15.194424 , 2.909672, 6.640083, 1434408448.000000, -99.260002,  187.389999,  -81.269997, 0.000000,  0.000000 
 8887040.000000, -13.844872 , 3.148954, 7.367501, 1434428672.000000, -59.080002,  165.410004,  -70.070000, 0.000000,  0.000000 
 8906496.000000, -12.272788 , 4.156333, 7.369894, 1434448896.000000, 2.310000,  142.380005,  -56.560001, 0.000000,  0.000000 
 8926464.000000, -11.528620 , 5.556134, 7.745567, 1434468352.000000, 70.629997,  112.209999,  -42.000000, 0.000000,  0.000000 
 8946432.000000, -11.444871 , 7.219146, 7.585248, 1434488320.000000, 117.809998,  89.110001,  -32.270000, 0.000000,  0.000000 
 8966912.000000, -11.078769 , 7.721639, 6.577869, 1434508288.000000, 130.970001,  69.440002,  -18.830000, 0.000000,  0.000000 
 8987136.000000, -10.815558 , 7.348359, 6.094519, 1434528768.000000, 107.029999,  40.529999,  -2.800000, 0.000000,  0.000000 
 9006336.000000, -11.346765 , 6.463014, 6.202196, 1434548992.000000, 51.450001,  13.230000,  11.620000, 0.000000,  0.000000 
 9026560.000000, -13.009777 , 5.345565, 7.164111, 1434568192.000000, -7.980000,  -8.680000,  27.230000, 0.000000,  0.000000 
 9046528.000000, -15.402599 , 4.003192, 7.109076, 1434588416.000000, -44.380001,  -28.420000,  37.939999, 0.000000,  0.000000 
 9066752.000000, -17.087147 , 2.775674, 5.347959, 1434608384.000000, -37.799999,  -51.380001,  52.150002, 0.000000,  0.000000 
 9086976.000000, -17.056040 , 2.256432, 3.641876, 1434628608.000000, -6.090000,  -88.129997,  71.190002, 0.000000,  0.000000 
 9106432.000000, -16.412371 , 2.416751, 2.328217, 1434648832.000000, 9.030000,  -112.489998,  82.040001, 0.000000,  0.000000 
 9126400.000000, -17.005791 , 2.021935, 2.036292, 1434668288.000000, 21.770000,  -159.669998,  98.209999, 0.000000,  0.000000 
 9146368.000000, -17.946171 , 1.770689, 2.108077, 1434688256.000000, 5.810000,  -192.149994,  102.900002, 0.000000,  0.000000 
 9166592.000000, -20.492134 , 1.110270, 1.564906, 1434708224.000000, -23.170000,  -211.820007,  92.680000, 0.000000,  0.000000 
 9187072.000000, -20.164316 , 0.854238, 1.256232, 1434728448.000000, -38.080002,  -228.270004,  82.739998, 0.000000,  0.000000 
 9206272.000000, -18.271593 , 0.337388, 0.815953, 1434748928.000000, -31.710001,  -255.080002,  78.050003, 0.000000,  0.000000 
 9226240.000000, -16.637295 , 0.131605, 0.241675, 1434768128.000000, -21.490000,  -280.070007,  73.639999, 0.000000,  0.000000 
 9246208.000000, -15.160924 , 0.004786, -0.040678, 1434788096.000000, -18.830000,  -291.200012,  63.980000, 0.000000,  0.000000 
 9266688.000000, -13.952549 , -0.512064, -0.227318, 1434808064.000000, -22.190001,  -298.130005,  50.330002, 0.000000,  0.000000 
 9286912.000000, -13.119846 , -0.693919, -0.409173, 1434828544.000000, -16.799999,  -301.420013,  37.240002, 3696411904.000000,  1005.671997 
 9306368.000000, -12.346965 , -0.445065, -0.504886, 1434848768.000000, -5.320000,  -297.850006,  27.299999, 0.000000,  0.000000 
 9326336.000000, -11.662617 , -0.547956, -0.318245, 1434868224.000000, 6.230000,  -289.309998,  26.320000, 0.000000,  0.000000 
 9347072.000000, -11.140982 , -0.339781, 0.004786, 1434888192.000000, 12.320000,  -276.079987,  28.000000, 0.000000,  0.000000 
 9366528.000000, -10.418350 , -0.095713, -1.505085, 1434908928.000000, 9.380000,  -257.390015,  32.060001, 0.000000,  0.000000 
 9389312.000000, -8.681160 , 0.538385, -3.443272, 1434928384.000000, -0.210000,  -236.320007,  39.549999, 0.000000,  0.000000 
 9406720.000000, -6.063413 , 0.966700, -3.641876, 1434951168.000000, -26.389999,  -218.190002,  45.150002, 0.000000,  0.000000 
 9426688.000000, -4.723432 , 1.158126, -2.782853, 1434968576.000000, -82.320000,  -199.430008,  44.380001, 0.000000,  0.000000 
 9446656.000000, -5.194818 , 1.115055, -2.684747, 1434988544.000000, -155.960007,  -157.710007,  29.680000, 0.000000,  0.000000 
 9467136.000000, -5.673382 , 0.325424, -2.931208, 1435008512.000000, -217.559998,  -107.099998,  16.660000, 0.000000,  0.000000 
 9487616.000000, -5.910272 , -0.380459, -2.304288, 1435028992.000000, -246.960007,  -68.529999,  5.810000, 0.000000,  0.000000 
 9507072.000000, -7.721639 , -0.949951, -2.057827, 1435049472.000000, -244.160004,  -32.060001,  -2.100000, 0.000000,  0.000000 
 9527040.000000, -10.408779 , -0.701097, -2.256432, 1435068928.000000, -213.570007,  16.940001,  -6.020000, 0.000000,  0.000000 
 9547008.000000, -12.507284 , -0.401994, -1.875973, 1435088896.000000, -167.720001,  70.279999,  -9.520000, 0.000000,  0.000000 
 9567232.000000, -13.739587 , -0.440279, -0.521635, 1435108864.000000, -104.510002,  115.849998,  -5.250000, 0.000000,  0.000000 
 9587712.000000, -14.084153 , -0.023928, 0.246461, 1435129088.000000, -28.559999,  159.110001,  3.080000, 0.000000,  0.000000 
 9608192.000000, -13.622340 , 0.990629, 0.528814, 1435149568.000000, 48.369999,  196.419998,  13.160000, 0.000000,  0.000000 
 9628416.000000, -14.306686 , 2.337788, 2.139183, 1435170048.000000, 110.949997,  222.250000,  23.100000, 0.000000,  0.000000 
 9648384.000000, -15.617953 , 3.608376, 1.923829, 1435190272.000000, 125.720001,  245.490005,  26.110001, 0.000000,  0.000000 
 9668608.000000, -15.668202 , 3.854837, 0.447458, 1435210240.000000, 84.070000,  254.029999,  28.420000, 0.000000,  0.000000 
 9688832.000000, -15.294923 , 3.232704, 1.299303, 1435230464.000000, -2.800000,  244.020004,  30.030001, 0.000000,  0.000000 
 9708288.000000, -15.005391 , 2.232504, 3.696911, 1435250688.000000, -82.459999,  224.139999,  34.090000, 0.000000,  0.000000 
 9728256.000000, -13.545769 , 2.845066, 4.950750, 1435270144.000000, -123.620003,  201.180008,  30.730000, 0.000000,  0.000000 
 9748224.000000, -11.906685 , 2.687140, 4.211368, 1435290112.000000, -136.080002,  176.050003,  35.420002, 0.000000,  0.000000 
 9768448.000000, -11.655439 , 1.529014, 3.938586, 1435310080.000000, -144.059998,  159.529999,  43.049999, 0.000000,  0.000000 
 9788928.000000, -12.332609 , 0.995414, 3.881158, 1435330304.000000, -170.380005,  151.550003,  50.820000, 0.000000,  0.000000 
 9808128.000000, -12.940384 , 0.586242, 3.816552, 1435350784.000000, -194.809998,  142.029999,  71.190002, 0.000000,  0.000000 
 9828096.000000, -13.332808 , -0.557528, 3.603590, 1435369984.000000, -214.270004,  130.130005,  93.800003, 0.000000,  0.000000 
 9848320.000000, -13.517055 , -1.631905, 3.206382, 1435389952.000000, -222.880005,  123.550003,  120.190002, 0.000000,  0.000000 
 9868544.000000, -13.859229 , -2.170290, 3.220739, 1435410176.000000, -206.990005,  121.800003,  155.190002, 0.000000,  0.000000 
 9888768.000000, -14.483756 , -2.553142, 3.639483, 1435430400.000000, -186.479996,  127.889999,  191.380005, 0.000000,  0.000000 
 9908224.000000, -14.933606 , -3.079563, 4.694718, 1435450624.000000, -166.949997,  137.970001,  221.970001, 0.000000,  0.000000 
 9928192.000000, -14.462219 , -3.921836, 5.709275, 1435470080.000000, -137.410004,  144.759995,  241.220001, 0.000000,  0.000000 
 9948160.000000, -13.849657 , -6.874579, 7.109076, 1435490048.000000, -92.330002,  140.699997,  247.729996, 0.000000,  0.000000 
 9968384.000000, -13.835299 , -7.082755, 7.733603, 1435510016.000000, -47.880001,  131.250000,  231.770004, 0.000000,  0.000000 
 9988864.000000, -12.366108 , -5.304887, 7.970492, 1435530240.000000, -39.619999,  98.629997,  168.000000, 0.000000,  0.000000 
 10008064.000000, -10.631311 , -3.778267, 7.408179, 1435550720.000000, 5.810000,  59.849998,  122.639999, 0.000000,  0.000000 
 10028032.000000, -10.277173 , -6.541977, 8.855836, 1435569920.000000, 21.840000,  33.389999,  69.230003, 0.000000,  0.000000 
 10048256.000000, -10.676775 , -9.561719, 9.767502, 1435589888.000000, -0.980000,  29.820000,  12.530000, 0.000000,  0.000000 
 10068224.000000, -11.571690 , -10.882557, 10.829915, 1435610112.000000, 53.480000,  24.850000,  -19.250000, 0.000000,  0.000000 
 10088704.000000, -14.311473 , -8.492127, 9.793823, 1435630080.000000, 190.259995,  6.020000,  -28.910000, 0.000000,  0.000000 
 10108160.000000, -14.916857 , -3.957729, 6.494121, 1435650560.000000, 331.519989,  -23.030001,  -49.770000, 0.000000,  0.000000 
 10128128.000000, -14.785251 , 0.217747, 4.491328, 1435670016.000000, 405.510010,  -77.139999,  -56.209999, 0.000000,  0.000000 
 10148096.000000, -14.349757 , 2.029114, 3.900301, 1435689984.000000, 355.179993,  -136.149994,  -66.849998, 0.000000,  0.000000 
 10168320.000000, -15.146567 , 0.509671, 4.448257, 1435709952.000000, 200.690002,  -180.320007,  -87.989998, 0.000000,  0.000000 
 10188544.000000, -18.606588 , -1.048056, 4.819145, 1435730176.000000, 55.299999,  -204.539993,  -114.309998, 0.000000,  0.000000 
 10208000.000000, -21.899113 , -1.495514, 3.701697, 1435750400.000000, 0.840000,  -214.130005,  -136.990005, 0.000000,  0.000000 
 10227968.000000, -22.370499 , -0.605384, 2.017149, 1435769856.000000, 25.690001,  -236.180008,  -147.839996, 0.000000,  0.000000 
 10248448.000000, -21.332014 , 0.258425, 0.552742, 1435789824.000000, 77.489998,  -274.049988,  -151.550003, 0.000000,  0.000000 
 10268160.000000, -19.855642 , 0.145962, -0.373280, 1435830016.000000, 84.699997,  -311.290009,  -168.000000, 3697413632.000000,  1005.670288 
 10288640.000000, -18.539589 , -0.052642, -0.626920, 0.000000, 0.000000,  0.000000,  0.000000, 0.000000,  0.000000 
 10307840.000000, -16.804794 , 0.074178, -0.516850, 1435850496.000000, 56.420002,  -310.380005,  -177.589996, 0.000000,  0.000000 
 10327808.000000, -15.105889 , -0.217747, -0.595813, 1435869696.000000, 42.910000,  -307.510010,  -181.229996, 0.000000,  0.000000 
 10347776.000000, -13.603197 , -0.629312, -0.768096, 1435889664.000000, 38.779999,  -301.209991,  -177.240005, 0.000000,  0.000000 
 10368256.000000, -12.057433 , -0.425922, -1.318445, 1435909632.000000, 38.080002,  -288.679993,  -164.009995, 0.000000,  0.000000 
 10390272.000000, -10.380065 , 0.301496, -1.569692, 1435930112.000000, 39.830002,  -272.440002,  -138.669998, 0.000000,  0.000000 
 10407680.000000, -8.779266 , 1.524228, -1.234696, 1435952128.000000, 45.009998,  -249.830002,  -104.230003, 0.000000,  0.000000 
 10427904.000000, -7.539784 , 1.572084, -1.184447, 1435969536.000000, 52.150002,  -220.220001,  -64.889999, 0.000000,  0.000000 
 10447872.000000, -7.219146 , 0.516850, -1.543371, 1435989760.000000, 50.189999,  -184.309998,  -23.240000, 0.000000,  0.000000 
 10468096.000000, -7.381857 , 0.313460, -2.352145, 1436009728.000000, 23.520000,  -141.190002,  9.310000, 0.000000,  0.000000 
 10488320.000000, -6.927221 , 0.997807, -3.194418, 1436029952.000000, 5.250000,  -104.440002,  34.509998, 0.000000,  0.000000 
 10507776.000000, -6.250053 , 1.095913, -2.801995, 1436050176.000000, 2.100000,  -81.620003,  55.650002, 0.000000,  0.000000 
 10527744.000000, -6.632904 , 0.650848, -1.165305, 1436069632.000000, -26.600000,  -51.310001,  57.959999, 0.000000,  0.000000 
 10547712.000000, -7.661818 , 0.411566, -0.234497, 1436089600.000000, -65.029999,  -8.750000,  39.410000, 0.000000,  0.000000 
 10568192.000000, -8.611769 , 0.222532, -0.794417, 1436109568.000000, -55.510002,  33.459999,  27.230000, 0.000000,  0.000000 
 10588416.000000, -9.705289 , -0.260818, -1.591227, 1436130048.000000, -5.320000,  67.690002,  30.660000, 0.000000,  0.000000 
 10607616.000000, -11.430513 , -0.315853, -0.906880, 1436150272.000000, 37.450001,  106.190002,  35.420002, 0.000000,  0.000000 
 10627584.000000, -13.684553 , 0.404387, -0.124427, 1436169472.000000, 57.330002,  153.229996,  42.279999, 0.000000,  0.000000 
 10647552.000000, -15.890735 , 1.217947, 1.134198, 1436189440.000000, 70.209999,  196.699997,  52.709999, 0.000000,  0.000000 
 10668032.000000, -15.704096 , 0.787239, 1.694118, 1436209408.000000, 77.769997,  226.869995,  57.400002, 0.000000,  0.000000 
 10688256.000000, -14.218152 , 0.265603, 1.421337, 1436229888.000000, 98.840004,  230.509995,  66.220001, 0.000000,  0.000000 
 10707712.000000, -13.574483 , 0.808774, 1.519442, 1436250112.000000, 113.889999,  225.820007,  68.180000, 0.000000,  0.000000 
 10727680.000000, -14.062619 , 1.385444, 2.426322, 1436269568.000000, 104.300003,  228.199997,  66.290001, 0.000000,  0.000000 
 10747648.000000, -14.677574 , 0.418744, 3.972085, 1436289536.000000, 94.919998,  229.529999,  50.610001, 0.000000,  0.000000 
 10767872.000000, -14.234902 , 0.344566, 3.402594, 1436309504.000000, 130.970001,  221.550003,  27.650000, 0.000000,  0.000000 
 10788096.000000, -12.677175 , 2.581856, 0.870987, 1436329728.000000, 227.639999,  199.850006,  18.410000, 0.000000,  0.000000 
 10807552.000000, -11.169697 , 4.596612, -0.174676, 1436349952.000000, 304.500000,  171.360001,  24.570000, 0.000000,  0.000000 
 10827520.000000, -10.420743 , 5.764310, 0.014357, 1436369408.000000, 266.000000,  159.320007,  11.130000, 0.000000,  0.000000 
 10847488.000000, -11.301301 , 5.201996, 0.399601, 1436389376.000000, 136.149994,  168.070007,  -9.660000, 0.000000,  0.000000 
 10867968.000000, -12.997812 , 3.201597, 1.081556, 1436409344.000000, -24.780001,  192.149994,  -41.020000, 0.000000,  0.000000 
 10888192.000000, -14.084153 , 1.428515, 1.751546, 1436429824.000000, -157.289993,  216.860001,  -57.750000, 0.000000,  0.000000 
 10907648.000000, -14.292330 , 0.691526, 2.581856, 1436450048.000000, -219.520004,  231.070007,  -48.369999, 0.000000,  0.000000 
 10927616.000000, -14.194223 , 0.576670, 3.663411, 1436469504.000000, -223.089996,  237.649994,  -22.960001, 0.000000,  0.000000 
 10947584.000000, -14.419148 , 0.758525, 4.924429, 1436489472.000000, -191.589996,  242.199997,  3.010000, 0.000000,  0.000000 
 10967808.000000, -14.663218 , 1.014557, 6.960721, 1436529664.000000, -86.870003,  248.990005,  34.299999, 0.000000,  0.000000 
 10988032.000000, -14.737395 , 1.416551, 8.645268, 0.000000, 0.000000,  0.000000,  0.000000, 0.000000,  0.000000 
 11007488.000000, -14.636896 , 1.182054, 10.645668, 1436549888.000000, -11.550000,  236.600006,  47.599998, 0.000000,  0.000000 
 11027456.000000, -13.734802 , 1.402194, 9.315259, 1436569344.000000, 62.720001,  202.789993,  51.869999, 0.000000,  0.000000 
 11047424.000000, -12.294323 , 3.878766, 8.709875, 1436589312.000000, 105.980003,  136.990005,  37.029999, 0.000000,  0.000000 
 11067648.000000, -11.885150 , 5.166104, 8.910872, 1436609280.000000, 81.900002,  60.900002,  7.070000, 0.000000,  0.000000 
 11088128.000000, -13.050454 , 2.935993, 9.468399, 1436629504.000000, 12.180000,  7.350000,  -24.570000, 0.000000,  0.000000 
 11107328.000000, -14.230117 , 1.421337, 8.441878, 1436649984.000000, -31.639999,  -28.770000,  -44.869999, 0.000000,  0.000000 
 11127296.000000, -14.292330 , 2.799603, 5.907879, 1436669184.000000, 3.710000,  -63.279999,  -27.930000, 0.000000,  0.000000 
 11147264.000000, -12.933208 , 4.479364, 4.333402, 1436689152.000000, 64.610001,  -107.449997,  1.190000, 0.000000,  0.000000 
 11167744.000000, -12.574283 , 3.986443, 4.007978, 1436709120.000000, 66.709999,  -152.110001,  13.230000, 0.000000,  0.000000 
 11187968.000000, -13.844872 , 2.438286, 3.842873, 1436729600.000000, 3.920000,  -174.580002,  3.640000, 0.000000,  0.000000 
 11207424.000000, -15.876379 , 1.284946, 3.763910, 1436749824.000000, -54.320000,  -186.199997,  -8.680000, 0.000000,  0.000000 
 11227392.000000, -18.278772 , 1.416551, 3.314059, 1436769280.000000, -60.830002,  -202.509995,  -18.059999, 0.000000,  0.000000 
 11247360.000000, -19.183260 , 1.198804, 2.225325, 1436789248.000000, -26.180000,  -223.369995,  -19.110001, 0.000000,  0.000000 
 11267584.000000, -17.635103 , 1.167697, 1.275374, 1436829440.000000, 36.959999,  -277.619995,  -10.220000, 3698413056.000000,  1005.671082 
 11287808.000000, -16.055840 , 2.031506, 0.751346, 0.000000, 0.000000,  0.000000,  0.000000, 0.000000,  0.000000 
 11307264.000000, -15.086747 , 2.333002, 0.181855, 1436849664.000000, 37.170002,  -293.720001,  -10.080000, 0.000000,  0.000000 
 11327232.000000, -14.225330 , 1.459622, 0.382852, 1436869120.000000, 19.250000,  -303.869995,  -16.309999, 0.000000,  0.000000 
 11347200.000000, -13.239488 , 1.505085, 1.110270, 1436889088.000000, -17.920000,  -307.019989,  -29.330000, 0.000000,  0.000000 
 11367680.000000, -12.234503 , 1.531406, 1.289732, 1436909056.000000, -39.270000,  -304.290009,  -26.880001, 0.000000,  0.000000 
 11389696.000000, -11.418550 , 0.681954, 0.782453, 1436929536.000000, -33.180000,  -295.959991,  -16.450001, 0.000000,  0.000000 
 11407360.000000, -10.767702 , 0.093320, 0.485743, 1436951552.000000, -27.860001,  -289.869995,  -11.550000, 0.000000,  0.000000 
 11427328.000000, -10.262815 , 0.023928, -0.380459, 1436969216.000000, -18.830000,  -273.070007,  2.170000, 0.000000,  0.000000 
 11447296.000000, -9.968499 , 0.162712, -1.062413, 1436989184.000000, -12.040000,  -251.580002,  17.570000, 0.000000,  0.000000 
 11467520.000000, -8.195417 , 1.016950, -2.651247, 1437009152.000000, -14.280000,  -226.380005,  24.780001, 0.000000,  0.000000 
 11488512.000000, -7.506285 , 1.213161, -2.988636, 1437029376.000000, -20.860001,  -200.759995,  26.600000, 0.000000,  0.000000 
 11507200.000000, -6.137590 , 1.012164, -3.014957, 1437050368.000000, -37.099998,  -172.339996,  25.549999, 0.000000,  0.000000 
 11527680.000000, -5.687739 , 0.648455, -2.110470, 1437069056.000000, -69.720001,  -132.720001,  20.860001, 0.000000,  0.000000 
 11547648.000000, -5.632704 , 0.485743, -1.775474, 1437089536.000000, -90.860001,  -86.660004,  14.280000, 0.000000,  0.000000 
 11567872.000000, -6.171089 , -0.028714, -0.806381, 1437109504.000000, -88.620003,  -39.480000,  10.290000, 0.000000,  0.000000 
 11588352.000000, -6.831509 , -0.270389, -0.555135, 1437129728.000000, -65.940002,  4.760000,  12.600000, 0.000000,  0.000000 
 11607552.000000, -8.707481 , -0.607777, -0.784846, 1437150208.000000, -23.730000,  51.310001,  17.150000, 0.000000,  0.000000 
 11628032.000000, -10.595419 , -0.555135, -1.730011, 1437169408.000000, 35.000000,  94.220001,  27.930000, 0.000000,  0.000000 
 11648000.000000, -12.378072 , -0.167498, -2.065006, 1437189888.000000, 86.099998,  130.759995,  37.799999, 0.000000,  0.000000 
 11668224.000000, -13.215559 , 0.057428, -0.775275, 1437209856.000000, 110.180000,  162.960007,  40.040001, 0.000000,  0.000000 
 11688704.000000, -14.033905 , 0.253639, -0.349352, 1437230080.000000, 109.690002,  186.759995,  35.349998, 0.000000,  0.000000 
 11707904.000000, -15.208780 , 0.512064, 0.524028, 1437250560.000000, 106.540001,  213.289993,  21.910000, 0.000000,  0.000000 
 11728384.000000, -15.419350 , 0.543171, 1.246661, 1437269760.000000, 112.629997,  239.889999,  5.110000, 0.000000,  0.000000 
 11748096.000000, -14.998212 , 0.607777, 1.770689, 1437290240.000000, 125.370003,  249.199997,  -10.500000, 0.000000,  0.000000 
 11768576.000000, -14.773287 , 0.815953, 2.203789, 1437309952.000000, 135.940002,  252.630005,  -26.180000, 0.000000,  0.000000 
 11788800.000000, -14.778071 , 1.892723, 2.627320, 1437330432.000000, 147.350006,  249.899994,  -42.349998, 0.000000,  0.000000 
 11808256.000000, -14.703895 , 3.038885, 1.060020, 1437350656.000000, 170.309998,  230.720001,  -61.040001, 0.000000,  0.000000 
 11827968.000000, -13.639089 , 3.979264, -0.401994, 1437370112.000000, 203.979996,  197.330002,  -71.470001, 0.000000,  0.000000 
 11849216.000000, -11.172089 , 5.278566, -0.524028, 1437389824.000000, 194.669998,  154.630005,  -79.449997, 0.000000,  0.000000 
 11869440.000000, -10.451849 , 5.862415, -0.162712, 1437411072.000000, 116.480003,  123.830002,  -80.570000, 0.000000,  0.000000 
 11889920.000000, -10.681561 , 5.441278, -0.040678, 1437431296.000000, -7.630000,  122.500000,  -79.519997, 0.000000,  0.000000 
 11909120.000000, -11.540584 , 3.536592, 0.248854, 1437451776.000000, -141.680008,  145.949997,  -76.720001, 0.000000,  0.000000 
 11929344.000000, -12.136396 , 1.591227, 0.909273, 1437470976.000000, -257.809998,  173.110001,  -71.190002, 0.000000,  0.000000 
 11949056.000000, -12.559926 , 0.667598, 1.909473, 1437491200.000000, -331.450012,  190.889999,  -55.860001, 0.000000,  0.000000 
 11969536.000000, -12.981063 , -0.138784, 2.888137, 1437510912.000000, -350.910004,  201.529999,  -29.049999, 0.000000,  0.000000 
 11989760.000000, -13.512270 , -0.873380, 4.709075, 1437531392.000000, -322.630005,  209.860001,  4.900000, 0.000000,  0.000000 
 12009216.000000, -13.931013 , -0.614955, 6.994221, 1437551616.000000, -260.190002,  214.619995,  35.490002, 0.000000,  0.000000 
 12029184.000000, -13.605590 , 0.210568, 9.281759, 1437571072.000000, -162.190002,  212.100006,  66.709999, 0.000000,  0.000000 
 12049152.000000, -13.555340 , 0.619741, 11.667403, 1437591040.000000, -41.650002,  199.220001,  89.040001, 0.000000,  0.000000 
 12069376.000000, -13.593626 , 0.160319, 10.817951, 1437611008.000000, 81.970001,  177.869995,  96.459999, 0.000000,  0.000000 
 12089856.000000, -12.437892 , 1.710868, 7.458428, 1437631232.000000, 195.440002,  134.680008,  85.959999, 0.000000,  0.000000 
 12109056.000000, -12.287145 , 5.438886, 6.362515, 1437651712.000000, 270.269989,  60.480000,  69.300003, 0.000000,  0.000000 
 12129024.000000, -12.287145 , 6.893722, 6.640083, 1437670912.000000, 281.049988,  -6.860000,  47.110001, 0.000000,  0.000000 
 12148992.000000, -13.950156 , 3.974478, 7.680960, 1437690880.000000, 211.259995,  -46.480000,  22.680000, 0.000000,  0.000000 
 12169472.000000, -16.524832 , 2.311467, 7.360322, 1437710848.000000, 150.500000,  -58.730000,  14.420000, 0.000000,  0.000000 
 12189696.000000, -16.536798 , 3.364309, 4.505685, 1437731328.000000, 169.330002,  -78.959999,  38.709999, 0.000000,  0.000000 
 12209152.000000, -14.713466 , 4.795217, 2.000400, 1437751552.000000, 216.580002,  -125.160004,  78.889999, 0.000000,  0.000000 
 12229120.000000, -13.907085 , 4.986642, 0.619741, 1437771008.000000, 200.339996,  -163.869995,  109.129997, 0.000000,  0.000000 
 12249088.000000, -15.369100 , 3.830909, 0.492921, 1437790976.000000, 120.959999,  -173.460007,  120.330002, 0.000000,  0.000000 
 12269312.000000, -17.979670 , 3.462414, 0.631705, 1437810944.000000, 30.940001,  -172.130005,  115.430000, 0.000000,  0.000000 
 12289792.000000, -18.888943 , 3.136991, 0.184247, 1437831168.000000, -33.389999,  -180.529999,  107.379997, 3699414528.000000,  1005.674988 
 12308992.000000, -17.704494 , 2.098505, -0.083749, 1437851648.000000, -86.029999,  -214.199997,  101.430000, 0.000000,  0.000000 
 12328960.000000, -16.512869 , 1.643869, -0.179462, 1437870848.000000, -136.149994,  -254.309998,  84.349998, 0.000000,  0.000000 
 12348928.000000, -15.725630 , 1.849652, -0.514457, 1437890816.000000, -165.410004,  -283.429993,  56.980000, 0.000000,  0.000000 
 12369152.000000, -14.837894 , 1.270589, -0.758525, 1437910784.000000, -170.449997,  -305.619995,  26.530001, 0.000000,  0.000000 
 12391680.000000, -13.916656 , 0.248854, -0.591027, 1437931008.000000, -167.300003,  -319.829987,  -4.200000, 0.000000,  0.000000 
 12408832.000000, -12.993028 , -0.588634, -0.296710, 1437970688.000000, -147.350006,  -314.440002,  -40.529999, 0.000000,  0.000000 
 12429056.000000, -12.256038 , -0.861416, 0.088534, 0.000000, 0.000000,  0.000000,  0.000000, 0.000000,  0.000000 
 12449024.000000, -11.746366 , -1.000200, 0.112463, 1437990912.000000, -110.949997,  -299.390015,  -41.439999, 0.000000,  0.000000 
 12469248.000000, -11.497513 , -0.634098, -1.232304, 1438010880.000000, -59.709999,  -280.910004,  -31.850000, 0.000000,  0.000000 
 12489472.000000, -10.231709 , 0.413958, -2.390430, 1438031104.000000, -12.880000,  -257.179993,  -18.690001, 0.000000,  0.000000 
 12508928.000000, -8.106883 , 1.119841, -2.861816, 1438051328.000000, 15.680000,  -235.690002,  2.030000, 0.000000,  0.000000 
 12528896.000000, -6.510870 , 1.792224, -2.993421, 1438070784.000000, 18.549999,  -217.490005,  19.879999, 0.000000,  0.000000 
 12548864.000000, -5.618347 , 1.648655, -2.933600, 1438090752.000000, -10.150000,  -184.589996,  26.110001, 0.000000,  0.000000 
 12569088.000000, -5.374279 , 0.859023, -2.596212, 1438110720.000000, -53.340000,  -137.410004,  27.790001, 0.000000,  0.000000 
 12589312.000000, -5.474778 , 0.253639, -1.907080, 1438130944.000000, -95.760002,  -88.550003,  21.910000, 0.000000,  0.000000 
 12608768.000000, -6.379266 , 0.361316, -1.239482, 1438151168.000000, -113.540001,  -42.279999,  17.150000, 0.000000,  0.000000 
 12628736.000000, -8.401200 , 0.744168, -1.916651, 1438170624.000000, -101.989998,  4.200000,  12.320000, 0.000000,  0.000000 
 12648704.000000, -10.104890 , 0.315853, -2.385644, 1438190592.000000, -75.669998,  54.810001,  8.050000, 0.000000,  0.000000 
 12668928.000000, -11.435300 , -0.289532, -1.210768, 1438210560.000000, -53.480000,  102.760002,  5.600000, 0.000000,  0.000000 
 12689408.000000, -12.775280 , -0.236889, -0.083749, 1438230784.000000, -31.990000,  149.029999,  5.180000, 0.000000,  0.000000 
 12708608.000000, -13.619946 , -0.172283, 0.461815, 1438251264.000000, 3.080000,  198.449997,  11.340000, 0.000000,  0.000000 
 12728576.000000, -14.081761 , -0.323031, 0.535992, 1438270464.000000, 36.259998,  243.389999,  16.450001, 0.000000,  0.000000 
 12748800.000000, -14.512468 , -0.732204, 0.413958, 1438290432.000000, 72.800003,  276.709991,  18.270000, 0.000000,  0.000000 
 12769024.000000, -15.617953 , -1.105484, 1.162912, 1438310656.000000, 124.529999,  294.630005,  18.620001, 0.000000,  0.000000 
 12789248.000000, -16.639688 , 0.413958, 2.081756, 1438330880.000000, 186.130005,  300.790009,  13.300000, 0.000000,  0.000000 
 12808704.000000, -15.637095 , 2.435893, 1.225125, 1438351104.000000, 246.399994,  279.929993,  6.300000, 0.000000,  0.000000 
 12828672.000000, -13.428520 , 4.242475, -0.047856, 1438370560.000000, 293.440002,  225.190002,  -4.970000, 0.000000,  0.000000 
 12848640.000000, -11.243874 , 5.733203, -0.564706, 1438390528.000000, 281.329987,  165.479996,  -28.070000, 0.000000,  0.000000 
 12868864.000000, -10.100104 , 6.300302, -0.399601, 1438410496.000000, 200.899994,  131.180008,  -51.310001, 0.000000,  0.000000 
 12889088.000000, -10.040283 , 5.087141, 0.150748, 1438430720.000000, 79.590004,  124.599998,  -81.900002, 0.000000,  0.000000 
 12908544.000000, -11.162518 , 3.460021, 0.813560, 1438450944.000000, -52.220001,  140.490005,  -105.980003, 0.000000,  0.000000 
 12928512.000000, -12.545568 , 2.048256, 1.337588, 1438470400.000000, -153.720001,  162.259995,  -115.709999, 0.000000,  0.000000 
 12948480.000000, -13.576876 , 1.220340, 1.981257, 1438490368.000000, -202.229996,  180.600006,  -106.610001, 0.000000,  0.000000 
 12968960.000000, -13.713267 , 0.849452, 1.993221, 1438510336.000000, -208.389999,  191.520004,  -85.470001, 0.000000,  0.000000 
 12989184.000000, -13.028918 , 0.344566, 2.646462, 1438530816.000000, -179.270004,  195.509995,  -49.349998, 0.000000,  0.000000 
 13008640.000000, -13.282558 , 0.392423, 4.022335, 1438551040.000000, -142.380005,  200.130005,  -18.549999, 0.000000,  0.000000 
 13028608.000000, -13.983655 , 1.234696, 5.642276, 1438570496.000000, -102.620003,  215.250000,  1.120000, 0.000000,  0.000000 
 13048576.000000, -14.732609 , 2.041078, 7.733603, 1438590464.000000, -49.279999,  226.869995,  16.799999, 0.000000,  0.000000 
 13068800.000000, -14.679967 , 2.660819, 9.231510, 1438610432.000000, 22.260000,  221.619995,  22.400000, 0.000000,  0.000000 
 13089024.000000, -14.531611 , 3.481557, 8.401200, 1438630656.000000, 108.430000,  195.229996,  29.330000, 0.000000,  0.000000 
 13108480.000000, -13.684553 , 4.756931, 6.264410, 1438650880.000000, 194.110001,  147.839996,  33.670002, 0.000000,  0.000000 
 13128448.000000, -12.495319 , 6.352944, 4.969893, 1438670336.000000, 234.290009,  76.790001,  33.320000, 0.000000,  0.000000 
 13148416.000000, -12.519248 , 8.003991, 5.201996, 1438690304.000000, 200.199997,  9.870000,  27.650000, 0.000000,  0.000000 
 13168640.000000, -14.869000 , 7.135397, 5.919843, 1438710272.000000, 116.690002,  -31.010000,  22.540001, 0.000000,  0.000000 
 13189120.000000, -16.268801 , 4.792823, 5.486742, 1438730496.000000, 33.670002,  -51.310001,  13.580000, 0.000000,  0.000000 
 13208320.000000, -15.495919 , 3.371487, 3.996014, 1438750976.000000, -11.970000,  -86.660004,  21.280001, 0.000000,  0.000000 
 13228288.000000, -13.715660 , 2.974278, 3.103491, 1438770176.000000, -19.250000,  -132.089996,  43.750000, 0.000000,  0.000000 
 13248512.000000, -13.294522 , 2.426322, 2.447858, 1438790144.000000, -19.740000,  -169.539993,  63.420002, 0.000000,  0.000000 
 13268736.000000, -14.598611 , 1.730011, 2.309074, 1438830592.000000, -36.049999,  -189.139999,  72.029999, 3700413952.000000,  1005.679077 
 13288960.000000, -16.929220 , 1.734797, 1.794617, 0.000000, 0.000000,  0.000000,  0.000000, 0.000000,  0.000000 
 13308416.000000, -18.037096 , 1.507478, 0.626920, 1438850816.000000, -28.210001,  -193.619995,  76.230003, 0.000000,  0.000000 
 13328384.000000, -17.012968 , 1.172483, 0.160319, 1438870272.000000, -21.770000,  -212.660004,  82.599998, 0.000000,  0.000000 
 13348352.000000, -15.421742 , 1.581656, -0.157926, 1438890240.000000, -31.920000,  -238.000000,  86.800003, 0.000000,  0.000000 
 13368576.000000, -14.129619 , 1.232304, -0.502493, 1438910208.000000, -47.110001,  -256.829987,  84.000000, 0.000000,  0.000000 
 13390848.000000, -13.167704 , 0.555135, -0.674776, 1438930432.000000, -68.949997,  -270.339996,  68.320000, 0.000000,  0.000000 
 13408256.000000, -12.385249 , 0.047856, -0.545564, 1438952704.000000, -90.510002,  -278.600006,  45.920002, 0.000000,  0.000000 
 13428224.000000, -11.830115 , -0.248854, -0.236889, 1438970112.000000, -100.099998,  -280.700012,  27.160000, 0.000000,  0.000000 
 13448192.000000, -11.531013 , -0.512064, -0.114855, 1438990080.000000, -99.260002,  -276.290009,  13.790000, 0.000000,  0.000000 
 13468672.000000, -11.339586 , -0.880559, -0.256032, 1439010048.000000, -85.120003,  -265.019989,  7.280000, 0.000000,  0.000000 
 13488896.000000, -10.983055 , -1.117448, -0.380459, 1439030528.000000, -63.070000,  -249.130005,  7.210000, 0.000000,  0.000000 
 13508352.000000, -10.291530 , -0.550349, -1.083949, 1439050752.000000, -40.250000,  -232.259995,  11.760000, 0.000000,  0.000000 
 13528320.000000, -9.131011 , 0.521635, -2.213361, 1439070208.000000, -19.389999,  -215.320007,  19.530001, 0.000000,  0.000000 
 13549312.000000, -7.324430 , 1.253839, -3.067599, 1439090176.000000, -11.060000,  -197.330002,  28.559999, 0.000000,  0.000000 
 13569024.000000, -5.759524 , 1.028914, -3.024528, 1439111168.000000, -29.260000,  -177.240005,  34.160000, 0.000000,  0.000000 
 13589248.000000, -5.594419 , 0.318245, -2.344966, 1439130880.000000, -70.070000,  -141.820007,  31.780001, 0.000000,  0.000000 
 13608704.000000, -6.575477 , -0.189033, -1.031307, 1439151104.000000, -115.150002,  -87.010002,  20.090000, 0.000000,  0.000000 
 13628672.000000, -7.649854 , -0.397209, -0.327817, 1439170560.000000, -132.789993,  -32.619999,  10.430000, 0.000000,  0.000000 
 13649152.000000, -8.353344 , -0.308674, -0.902094, 1439190528.000000, -105.279999,  8.540000,  7.980000, 0.000000,  0.000000 
 13669376.000000, -8.839087 , -0.457029, -1.856830, 1439211008.000000, -53.200001,  44.310001,  9.660000, 0.000000,  0.000000 
 13689600.000000, -10.447062 , -0.224925, -1.842474, 1439231232.000000, -1.610000,  75.949997,  7.700000, 0.000000,  0.000000 
 13709056.000000, -12.504892 , -0.167498, -1.105484, 1439251456.000000, 33.320000,  127.260002,  -4.130000, 0.000000,  0.000000 
 13729024.000000, -14.687144 , 0.246461, -0.256032, 1439270912.000000, 59.779999,  173.809998,  -14.070000, 0.000000,  0.000000 
 13748992.000000, -15.414563 , 0.351745, 0.547956, 1439290880.000000, 83.580002,  213.149994,  -20.719999, 0.000000,  0.000000 
 13770496.000000, -14.854643 , 0.162712, 0.614955, 1439310848.000000, 117.529999,  235.059998,  -20.860001, 0.000000,  0.000000 
 13790976.000000, -15.548560 , -0.102891, 0.404387, 1439332352.000000, 157.149994,  243.740005,  -21.490000, 0.000000,  0.000000 
 13810432.000000, -16.692331 , 1.485943, 0.997807, 1439352832.000000, 184.309998,  259.070007,  -27.230000, 0.000000,  0.000000 
 13830144.000000, -15.725630 , 2.708675, 0.552742, 1439372288.000000, 199.289993,  257.250000,  -26.809999, 0.000000,  0.000000 
 13850368.000000, -13.308880 , 3.507878, 0.143569, 1439392000.000000, 210.979996,  218.399994,  -26.809999, 0.000000,  0.000000 
 13870592.000000, -11.152946 , 4.706682, 0.009571, 1439412224.000000, 175.699997,  168.770004,  -43.049999, 0.000000,  0.000000 
 13890816.000000, -9.707682 , 5.484349, 0.224925, 1439432448.000000, 94.360001,  143.570007,  -57.400002, 0.000000,  0.000000 
 13910272.000000, -9.487542 , 4.704289, 0.437887, 1439452672.000000, -12.390000,  140.350006,  -77.699997, 0.000000,  0.000000 
 13930240.000000, -10.193424 , 3.048456, 0.519243, 1439472128.000000, -116.410004,  153.789993,  -94.220001, 0.000000,  0.000000 
 13950208.000000, -11.081161 , 1.428515, 0.758525, 1439492096.000000, -197.330002,  171.500000,  -95.340004, 0.000000,  0.000000 
 13970432.000000, -12.174682 , 0.550349, 1.150948, 1439512064.000000, -240.940002,  185.919998,  -77.629997, 0.000000,  0.000000 
 13990656.000000, -13.385449 , 0.100499, 1.392623, 1439532288.000000, -249.899994,  198.169998,  -48.299999, 0.000000,  0.000000 
 14010112.000000, -13.864014 , -0.277567, 2.218147, 1439552512.000000, -234.149994,  212.520004,  -15.330000, 0.000000,  0.000000 
 14030080.000000, -14.172688 , -0.267996, 3.230310, 1439571968.000000, -205.100006,  218.330002,  18.059999, 0.000000,  0.000000 
 14050304.000000, -15.031711 , 0.409173, 4.816752, 1439591936.000000, -163.169998,  224.630005,  46.340000, 0.000000,  0.000000 
 14070272.000000, -15.321243 , 1.143769, 7.479963, 1439612160.000000, -120.330002,  236.320007,  61.880001, 0.000000,  0.000000 
 14090752.000000, -15.352350 , 1.476372, 11.447264, 1439632128.000000, -66.919998,  233.309998,  68.110001, 0.000000,  0.000000 
 14110208.000000, -15.000606 , 0.703490, 11.621940, 1439652608.000000, -28.210001,  224.770004,  67.269997, 0.000000,  0.000000 
 14130176.000000, -13.466805 , 2.359323, 7.692925, 1439672064.000000, 77.699997,  192.289993,  63.560001, 0.000000,  0.000000 
 14150144.000000, -11.966506 , 6.020342, 5.206782, 1439692032.000000, 185.009995,  122.849998,  46.549999, 0.000000,  0.000000 
 14170368.000000, -11.078769 , 8.666803, 4.371687, 1439712000.000000, 243.809998,  26.389999,  31.639999, 0.000000,  0.000000 
 14190592.000000, -10.817951 , 7.781459, 4.572684, 1439732224.000000, 203.630005,  -45.779999,  13.580000, 0.000000,  0.000000 
 14210048.000000, -12.626925 , 4.529613, 5.886343, 1439752448.000000, 67.059998,  -78.400002,  -2.030000, 0.000000,  0.000000 
 14230016.000000, -15.491134 , 3.560520, 6.111269, 1439771904.000000, -47.810001,  -83.370003,  -19.250000, 0.000000,  0.000000 
 14249984.000000, -15.462420 , 4.053442, 3.838088, 1439791872.000000, -67.129997,  -103.250000,  -17.080000, 0.000000,  0.000000 
 14270208.000000, -14.275579 , 2.349752, 2.806781, 1439811840.000000, -49.560001,  -149.029999,  4.130000, 0.000000,  0.000000 
 14290432.000000, -14.708681 , 0.500100, 2.488536, 1439832064.000000, -81.269997,  -180.250000,  3.010000, 3701415680.000000,  1005.681152 
 14309888.000000, -16.000805 , -0.160319, 2.304288, 1439852288.000000, -109.199997,  -187.250000,  -0.560000, 0.000000,  0.000000 
 14329856.000000, -17.400606 , -0.495314, 2.376073, 1439871744.000000, -104.510002,  -199.360001,  -2.940000, 0.000000,  0.000000 
 14350080.000000, -18.187845 , -0.428315, 2.232504, 1439891712.000000, -77.840004,  -215.809998,  -6.160000, 0.000000,  0.000000 
 14370304.000000, -16.407585 , -0.162712, 1.148555, 1439911936.000000, -43.820000,  -232.680008,  -7.000000, 0.000000,  0.000000 
 14392320.000000, -15.780666 , 0.617348, 1.186840, 1439932160.000000, -13.720000,  -263.760010,  -8.680000, 0.000000,  0.000000 
 14409984.000000, -15.876379 , 2.347359, 1.849652, 1439954176.000000, 6.020000,  -269.640015,  -25.059999, 0.000000,  0.000000 
 14429952.000000, -15.335601 , 3.883551, 2.220540, 1439971840.000000, 12.880000,  -280.839996,  -40.320000, 0.000000,  0.000000 
 14449920.000000, -13.466805 , 3.505485, 2.713461, 1439991808.000000, -2.170000,  -301.630005,  -51.240002, 0.000000,  0.000000 
 14470144.000000, -14.550755 , 3.376273, 3.000600, 1440011776.000000, -23.799999,  -332.010010,  -56.980000, 0.000000,  0.000000 
 14490368.000000, -16.130018 , 2.967100, 2.469393, 1440032000.000000, -24.990000,  -325.360016,  -55.930000, 0.000000,  0.000000 
 14509824.000000, -15.302100 , 2.266003, 1.655833, 1440052224.000000, -23.730000,  -310.380005,  -33.459999, 0.000000,  0.000000 
 14529792.000000, -13.227524 , 1.797010, 0.287139, 1440071680.000000, -23.940001,  -312.970001,  -2.240000, 0.000000,  0.000000 
 14549760.000000, -11.459228 , 2.344966, -1.079163, 1440091648.000000, -21.280001,  -306.880005,  29.190001, 0.000000,  0.000000 
 14570240.000000, -8.999406 , 1.923829, -1.899901, 1440111616.000000, -28.700001,  -283.640015,  47.459999, 0.000000,  0.000000 
 14590464.000000, -6.754939 , 1.045663, -1.710868, 1440132096.000000, -54.389999,  -255.290009,  64.889999, 0.000000,  0.000000 
 14609664.000000, -5.434100 , 0.399601, -1.727618, 1440152320.000000, -106.820000,  -220.779999,  62.439999, 0.000000,  0.000000 
 14629632.000000, -4.677969 , -0.016750, -2.031506, 1440171520.000000, -145.529999,  -178.639999,  52.920002, 0.000000,  0.000000 
 14649600.000000, -4.106083 , -0.641276, -1.481157, 1440191488.000000, -154.910004,  -137.899994,  42.770000, 0.000000,  0.000000 
 14670080.000000, -5.264209 , -1.679761, -0.387637, 1440211456.000000, -141.259995,  -94.500000,  35.840000, 0.000000,  0.000000 
 14690304.000000, -7.817351 , -2.014757, 0.105284, 1440231936.000000, -112.840004,  -38.150002,  31.290001, 0.000000,  0.000000 
 14709760.000000, -9.279366 , -1.691726, -1.519442, 1440252160.000000, -58.869999,  17.219999,  34.580002, 0.000000,  0.000000 
 14729728.000000, -8.697910 , -1.129412, -2.868994, 1440271616.000000, 19.389999,  42.070000,  51.029999, 0.000000,  0.000000 
 14749696.000000, -8.556733 , -0.701097, -2.699104, 1440291584.000000, 62.790001,  56.490002,  64.610001, 0.000000,  0.000000 
 14769920.000000, -9.913465 , -0.334995, -1.277767, 1440311552.000000, 51.310001,  95.830002,  62.299999, 0.000000,  0.000000 
 14790144.000000, -11.502297 , -0.263210, 0.071785, 1440331776.000000, 16.450001,  154.070007,  54.810001, 0.000000,  0.000000 
 14809600.000000, -11.643474 , -0.696311, -0.052642, 1440352000.000000, -2.660000,  201.880005,  47.740002, 0.000000,  0.000000 
 14829568.000000, -11.404193 , -0.753739, -0.270389, 1440371456.000000, 8.610000,  223.369995,  46.759998, 0.000000,  0.000000 
 14849536.000000, -12.732209 , -0.667598, -0.062213, 1440391424.000000, 24.570000,  245.139999,  41.790001, 0.000000,  0.000000 
 14870016.000000, -14.572289 , -0.457029, 0.990629, 1440411392.000000, 29.680000,  279.649994,  34.790001, 0.000000,  0.000000 
 14890240.000000, -15.515062 , -0.533599, 2.926422, 1440431872.000000, 32.759998,  302.890015,  30.309999, 0.000000,  0.000000 
 14909440.000000, -15.113067 , -1.174876, 3.115455, 1440452096.000000, 52.570000,  304.220001,  27.230000, 0.000000,  0.000000 
 14929664.000000, -13.880764 , -0.890130, 2.254039, 1440471296.000000, 101.709999,  294.000000,  23.730000, 0.000000,  0.000000 
 14949632.000000, -13.383057 , 0.844666, 1.847259, 1440491520.000000, 160.160004,  275.309998,  13.370000, 0.000000,  0.000000 
 14969856.000000, -14.273187 , 3.385844, 1.055235, 1440511488.000000, 192.570007,  260.679993,  -5.040000, 0.000000,  0.000000 
 14990080.000000, -15.156138 , 3.201597, 0.899701, 1440531712.000000, 169.399994,  252.210007,  -22.330000, 0.000000,  0.000000 
 15009536.000000, -16.405191 , 1.895115, 1.801795, 1440551936.000000, 89.529999,  250.180008,  -36.540001, 0.000000,  0.000000 
 15029504.000000, -17.503498 , 1.639083, 2.770889, 1440571392.000000, 3.640000,  253.820007,  -37.520000, 0.000000,  0.000000 
 15049472.000000, -18.436699 , 1.832902, 4.680361, 1440591360.000000, -46.340000,  256.899994,  -24.010000, 0.000000,  0.000000 
 15069696.000000, -18.362522 , 2.859423, 5.594419, 1440611328.000000, -60.130001,  256.410004,  -11.410000, 0.000000,  0.000000 
 15090176.000000, -16.900507 , 3.376273, 5.558527, 1440631552.000000, -40.670002,  243.389999,  2.520000, 0.000000,  0.000000 
 15109376.000000, -15.766309 , 4.005585, 6.939186, 1440652032.000000, -3.010000,  219.029999,  9.590000, 0.000000,  0.000000 
 15129344.000000, -14.940784 , 4.919643, 8.985049, 1440671232.000000, 5.180000,  199.990005,  7.070000, 0.000000,  0.000000 
 15149312.000000, -13.976478 , 5.094319, 9.738789, 1440691200.000000, 11.620000,  183.399994,  8.330000, 0.000000,  0.000000 
 15169792.000000, -12.722638 , 4.900501, 9.049655, 1440711168.000000, 46.970001,  152.039993,  10.500000, 0.000000,  0.000000 
 15190016.000000, -11.026128 , 5.087141, 7.456036, 1440731648.000000, 87.150002,  105.070000,  16.799999, 0.000000,  0.000000 
 15209472.000000, -10.612168 , 5.860023, 6.510870, 1440751872.000000, 96.110001,  53.760002,  27.930000, 0.000000,  0.000000 
 15229440.000000, -11.100305 , 5.166104, 6.869793, 1440771328.000000, 61.320000,  24.360001,  35.000000, 0.000000,  0.000000 
 15249408.000000, -13.249060 , 3.653840, 8.477771, 1440791296.000000, 3.080000,  5.460000,  43.680000, 0.000000,  0.000000 
 15269632.000000, -15.605989 , 2.277967, 8.257630, 1440811264.000000, -27.860001,  -7.000000,  47.740002, 0.000000,  0.000000 
 15289856.000000, -15.921842 , 1.229911, 5.869594, 1440831488.000000, -3.080000,  -34.160000,  63.770000, 3702415104.000000,  1005.682373 
 15309312.000000, -14.859427 , 0.007178, 4.804788, 1440851712.000000, 39.200001,  -84.000000,  83.860001, 0.000000,  0.000000 
 15329280.000000, -14.711074 , -0.586242, 4.364508, 1440871168.000000, 66.290001,  -130.619995,  97.510002, 0.000000,  0.000000 
 15349248.000000, -16.773687 , -0.172283, 3.251846, 1440891136.000000, 88.690002,  -158.550003,  100.800003, 0.000000,  0.000000 
 15369728.000000, -19.551754 , 0.579063, 1.641476, 1440911104.000000, 122.010002,  -177.800003,  97.580002, 0.000000,  0.000000 
 15391744.000000, -19.913069 , 1.459622, 0.282353, 1440931584.000000, 160.789993,  -199.360001,  100.800003, 0.000000,  0.000000 
 15409408.000000, -17.840885 , 2.359323, -0.634098, 1440953600.000000, 166.529999,  -233.940002,  109.760002, 0.000000,  0.000000 
 15429376.000000, -16.338192 , 2.225325, -1.024128, 1440971264.000000, 121.309998,  -263.549988,  117.459999, 0.000000,  0.000000 
 15449344.000000, -15.314064 , 1.686940, -1.052842, 1440991232.000000, 41.369999,  -269.989990,  108.360001, 0.000000,  0.000000 
 15469568.000000, -14.277972 , 0.909273, -1.165305, 1441011200.000000, -41.790001,  -274.329987,  89.599998, 0.000000,  0.000000 
 15489792.000000, -13.744373 , 0.069392, -0.983450, 1441031424.000000, -105.279999,  -283.570007,  67.690002, 0.000000,  0.000000 
 15509248.000000, -13.533805 , -0.337388, -0.739382, 1441051648.000000, -143.990005,  -287.140015,  45.500000, 0.000000,  0.000000 
 15529216.000000, -13.179667 , -0.643669, -0.631705, 1441071104.000000, -157.360001,  -286.860016,  28.700001, 0.000000,  0.000000 
 15549184.000000, -13.000205 , -0.588634, -0.830309, 1441091072.000000, -150.149994,  -283.079987,  20.160000, 0.000000,  0.000000 
 15570688.000000, -12.212967 , -0.215354, -1.627119, 1441111040.000000, -134.330002,  -273.420013,  17.990000, 0.000000,  0.000000 
 15590400.000000, -10.325029 , 0.284746, -2.811567, 1441132544.000000, -117.250000,  -260.820007,  21.980000, 0.000000,  0.000000 
 15609600.000000, -8.183454 , 0.454636, -3.608376, 1441152256.000000, -111.930000,  -248.990005,  27.650000, 0.000000,  0.000000 
 15629824.000000, -7.123433 , 0.473779, -3.326023, 1441171456.000000, -126.489998,  -233.869995,  27.650000, 0.000000,  0.000000 
 15649792.000000, -6.659225 , 0.473779, -3.467200, 1441191680.000000, -148.820007,  -191.940002,  13.720000, 0.000000,  0.000000 
 15670528.000000, -5.163712 , 0.256032, -2.900101, 1441211648.000000, -144.130005,  -147.210007,  -2.520000, 0.000000,  0.000000 
 15690752.000000, -4.292724 , 0.145962, -1.672583, 1441232384.000000, -98.910004,  -110.809998,  -8.260000, 0.000000,  0.000000 
 15709952.000000, -6.223732 , 0.863809, -1.785046, 1441252608.000000, -18.200001,  -56.139999,  -6.790000, 0.000000,  0.000000 
 15730176.000000, -8.836694 , 1.739582, -4.807181, 1441271808.000000, 83.090004,  19.110001,  -1.470000, 0.000000,  0.000000 
 15750144.000000, -10.490135 , 1.586441, -5.998806, 1441292032.000000, 164.289993,  78.470001,  7.000000, 0.000000,  0.000000 
 15770624.000000, -12.713067 , 0.495314, -5.197211, 1441312000.000000, 170.729996,  128.029999,  8.260000, 0.000000,  0.000000 
 15790848.000000, -16.594225 , 1.265803, -3.493521, 1441332480.000000, 128.940002,  185.850006,  -4.690000, 0.000000,  0.000000 
 15810304.000000, -17.955742 , 1.751546, -2.586641, 1441352704.000000, 84.070000,  237.440002,  -20.160000, 0.000000,  0.000000 
 15830272.000000, -14.895321 , 0.842274, -0.835095, 1441372160.000000, 79.309998,  253.680008,  -23.450001, 0.000000,  0.000000 
 15850240.000000, -14.615361 , 0.959522, 0.490529, 1441392128.000000, 103.459999,  229.600006,  -30.940001, 0.000000,  0.000000 
 15870464.000000, -15.816557 , 1.356731, 0.808774, 1441412096.000000, 117.180000,  231.419998,  -53.549999, 0.000000,  0.000000 
 15891968.000000, -15.333207 , 1.797010, 0.859023, 1441432320.000000, 109.059998,  236.389999,  -70.629997, 0.000000,  0.000000 
 15911680.000000, -14.091332 , 2.821138, -0.028714, 1441453824.000000, 107.520004,  211.889999,  -80.220001, 0.000000,  0.000000 
 15931392.000000, -13.007384 , 3.433701, -0.023928, 1441473536.000000, 125.580002,  181.229996,  -90.860001, 0.000000,  0.000000 
 15951360.000000, -11.564510 , 4.072584, -0.110070, 1441493248.000000, 132.369995,  157.360001,  -104.930000, 0.000000,  0.000000 
 15971584.000000, -10.468598 , 4.204189, -0.251246, 1441513216.000000, 103.250000,  135.169998,  -114.730003, 0.000000,  0.000000 
 15991808.000000, -10.255639 , 3.400201, -0.756132, 1441533440.000000, 35.700001,  140.139999,  -123.410004, 0.000000,  0.000000 
 16011264.000000, -11.270195 , 1.998007, 0.011964, 1441553664.000000, -36.470001,  162.889999,  -125.300003, 0.000000,  0.000000 
 16031232.000000, -13.308880 , 0.318245, 1.725225, 1441573120.000000, -83.370003,  198.240005,  -120.889999, 0.000000,  0.000000 
 16051200.000000, -15.187245 , 0.141177, 2.553142, 1441593088.000000, -57.540001,  233.100006,  -94.360001, 0.000000,  0.000000 
 16071680.000000, -15.316458 , 1.770689, 2.730211, 1441613056.000000, 33.320000,  247.449997,  -55.860001, 0.000000,  0.000000 
 16091904.000000, -15.354744 , 4.199404, 2.591427, 1441633536.000000, 128.940002,  240.660004,  -23.730000, 0.000000,  0.000000 
 16111360.000000, -16.292728 , 6.802795, 2.323431, 1441653760.000000, 180.460007,  231.419998,  -15.540000, 0.000000,  0.000000 
 16131328.000000, -15.866807 , 8.544770, 2.603391, 1441673216.000000, 170.240005,  211.960007,  -33.529999, 0.000000,  0.000000 
 16151296.000000, -14.273187 , 8.800802, 3.833302, 1441693184.000000, 102.059998,  167.089996,  -55.790001, 0.000000,  0.000000 
 16171520.000000, -12.739388 , 7.582855, 5.170890, 1441713152.000000, -6.580000,  118.510002,  -73.919998, 0.000000,  0.000000 
 16191744.000000, -11.751152 , 6.305088, 5.230711, 1441733376.000000, -91.419998,  76.090004,  -84.279999, 0.000000,  0.000000 
 16211200.000000, -11.129018 , 5.388636, 5.158926, 1441753600.000000, -112.000000,  35.490002,  -77.840004, 0.000000,  0.000000 
 16231168.000000, -11.576476 , 5.726025, 5.666204, 1441773056.000000, -85.750000,  -0.980000,  -61.529999, 0.000000,  0.000000 
 16251136.000000, -11.492726 , 6.022735, 5.812167, 1441793024.000000, -42.209999,  -24.710001,  -39.549999, 0.000000,  0.000000 
 16271616.000000, -12.753745 , 5.501099, 6.068198, 1441833472.000000, 30.870001,  -61.880001,  9.310000, 3703416832.000000,  1005.684814 
 16291840.000000, -15.194424 , 4.878965, 5.058427, 0.000000, 0.000000,  0.000000,  0.000000, 0.000000,  0.000000 
 16311040.000000, -16.383656 , 4.364508, 3.065206, 1441853696.000000, 64.470001,  -70.840004,  38.920002, 0.000000,  0.000000 
 16331264.000000, -15.543776 , 4.321437, 1.808974, 1441872896.000000, 91.070000,  -101.989998,  72.660004, 0.000000,  0.000000 
 16351232.000000, -15.062819 , 4.206582, 1.067199, 1441893120.000000, 88.269997,  -144.690002,  104.019997, 0.000000,  0.000000 
 16371456.000000, -15.639489 , 3.249453, 0.782453, 1441913088.000000, 51.520000,  -169.750000,  117.739998, 0.000000,  0.000000 
 16393728.000000, -17.015362 , 2.251646, 0.926022, 1441933312.000000, -1.540000,  -180.320007,  115.919998, 0.000000,  0.000000 
 16411136.000000, -17.400606 , 1.232304, 0.820738, 1441955584.000000, -35.910000,  -189.000000,  110.459999, 0.000000,  0.000000 
 16431104.000000, -16.185053 , 0.947558, 0.232104, 1441972992.000000, -37.380001,  -208.250000,  110.949997, 0.000000,  0.000000 
 16451072.000000, -15.323636 , 0.468993, -0.380459, 1441992960.000000, -29.610001,  -219.029999,  113.750000, 0.000000,  0.000000 
 16471296.000000, -14.277972 , 0.157926, -0.882952, 1442012928.000000, -12.740000,  -238.979996,  118.020004, 0.000000,  0.000000 
 16491776.000000, -13.584054 , 0.062213, -1.143769, 1442033152.000000, -9.100000,  -238.630005,  114.029999, 0.000000,  0.000000 
 16510976.000000, -12.263215 , -0.093320, -1.131805, 1442053632.000000, -14.070000,  -245.699997,  112.489998, 0.000000,  0.000000 
 16531200.000000, -11.432907 , -0.260818, -0.921237, 1442072832.000000, -24.990000,  -247.520004,  106.470001, 0.000000,  0.000000 
 16550912.000000, -11.026128 , -0.334995, -0.646062, 1442093056.000000, -37.029999,  -239.750000,  98.769997, 0.000000,  0.000000 
 16571392.000000, -11.047661 , -0.445065, -0.507278, 1442112768.000000, -45.709999,  -223.790009,  92.610001, 0.000000,  0.000000 
 16591616.000000, -11.282159 , -0.658026, -0.351745, 1442133248.000000, -50.259998,  -202.089996,  89.110001, 0.000000,  0.000000 
 16610816.000000, -11.253445 , -0.827917, -0.291924, 1442153472.000000, -53.200001,  -176.119995,  90.300003, 0.000000,  0.000000 
 16631040.000000, -10.748559 , -0.270389, -1.531406, 1442172672.000000, -54.250000,  -154.419998,  96.110001, 0.000000,  0.000000 
 16651008.000000, -10.109675 , 0.215354, -3.098706, 1442192896.000000, -56.349998,  -138.039993,  104.510002, 0.000000,  0.000000 
 16671232.000000, -9.702895 , 0.157926, -3.725625, 1442212864.000000, -77.559998,  -118.930000,  111.300003, 0.000000,  0.000000 
 16691456.000000, -8.762517 , -0.466600, -3.972085, 1442233088.000000, -130.410004,  -92.050003,  103.739998, 0.000000,  0.000000 
 16710912.000000, -7.125826 , -0.961915, -3.136991, 1442253312.000000, -190.050003,  -73.080002,  84.699997, 0.000000,  0.000000 
 16730880.000000, -5.819345 , -0.825524, -1.808974, 1442272768.000000, -221.970001,  -56.139999,  54.040001, 0.000000,  0.000000 
 16750848.000000, -6.080163 , -0.746561, -1.021735, 1442312704.000000, -144.550003,  6.300000,  -3.850000, 0.000000,  0.000000 
 16771072.000000, -7.747960 , -0.464208, -1.543371, 0.000000, 0.000000,  0.000000,  0.000000, 0.000000,  0.000000 
 16791296.000000, -9.537791 , -0.222532, -2.883351, 1442332928.000000, -63.420002,  45.360001,  -20.719999, 0.000000,  0.000000 
 16810752.000000, -11.502297 , -0.081356, -2.849852, 1442353152.000000, 10.990000,  80.290001,  -25.900000, 0.000000,  0.000000 
 16830720.000000, -13.708481 , -0.043071, -1.895115, 1442372608.000000, 45.360001,  119.489998,  -27.020000, 0.000000,  0.000000 
 16850688.000000, -14.670395 , 0.131605, -0.689133, 1442392576.000000, 52.570000,  161.839996,  -28.210001, 0.000000,  0.000000 
 16871168.000000, -13.418950 , 0.133998, -0.260818, 1442412544.000000, 64.470001,  188.860001,  -20.860001, 0.000000,  0.000000 
 16891392.000000, -12.473784 , -0.337388, 0.064606, 1442433024.000000, 85.610001,  199.779999,  -16.170000, 0.000000,  0.000000 
 16910848.000000, -13.296914 , -0.433101, 0.471386, 1442453248.000000, 100.239998,  215.110001,  -20.719999, 0.000000,  0.000000 
 16930816.000000, -14.763715 , 0.011964, 1.524228, 1442472704.000000, 109.690002,  240.240005,  -29.260000, 0.000000,  0.000000 
 16950784.000000, -14.849857 , 0.662812, 2.371287, 1442492672.000000, 126.209999,  251.229996,  -40.040001, 0.000000,  0.000000 
 16971008.000000, -13.954943 , 1.170090, 2.419144, 1442512640.000000, 162.050003,  235.550003,  -52.639999, 0.000000,  0.000000 
 16991232.000000, -12.916457 , 1.966900, 1.287339, 1442532864.000000, 210.910004,  204.610001,  -67.690002, 0.000000,  0.000000 
 17010688.000000, -11.772687 , 3.235096, 0.203390, 1442553088.000000, 244.720001,  167.580002,  -82.320000, 0.000000,  0.000000 
 17030656.000000, -10.949556 , 4.455436, -0.265603, 1442572544.000000, 224.839996,  129.220001,  -96.949997, 0.000000,  0.000000 
 17050624.000000, -10.796415 , 4.749753, -0.148355, 1442592512.000000, 143.850006,  106.120003,  -108.570000, 0.000000,  0.000000 
 17071104.000000, -11.593226 , 4.063013, 0.258425, 1442612480.000000, 25.410000,  105.279999,  -121.099998, 0.000000,  0.000000 
 17091328.000000, -12.569498 , 3.247060, 1.050449, 1442632960.000000, -93.590004,  121.099998,  -130.059998, 0.000000,  0.000000 
 17110528.000000, -12.952348 , 2.129612, 2.017149, 1442653184.000000, -180.949997,  136.220001,  -128.449997, 0.000000,  0.000000 
 17130752.000000, -12.892529 , 1.220340, 2.778067, 1442672384.000000, -227.360001,  148.330002,  -118.510002, 0.000000,  0.000000 
 17150720.000000, -12.839886 , 0.713061, 4.053442, 1442692608.000000, -233.169998,  158.619995,  -97.860001, 0.000000,  0.000000 
 17170944.000000, -12.928421 , 0.878166, 5.324030, 1442712576.000000, -199.149994,  167.160004,  -72.519997, 0.000000,  0.000000 
 17191168.000000, -12.801601 , 1.641476, 6.245267, 1442732800.000000, -131.389999,  168.419998,  -48.020000, 0.000000,  0.000000 
 17210624.000000, -12.701102 , 2.206182, 7.467999, 1442753024.000000, -45.990002,  156.869995,  -29.330000, 0.000000,  0.000000 
 17230592.000000, -12.973885 , 3.251846, 8.078169, 1442772480.000000, 40.599998,  136.500000,  -18.270000, 0.000000,  0.000000 
 17250560.000000, -13.351951 , 4.847858, 6.697510, 1442792448.000000, 134.259995,  107.379997,  -7.980000, 0.000000,  0.000000 
 17271040.000000, -13.986048 , 6.699903, 4.749753, 1442832896.000000, 226.729996,  5.180000,  8.960000, 3704416256.000000,  1005.682251 
 17291264.000000, -14.555541 , 8.458629, 3.400201, 0.000000, 0.000000,  0.000000,  0.000000, 0.000000,  0.000000 
 17310464.000000, -15.206388 , 8.702696, 3.010171, 1442853120.000000, 168.350006,  -36.680000,  21.139999, 0.000000,  0.000000 
 17330432.000000, -15.290136 , 6.403193, 2.904887, 1442872320.000000, 65.660004,  -61.110001,  34.230000, 0.000000,  0.000000 
 17350400.000000, -14.132010 , 4.110869, 2.600998, 1442892288.000000, -22.049999,  -86.870003,  51.869999, 0.000000,  0.000000 
 17370880.000000, -13.213166 , 2.703890, 2.519642, 1442912256.000000, -71.260002,  -122.150002,  69.440002, 0.000000,  0.000000 
 17393152.000000, -13.483556 , 2.352145, 2.593820, 1442932736.000000, -88.970001,  -149.449997,  81.340004, 0.000000,  0.000000 
 17410560.000000, -14.782858 , 2.215754, 2.380858, 1442955008.000000, -84.209999,  -164.080002,  89.949997, 0.000000,  0.000000 
 17430528.000000, -16.776079 , 1.596013, 1.792224, 1442992384.000000, -29.049999,  -173.880005,  105.489998, 0.000000,  0.000000 
 17450496.000000, -18.106489 , 1.466800, 1.433301, 0.000000, 0.000000,  0.000000,  0.000000, 0.000000,  0.000000 
 17470720.000000, -16.931612 , 1.732404, 0.878166, 1443012352.000000, -0.350000,  -177.380005,  118.020004, 0.000000,  0.000000 
 17490944.000000, -14.806787 , 1.722832, -0.038285, 1443032576.000000, 17.360001,  -196.910004,  136.570007, 0.000000,  0.000000 
 17510400.000000, -13.600803 , 1.517050, -0.847059, 1443052800.000000, 19.600000,  -215.529999,  142.520004, 0.000000,  0.000000 
 17530368.000000, -12.753745 , 1.196411, -0.933201, 1443072256.000000, -1.400000,  -220.779999,  134.680008, 0.000000,  0.000000 
 17550336.000000, -12.191431 , 1.079163, -0.792024, 1443092224.000000, -38.849998,  -225.050003,  118.650002, 0.000000,  0.000000 
 17570816.000000, -11.904292 , 0.727418, -0.373280, 1443112192.000000, -68.599998,  -227.430008,  100.730003, 0.000000,  0.000000 
 17591040.000000, -11.755937 , 0.026321, -0.251246, 1443132672.000000, -88.129997,  -224.350006,  83.720001, 0.000000,  0.000000 
 17610496.000000, -11.504691 , -0.698704, 0.296710, 1443152896.000000, -96.879997,  -216.649994,  73.360001, 0.000000,  0.000000 
 17630464.000000, -10.662418 , -1.296910, 0.124427, 1443172352.000000, -94.779999,  -205.449997,  66.989998, 0.000000,  0.000000 
 17651200.000000, -10.380065 , -1.220340, 0.193819, 1443192320.000000, -76.860001,  -201.110001,  67.480003, 0.000000,  0.000000 
 17670656.000000, -10.028319 , -0.981057, 0.069392, 1443213056.000000, -53.340000,  -181.229996,  66.919998, 0.000000,  0.000000 
 17691648.000000, -9.138189 , -0.720240, -2.627320, 1443232512.000000, -27.160000,  -170.309998,  68.110001, 0.000000,  0.000000 
 17711104.000000, -7.436893 , -0.720240, -4.084548, 1443253504.000000, -10.780000,  -163.100006,  65.099998, 0.000000,  0.000000 
 17731072.000000, -5.690133 , 0.210568, -3.452843, 1443272960.000000, -24.150000,  -149.940002,  62.230000, 0.000000,  0.000000 
 17751040.000000, -5.276174 , -0.043071, -2.289931, 1443292928.000000, -67.760002,  -123.550003,  48.509998, 0.000000,  0.000000 
 17771264.000000, -6.317052 , -0.569492, -1.007378, 1443312896.000000, -114.449997,  -76.019997,  20.790001, 0.000000,  0.000000 
 17792000.000000, -8.176274 , -0.969093, -0.157926, 1443333120.000000, -133.910004,  -23.100000,  -0.490000, 0.000000,  0.000000 
 17811456.000000, -9.262616 , -1.105484, -0.756132, 1443353856.000000, -110.180000,  28.210001,  -13.300000, 0.000000,  0.000000 
 17831424.000000, -9.422935 , -0.978664, -1.770689, 1443373312.000000, -51.590000,  59.290001,  -13.790000, 0.000000,  0.000000 
 17851392.000000, -9.887143 , -0.720240, -2.033899, 1443393280.000000, -1.330000,  85.889999,  -11.690000, 0.000000,  0.000000 
 17871616.000000, -11.397014 , -0.454636, -1.521835, 1443413248.000000, 16.100000,  126.349998,  -21.490000, 0.000000,  0.000000 
 17892352.000000, -13.141381 , 0.112463, -0.825524, 1443433472.000000, 14.420000,  176.610001,  -33.950001, 0.000000,  0.000000 
 17911808.000000, -13.189239 , 0.284746, -0.023928, 1443454208.000000, 11.270000,  217.910004,  -43.959999, 0.000000,  0.000000 
 17931776.000000, -13.028918 , -0.117248, -0.246461, 1443473664.000000, 10.850000,  236.809998,  -48.650002, 0.000000,  0.000000 
 17951744.000000, -14.758930 , -0.167498, 0.210568, 1443493632.000000, 11.760000,  256.130005,  -55.720001, 0.000000,  0.000000 
 17971968.000000, -17.075182 , 0.323031, 1.270589, 1443513600.000000, 15.540000,  289.029999,  -60.130001, 0.000000,  0.000000 
 17991936.000000, -17.572889 , 0.136391, 1.777867, 1443533824.000000, 43.259998,  304.290009,  -57.189999, 0.000000,  0.000000 
 18012672.000000, -15.862022 , 0.256032, 2.024328, 1443553792.000000, 102.480003,  286.440002,  -54.180000, 0.000000,  0.000000 
 18032640.000000, -13.763516 , 1.414158, 1.517050, 1443574528.000000, 166.529999,  248.290009,  -54.810001, 0.000000,  0.000000 
 18052864.000000, -12.727424 , 2.849852, 0.839881, 1443594496.000000, 210.559998,  210.699997,  -59.360001, 0.000000,  0.000000 
 18073088.000000, -12.684352 , 3.696911, 0.418744, 1443614720.000000, 209.089996,  185.360001,  -75.599998, 0.000000,  0.000000 
 18093312.000000, -13.036098 , 3.723232, 0.636491, 1443634944.000000, 156.940002,  172.410004,  -94.989998, 0.000000,  0.000000 
 18112768.000000, -13.026526 , 3.610770, 1.402194, 1443655168.000000, 77.489998,  163.589996,  -108.500000, 0.000000,  0.000000 
 18132736.000000, -13.198811 , 3.550949, 2.469393, 1443674624.000000, 3.710000,  153.789993,  -113.680000, 0.000000,  0.000000 
 18152704.000000, -13.253844 , 3.290131, 3.184847, 1443694592.000000, -46.130001,  151.759995,  -114.239998, 0.000000,  0.000000 
 18172928.000000, -12.942777 , 3.034099, 3.677768, 1443714560.000000, -67.550003,  149.940002,  -106.750000, 0.000000,  0.000000 
 18193408.000000, -12.842279 , 3.091527, 4.256832, 1443734784.000000, -68.669998,  146.089996,  -93.449997, 0.000000,  0.000000 
 18212608.000000, -12.488142 , 3.273381, 5.474778, 1443755264.000000, -58.099998,  143.220001,  -79.590004, 0.000000,  0.000000 
 18232576.000000, -12.299109 , 4.419543, 6.585048, 1443774464.000000, -32.970001,  132.649994,  -67.129997, 0.000000,  0.000000 
 18252544.000000, -12.746566 , 5.776274, 6.783652, 1443794432.000000, 15.400000,  111.510002,  -54.529999, 0.000000,  0.000000 
 18273024.000000, -12.792030 , 6.929615, 6.187840, 1443814400.000000, 73.290001,  87.500000,  -38.009998, 0.000000,  0.000000 
 18293248.000000, -11.973685 , 7.515855, 4.761717, 1443834880.000000, 103.669998,  51.240002,  -20.230000, 3705418240.000000,  1005.683533 
 18312448.000000, -11.284552 , 7.654640, 3.811767, 1443855104.000000, 92.470001,  9.940000,  2.240000, 0.000000,  0.000000 
 18332672.000000, -11.095518 , 7.652246, 3.579663, 1443874304.000000, 39.410000,  -21.420000,  22.049999, 0.000000,  0.000000 
 18352640.000000, -12.184253 , 6.577869, 3.795017, 1443894528.000000, -25.760000,  -42.420002,  42.139999, 0.000000,  0.000000 
 18372864.000000, -14.696717 , 5.558527, 4.070191, 1443914496.000000, -72.870003,  -58.730000,  52.570000, 0.000000,  0.000000 
 18395136.000000, -16.733009 , 3.921836, 3.651447, 1443934720.000000, -99.750000,  -66.500000,  60.480000, 0.000000,  0.000000 
 18412544.000000, -16.687544 , 2.055435, 2.916851, 1443956992.000000, -113.330002,  -86.239998,  73.779999, 0.000000,  0.000000 
 18432512.000000, -16.204195 , 0.976272, 2.763710, 1443974400.000000, -114.590004,  -122.150002,  91.349998, 0.000000,  0.000000 
 18452480.000000, -16.127625 , 0.952343, 2.514857, 1443994368.000000, -93.870003,  -152.529999,  103.599998, 0.000000,  0.000000 
 18472704.000000, -16.941183 , 1.299303, 2.002793, 1444014336.000000, -51.170002,  -172.550003,  109.690002, 0.000000,  0.000000 
 18493184.000000, -18.714266 , 1.399801, 1.368695, 1444034560.000000, -4.900000,  -185.149994,  110.320000, 0.000000,  0.000000 
 18512384.000000, -18.853050 , 1.265803, 0.538385, 1444055040.000000, 33.180000,  -186.690002,  112.629997, 0.000000,  0.000000 
 18532352.000000, -17.611174 , 1.244268, 0.296710, 1444074240.000000, 52.150002,  -199.289993,  119.000000, 0.000000,  0.000000 
 18552576.000000, -16.438692 , 1.509871, -0.421137, 1444094208.000000, 50.610001,  -220.710007,  125.930000, 0.000000,  0.000000 
 18572800.000000, -14.785251 , 1.095913, -0.820738, 1444114432.000000, 37.240002,  -227.570007,  131.389999, 0.000000,  0.000000 
 18593024.000000, -13.378270 , 0.655633, -0.681954, 1444134656.000000, 0.560000,  -241.080002,  123.900002, 0.000000,  0.000000 
 18612480.000000, -12.569498 , 0.500100, -0.411566, 1444154880.000000, -34.439999,  -246.680008,  113.959999, 0.000000,  0.000000 
 18632448.000000, -12.131610 , 0.205783, -0.368495, 1444174336.000000, -56.560001,  -245.350006,  99.330002, 0.000000,  0.000000 
 18652416.000000, -12.165110 , -0.315853, -0.267996, 1444194304.000000, -69.720001,  -240.520004,  87.570000, 0.000000,  0.000000 
 18672640.000000, -12.136396 , -0.626920, -0.026321, 1444214272.000000, -77.699997,  -229.880005,  76.230003, 0.000000,  0.000000 
