time,seconds_elapsed,z,y,x
1633782363071351000,0.00935107421875,0.11417407619059085,-0.2767851432919502,0.626921646259725
1633782363091231200,0.029231201171875,-0.030598551881313323,-0.06303454832285642,0.619665099260211
1633782363111110100,0.049110107421875,-0.034224925684928895,-0.039485038170218464,0.6180328218832611
1633782363130989000,0.068989013671875,-0.027512276303768155,-0.27785277252346274,0.3845759481862187
1633782363150868200,0.0888681640625,-0.075059040376544,-0.5091849091514945,0.074878130851686
1633782363170747100,0.1087470703125,-0.06131459266245365,-0.24518881254494188,0.22201982614248988
1633782363190626000,0.1286259765625,-0.2125625542283058,-0.018765490746498106,0.24885756418555974
1633782363210505000,0.1485048828125,-0.2681295431494713,0.22693945462703705,0.13835706194117664
1633782363230384000,0.168384033203125,-0.24557401247024535,0.19066431841403245,-0.1650687624517828
1633782363250263300,0.18826318359375,-0.17322072392106055,0.10111381134837866,-0.4134666732363403
1633782363270142000,0.208141845703125,-0.09005027328133583,0.13704349512457847,-0.4016548010200262
1633782363290022100,0.228022216796875,0.05002104523181915,0.22033727988302707,-0.4786576689407229
1633782363309901000,0.247901123046875,-0.15051614015996456,0.5161942033916711,-0.2530152683869004
1633782363329780200,0.2677802734375,-0.15659399876892566,0.5916290913432836,-0.04900120066478848
1633782363349659100,0.2876591796875,0.38360125793516636,0.41903672845363615,-0.29006781871318815
1633782363369538000,0.3075380859375,0.6322714828550815,0.35457770028561353,-0.5095565920080989
1633782363389417200,0.327417236328125,0.7061240700513124,0.33764410114139315,-0.7572283074099571
1633782363409296100,0.347296142578125,0.9025900604814291,0.4399710876718163,-0.7731794713880866
1633782363429175000,0.367175048828125,0.967990461152792,0.2357037758409977,-0.6616527679011225
1633782363449054000,0.387053955078125,0.6440086823999881,0.1844943976074457,-0.7734078002512454
1633782363468933000,0.40693310546875,0.5407978987723588,0.1695566484555602,-0.82164934165515
1633782363488813000,0.42681298828125,0.05947744036316871,0.18543372428417204,-0.6366856460355221
1633782363508692000,0.44669189453125,0.10346621969342232,0.24084435359984635,-0.5403193214751779
1633782363528571100,0.466571044921875,0.09858195478320121,0.08959113133698701,-0.6706257634297013
1633782363548450000,0.486449951171875,0.02747194429337978,-0.31606735236644745,-0.8959208118505776
1633782363568328700,0.50632861328125,-0.0700876817047596,-0.22232670013457537,-0.7936986008688807
1633782363588207600,0.52620751953125,0.07732523174285888,-0.11523556794226168,-0.5541570004306733
1633782363608086800,0.546086669921875,0.46721594521105286,-0.31848288907557726,-0.47251982377283275
1633782363627965700,0.565965576171875,0.9406687389850615,-0.3705103056937456,-0.3959956062145531
1633782363647844900,0.585844970703125,0.5730483095139265,-0.13070026357769965,0.06761091632768511
1633782363667723800,0.605723876953125,0.37746728522479533,0.17409166153669356,0.46080797786489125
1633782363687602700,0.625602783203125,-0.0005377601385116576,0.1913619452893734,0.15162059427052735
1633782363707483000,0.64548291015625,0.1143330661445856,-0.09015636400431394,-0.19758418080508708
1633782363727361800,0.66536181640625,-0.1513765563815832,-0.26959786213636394,-0.12194324888736009
1633782363747240700,0.68524072265625,-0.12806991507411003,-0.4393348355948925,-0.37749841101542114
1633782363767119600,0.70511962890625,-0.039894203492999075,-0.6333323900848626,-0.9219146464154123
1633782363786998800,0.724998779296875,-0.282736745172739,-0.6705427613213658,-0.9731471132636069
1633782363806877700,0.744877685546875,-1.061453173226118,-0.5646294407367706,-0.8997761721044778
1633782363826756600,0.764756591796875,-0.8682856398195028,-1.0022761771142483,-1.02042397435382
1633782363846635800,0.7846357421875,-0.8138777578055858,-1.0782000176265836,-1.0434659733757377
1633782363866514700,0.8045146484375,-0.8287164304971695,-1.0200082331597804,-0.7714579813577235
1633782363886393900,0.824393798828125,-0.9056184683918952,-0.981681132853031,-0.7017674822770059
1633782363906273800,0.844273681640625,-1.495648892366886,-0.9984919824004173,-0.4556147200707346
1633782363926152700,0.864152587890625,-1.799943389353156,-0.6462891945526004,0.14364968845658002
1633782363946031900,0.884031982421875,-2.182724563077092,0.16620178506970404,0.793320269075781
1633782363965910800,0.903910888671875,-1.6700924360811709,0.7697399253934621,1.219232947713509
1633782363985789700,0.923789794921875,-1.0372814395219088,0.9395803592264652,1.2711927789881825
1633782364005668600,0.943668701171875,-0.3334749987632036,0.9307847660914063,0.8976509966440498
1633782364025547800,0.9635478515625,0.4114233308404684,0.8826333141237497,0.6342204980310052
1633782364045427000,0.983427001953125,0.9433692301154136,0.8012506236836314,0.52536754379794
1633782364065305600,1.0033056640625,0.8064671892881393,0.41227176436334845,0.38396161568015813
1633782364085184800,1.023184814453125,0.7632260134547948,0.3770107736289501,0.336688553982228
1633782364105064700,1.043064697265625,0.4014169006109237,0.521095711697638,0.42681379219591614
1633782364124943600,1.062943603515625,0.34799043084979053,0.9350339479684829,0.7387688869379461
1633782364144822800,1.08282275390625,0.5274368974179029,1.2274337167605758,0.9050710636422038
1633782364164701700,1.10270166015625,0.8363064472347498,1.0800298634022474,0.8934621666520833
1633782364184580900,1.122580810546875,1.3183756781846283,0.6868246185585856,0.7397172737039626
1633782364204459800,1.142459716796875,1.8058377080887555,0.3485699843034148,0.6239212953999638
1633782364224338700,1.162338623046875,2.0129262148201463,-0.14383885435312985,0.38588863821998237
1633782364244217600,1.182217529296875,2.179294588628411,-0.34344752672314643,0.29259843316935
1633782364264096800,1.2020966796875,1.9007552951455116,-0.4779924830302596,0.4766648146230727
1633782364283976000,1.221975830078125,1.6046353367865085,-0.6041226622134447,0.648308206224814
1633782364303854600,1.2418544921875,1.308611240017414,-0.6701420715659856,0.6964148692026734
1633782364323734800,1.26173486328125,1.0441939953893422,-0.7699982840687036,0.6718224989335984
1633782364343613700,1.28161376953125,0.4414771083205938,-0.8501973176822066,0.557612547712028
1633782364363492600,1.30149267578125,-0.0847837310552597,-0.7282984924584627,0.6392139954693615
1633782364383371800,1.321371826171875,-0.35085225002169607,-0.582376109829545,0.6018501872368156
1633782364403250700,1.341250732421875,-0.1936357354402542,-0.5187146617799997,0.2750076852906495
1633782364423129900,1.3611298828125,-0.4072779015988111,-0.5795546226680278,-0.02373334228694439
1633782364443008800,1.3810087890625,-1.0389192698568106,-0.6773699769929051,-0.2142475116405636
1633782364462887700,1.4008876953125,-1.5018547612696884,-0.5560521665275097,-0.5213561892647296
1633782364482766600,1.4207666015625,-1.784694966816902,-0.5764686393514276,-0.6870544087264686
1633782364502645800,1.440645751953125,-1.8160136496663093,-0.6624754824608564,-0.8518021955955773
1633782364522525700,1.460525634765625,-1.950986183735728,-1.1625634774431586,-1.1854064467616379
1633782364542404600,1.480404541015625,-1.6586913366228342,-1.5515402909368277,-1.54892455548048
1633782364562284300,1.5002841796875,-1.3519745809257029,-1.2100503280222414,-1.3535713485978542
1633782364582163500,1.52016357421875,-1.3570236810088157,-0.38717940868288275,-0.874904181176424
1633782364602042000,1.5400419921875,-1.3685089516192674,0.3389993151426315,-0.598782470229268
1633782364621921300,1.55992138671875,-1.0820499710530043,0.7551493822440505,-0.4769995264701545
1633782364641800200,1.57980029296875,-0.4877928692936897,0.7479451499536633,-0.71180284634009
1633782364661679400,1.599679443359375,0.28916180978417394,0.21860651056766509,-1.316862789403647
1633782364681558000,1.61955810546875,0.9851233822613954,-0.04422551069557667,-1.5168039085984228
1633782364701437200,1.639437255859375,1.0217045156836508,-0.10660568676292896,-1.4592314250737428
1633782364721317400,1.6593173828125,0.5082417830824851,0.2936088523209095,-1.0755927577376365
1633782364741196000,1.679196044921875,0.20478724405169485,0.7245446928828955,-0.6737703450657427
1633782364761075200,1.6990751953125,0.22778175067007542,1.0286264239013194,-0.44811610794365403
1633782364780954000,1.7189541015625,0.354703664752841,1.1275757506921886,-0.46786885616183277
1633782364800833300,1.738833251953125,0.7140688915759325,1.172756662416458,-0.40523397468104955
1633782364820712400,1.75871240234375,1.0700152498662472,1.056833696731925,-0.2704819514945149
1633782364840591000,1.778591064453125,1.4789508555442095,0.8956012245073914,-0.0875343266713433
1633782364860470300,1.79847021484375,1.9747581044673919,0.6277525441259145,-0.14807576127052308
1633782364880349200,1.81834912109375,2.2438041779398916,0.34027415738403793,-0.32056627122089265
1633782364900228400,1.838228271484375,2.3453806383639573,0.07076221996545791,-0.31084231119453903
1633782364920107000,1.85810693359375,2.232029568994045,-0.19236615389585493,-0.15440730237960815
1633782364939987200,1.8779873046875,1.782686549603939,-0.44896629503220314,-0.13390870423018933
1633782364959866400,1.897866455078125,1.0322446143984794,-0.5623556505858898,-0.11485066027790307
1633782364979745000,1.9177451171875,0.29458500387668607,-0.48977322945594787,0.03587459258809685
1633782364999624200,1.937624267578125,-0.23516952283382414,-0.3332563875764608,0.17071224823147058
1633782365019503000,1.957503173828125,-0.3062649202764034,-0.3517114971995354,0.09626271805539727
1633782365039382300,1.97738232421875,-0.09480302076637745,-0.5802317912772298,-0.07869900431409478
1633782365059261400,1.997261474609375,-0.11004793617129326,-0.8421744624853134,-0.19741364654377103
1633782365079140000,2.01714013671875,-0.40817864983081814,-1.0326099405795335,-0.3798008427388966
1633782365099019300,2.037019287109375,-1.1267962907522917,-0.8565960788086057,-0.5092639657370746
1633782365118899500,2.0568994140625,-1.736270250865817,-0.6300289646252989,-0.264828017386049
1633782365138778000,2.076778076171875,-1.9262819505900144,-0.5107385683342814,-0.17106997562795875
1633782365158657300,2.0966572265625,-1.898808837252855,-0.9268234612450003,-0.720017278586328
1633782365178536200,2.1165361328125,-1.6154869856685399,-0.6936456967502832,-0.8725250309549272
1633782365198415400,2.136415283203125,-2.0294331129848957,-0.10005524220615625,-0.36457857755720613
1633782365218294000,2.1562939453125,-2.834929995936155,0.6375692970022558,0.15469481408409774
1633782365238173200,2.176173095703125,-2.984894931954145,1.4448659228518603,0.5739757996223867
1633782365258052000,2.196052001953125,-2.39401519767344,2.1137539027035235,1.0479169614352286
1633782365277931300,2.21593115234375,-1.3237182082563639,2.176027403526008,0.9544514728829264
1633782365297810400,2.235810546875,-0.24335867450833318,1.5108888393357396,0.37417511181160806
1633782365317690000,2.255690185546875,0.4638806633085012,0.9242053877010941,0.12511954083591698
1633782365337569300,2.2755693359375,0.6124316408753395,0.6910901670485734,0.1331127315469086
1633782365357448400,2.295448486328125,0.4175876986891031,0.8753177304133772,0.5157999433770776
1633782365377327000,2.3153271484375,0.46816637780368325,1.1232339220955967,0.6290433145888149
1633782365397206300,2.335206298828125,0.7749936081379651,1.3100035711586475,0.5450882894426584
1633782365417085200,2.355085205078125,1.2729770320564509,1.2322291343435645,0.24642799895107745
1633782365436964400,2.37496435546875,1.8312819459468126,0.8646844004571438,0.029030133520811796
1633782365456843300,2.39484326171875,2.2123504705339667,0.34168607000857587,-0.15886808118075132
1633782365476722200,2.41472216796875,2.363627658194303,-0.024349428358674048,-0.23764219655767083
1633782365496601300,2.434601318359375,2.261817389014363,-0.20861293981969356,-0.2501797527000308
1633782365516481300,2.454481201171875,2.0363865853846073,-0.2059744080096483,-0.05807429556697607
1633782365536360200,2.474360107421875,1.6893828274846077,-0.1659603775292635,0.1489893689841032
1633782365556238300,2.49423828125,1.1004805307567118,-0.16770429858714342,0.31701588526293634
1633782365576117500,2.514117431640625,0.6938514484554529,-0.13790887978225946,0.40394247356578705
1633782365595996400,2.533996337890625,0.1980927148491144,-0.22465105142891406,0.3376562299706042
1633782365615875600,2.55387548828125,-0.14144786756336689,-0.19776099867671726,0.4075198936611414
1633782365635754500,2.57375439453125,-0.0032283143967390057,-0.0900885594651103,0.33450200372338296
1633782365655633400,2.59363330078125,0.18922844039201736,-0.3393389223605394,-0.0663227762132883
1633782365675512600,2.6135126953125,0.33157062644660473,-0.6596043109387159,-0.3529821016572416
1633782365695392300,2.633392333984375,0.4593541257947683,-0.8989119564905762,-0.5682322875343263
1633782365715271400,2.653271484375,0.3661971186697483,-0.915192060162127,-0.6177348618499934
1633782365735150600,2.673150634765625,-0.39130759452879427,-1.0796113457292318,-0.9028827598176896
1633782365755029500,2.693029541015625,-1.0162626168906688,-1.0589005661338566,-1.1974508125595749
1633782365774908400,2.712908447265625,-1.741999734428525,-0.9313368470162152,-1.1977503800280391
1633782365794787300,2.732787353515625,-2.4041519762843846,-0.9982394689440727,-1.0025792517140506
1633782365814666500,2.75266650390625,-2.8616625200390815,-0.5277975474238396,-0.46620516073331236
1633782365834545400,2.77254541015625,-3.545914950022101,-0.10567834278494119,-0.32156025069430466
1633782365854424600,2.792424560546875,-3.8473417826175687,0.6882943988502025,0.09403357076384126
1633782365874303500,2.812303466796875,-3.1393489960849283,1.611262645971775,0.5893789743289352
1633782365894183400,2.832183349609375,-1.7409171998888253,1.745266919530928,0.18974771502576768
1633782365914062600,2.8520625,-0.47317806848585603,1.08695323292464,-0.78384326954782
1633782365933941200,2.871941162109375,0.5672767403751612,0.5142489145427942,-1.3071335686802863
1633782365953820400,2.8918203125,1.0164753828585147,0.3541387243464589,-1.103621166869998
1633782365973699600,2.911699462890625,0.9914145913600921,0.4174576425686478,-0.7477277078106999
1633782365993578500,2.93157861328125,0.7085282085835933,0.6030071021869778,-0.5710957141414285
1633782366013457700,2.951457763671875,0.3229652951866388,0.9356444810822605,-0.3350282560871914
1633782366033336300,2.97133642578125,0.222566061848402,1.2246458396077156,-0.2532007079564035
1633782366053215500,2.991215576171875,0.5968892038285732,1.4812743300557136,-0.2016942464724183
1633782366073094400,3.011094482421875,1.1809148344308138,1.5512851471319793,-0.08070057166116312
1633782366092974300,3.030974365234375,1.7670365605294704,1.3693635226219891,-0.11207593486756086
1633782366112853500,3.050853515625,2.132624607390165,0.8435334758788346,-0.4134954609394073
1633782366132732400,3.070732421875,2.3308353956609964,0.3441130048945546,-0.5795445396654307
1633782366152611600,3.090611572265625,2.2856951082080603,-0.04777414308786392,-0.7549165964014828
1633782366172490200,3.110490234375,2.028628810864687,-0.2536778239488601,-0.7751562513537704
1633782366192369400,3.130369384765625,1.5229928263664245,-0.33590427173674103,-0.6295278832353651
1633782366212248600,3.15024853515625,0.9861258373022079,-0.3297504252821207,-0.4281628687173128
1633782366232127500,3.17012744140625,0.5620867705166339,-0.28612404952347276,-0.25822759620770813
1633782366252006700,3.190006591796875,0.12975216907262802,-0.4385749571382999,-0.2653498493030667
1633782366271886600,3.209886474609375,-0.012985153779387474,-0.6872109875276684,-0.30856837491318584
1633782366291765500,3.229765625,-0.018791794231534004,-0.8575155317410826,-0.35139103307351466
1633782366311644700,3.249644775390625,0.056470075240731235,-0.9593389526635407,-0.3537292667627334
1633782366331523300,3.2695234375,-0.7165665536105632,-1.2006658290833234,-0.41676498412936924
1633782366351402500,3.289402587890625,-2.093154182267189,-1.1196402815178037,-0.15142404878512025
1633782366371281400,3.309281494140625,-2.8339386468112466,-0.5703577552556991,0.5935458847500383
1633782366391160600,3.32916064453125,-3.059626055550575,-0.14765256742238997,0.8597093154583125
1633782366411039500,3.34903955078125,-2.9631390272200107,-0.13441314662098883,0.5073211611062288
1633782366430918400,3.36891845703125,-2.710187179458141,0.4275634415194392,0.6189519094895571
1633782366450797600,3.388797607421875,-2.8701819265812634,0.7624222958564758,0.9153017310816794
1633782366470677200,3.40867724609375,-2.3223007915496825,1.1483441056936978,1.33688310251683
1633782366490556400,3.428556396484375,-1.1864040794968604,1.4494462363794445,1.3247370299100876
1633782366510435600,3.448435546875,-0.4850602294594049,1.231907355043292,0.77680993684493
1633782366530314500,3.468314453125,-0.2683504924237728,0.9205082867488265,0.4495544701837003
1633782366550193700,3.488193603515625,-0.38925241556465623,0.7729810992717743,0.37055860181488093
1633782366570072600,3.508072509765625,-0.5535790544122458,1.0184610037177801,0.6139957483869045
1633782366589951700,3.52795166015625,-0.4756541032105684,1.3474720088094472,0.7901035720515995
1633782366609830700,3.54783056640625,0.06957797861695289,1.718291526582837,0.9732401983745396
1633782366629709800,3.567709716796875,0.8420534664541482,1.8127756906583905,0.7847355422124266
1633782366649588700,3.587588623046875,1.778434152856469,1.5627216101646422,0.3056472267694771
1633782366669468700,3.60746875,2.433615971177816,1.1777879345819353,-0.09405790148749947
1633782366689347800,3.627347900390625,2.7396248708665367,0.7291872579917311,-0.2532692431479692
1633782366709226500,3.6472265625,2.6595237446695563,0.26061843686699865,-0.21447408693805337
1633782366729105700,3.667105712890625,2.783870255306363,0.023754385074973104,-0.32915392069369553
1633782366748984800,3.68698486328125,2.807550406101346,-0.07367723062932491,-0.38565424494221806
1633782366768863700,3.70686376953125,2.481075056967139,-0.09192366593778133,-0.2917388206653297
1633782366788742700,3.72674267578125,1.6833482234954833,-0.10245002838820219,-0.04819616789221763
1633782366808621600,3.74662158203125,0.6056073478132487,-0.06449000782817602,0.26222104975804683
1633782366828500700,3.766500732421875,-0.2356944234907627,-0.04446516467034817,0.6700919488139451
1633782366848379600,3.786379638671875,-0.9098422235667705,-0.14719810165315866,0.8959627512961625
1633782366868259600,3.806259521484375,-0.8766898955494165,-0.27598142569363115,0.773021577412635
1633782366888138800,3.826138671875,-0.47636546635031696,-0.6329220557183027,0.21370529452264309
1633782366908017700,3.846017578125,-0.30947862162590023,-0.987899276715517,0.013117255726456641
1633782366927896800,3.865896728515625,-0.43873920778930187,-1.2206103004813194,-0.05980038870722055
1633782366947775700,3.885775634765625,-1.0947627376317977,-1.5209709651499985,-0.29791590186506506
1633782366967654700,3.905654541015625,-1.1327929008185862,-1.4568901226446032,-0.39489845862761136
1633782366987533800,3.925533935546875,-1.4003402601659296,-1.332600895152986,-0.5865205161578952
1633782367007412700,3.945412841796875,-2.1334669034332037,-1.3250108784154058,-0.7891479518271982
1633782367027291600,3.965291748046875,-2.7005413992345333,-0.4859028177633881,-0.4006801107689738
1633782367047170600,3.985170654296875,-3.1338994985073803,0.26255232753902674,0.024650018740445374
1633782367067050800,4.00505078125,-2.8943635971575974,1.079042021408677,0.314603271163255
1633782367086930000,4.024929931640625,-1.9816998864293098,1.350322137543559,0.1399465230897069
1633782367106808600,4.04480859375,-0.9007938247144222,0.7366054252937436,-0.6837482798531651
1633782367126687700,4.064687744140625,-0.12741349699199198,0.06562222672849893,-1.5035320468321443
1633782367146566700,4.084566650390625,0.2215910793364048,-0.1273690733283758,-1.659172690398991
1633782367166445800,4.10444580078125,0.11329670883417128,0.3317933292865753,-1.0197773470133542
1633782367186324700,4.12432470703125,-0.09046586834490299,1.1119956119835377,-0.314870141938515
1633782367206203600,4.14420361328125,0.03954641296863556,1.7024211727559566,-0.011419146571680902
1633782367226082800,4.164082763671875,0.458826887050271,1.957981741711497,-0.015271949542313814
1633782367245961700,4.183961669921875,1.1250479857802391,1.92584239012897,-0.193434659910202
1633782367265841700,4.203841552734375,1.8983301138252018,1.6305045220583676,-0.3972727865435183
1633782367285720800,4.223720947265625,2.455387073481083,1.204735855001211,-0.5523030431270599
1633782367305599700,4.243599853515625,2.7247154710263013,0.8346224396705627,-0.6856849470041692
1633782367325479000,4.26347900390625,2.6362188569277523,0.5057125568658113,-0.7376020351156591
1633782367345357600,4.283357666015625,2.416230536612868,0.3232312526464462,-0.7366372817367315
1633782367365236700,4.30323681640625,2.090937675261497,0.2606991008877754,-0.6747282303124665
1633782367385115600,4.32311572265625,1.599640012717247,0.1136491755336523,-0.6332862128555774
1633782367404994800,4.342994873046875,0.968686042201519,-0.06411416025310754,-0.579968464165926
1633782367424873700,4.362873779296875,0.2193424236267805,-0.24999329021722078,-0.545478750064969
1633782367444752600,4.382752685546875,-0.458259900817275,-0.4276829762458801,-0.6261657133258879
1633782367464632800,4.4026328125,-0.8122562940835952,-0.5376183919534087,-0.589390372505784
1633782367484511500,4.422511474609375,-0.791072051757574,-0.7529802215114235,-0.4920769763536751
1633782367504390700,4.442390625,-0.7993792768537997,-1.1027300632491708,-0.5566935331709683
1633782367524269800,4.462269775390625,-0.9905465763539075,-1.0755740530371665,-0.30268987480122594
1633782367544148700,4.482148681640625,-1.8170628664582966,-1.0353738523349165,-0.18488328732717782
1633782367564028000,4.50202783203125,-1.94147133641541,-0.760601510170102,0.19194186406917868
1633782367583907000,4.521906982421875,-1.9365555073231457,-0.39365971061289307,0.5649749297061935
1633782367603786000,4.541785888671875,-2.0510300277650355,-0.4728986670225858,0.38190833641216154
1633782367623665200,4.5616650390625,-2.014312700742483,0.08481091132313012,0.6643949792813509
1633782367643544300,4.58154443359375,-2.5135756430774925,0.7065922720849513,1.0487652488276362
1633782367663424000,4.601424072265625,-2.5911656632363793,1.2807026578724383,1.3468250892080367
1633782367683303200,4.62130322265625,-1.8305448638439177,1.6959665897890925,1.3430492239311336
1633782367703182300,4.641182373046875,-0.8791039709538221,1.4990297669768333,0.7597193205080925
1633782367723061000,4.66106103515625,-0.33060967245996,0.9007330344378948,0.29307474544420836
1633782367742940200,4.680940185546875,-0.3230442056417465,0.48042993931025263,0.18398885923810301
1633782367762819000,4.700819091796875,-0.3662614160776138,0.5850061660721898,0.4378809835247695
1633782367782698200,4.7206982421875,-0.19617840566039085,1.070078962752223,0.7187411211706698
1633782367802577000,4.740576904296875,0.14817746807932852,1.472519068931043,0.7398732679832726
1633782367822456000,4.7604560546875,0.5938876839250326,1.621294210642576,0.571884014974907
1633782367842335000,4.7803349609375,1.0408680658370255,1.3198054187268018,0.1674179559264332
1633782367862215200,4.800215087890625,1.5822832197248935,0.8577958099871873,-0.18644721217565238
1633782367882094000,4.820093994140625,2.2068565492928025,0.407557887583971,-0.44333720310404895
1633782367901973000,4.839972900390625,2.5683885987609623,0.010511164881289005,-0.7227916386704891
1633782367921852200,4.85985205078125,2.53599731824398,-0.002523380997776985,-0.7089283138170838
1633782367941731300,4.8797314453125,2.2571283544152974,0.2704208689570427,-0.2831692913711071
1633782367961610000,4.89960986328125,1.9568138669759034,0.42923400508016346,0.07851897157207131
1633782367981489200,4.9194892578125,1.5383324343174696,0.4437041367202997,0.16175050474926828
1633782368001368000,4.9393681640625,1.0919190386384725,0.5227122069835662,0.44585342370867725
1633782368021247200,4.959247314453125,0.5062245980411768,0.4704316923871636,0.6765566147834062
1633782368041126000,4.9791259765625,-0.0787970578610897,0.15029986706078052,0.6546455194875598
1633782368061006000,4.999006103515625,-0.23912848959267138,-0.19955986479222773,0.544832707246393
1633782368080885200,5.01888525390625,-0.2832078698158264,-0.5890601176381111,0.2665811446636915
1633782368100764200,5.03876416015625,-0.5835200191676616,-1.0167015928298235,0.003223199830204248
1633782368120643000,5.05864306640625,-0.9084487233817576,-1.311861766245961,-0.18748071994185447
1633782368140522000,5.07852197265625,-1.5651438688755035,-1.5355121161997318,-0.3701210141152143
1633782368160401200,5.098401123046875,-1.5025731386721133,-1.570301690030098,-0.556418954013288
1633782368180280300,5.1182802734375,-1.4828817652523516,-1.5201725082486868,-0.9436104915253818
1633782368200159000,5.138158935546875,-1.8928256711900233,-1.5089569944903254,-1.1430324091516435
1633782368220038100,5.1580380859375,-2.2864684306681156,-0.5054772868052124,-0.8137513549469411
1633782368239917000,5.1779169921875,-2.5998914060056206,0.33568303020149465,-0.4830336920678615
1633782368259797000,5.197796875,-2.272497188460827,1.1508619337335229,-0.2592901839379221
1633782368279676200,5.21767626953125,-1.6517413713544606,1.1280728865593672,-0.6642867696665227
1633782368299555000,5.23755517578125,-1.07019645165205,0.4453513194054365,-1.3136128476969897
1633782368319434200,5.257434326171875,-0.43926118583679197,0.237170925784111,-1.381320210136473
1633782368339313200,5.277313232421875,0.08950374531447887,0.4296177437007427,-0.9436093224816023
1633782368359192000,5.297192138671875,0.6888894421339035,0.9248802182227372,-0.44639732132703064
1633782368379071000,5.317071044921875,0.9956120430499314,1.252348085525632,-0.17761008145380763
1633782368398950100,5.3369501953125,0.8218938910007476,1.551589975297451,0.09243556098267436
1633782368418829300,5.356829345703125,0.7410574362665414,1.8391624700635671,0.2772909739222377
1633782368438708000,5.3767080078125,0.9785936882317066,1.8982582176327705,0.3335734907016158
1633782368458588200,5.396588134765625,1.526540874236822,1.5934300521612166,0.06701938017532229
1633782368478467000,5.416467041015625,2.310637826284766,1.0525246013611556,-0.23149905416015534
1633782368498346000,5.436345947265625,2.670289468833804,0.44305531742274756,-0.41828810204342004
1633782368518225200,5.45622509765625,2.463873746797442,-0.0039022681355476378,-0.4383725664339959
1633782368538104000,5.47610400390625,2.0301701950877904,-0.16731588379144668,-0.4098692332662642
1633782368557987300,5.4959873046875,1.323068804436922,-0.08559621648192405,-0.21428820897713302
1633782368577866500,5.515866455078125,0.402550288555026,-0.08095628172159194,0.053811815816909074
1633782368597745400,5.535745361328125,-0.43301849205493925,-0.21827684022188185,0.19499073024578392
1633782368617624600,5.55562451171875,-0.9539256954431533,-0.5367459930330515,-0.03378244261443615
1633782368637503500,5.57550341796875,-0.9113187258601189,-0.7815671413093804,-0.26038550489395856
1633782368657382400,5.59538232421875,-0.6464560755521058,-0.9695452893793582,-0.32081867507938294
1633782368677262600,5.6152626953125,-0.5427285745739937,-1.3017577208608389,-0.5420417613536119
1633782368697141500,5.6351416015625,-0.9261445390701294,-1.3087649692744017,-0.5100559928976
1633782368717020400,5.6550205078125,-1.8595558542728423,-1.2072943073123692,-0.13793058015741408
1633782368736899300,5.6748994140625,-2.292290268689394,-0.6681137806087732,0.36158867502622305
1633782368756778500,5.694778564453125,-2.5140070202320812,-0.6393833606868982,0.3066509239193052
1633782368776657700,5.71465771484375,-2.5200626670092343,-0.6103738315626979,0.011824001045525074
1633782368796536300,5.734536376953125,-2.7322236546993253,0.3611819208562374,0.4547884983796626
1633782368816415500,5.75441552734375,-3.163228468844294,1.2187117733836172,1.0434322172366082
1633782368836294400,5.77429443359375,-2.687428819683194,2.0850185143455864,1.5144222741588949
1633782368856173600,5.794173583984375,-1.6396382611066103,2.4686720869898795,1.4598139011368154
1633782368876053500,5.814053466796875,-0.8780956706941128,1.8323057360365986,0.9385562768757343
1633782368895932400,5.833932373046875,-0.39490240415036676,1.2315601490408181,0.7537704951062798
1633782368915811600,5.8538115234375,-0.12325345470309257,0.9045543462917208,0.6812154003746808
1633782368935690500,5.8736904296875,0.45522214055657384,0.957742038860917,0.7110073120482265
1633782368955569400,5.8935693359375,1.0523767173230647,1.2612386634677648,0.665622548314929
1633782368975448300,5.9134482421875,1.3494722427159547,1.608864352658391,0.5725668096072971
1633782368995327500,5.933327392578125,1.3464081789702176,1.8153584006279706,0.5816108245454729
1633782369015206700,5.95320654296875,1.330678110396862,1.7100252180188893,0.5282451450608671
1633782369035085300,5.973085205078125,1.4392676644533873,1.2826719121187924,0.43188115858808157
1633782369054965500,5.992965576171875,1.6003765102982521,0.827794054955244,0.2179403017438948
1633782369074844400,6.012844482421875,1.7767022144973277,0.6419359677791595,0.2436578035853803
1633782369094723600,6.0327236328125,1.6556027229577301,0.5703641849964857,0.3816328804716468
1633782369114602500,6.0526025390625,1.3472154036998747,0.49866848357319826,0.5688666399151087
1633782369134481400,6.0724814453125,0.9390390919566154,0.3535907350748777,0.810836344283074
1633782369154360600,6.092360595703125,0.43446167660057544,0.0717167442113161,0.9845406139373779
1633782369174239500,6.112239501953125,0.16474632556438445,-0.1184638823390007,1.168019989283383
1633782369194118400,6.132118408203125,0.26044834099709985,-0.3486182073593139,1.1530955380044876
1633782369213997300,6.151997314453125,0.42824820891320703,-0.7056985381156206,0.8388795125931501
1633782369233876500,6.17187646484375,0.6097159521758556,-0.9394161085754632,0.4792388298295438
1633782369253756400,6.19175634765625,0.5510948363810777,-1.1060814195036888,0.08894245816990733
1633782369273635300,6.21163525390625,0.2795002474695444,-1.1231862835615873,-0.16697218492031096
1633782369293514500,6.231514404296875,-0.4227724078506231,-1.172842587134242,-0.3910099267564714
1633782369313393700,6.2513935546875,-1.124770337882638,-1.2634212682038546,-0.5704544936284422
1633782369333272600,6.2712724609375,-1.8815099119275807,-1.308517716515064,-0.7370018772654235
1633782369353151500,6.2911513671875,-2.6172359240382908,-1.5548580371826886,-0.9238623464170843
1633782369373030400,6.311030517578125,-2.9402684392422436,-1.2364864995270968,-0.8895120407868177
1633782369392909600,6.33090966796875,-2.9821845039516686,-0.37611002539694305,-0.4598044999107718
1633782369412788500,6.35078857421875,-3.058865008050203,0.5427919951990247,-0.13664222084730862
1633782369432667400,6.37066748046875,-2.8180905048161744,1.4138292718142271,0.024635990215092895
1633782369452546300,6.39054638671875,-1.9551672688126562,2.096671250477433,0.13366510473266244
1633782369472426500,6.410426513671875,-0.7525403687894344,2.1587825464755297,-0.23373715194314718
1633782369492305400,6.430305419921875,0.4092062393128872,1.4045008869767188,-0.9256826206468045
1633782369512184300,6.450184326171875,1.4138731109559535,0.6609329291939735,-1.538160000360012
1633782369532063500,6.4700634765625,2.101015417161584,0.14653437704741953,-1.964285810291767
1633782369551942700,6.489942626953125,2.1889789472967385,0.025792028382420538,-1.9524254227586089
1633782369571817500,6.5098173828125,1.7502374014198778,0.35170214484930035,-1.570975789899379
1633782369591696400,6.5296962890625,1.118157057222724,0.886905584615469,-1.134929036064446
1633782369611575300,6.5495751953125,0.5495885234713555,1.295147947332263,-0.9367172248803078
1633782369631454500,6.569454345703125,0.3728548229932785,1.6400649620860814,-0.712896632926166
1633782369651333400,6.58933349609375,0.20798574783205984,1.5978946303546429,-0.6142160400740801
1633782369671213300,6.60921337890625,0.49774201637804505,1.580364818882942,-0.36892318263277407
1633782369691092200,6.62909228515625,1.1000877320468425,1.2637351564586161,-0.3738914725646376
1633782369710971400,6.648971435546875,1.6635539742231369,0.836930716612935,-0.5181085125803947
1633782369730850600,6.6688505859375,1.9570628733009099,0.318373291221261,-0.5487814448721706
1633782369750729200,6.688729248046875,1.9282342537015675,-0.1676022995173931,-0.5969112695299088
1633782369770608400,6.7086083984375,1.5100041654556988,-0.4910182610809803,-0.39262934465184807
1633782369790487300,6.7284873046875,0.7695727521330118,-0.7718623243749141,-0.10443857185691595
1633782369810366500,6.748366455078125,0.263611188942194,-0.8520295015454292,-0.035135318528115744
1633782369830245400,6.768245361328125,-0.19951251851916313,-0.8215981229245662,0.061310208748281
1633782369850124300,6.788124267578125,-0.3317272783130407,-0.7675269255191087,0.21024171006530523
1633782369870003500,6.80800341796875,-0.1772755522698164,-0.9656137951493262,0.20228331667305902
1633782369889883400,6.82788330078125,-0.2941296613246202,-1.499686769580841,0.07765724017620086
1633782369909762300,6.84776220703125,-0.31305121941566466,-1.6326777744442225,-0.023158903399854897
1633782369929641200,6.86764111328125,-0.6638888563901185,-1.3836884005725383,0.1231875498600304
1633782369949520400,6.887520263671875,-1.100724860906601,-0.9328747241079807,0.5675669554933905
1633782369969399600,6.907399658203125,-1.3646481845378875,-0.6911410204529762,0.5018192026890814
1633782369989278200,6.9272783203125,-1.9196686699301004,-0.6794783474490046,0.25843568600043654
1633782370009157400,6.947157470703125,-2.4664187551051375,-0.05561024354100227,0.6143865743353962
1633782370029036300,6.967036376953125,-3.1757869216442107,0.7393938869684934,1.0130201278381048
1633782370048915500,6.98691552734375,-3.5855215687453743,1.5808268834367394,1.2913770504914224
1633782370068794400,7.00679443359375,-2.653547592869401,2.4668928023576737,1.6350559017524122
1633782370088674300,7.02667431640625,-1.4176900388956069,2.387623450809717,1.1618525526948273
1633782370108553500,7.046553466796875,-0.5404863486051559,1.6039385866940021,0.5205272641599178
1633782370128432400,7.066432373046875,-0.06879179667532444,0.9461340186536311,0.031016046641021967
1633782370148311300,7.086311279296875,-0.014841595301032065,0.7044651969283818,0.03539046233296394
1633782370168190200,7.106190185546875,-0.13042203115820883,1.0604653312325476,0.3765153913274407
1633782370188069400,7.1260693359375,-0.023023148190975187,1.5231822114586828,0.6575602378904819
1633782370207948500,7.145948486328125,0.40131168667078015,1.8432587994664906,0.816371766578406
1633782370227827200,7.1658271484375,0.8745213193386793,1.9271873749971389,0.7459997149743139
1633782370247706400,7.185706298828125,1.5072598351836204,1.9430933846592902,0.6425460625015199
1633782370267585300,7.205585205078125,2.18261701104939,1.8025690616816281,0.624053397347033
1633782370287464400,7.22546435546875,2.617223064556718,1.2392360904961823,0.5246203786924482
1633782370307344400,7.245344482421875,2.675235693064332,0.6008849954664707,0.29030148133859035
1633782370327223300,7.265223388671875,2.4040029232025146,0.22304946145117283,0.261009482011199
1633782370347102500,7.2851025390625,2.0098206500202416,0.12206804431080817,0.48967868304029105
1633782370366981400,7.3049814453125,1.613483829152584,0.027669804953038692,0.6415028370589018
1633782370386860300,7.3248603515625,1.2876251506119967,-0.0003615267887711525,0.7296336865849793
1633782370406739200,7.3447392578125,0.7865741558164357,-0.010201076018810271,0.8166331939935684
1633782370426618400,7.364618408203125,0.19681144286692143,-0.20134236429482696,0.8748599036432803
1633782370446497500,7.38449755859375,-0.47492111276090143,-0.6530982900455594,0.7010828610137104
1633782370466376200,7.404376220703125,-0.7714484828770161,-1.2461474773198364,0.4231267742462456
1633782370486255400,7.42425537109375,-0.9254787686377763,-1.753613015332818,0.03055398208722472
1633782370506135600,7.444135498046875,-1.2007546764105557,-1.9210814593374728,-0.3351809258982539
1633782370526014200,7.46401416015625,-1.6961913384556768,-1.9570555667772889,-0.7322288176447153
1633782370545893400,7.483893310546875,-1.521233415478468,-1.7312901243656873,-0.9470259259920567
1633782370565771800,7.503771728515625,-1.6941636320203541,-1.9010837964475154,-1.5113302994929254
1633782370585651000,7.52365087890625,-2.4957950717151163,-1.8458046845570206,-2.033155786769837
1633782370605529900,7.54352978515625,-3.2087107016026972,-0.8765168770700693,-1.5093407331109046
1633782370625408800,7.56340869140625,-3.758526019567251,0.32116233741790057,-1.0501116950005291
1633782370645287700,7.58328759765625,-3.9026416450351475,1.5642837449148297,-0.7360184191860258
1633782370665166800,7.603166748046875,-3.187930948424339,2.7615163846790787,-0.44454234111011026
1633782370685046000,7.6230458984375,-1.8108552439898251,3.1826334265381098,-0.5670290492244064
1633782370704925000,7.642925048828125,-0.2892868974685669,2.4339976639717817,-1.2296097456254065
1633782370724804900,7.662804931640625,1.1477093149214983,1.4575474175095557,-1.742786793152988
1633782370744683800,7.682683837890625,2.085578778576851,0.7559177362680435,-2.033211900871247
1633782370764563000,7.70256298828125,2.387472059640288,0.4132023232117295,-2.0512660284779964
1633782370784441900,7.72244189453125,2.3059482071638104,0.5002516611114144,-1.7490563749417662
1633782370804320800,7.74232080078125,1.7818308095574378,1.0803986967146395,-1.4347900806479155
1633782370824200000,7.762199951171875,1.251178457224369,1.73526691904217,-0.9841725112773477
1633782370844078800,7.782078857421875,0.787366182976961,1.9235735684141515,-0.7152813361056148
1633782370863957800,7.801957763671875,0.591641366302967,1.6889888597309588,-0.6453415384389459
1633782370883836700,7.821836669921875,0.9508423424750566,1.1035568694621325,-0.7392578394986689
1633782370903715800,7.8417158203125,1.5629390523076057,0.6504007215246558,-0.6439386859036982
1633782370923595000,7.861594970703125,1.9554636214107275,0.2336374909609556,-0.5609349701330065
1633782370943474700,7.881474609375,1.9480057066202163,-0.1827978228226304,-0.5793908104084432
1633782370963353900,7.901353759765625,1.7098165437042712,-0.46526481114327906,-0.5567988932415843
1633782370983232800,7.921232666015625,1.3556833723157644,-0.6461287432938814,-0.45392873974516984
1633782371003112000,7.94111181640625,0.869613089030981,-0.7578799762517213,-0.2801654333800077
1633782371022990800,7.960990966796875,0.23851123447716235,-0.8220677862629294,-0.19444124313686043
1633782371042869800,7.980869873046875,-0.6000035364568234,-0.9442816687852144,-0.2815074956387281
1633782371062749000,8.0007490234375,-0.9891343714684248,-0.7969742615386843,-0.25269484079349785
1633782371082627800,8.0206279296875,-1.1012591139137744,-0.7272989600270986,-0.20954411972258238
1633782371102506800,8.0405068359375,-1.3639829986274241,-0.8027326789349317,-0.09134469700604676
1633782371122385700,8.0603857421875,-1.4755027609169482,-0.6696122024729847,0.017691577904671428
1633782371142264800,8.080264892578125,-1.5794149708122014,-0.8141650503143668,-0.009675335111655295
1633782371162144000,8.10014404296875,-1.3620599216103553,-0.690587478223443,0.13226049863174558
1633782371182023700,8.120023681640625,-1.1786977429032326,-0.8195423594385385,-0.11301102376058697
1633782371201902800,8.13990283203125,-1.2525170123517513,-0.7455468566402792,-0.3816792038314044
1633782371221782000,8.159781982421874,-1.5635393562883138,-0.038970951168239114,0.06679280487783253
1633782371241661000,8.179660888671876,-1.7804378938943146,0.8043401141315698,0.5830887881435454
1633782371261539800,8.199539794921876,-1.6841951957136392,1.4157535178750753,1.1390247078802436
1633782371281418800,8.219418701171875,-1.3987147047907114,1.2844678556248545,1.367625739043951
1633782371301298000,8.2392978515625,-1.0295563982278109,0.5272556956321001,0.6077682521741837
1633782371321176800,8.2591767578125,-0.43416181687116623,0.3229489285737276,0.340987054893747
1633782371341055700,8.2790556640625,0.16573942825496196,0.5947998303338885,0.5140877326317131
1633782371360934700,8.2989345703125,0.510957471781969,0.8221358830630778,0.6585061404384672
1633782371380813800,8.318813720703124,0.4317348819851875,0.7731395047038793,0.5508287327907979
1633782371400694000,8.338694091796874,0.49316754806935786,1.0027630838483572,0.2796175171736628
1633782371420572700,8.35857275390625,0.6919149274349212,1.2385095297873019,0.26987857877388594
1633782371440451800,8.378451904296876,0.7810784810096025,1.2134656894236802,0.04597483858093619
1633782371460331000,8.3983310546875,0.9247510388851166,1.287777126303315,0.10614077266491949
1633782371480210000,8.4182099609375,1.2092203069388865,1.2057821491837502,0.08512012340277433
1633782371500088800,8.4380888671875,1.4337404254645107,1.024727370636165,0.16987375158071516
1633782371519967700,8.4579677734375,1.4678899478256702,0.5567074155658484,-0.026396058690175413
1633782371539847000,8.477846923828125,1.5568015724658966,0.2282832704514265,-0.18011289458759128
1633782371559725800,8.497725830078124,1.4133879577875137,0.0938596024364233,-0.03037906391173601
1633782371579608300,8.5176083984375,1.1917694059222936,0.027212708835303783,0.11937442131265998
1633782371599487000,8.537487060546875,0.9600035540521145,-0.009948270301520824,0.39615123516768214
1633782371619366100,8.5573662109375,0.636636692327261,-0.07349719788730144,0.5330412202309817
1633782371639246300,8.577246337890625,0.5695148746907711,-0.11949001051634549,0.48640185332670804
1633782371659125000,8.597125,0.5466717592418193,-0.4522217896968126,0.30668109986186026
1633782371679004200,8.617004150390626,0.5289560698091984,-0.9078507574886083,-0.09771298992894589
1633782371698883000,8.636883056640626,0.4097276328384876,-1.282018124385178,-0.5295099042996764
1633782371718762200,8.65676220703125,-0.047151627275347704,-1.4311322887927294,-0.6573556552290916
1633782371738641200,8.67664111328125,-1.208639292180538,-1.4039523131832479,-0.6421223571967333
1633782371758520000,8.69652001953125,-2.342030158892274,-1.4630939457207917,-0.593551985697262
1633782371778399200,8.716399169921875,-2.5499919413268564,-1.2951941245615481,-0.34507753907777367
1633782371798278100,8.736278076171875,-2.822106170198321,-1.428044259649515,-0.5830844772946089
1633782371818157300,8.7561572265625,-2.9619425109118223,-0.5498097650066017,-0.1930585200741887
1633782371838036000,8.776035888671874,-3.449401033684611,0.4228741146594286,0.1652867891166359
1633782371857916200,8.795916259765624,-3.36870486420393,1.4692270416483282,0.5906858922090381
1633782371877795300,8.81579541015625,-2.207331765589118,1.8417913572624325,0.7810091421004385
1633782371897674000,8.835674072265626,-0.44328211191594596,1.1981734277457,-0.11577950209323316
1633782371917553200,8.85555322265625,1.0994903506755829,0.4532750981420278,-0.9748152656715363
1633782371937432000,8.87543212890625,1.6960750185996294,0.2937783636689186,-1.138679693834856
1633782371957311200,8.895311279296875,1.6579741282641887,1.0250120327964425,-0.7374988670021295
1633782371977190100,8.915190185546875,1.1929524782270193,1.7478461223691701,-0.39583398591205476
1633782371997069000,8.935069091796874,0.8237573467850685,2.07223560514003,0.02283675877340138
1633782372016948200,8.9549482421875,0.5449187780946493,1.815916911293566,0.12652800112804397
1633782372036827100,8.9748271484375,0.5764543185651302,1.444437760567665,0.06690956312529742
1633782372056706300,8.994706298828126,1.0437462516218423,1.1871756483912468,-0.10088944627428427
1633782372076585000,9.0145849609375,1.566793389648199,0.9269368584915995,-0.16364364328579975
1633782372096465200,9.034465087890625,1.907138274180889,0.5441875412106514,-0.3415900622881949
1633782372116344300,9.05434423828125,1.9680647443085908,0.32320261107385156,-0.3852994401551783
1633782372136223000,9.074222900390625,1.856652534046769,0.20437252577096224,-0.3171217567902058
1633782372156102100,9.09410205078125,1.7054519187539814,-0.057007835379242894,-0.37102256606481965
1633782372175981000,9.11398095703125,1.3484119200080633,-0.2659606746777892,-0.4030455977912992
1633782372195860200,9.133860107421874,0.8211556398540735,-0.38094226785898205,-0.35741526179909705
1633782372215739100,9.1537392578125,0.32688568350076674,-0.45525165891200303,-0.39472463643066585
1633782372235618000,9.1736181640625,-0.23313538665771483,-0.5356149431765079,-0.4154893381703645
1633782372255497200,9.193497314453126,-0.6370458576500415,-0.5768637761488556,-0.36004129945375024
1633782372275376000,9.213376220703125,-0.8917284747272729,-0.6850467952311039,-0.393482235154137
1633782372295255300,9.23325537109375,-1.0759177519083023,-0.7673544915616511,-0.36680195269510146
1633782372315134000,9.253134033203125,-1.1930120994597673,-0.87023034414649,-0.24663893828801808
1633782372335014100,9.27301416015625,-1.4941414104133843,-0.9137991444990038,-0.175270496057719
1633782372354893300,9.292893310546875,-1.981660138940811,-0.9770552266180514,-0.2678516029909253
1633782372374772000,9.31277197265625,-1.115618478655815,-0.6491676725983619,-0.18267193142063914
1633782372394651100,9.332651123046874,-0.354586175853014,-0.8576794901311398,-0.552119722449407
1633782372414530000,9.352530029296876,-0.7140706451416016,-0.8849944902971386,-0.7649611666843295
1633782372434409200,9.3724091796875,-1.6088427253484725,0.3331733854681253,0.26020466843433676
1633782372454288100,9.3922880859375,-2.7660551971524954,1.3118404311969876,1.151505273138359
1633782372474167000,9.4121669921875,-2.974919481384754,1.9844567839220164,1.6593647058397532
1633782372494046200,9.432046142578125,-1.87526371101439,2.0149311249017714,1.4374334347635507
1633782372513925000,9.451925048828125,-0.3090536742120981,1.5716978205636143,0.7220232846464961
1633782372533804300,9.47180419921875,0.17890987547338008,1.1606205266818403,0.42825580769777294
1633782372553684200,9.491684326171875,-0.34411797333061694,1.0927443835467099,0.723399103044346
1633782372573559800,9.511559814453125,-1.1066653568714857,1.2996855907618998,1.3292806646890938
1633782372593438700,9.531438720703125,-1.52315006275475,1.4175848249554632,1.6957722362607717
1633782372613317600,9.551317626953125,-0.7617115172386169,1.6467898864269255,1.8543888268984854
1633782372633196500,9.571196533203125,0.5610083276301622,1.4883099277809262,1.6554023780800402
1633782372653075700,9.59107568359375,1.8863485841304062,1.1852236375406384,1.174664541864395
1633782372672954600,9.61095458984375,2.662100317159295,0.7671566309019923,0.8979492489382624
1633782372692833500,9.63083349609375,3.0109535023182628,0.4382847420200705,0.6179873753063381
1633782372712712400,9.65071240234375,2.8934131645649668,0.14915157380849123,0.48042190213426944
1633782372732591600,9.670591552734376,2.5179683250784874,-0.05784487072527408,0.3168017310556024
1633782372752470800,9.690470703125,2.0159961237847805,-0.13018003909587858,0.42773302593268453
1633782372772350500,9.7103505859375,1.8616291534155607,-0.3077586659654975,0.6487509815562517
1633782372792229600,9.730229736328125,1.561228156736493,-0.6467895452901721,0.6105883145635947
1633782372812108800,9.75010888671875,1.1676461875349282,-0.5958689208701252,0.6389421927906572
1633782372831987700,9.76998779296875,0.40752573888003824,-0.44554538067281246,0.867204055127874
1633782372851866600,9.78986669921875,-0.013556231665611266,-0.48576662416309113,0.898142141161859
1633782372871745500,9.80974560546875,0.07041209135353564,-0.7391562788203359,0.5229896356854588
1633782372891624700,9.829624755859374,0.3351204278826713,-1.1339698356434702,0.05390409721024334
1633782372911503600,9.849503662109376,0.5198439580708741,-1.3415560627639294,-0.27257760859951374
1633782372931382800,9.8693828125,0.27896716350615025,-1.5987918714553118,-0.5286198235921561
1633782372951261700,9.88926171875,-0.5639075562030077,-1.9555673740461468,-1.087024909921363
1633782372971140600,9.909140625,-1.555014104527235,-1.834839346167445,-1.4841013701751826
1633782372991020800,9.929020751953125,-2.703137845468521,-1.3134735853567718,-1.5494268059141934
1633782373010899500,9.9488994140625,-3.5632740811020134,-0.17067513109147547,-0.8144600877381861
1633782373030778600,9.968778564453125,-4.300183165517449,0.7440057646781205,0.005382423690706491
1633782373050657800,9.98865771484375,-4.72556955525875,1.3500363063395022,0.4180941138412803
1633782373070536700,10.00853662109375,-3.986752591395378,1.5888737040311096,0.5304015924423933
1633782373090415600,10.02841552734375,-2.1459686576098203,1.132455631688237,-0.17508454503156243
1633782373110294500,10.04829443359375,-0.22059739212393759,0.6495645629614591,-0.8407735827114432
1633782373130173700,10.068173583984375,1.1096721374720335,0.4981608263120055,-1.0487588921520858
1633782373150052600,10.088052490234375,2.160135714650154,0.6886524185076356,-0.9328351958151906
1633782373169931800,10.107931884765625,2.833880194622278,1.0610556983411312,-0.4692785768292844
1633782373189810700,10.127810791015625,2.5594103425353762,1.2047045830801129,-0.2058062849011272
1633782373209689600,10.147689697265625,1.5156851337015629,1.4710647784695028,-0.18166450794376432
1633782373229569800,10.16756982421875,0.34282267282307144,1.6329460699915885,0.16371493669003248
1633782373249448400,10.187448486328124,-0.18770342278182506,1.6351675454333423,0.4094076801691204
1633782373269327600,10.20732763671875,0.08362637771368026,1.196979541786015,0.3202102243248373
1633782373289206800,10.227206787109376,0.8001479231387376,0.7507090617090463,0.0482620727352798
1633782373309085700,10.247085693359375,1.4022352801322937,0.3873687937751412,-0.16402013018168507
1633782373328964600,10.266964599609375,1.6117267563521862,0.3018506109654903,-0.14436996555514633
1633782373348843500,10.286843505859375,1.4524451259344815,0.24032179103046655,-0.11853095622584223
1633782373368722700,10.30672265625,1.3046323995143174,0.22929010940641165,-0.09701143579715862
1633782373388601600,10.3266015625,1.2380308063596486,0.11252367863506078,-0.10434585207216442
1633782373408480800,10.346480712890624,0.9706173025250434,-0.011880991929769515,-0.18208923616185782
1633782373428359700,10.366359619140624,0.5387129091918468,-0.14647650938034057,-0.032526670399680734
1633782373448239600,10.386239501953124,0.20927052694559095,-0.5990203706383704,-0.2515218149587512
1633782373468118800,10.406118896484376,0.09353811539709568,-0.9966641824513673,-0.6074361706756055
1633782373487997400,10.42599755859375,0.06788169609308242,-1.2206862883269787,-0.76790445359461
1633782373507876600,10.445876708984375,-0.3163859167963266,-1.399543556830287,-0.8081139335818588
1633782373527755800,10.465755859375,-1.087535708987713,-1.349997727894783,-0.5031447522044181
1633782373547634700,10.485634765625,-2.0701497387766836,-0.9647948799818754,0.1606988037392497
1633782373567513300,10.505513427734375,-2.453137833249569,-0.835882668864727,0.520086169328913
1633782373587392300,10.525392333984374,-2.1551555881500244,-0.5631976543679833,0.7154167990535497
1633782373607271400,10.545271484375,-2.69871944450438,-0.4812850948348641,0.3874753228895366
1633782373627150300,10.565150390625,-3.5740000577777624,0.19462416195571422,0.6871811769112944
1633782373647029500,10.585029541015626,-3.9637107385039325,1.1669386237874626,1.6474619404695927
1633782373666909400,10.604909423828126,-3.6098248198747633,1.6268305097207425,2.15869808306247
1633782373686788400,10.624788330078125,-2.023018569767475,1.7165166258648037,1.8103063779354094
1633782373706667500,10.64466748046875,-0.28656653259396553,1.457940216219425,1.0707161646772176
1633782373726546200,10.664546142578125,0.6250163971602917,1.0179024930521845,0.5976353460207581
1633782373746425300,10.68442529296875,0.8833440927416085,0.7361570970043539,0.3579917465128004
1633782373766304500,10.704304443359375,0.638749738958478,0.7659937246024608,0.35763694172576066
1633782373786183400,10.724183349609374,0.33899346992373464,1.1604703045561908,0.5530567110385746
1633782373806062300,10.744062255859374,0.31622868040800095,1.593546956539154,0.6894668036304414
1633782373825941200,10.763941162109376,0.6068699150949716,1.740496051867306,0.6476318413332104
1633782373845820400,10.7838203125,1.1002128197312355,1.4589467629134654,0.3941910410106182
1633782373865699300,10.80369921875,1.8139023566007613,1.1724804758235812,0.13425912510305643
1633782373885579300,10.823579345703125,2.246401208695769,0.9018693449914454,0.07368108482053502
1633782373905458400,10.84345849609375,2.600291803500056,0.5997998305782676,-0.052288113380968566
1633782373925337300,10.86333740234375,2.5330945825397966,0.27615795130431653,-0.09342011504061519
1633782373945216500,10.883216552734375,2.406791677138209,0.11660919438302517,0.11771774014681577
1633782373965095200,10.90309521484375,2.0569518190294502,-0.008127484615147113,0.18678798843733965
1633782373984974300,10.922974365234374,1.7938515022188424,0.030722762782871723,0.5174486604321747
1633782374004853500,10.942853515625,1.59627725828588,-0.07094342175126075,0.7777626344598829
1633782374024732400,10.962732421875,1.0455097541630267,-0.3228963216036558,0.8719362712815404
1633782374044611300,10.982611328125,0.27813538885712624,-0.4324100047677755,0.815501486549899
1633782374064490200,11.002490234375,-0.17936930967867373,-0.671801236949861,0.859654005074501
1633782374084369400,11.022369384765625,-0.17432605481445787,-1.272212185163796,0.4506898308891803
1633782374104248300,11.042248291015625,-0.2441384267091751,-1.7795733860194682,0.008167670495063065
1633782374124128300,11.062128173828125,-0.955860462898016,-1.9344114810317754,-0.2167158014502376
1633782374144007400,11.08200732421875,-1.8881448198974131,-1.4729875632256269,-0.26661278191097076
1633782374163886300,11.10188623046875,-2.443479778066277,-1.2600924160420894,-0.5220364996790886
1633782374183765500,11.121765625,-1.8593787441402672,-1.0584852633312345,-1.1045130011431872
1633782374203644200,11.14164404296875,-1.8141905258923767,-1.1968214286148546,-1.7472554629996417
1633782374223523300,11.1615234375,-2.7508973755091426,-0.830979406993091,-1.6695245730653405
1633782374243402500,11.181402587890625,-3.4470430723816152,0.1477498903170228,-0.8097698110301047
1633782374263281400,11.201281494140625,-3.6368314847439525,1.291697514617443,-0.14553257959373295
1633782374283160600,11.22116064453125,-3.1289620421051976,2.2904952019661664,0.38974385234341025
1633782374303039200,11.241039306640625,-1.5757389126479624,2.529492758655548,0.492490744786337
1633782374322918400,11.26091845703125,0.43528234533369536,1.5801362708240747,-0.24720139447636902
1633782374342798600,11.280798583984375,1.901621556586027,0.3883747559472918,-1.1621218711555004
1633782374362677200,11.30067724609375,2.3538299022793767,-0.18122779702693223,-1.4816495931088924
1633782374382556400,11.320556396484376,1.667227694299817,0.2162877122312784,-0.8928575518224388
1633782374402435300,11.340435302734376,0.7975064687192439,0.9587947627842426,-0.2734285994056612
1633782374422314500,11.360314453125,0.5263596235752105,1.4267384377479553,-0.07340389358066023
1633782374442193400,11.380193359375,0.6407932274848223,1.556642290250957,-0.06180711628659628
1633782374462072300,11.400072265625,0.8486234924942254,1.4726260364368557,-0.14005977420583365
1633782374481951500,11.419951416015625,1.1853975328028201,1.2274755100756882,-0.44671720093116163
1633782374501830400,11.439830322265625,1.506823781853914,1.0466282367989421,-0.6098267190739513
1633782374521709600,11.45970947265625,1.8561960224509237,0.8685366919711232,-0.6260587458200753
1633782374541589500,11.479589599609374,2.1574352235198018,0.633894992403686,-0.6112921154513955
1633782374561468400,11.499468505859374,2.2702613922327757,0.3063949763968587,-0.7224670098260044
1633782374581352000,11.51935205078125,2.090945858567953,0.08442658818066119,-0.6237357096999884
1633782374601230800,11.53923095703125,1.510350786936283,-0.13445932385027407,-0.49345995514467356
1633782374621110000,11.559110107421875,0.4623439552605152,-0.37083880699574945,-0.3633586803734302
1633782374640989200,11.5789892578125,-0.3504647120088339,-0.4353548260480165,-0.14935791003555057
1633782374660867800,11.598867919921876,-0.9090098643958568,-0.489674152995646,-0.26504545952901243
1633782374680747000,11.6187470703125,-1.3771663053274155,-0.7298568278163671,-0.3522634319938719
1633782374700626000,11.6386259765625,-1.5695838971495628,-1.1929273437857628,-0.3585907353192568
1633782374720505000,11.658505126953125,-1.4051689954966307,-1.7016732769981027,-0.4249038669213652
1633782374740383700,11.6783837890625,-1.08455698543787,-1.7518492205306886,-0.3197647455796599
1633782374760264000,11.698263916015625,-0.92910864957273,-1.2687202513948082,0.12928776643127202
1633782374780143000,11.71814306640625,-1.0267384181976318,-0.9575374561995267,0.21374811075106262
1633782374800021800,11.738021728515625,-0.41931145374178885,-0.7723056842282414,0.306623816716671
1633782374819901000,11.75790087890625,-0.050340194183588025,-0.9832394682109356,-0.15682693074196577
1633782374839780000,11.777780029296874,-0.5436228930652142,-0.8655228971078991,-0.29845176230743525
1633782374859659000,11.797658935546876,-0.9917278950929641,-0.07524345703274012,0.3844909002512693
1633782374879538200,11.8175380859375,-1.4134756360709666,1.0110404983282089,0.6799562671590597
1633782374899416800,11.837416748046875,-1.7569506353229283,1.946236358860135,0.7423061942186207
1633782374919296000,11.8572958984375,-1.53258716866374,2.625850315387547,1.045458900758624
1633782374939175000,11.8771748046875,-0.9145558080852031,2.1639093879699707,0.6399171022374183
1633782374959054000,11.89705419921875,-0.4425350929409265,1.1677283128604292,0.24559227877929804
1633782374978932700,11.9169326171875,-0.4049871603131294,0.6632406216144562,0.42220629840046164
1633782374998813000,11.93681298828125,-0.3814923029571771,0.6881476838558912,0.7682938913036137
1633782375018692000,11.956692138671874,-0.28458617243170736,0.917286402092874,0.9813228939998895
1633782375038571000,11.976571044921876,0.10591127475798129,1.1019953192338348,1.00110048439838
1633782375058450000,11.996449951171876,0.8729898719877004,1.0797200668007134,0.7682544360760599
1633782375078329000,12.0163291015625,1.719175323680043,0.8217825395807623,0.4603149336509406
1633782375098208000,12.0362080078125,2.382203763848543,0.4976990540191531,0.1870205550841987
1633782375118087200,12.056087158203125,2.6127088020026683,0.21974311338216065,0.08629954244568944
1633782375137965800,12.0759658203125,2.461338090839982,0.03338233738094568,0.05792408257448114
1633782375157845000,12.095844970703125,2.081606367814541,-0.04938917706906795,0.10798530455306171
1633782375177724000,12.115723876953124,1.8457932863801716,-0.10116232666522264,0.2609215297331102
1633782375197603000,12.13560302734375,2.03240949844718,-0.06947101111114025,0.21240334507860242
1633782375217483000,12.15548291015625,1.9603969861596822,-0.04957563955187797,0.201816484612599
1633782375237362000,12.17536181640625,1.5337421839177607,-0.10661533137410878,0.407162458525598
1633782375257241000,12.195240966796876,0.8845715887099503,-0.1641471906274557,0.5460930825710296
1633782375277120000,12.2151201171875,0.23047230492830276,-0.2488283380910754,0.6531214517254382
1633782375296999000,12.2349990234375,0.05747428384721279,-0.44492228033840653,0.6943484381921589
1633782375316878000,12.254878173828125,0.1348468618631363,-1.0468681830346585,0.3486545938469469
1633782375336757000,12.274757080078125,-0.012699322575330733,-1.5501272092685103,-0.09757115203915163
1633782375356636200,12.29463623046875,-0.5274895043879747,-1.5589263095349073,-0.14240151502639053
1633782375376514800,12.314514892578124,-1.1084387962847948,-1.1769780795037745,-0.09220423644483089
1633782375396394000,12.33439404296875,-2.0214999818980695,-1.2442305377826093,-0.5273381132185458
1633782375416273000,12.35427294921875,-2.235188909807801,-1.2951602222919463,-0.6682433983378112
1633782375436152800,12.37415283203125,-2.81101136021018,-1.5155480633184313,-1.1258518495090306
1633782375456032000,12.394031982421875,-3.270256180411577,-0.9250047213852405,-0.9794688636310398
1633782375475911000,12.413910888671875,-3.4144887102574106,0.480498328371346,-0.3899209624759853
1633782375495790000,12.4337900390625,-3.640758887320757,1.626755106396973,0.012879939839243888
1633782375515669000,12.4536689453125,-2.780375398927927,2.1317656524732707,0.12076492582298815
1633782375535548000,12.4735478515625,-1.2787532773703336,1.5162036046177148,-0.4269106036338955
1633782375555427000,12.493427001953124,0.3714250824511051,0.6881570362061262,-1.1426428253121674
1633782375575302400,12.513302490234375,1.5673030927360057,0.182746384896338,-1.4033400265038012
1633782375595181600,12.533181640625,1.829348932057619,0.22063538604676722,-1.3668242134027182
1633782375615060200,12.553060302734375,1.1222376045346258,0.9118918495729565,-0.4944938282370567
1633782375634939400,12.572939453125,0.4784697451531887,1.5829448985040186,0.27318492684289813
1633782375654819300,12.5928193359375,0.34727789866626263,1.8186399065166712,0.7984972333222627
1633782375674698200,12.6126982421875,0.8263982166826724,1.373403445662558,0.5581405171088873
1633782375694577400,12.632577392578124,1.733107402920723,0.7377551798507571,0.07021291551962494
1633782375714456300,12.652456298828126,2.2964707692444324,0.4284688659265637,-0.12736176680475472
1633782375734335500,12.67233544921875,2.533504332384467,0.3816080382913351,-0.17039057852905243
1633782375754214400,12.69221435546875,2.445484688147902,0.4476821004405617,-0.1421865571014583
1633782375774093300,12.71209326171875,2.1211802533119917,0.2875602198064327,-0.10658961241096257
1633782375793972200,12.73197216796875,1.5930349153637886,-0.018172493289411066,-0.10622209427282213
1633782375813851400,12.751851318359375,1.2131348500341177,-0.2986094370871782,-0.24115502698421476
1633782375833730600,12.77173046875,0.8507043904215097,-0.47378187959790224,-0.26371026540249587
1633782375853609200,12.791609130859374,0.6526005696564913,-0.6265835003465414,-0.1749362956672907
1633782375873489400,12.811489501953124,0.31991701353192326,-0.9169757287085055,-0.3112450467765331
1633782375893368300,12.831368408203126,0.13741349748075007,-1.2267273220568895,-0.476907172011584
1633782375913247200,12.851247314453126,0.023843232402205466,-1.3917188545539974,-0.6547219457246363
1633782375933126400,12.87112646484375,-0.030602059012651443,-1.423132229949534,-0.5772019220620394
1633782375953005300,12.89100537109375,-0.5304793338537216,-1.318285077291727,-0.3895161810673773
1633782375972884500,12.910884521484375,-1.3523714712888002,-1.0460279328182338,-0.19583894457295536
1633782375992763400,12.930763427734375,-1.78913733317852,-1.2149278709307312,-0.23979002224132417
1633782376012642300,12.950642333984375,-1.0795686756312846,-0.9840253578916192,-0.19535437592640517
1633782376032521200,12.970521240234374,-1.3842284987986087,-1.0202598698332905,-0.4177240384198725
1633782376052400400,12.990400390625,-2.265601583728194,-0.018909283131361008,0.06955430548042059
1633782376072279600,13.010279541015626,-3.5639468657970426,1.4093097485631703,0.8302472933262586
1633782376092159200,13.0301591796875,-4.349122845253348,2.309783547542989,1.2785283825732767
1633782376112038400,13.050038330078126,-3.1760634004980326,2.876947475193441,1.5462835394524037
1633782376131917300,13.069917236328125,-1.574092899006605,2.2238474315822123,0.9235487504232675
1633782376151796200,13.089796142578125,-0.49763738695979115,1.1989160628065467,0.31560967172682286
1633782376171675400,13.10967529296875,-0.23469138392806052,0.6903647753834724,0.4008694958612323
1633782376191554300,13.12955419921875,-0.19578093077540396,0.799699594849348,0.9443708083733916
1633782376211433500,13.14943359375,0.05647767402529716,1.0630793131232261,1.0353498869374393
1633782376231312400,13.1693125,0.4700386014163494,1.2100611416772007,0.9081327893003821
1633782376251191300,13.18919140625,1.0110784922510385,1.1266349627107382,0.8383274316683411
1633782376271070200,13.2090703125,1.640886215341091,0.7748758269771933,0.5160276146531104
1633782376290949400,13.228949462890625,2.320181315177679,0.5726163478374481,0.45037572343870996
1633782376310828500,13.24882861328125,2.831440984776616,0.38340135144889353,0.4856497197851538
1633782376330708200,13.268708251953125,2.9062960270136595,0.14019874428510665,0.3132974492616951
1633782376350587400,13.28858740234375,2.553208565285802,-0.038571138195693494,0.3666480773076415
1633782376370466300,13.30846630859375,2.128179318419099,-0.36085078920572994,0.5159009195335209
1633782376390345200,13.32834521484375,1.8777192874729631,-0.6653630205959081,0.5401132775090635
1633782376410224400,13.348224365234374,1.6487129634439943,-0.8893497628971934,0.5920626604549586
1633782376430103300,13.368103271484374,1.2956471290260552,-0.8129185573846102,0.5755110463656484
1633782376449982500,13.387982421875,0.5830114851236343,-0.565050296497345,0.7443205297157168
1633782376469861400,13.407861328125,-0.2838713021606207,-0.6316428295627236,0.9513828790925443
1633782376489740300,13.427740234375,-0.408594829416275,-0.8402116379797459,0.7888462654668837
1633782376509619200,13.447619140625,-0.07932780373692512,-1.184845744138956,0.3660737845510244
1633782376529498400,13.467498291015625,-0.052316462692618367,-1.362996910199523,-0.07182274360274896
1633782376549377500,13.48737744140625,-0.6786714149802923,-1.2976307040587067,-0.08030008283518254
1633782376569256200,13.507256103515624,-1.5599182431817054,-1.1414236587807536,-0.0034903993990272283
1633782376589136400,13.527136474609375,-1.9315262809842824,-1.457804314880073,-0.3441919518822804
1633782376609015600,13.547015625,-1.478867853435874,-1.2956953520819543,-0.9072904932573437
1633782376628894200,13.566894287109376,-2.0213930143922565,-1.3580822501510381,-1.459137901571393
1633782376648773400,13.5867734375,-2.683909413385391,-0.20918927840292453,-0.9838234786439687
1633782376668652300,13.60665234375,-3.3034114310383793,0.9357184231013059,-0.5270996282875537
1633782376688531500,13.626531494140625,-3.215957019469142,1.799551467426121,-0.17634828135706485
1633782376708410400,13.646410400390625,-2.2540642906695605,1.8638474139869212,-0.4254463763002306
1633782376728289300,13.666289306640625,-1.0460942760527134,1.0681535476475954,-1.1751106781966985
1633782376748168400,13.68616845703125,-0.06270517023801803,0.47600540086627,-1.5272271029353142
1633782376768047400,13.70604736328125,0.5303361259907484,0.371261124061048,-1.512614201823622
1633782376787926500,13.725926513671874,0.5724082580447196,0.8663321676641702,-0.9782638717554509
1633782376807806200,13.74580615234375,0.46172202396988865,1.445437585259974,-0.4421854027204215
1633782376827685400,13.765685302734376,0.7432382874369621,1.8309928998723626,-0.03195142779499292
1633782376847564500,13.785564453125,1.011595794123411,1.9963363145470618,0.09636676295176148
1633782376867443200,13.805443115234375,1.4840367805063723,1.8149819685310125,0.08048851807937026
1633782376887322400,13.825322265625,2.165702701127529,1.2862886413112282,-0.17254852374792098
1633782376907201300,13.845201171875,2.6684645914942027,0.8445014441281556,-0.39032778971120713
1633782376927080400,13.86508056640625,2.8617314936220644,0.5633335557073355,-0.32641119785681366
1633782376946959400,13.88495947265625,2.6743255924820897,0.31637597992420197,-0.27549510348141193
1633782376966838300,13.90483837890625,2.0870015048563477,0.1176294773414731,-0.08815363674662076
1633782376986717400,13.924717529296874,1.4497411276727914,0.013330606216192245,-0.0026943445173557845
1633782377006596400,13.944596435546876,1.0904974814027548,-0.07347177118510008,0.005747608307865448
1633782377026475500,13.9644755859375,1.0037380663603543,-0.2531637369468808,-0.1037071888424456
1633782377046355200,13.984355224609375,0.7011369292885065,-0.5498530196264386,-0.31979075680375096
1633782377066234400,14.004234375,0.3042430590599775,-0.8501476333215833,-0.49545288252756
1633782377086113500,14.024113525390625,0.17093232072293757,-1.1089280411064624,-0.7284941611610353
1633782377105992200,14.0439921875,0.06650105538964271,-1.3921166216999292,-0.8447839143313467
1633782377125871400,14.063871337890625,-0.42403848226368424,-1.6469161431550978,-0.7624193732470274
1633782377145750300,14.083750244140624,-1.0544733973413705,-1.3369658123642205,-0.3637280982077121
1633782377165629400,14.10362939453125,-2.1687807933986187,-1.0448466140791772,-0.08024477245137095
1633782377185508400,14.12350830078125,-2.6138550494283437,-0.5754390040427446,0.6747188779622316
1633782377205387300,14.14338720703125,-2.3522844264030454,-0.48144262348413464,0.7861565149262547
1633782377225266400,14.163266357421875,-2.637588976237178,-0.7432470552653074,0.21952698641344903
1633782377245145300,14.183145263671875,-3.203589120805263,-0.04184592208266258,0.7233904082812368
1633782377265024500,14.2030244140625,-3.377023779737949,1.125598313139379,1.2649281656354665
1633782377284903200,14.222903076171875,-2.9455004946768284,1.8252298063009977,1.379379743593186
1633782377304783400,14.242783447265625,-1.722304853877425,1.5932108564525842,1.0071086387719959
1633782377324662500,14.26266259765625,-0.7064461416125297,1.00268300434947,0.34791692722216244
1633782377344541200,14.282541259765624,-0.06191548116505146,0.5826359298095106,-0.2198905590288341
1633782377364420400,14.30242041015625,0.13760580518245696,0.7981234315738082,-0.11649755070209503
1633782377384299300,14.32229931640625,0.09729366853833198,1.3967913355126975,0.3087817254029214
1633782377404178400,14.342178466796875,0.2582774266988039,1.742156386294961,0.5976647547783329
1633782377424057300,14.362057373046875,0.4861643913090229,1.8930653251647949,0.8849276356060057
1633782377443936300,14.381936279296875,0.957378466245532,1.5204472335368393,0.7710762154985219
1633782377463815400,14.4018154296875,1.8196207342475652,0.9277794467955827,0.5703301365964114
1633782377483694300,14.4216943359375,2.893751018217206,0.5596005066588521,0.48876200658679003
1633782377503573500,14.441573486328124,3.5448581344455476,0.25235738900005816,0.33325068848803635
1633782377523452200,14.4614521484375,3.664154960477352,-0.12815467074811457,0.22128464373573659
1633782377543331300,14.481331298828126,3.36156142219007,-0.5105927301228046,0.25242300158217545
1633782377563211500,14.50121142578125,2.6794308066666126,-0.8783353246688842,0.4821436113603413
1633782377583090200,14.521090087890625,2.0506980193316937,-1.158940610770881,0.6475063152574002
1633782377602969000,14.540968994140625,1.455510358723998,-1.3255614980354904,0.6337779418952763
1633782377622848000,14.560847900390625,0.6593517974823713,-1.1092471900582312,0.6978247360005975
1633782377642727200,14.58072705078125,-0.3303863850980997,-0.6685013186216354,0.9011967064268886
1633782377662606000,14.600606201171875,-1.3922054690271615,-0.31154578328877686,1.0170742985997347
1633782377682485000,14.620485107421874,-1.7068641236394644,-0.20256080017387865,1.015502007781714
1633782377702364200,14.6403642578125,-1.368420104292035,-0.6076160572871565,0.4589212873354554
1633782377722243000,14.6602431640625,-0.8120616482943296,-1.1063225347831844,-0.1855873804759234
1633782377742122200,14.680122314453126,-0.5925964750707149,-0.9030945028722286,-0.5505614601567387
1633782377762001200,14.700001220703125,-1.287950729304552,-0.34658027179092166,-0.5542622874360531
1633782377781880000,14.719880126953125,-2.0943267331779003,0.10946516784727572,-0.23314225478991865
1633782377801759000,14.739759033203125,-2.7702900582432743,-0.16740560790151357,-0.6858202638216316
1633782377821639200,14.75963916015625,-2.4886446154385804,-0.5271148258566856,-0.9764907246030866
1633782377841518000,14.77951806640625,-2.026058083593845,-0.15221505303233862,-0.8414667526073754
1633782377861397000,14.79939697265625,-2.276618652305007,0.44459699390679597,-0.7538469944085925
1633782377881276200,14.819276123046874,-2.141950069618225,1.0873653208568692,-0.6630614656552672
1633782377901155000,14.839155029296874,-1.8495640370905397,1.3421516905695199,-0.5026859025210142
1633782377921034000,14.859033935546876,-1.3332687114119528,0.8715382118746637,-0.9746220081217586
1633782377940913200,14.8789130859375,-0.6582347761511802,0.6393395215451717,-1.0621855791538952
1633782377960792000,14.8987919921875,-0.09035247109830379,0.7438722014263272,-0.6593436141759157
1633782377980671200,14.918671142578125,0.35934535307884213,0.9262474149227142,-0.3378223803177476
1633782378000550100,14.938550048828125,0.8583452605634927,1.0116343725681305,0.17371566783115266
1633782378020429000,14.958428955078125,1.34517308421731,0.631276626598835,0.274803029564023
1633782378040308000,14.978307861328124,1.9129729716837405,0.5621387929648161,-0.0074044310376048085
1633782378060188200,14.998188232421874,2.3049936829179525,0.9081222679063677,-0.3054466444297694
1633782378080067000,15.018067138671874,2.2853888187378644,1.2770470579743385,-0.3752697021152824
1633782378099946000,15.037946044921876,2.0401228493034838,1.2816297095894813,-0.1436873079200741
1633782378119825200,15.0578251953125,2.025636643311381,0.8358125262379645,-0.2999149667277932
1633782378139704000,15.0777041015625,1.8729682935535907,0.30706717656999827,-0.5394374240741133
1633782378159583000,15.0975830078125,1.4689865108907223,0.19740034867078066,-0.48056847099810834
1633782378179462100,15.117462158203125,0.8481447690665721,0.24569413171857593,-0.2304104917384684
1633782378199341000,15.137341064453125,0.308365691947937,0.39603053139746186,-0.02393222585991025
1633782378219220200,15.15722021484375,-0.22814707685112953,0.1885463033467531,0.12966112978830932
1633782378239099100,15.17709912109375,-0.3719926532059908,-0.26729426136910917,-0.016831600074470043
1633782378258978000,15.19697802734375,-0.25751228754520417,-0.5889443823039532,-0.16112272823974488
1633782378278857000,15.21685693359375,-0.4224158494979143,-0.7196767945855855,-0.07518807358369231
1633782378298736000,15.236736083984376,-0.8764245226114988,-0.8404875323116778,0.04282821111828088
1633782378318615300,15.256615234375,-1.317423492026329,-0.7992153184637427,0.21004545684084294
1633782378338495000,15.276494873046875,-1.6484329774588347,-0.5007210321888327,0.4650416699118912
1633782378358374100,15.2963740234375,-1.4858318472296,-0.5567240744397044,0.4974510706074536
1633782378378253000,15.316253173828125,-0.6935346375912428,-0.6379758319765328,0.2590639009013772
1633782378398132000,15.336132080078125,-0.8354933772861957,-0.4602230175837874,-0.06331468043848872
1633782378418011100,15.35601123046875,-2.063530612897873,0.14212795878201723,0.32926249563470483
1633782378437890000,15.37589013671875,-2.89077813988626,0.8766419647544622,1.1733324164777994
1633782378457769200,15.395769287109376,-2.8763842883527277,0.9473451480090618,1.2224895383566616
1633782378477648100,15.415648193359376,-2.028060071066022,0.6527253650799393,0.9472922487780451
1633782378497527000,15.435527099609375,-0.7340151165395975,0.495461211964488,0.523816661094129
1633782378517406000,15.455406005859375,-0.017597616010904312,0.6057835811629891,0.24751542886160313
1633782378537285000,15.47528515625,0.37219723586738107,1.047838781632483,0.18554259148612617
1633782378557164300,15.495164306640625,0.4968073658764362,1.4767121367067098,0.20127214860282838
1633782378577047000,15.515047119140625,0.6438017616510391,1.7089859380990267,0.37678770546279844
1633782378596926200,15.53492626953125,1.0256249039977787,1.4697189168184994,0.2551720080293715
1633782378616805000,15.55480517578125,1.3121739009350537,1.1421756461918353,0.1680478513278067
1633782378636684300,15.574684326171875,1.6264830114573239,0.9327887993901968,0.10781272446513175
1633782378656563000,15.59456298828125,1.9186445875793694,0.7472244344636797,-0.038276904489472505
1633782378676442000,15.614442138671874,2.262798801267147,0.7175076338529587,-0.20815869324617087
1633782378696321000,15.634321044921874,2.5374457634866237,0.6658274232372641,-0.332379970068112
1633782378716200200,15.6542001953125,2.502573187547922,0.25997429374456404,-0.40948797886371613
1633782378736079000,15.6740791015625,2.207687739419937,-0.17448738285601137,-0.3857400235295296
1633782378755958000,15.6939580078125,1.9611837526232003,-0.5383721329301595,-0.21959460828956215
1633782378775837200,15.713837158203125,1.7730869466096162,-0.7511147199004888,-0.10260507281944155
1633782378795716000,15.733716064453125,1.4200029920130968,-0.6053048577353358,0.0860373478455469
1633782378815595300,15.75359521484375,0.785691527763009,-0.43351475113928317,0.5182195717394351
1633782378835475200,15.77347509765625,-0.10091711973249912,-0.527009611916542,0.6193811677522957
1633782378855354000,15.79335400390625,-0.4029167837798595,-0.8382949907034635,0.6020311698269099
1633782378875233300,15.8132333984375,0.008045359289646148,-1.4038237183675168,0.1653049823604524
1633782378895112000,15.83311181640625,-0.06805062291920184,-1.9024109533980487,-0.20116762878242878
1633782378914991000,15.8529912109375,-0.8690770824581384,-1.9487603243798017,-0.24656565385609863
1633782378934870000,15.8728701171875,-1.9847130967706441,-1.225732465800643,0.19767222441472113
1633782378954749200,15.892749267578125,-3.407542836642265,-1.1819202120810746,-0.029077333663403985
1633782378974628000,15.912628173828125,-2.9123890831917523,-0.8135413654580712,-0.09935005307886749
1633782378994507000,15.932507080078125,-2.919435494571924,-0.8440612991452217,-0.7524759252510964
1633782379014386200,15.95238623046875,-2.64648072322309,0.019625322446227073,-0.16161131547428667
1633782379034265000,15.97226513671875,-2.5176263797730205,0.4694660622254014,0.009532784835807979
1633782379054144300,15.992144287109374,-1.9239824414759874,0.4693333757564425,0.03864697991088033
1633782379074023000,16.01202294921875,-1.2691694564670324,0.10225918199121951,-0.35172720622532067
1633782379093903000,16.031903076171876,-0.6299871713101863,0.0063327101528644555,-0.5252377068731934
1633782379113782300,16.0517822265625,-0.2657522926241159,0.006209960556030273,-0.5636454712007194
1633782379133661000,16.071660888671875,-0.17817863858938215,0.2973354716286063,-0.4868633333586156
1633782379153540000,16.0915400390625,-0.036055648243427274,0.7405980020612478,-0.25724369973689315
1633782379173419000,16.1114189453125,-0.043728082567453384,1.0300824679285288,-0.16016929997242987
1633782379193298200,16.131298095703126,0.009522446104884147,1.547798181799054,0.16418892914364114
1633782379213177000,16.151177001953126,0.20685645154118537,1.8292752822995184,0.4930169606175273
1633782379233056000,16.171055908203126,0.7828548430323601,1.613688996335864,0.337891500031203
1633782379252935200,16.19093505859375,1.5950637908428906,1.407577810204029,0.23214944436028598
1633782379272814000,16.21081396484375,2.3293203149229287,1.2094643448278308,0.1718344206618145
1633782379292693200,16.230693359375,2.880433856004476,0.9609636312559247,0.062466393046081065
1633782379312572000,16.250572021484373,3.1653222262531515,0.6949605787411332,0.0782664581157267
1633782379332451000,16.270451171875,2.9664141033679243,0.3881409471914172,0.13827658058349043
1633782379352331300,16.290331298828125,2.2903496560156342,0.1263069970548153,0.17284036456765606
1633782379372210000,16.3102099609375,1.5577426527082918,0.06731207951158284,0.3899465353086591
1633782379392089000,16.330089111328125,0.9770406135708093,0.09252250861376524,0.4580990111671388
1633782379411968000,16.349968017578124,0.5161158774584531,0.03032674920260906,0.5705187910363078
1633782379431847200,16.36984716796875,0.3661053487330675,-0.3300765884965658,0.34521497478708624
1633782379451726000,16.38972607421875,-0.005915361523628235,-0.8436655778259038,-0.011532470753043889
1633782379471605000,16.40960498046875,-0.25094343054890633,-1.1980468787565826,-0.2875622656330466
1633782379491484200,16.429484130859375,-0.7442290520399808,-1.3432064603194593,-0.2820939172245562
1633782379511363000,16.449363037109375,-1.4760446127086877,-1.141055409990251,-0.023432313513755798
1633782379531242200,16.4692421875,-2.133626477909088,-0.6919879926711321,0.14447365425848402
1633782379551121000,16.489120849609375,-2.322551551440358,-0.4509720818966627,0.3723240771174431
1633782379570996700,16.508996826171874,-1.7594050427377224,-0.45567339145541186,0.19997356015965342
1633782379590875600,16.528875732421874,-1.6422873143106698,-0.8875707705259323,-0.49260859901234505
1633782379610755600,16.548755615234374,-1.7624825504869222,-0.35452772366404534,-0.2529674837224185
1633782379630634500,16.568634521484373,-2.2968080383747815,0.7800833324924111,0.6427133088272065
1633782379650513700,16.588513671875,-2.6384698507249356,1.1136553618893026,0.8832136712949723
1633782379670392800,16.608392822265625,-2.1302391735583543,1.1761787458196282,0.9042286945339292
1633782379690271500,16.628271484375,-0.8343973987430333,0.5702236074820161,0.32492059397287665
1633782379710150700,16.648150634765624,-0.1561608680486679,0.2160816682651639,0.05782397406771779
1633782379730029600,16.668029541015624,0.09790975461006164,0.41553544233441353,0.20446853349134325
1633782379749908700,16.68790869140625,0.24729952108860015,0.8931205136075615,0.5218382006280123
1633782379769787600,16.70778759765625,0.12282616920173167,1.183853225970268,0.7397467189941554
1633782379789666600,16.72766650390625,0.12848024944067002,1.3447434606283903,0.8112881066385657
1633782379809545700,16.747545654296875,0.2955892124831676,1.2236501065686345,0.7591245694853365
1633782379829424600,16.767424560546875,0.9310662133812904,1.0194853783294557,0.46446270098015663
1633782379849303800,16.7873037109375,1.7734873441040515,0.8578145146876573,0.20562888250760733
1633782379869183500,16.80718359375,2.362951950889826,0.6649129387408494,-0.014792696391697972
1633782379889062700,16.827062744140626,2.449745268201828,0.36329730557501316,-0.1796869242604822
1633782379908941800,16.84694189453125,2.2214503073126077,0.17085107218027115,-0.08596738788187504
1633782379928820700,16.86682080078125,1.9641712440013885,0.08334814529418945,0.04202467618305236
1633782379948699600,16.88669970703125,1.7684435047179459,-0.0072740826562047,0.2255809161575511
1633782379968578600,16.90657861328125,1.6451748524457215,-0.19958616827726364,0.4459952798647806
1633782379988457700,16.926457763671873,1.6616005020678042,-0.2610071439236402,0.6743984869014471
1633782380008336600,16.946336669921877,1.3590543100535868,-0.3454863390743732,0.9794610456507652
1633782380028215600,16.966215576171876,0.8589578395038843,-0.4377484431862831,1.070634185482189
1633782380048094700,16.9860947265625,0.3125403472840786,-0.6506622950702905,0.9562986351195722
1633782380067973600,17.0059736328125,0.071860536596179,-1.0192468933984637,0.5732696606470271
1633782380087852800,17.025852783203124,0.12770225080549716,-1.4761936657905579,-0.1111108892276883
1633782380107732500,17.045732421875,-0.19172844051420687,-1.4589061386421323,-0.7125193240463733
1633782380127611600,17.065611572265624,-1.4182581941723822,-0.9431032726556062,-0.8406547055721283
1633782380147490800,17.08549072265625,-2.466848378694057,-0.8554828568696975,-0.8655690743371843
1633782380167369700,17.10536962890625,-2.2405109816133977,-1.020016416466236,-1.1139989876952021
1633782380187248600,17.12524853515625,-1.7733786230325699,-1.309847796075046,-1.4536241065859794
1633782380207127600,17.14512744140625,-2.287396066907048,-0.36143618787825105,-0.8960803132612257
1633782380227006700,17.1650068359375,-3.590564239087701,1.060770743919909,0.004539470060542225
1633782380246885600,17.1848857421875,-4.095075018948316,1.7427508450567721,0.4998196263696998
1633782380266764500,17.2047646484375,-2.8462019160568715,1.475042742189765,0.17752090533301232
1633782380286643700,17.224643798828126,-0.8036392723858355,0.5039996154680848,-0.748213299370557
1633782380306522600,17.244522705078126,0.8224240523546934,0.04127572097927332,-1.1641364258483051
1633782380326401800,17.26440185546875,1.5048206253379584,0.12993863155543803,-1.0708670443899928
1633782380346280400,17.284280517578125,1.0431915403485297,0.812426389953494,-0.23870310378745196
1633782380366159600,17.30415966796875,0.4690945985645055,1.2595491029456256,0.4450260329738259
1633782380386039800,17.324039794921877,0.247178525057435,1.4632085120111702,0.6075165424354374
1633782380405918700,17.343918701171877,0.5514104782015085,1.7335408259019254,0.5381459229588508
1633782380425797600,17.363797607421876,0.929175869590044,1.830189766795933,0.5333576657690108
1633782380445676500,17.383676513671876,1.4258423656910657,1.5029925331279634,0.28326281487345695
1633782380465555700,17.4035556640625,1.9679758969813583,0.943902021817863,-0.09830224279267713
1633782380485434600,17.4234345703125,2.6285721415668726,0.532470507670939,-0.4560711586013436
1633782380505313500,17.4433134765625,2.958442393836379,0.29858342586308717,-0.8207898752816021
1633782380525192700,17.463192626953123,2.417504794332385,0.22281769852191208,-0.6327844008132815
1633782380545071600,17.483071533203123,1.664378150087595,0.10473901610821484,-0.4887811496786773
1633782380564950800,17.50295068359375,0.826949420824647,0.014057751446962356,-0.5194364001832902
1633782380584831000,17.5228310546875,0.20436112759411335,-0.023098259253799915,-0.31973727305084465
1633782380604710000,17.5427099609375,-0.0770627814143896,-0.28389205268770457,-0.388741835694015
1633782380624589800,17.56258984375,-0.7036287461042404,-0.7116963172256946,-0.47696416289582844
1633782380644469000,17.582468994140626,-1.249496203225851,-0.9028694619446992,-0.3528958846785128
1633782380664348000,17.602347900390626,-1.1470938133716582,-1.0081731261983513,-0.45490211482197046
1633782380684227000,17.62222705078125,-0.9192541950345039,-1.1892208904832602,-0.6689638215668499
1633782380704106000,17.64210595703125,-0.6615151129961013,-1.1162310575962067,-0.613017185678333
1633782380723985000,17.66198486328125,-1.5453057804614305,-1.013412488156557,-0.5221767849326133
1633782380743864000,17.681864013671873,-2.014676273357868,-0.7740846765995025,-0.14869067829847335
1633782380763743000,17.701742919921877,-1.7941197977662084,-0.9336454162195325,-0.39565994451940056
1633782380783622100,17.7216220703125,-1.683679062885046,-0.7321446464926004,-0.4569556863509118
1633782380803500800,17.741500732421876,-2.541477210959792,0.46977322847843167,0.44827100624442096
1633782380823380000,17.7613798828125,-3.900217632758617,1.5107976539209484,1.2340293156333266
1633782380843259000,17.7812587890625,-3.4840614281773563,1.9923983905762432,1.5538585047513245
1633782380863138000,17.801137939453124,-1.6334382374227046,1.3985171363919973,0.7718760606393218
1633782380883017000,17.821016845703124,-0.02292845564484596,0.6527630667418242,0.12911577086523174
1633782380902897000,17.84089697265625,0.48432490092217917,0.3139844086125493,-0.09466580425277352
1633782380922776000,17.860776123046875,0.4027478569537401,0.7028034011960029,0.33337270743250846
1633782380942655000,17.880655029296875,0.5060568402588367,1.1792612220048904,0.6474703671611846
1633782380962534000,17.900533935546875,0.7538736632198095,1.243585810138285,0.7225615562416613
1633782380982413000,17.9204130859375,1.018914592704177,1.1402879327490925,0.5213716060295701
1633782381002292000,17.9402919921875,1.627382006123662,1.0204700054526328,0.22865298054665326
1633782381022171100,17.960171142578126,2.1357845327258107,0.9553811549484729,0.05973815539227798
1633782381042049800,17.9800498046875,2.3974825815230605,0.6471446423381567,-0.005728314518928528
1633782381061929000,17.999928955078126,2.4975924765259028,0.207946292604506,0.040365182005614036
1633782381081808100,18.01980810546875,2.507134796375036,-0.16677900043576954,0.1135762564279139
1633782381101687000,18.03968701171875,2.499820089447498,-0.40224458360671994,0.15940441654715687
1633782381121566000,18.05956591796875,2.1794494869291783,-0.516546962352097,0.28666473227143285
1633782381141444900,18.07944482421875,1.7159031701415777,-0.49827714616805313,0.5951509818591177
1633782381161325000,18.099324951171877,1.0623545059800148,-0.5818187682077288,0.6881551365099847
1633782381181204000,18.119203857421876,0.2987006225019693,-0.38194530742168425,0.9344688614316284
1633782381201083000,18.139082763671876,-0.2725081966251135,-0.21663900988698004,1.0129461127538233
1633782381220962000,18.158962158203124,-0.4078577473133802,-0.4119076072260737,0.6592464374117553
1633782381240841000,18.178841064453124,-0.18512568124830722,-0.7085372686728835,0.19154738485887646
1633782381260720000,18.19872021484375,-0.11516016461849211,-0.788912535636127,-0.33452560379467905
1633782381280598800,18.218598876953124,-0.36110534848868847,-0.5488835900723934,-0.41381081049889323
1633782381300478000,18.23847802734375,-1.1482663642823696,-0.08101151904016733,-0.23672552010416983
1633782381320357000,18.258357177734375,-2.3639146584421393,0.04581336440891027,-0.5267235615167767
1633782381340236000,18.278236083984375,-1.5923305664867162,-0.0926660087376833,-0.6261092338982969
1633782381360115000,18.298114990234374,-1.1739917571693659,-0.6113052671939134,-1.2056926442693918
1633782381379993900,18.317993896484374,-1.6691437570542096,-0.9583104863986373,-1.4882209343232213
1633782381399873000,18.337873046875,-2.237121339175105,0.06973521500527859,-0.5803782140105962
1633782381419752000,18.357751953125,-2.7509417991727587,0.27227994082719087,-0.34407274594940246
1633782381439632000,18.3776318359375,-2.3568483733177183,0.39211423473656176,-0.4155320082683116
1633782381459511000,18.397510986328125,-1.333887720093131,0.08204173887073993,-0.8022614081613719
1633782381479390000,18.417389892578125,-0.2612076349318027,0.010830898354947566,-0.9940917016148567
1633782381499269000,18.43726904296875,0.04144377102255821,0.4602364615872502,-0.615763415646553
1633782381519147800,18.457147705078125,-0.379482132178545,1.1221066716313361,0.11765841117501258
1633782381539027000,18.47702685546875,-0.5477011022895574,1.6285045804128049,0.769694478816539
1633782381558906000,18.496906005859376,-0.22323007871508596,1.7838664070382713,1.1117631184019148
1633782381578784500,18.516784423828124,0.8977239157497883,1.451127321334183,0.8543934541977941
1633782381598663700,18.53666357421875,1.9774492432475088,1.1455021602660418,0.5601880972884595
1633782381618542300,18.556542236328124,2.3824124381631613,0.8917728983908891,0.28783947513923047
1633782381638421500,18.57642138671875,2.389318564289808,0.7301809452041983,0.08059913884699345
1633782381658300400,18.596300537109375,2.4678455730378626,0.44145723457634445,-0.20893822625130415
1633782381678179600,18.6161796875,2.7334973278969525,0.2965346766397357,-0.3336557256249711
1633782381698058200,18.636058349609375,2.639613760063052,0.06073153207749128,-0.4233434857368469
1633782381717938400,18.6559384765625,2.157174526757002,-0.02147884135842323,-0.3672388828076422
1633782381737817600,18.675817626953126,1.5153139623016119,-0.09150631730854511,-0.3752184833846986
1633782381757696500,18.695696533203126,0.9074404231220483,-0.09501023377627134,-0.3052437240025028
1633782381777575400,18.715575439453126,0.2069897225320339,-0.21737813781648874,-0.1995953744970262
1633782381797454300,18.735454345703126,-0.1659469335258007,-0.4415516348615289,-0.19397373522296546
1633782381817333500,18.75533349609375,-0.3459013496160507,-0.9236065450251102,-0.5160998031064867
1633782381837212700,18.775212646484373,-0.2419032150030136,-1.145980883693695,-0.6622000265203416
1633782381857091300,18.79509130859375,-0.6343629021763801,-1.2280331439584493,-0.7055838256947696
1633782381876970500,18.814970458984376,-1.5389017586380243,-0.8540735745936632,-0.2999828991311602
1633782381896849400,18.834849365234376,-2.5146459026575085,-0.45252135716527697,-0.15921731474353
1633782381916728600,18.854728515625,-2.6354887890875336,-0.4654392909273505,-0.19500906962007283
1633782381936607500,18.874607421875,-1.9326842188477515,-0.7721122074827551,-0.43202290514633057
1633782381956486400,18.894486328125,-0.8845476233124733,-1.191155073416233,-0.7661980150029063
1633782381976366600,18.91436669921875,-1.3063310201257468,-0.47361821346879,-0.3897429755605757
1633782381996245500,18.93424560546875,-3.493907699409127,0.9947595178738236,0.7437907336879521
1633782382016124400,18.95412451171875,-4.629471818506717,2.1560452304661273,1.4633531811788678
1633782382036003600,18.974003662109375,-3.5775182950317856,2.658076760731637,1.6242188659176229
1633782382055882500,18.993882568359375,-1.0931500417381523,1.4091171486005185,0.23261397486580535
1633782382075761700,19.01376171875,0.4905547352224588,0.43253129305988547,-0.5019928056903183
1633782382095640300,19.033640380859374,0.8514911568850279,0.13364420807510613,-0.5035085440155118
1633782382115519500,19.05351953125,0.3216746708542108,0.7968678785547614,0.025123846797272562
1633782382135398400,19.0733984375,-0.20338848316967487,1.4489803724333643,0.4949245843371376
1633782382155277600,19.093277587890626,-0.00006254384219646453,1.7086036607831716,0.4235689650557935
1633782382175156500,19.113156494140625,0.9780033211231232,1.4959861614972352,0.05986804711595177
1633782382195035400,19.133035400390625,1.7785989880293607,1.0877522743478416,-0.31470980027765033
1633782382214914600,19.15291455078125,2.229755778843164,0.7197437223419547,-0.49387964186146854
1633782382234793500,19.17279345703125,2.280184235832095,0.38855624999403954,-0.4633443644747138
1633782382254672600,19.192672607421876,2.143680838933587,0.3360881038710475,-0.2555330964267254
1633782382274551300,19.21255126953125,1.9222487495511769,0.263989666865766,-0.02751549117416143
1633782382294431500,19.232431396484376,1.6093699640929697,0.07971534174978732,0.07127893731594086
1633782382314310700,19.252310546875,1.3150164308845995,0.027532734569907187,0.43439036493003363
1633782382334189300,19.272189208984376,1.203710603606701,-0.0833086900666356,0.7361366387382149
1633782382354068500,19.292068359375,0.9725269355386496,-0.21949732192754745,0.8874912755489349
1633782382373947400,19.311947509765623,0.7395499543130397,-0.32806174154281614,0.957919441254437
1633782382393826600,19.33182666015625,0.7514110724985599,-0.5994257365688681,0.6788876880794763
1633782382413705500,19.35170556640625,0.9677367786526679,-1.0417331582337617,0.22745339549854396
1633782382433584400,19.37158447265625,1.0850497373908758,-1.6643308038145304,-0.08771320863589643
1633782382453463600,19.391463623046874,0.3289133899360895,-2.1674635733202097,-0.31184619100745764
1633782382473342500,19.411342529296874,-1.1572551419019699,-1.6527546400502322,-0.07514934900850057
1633782382493221600,19.4312216796875,-2.7817840966820717,-0.6426838635370135,0.5805005252160131
1633782382513100300,19.451100341796874,-3.2514772456616163,-0.8057400440573692,0.418201446673274
1633782382532979500,19.4709794921875,-1.6799720250606536,-1.039869702449441,-0.21603227616548537
1633782382552858600,19.490858642578125,-1.7238894927203654,-1.4612486101150512,-1.114883734640479
1633782382572737300,19.5107373046875,-2.1490303832679984,-0.39120033476203675,-0.4771694762095809
1633782382592617000,19.530616943359377,-2.2193355071157215,0.5744730816200375,0.021408990992605684
1633782382612496100,19.55049609375,-1.6928373518526554,1.0163532177835701,0.05405073913931846
1633782382632375300,19.570375244140624,-0.36536709758639335,0.8124927331879734,-0.29809754204228517
1633782382652254200,19.590254150390624,0.7782400427132844,0.18511632889807222,-0.9874649769514798
1633782382672133000,19.610133056640624,1.6081600037813186,-0.2911705192580819,-1.5413077968664466
1633782382692012000,19.630011962890624,1.520434958577156,-0.07615501891970634,-1.5789124281175433
1633782382711891200,19.64989111328125,0.11302782876491546,1.002728012534976,-0.4015459338180721
1633782382731770000,19.66977001953125,-0.9759043030172586,1.8744068019241094,0.6474734359011054
1633782382751649000,19.68964892578125,-0.6740069303005933,1.8699618052139877,0.9019491322293877
1633782382771528200,19.709528076171875,0.5436795916885138,1.229928748446703,0.45240927509292955
1633782382791407000,19.729406982421875,1.577090327256918,1.0264195615068077,0.07806289836764335
1633782382811286300,19.749286376953126,2.047470873978734,1.3110124559402465,-0.17053323840275406
1633782382831165200,19.769165283203126,2.119461758956313,1.3509066594332455,-0.05670183816999197
1633782382851044000,19.789044189453126,2.020112326931953,0.5893547166705131,-0.30891295056715606
1633782382870923000,19.808923095703125,2.0968775867044926,-0.02989975596219301,-0.4716922138422727
1633782382890803200,19.82880322265625,2.1933581852942705,-0.24345161348879335,-0.6337031230933964
1633782382910682000,19.84868212890625,1.8981389751672744,-0.31041502569317814,-0.6278676949381828
1633782382930561000,19.86856103515625,1.398069977146387,-0.49819297501593823,-0.5356511835336685
1633782382950440200,19.888440185546877,0.8058540258258581,-0.6117924661889672,-0.5801981812685728
1633782382970319000,19.908319091796876,0.042515784168243406,-0.33643560213446616,-0.2061127935670316
1633782382990198000,19.928197998046876,-0.5225462027668952,-0.516131075027585,-0.352391003896296
1633782383010077200,19.9480771484375,-0.5488742377221584,-1.0475824687838553,-0.5271424445159733
1633782383029956000,19.9679560546875,-0.46184418904483315,-1.4664669292852281,-0.580938185980916
1633782383049835300,19.987835205078124,-0.7310241180300712,-1.315595692077279,-0.5047993875436485
1633782383069714200,20.007714111328124,-1.3087801668435335,-0.5378717821925878,-0.05951585441110655
1633782383089593000,20.027593017578123,-2.3016829509347674,-0.2066790491476655,0.18114698687568306
1633782383109472000,20.047471923828127,-2.031851280042529,-0.3787444655537605,0.3907743644349277
1633782383129351200,20.06735107421875,-1.6035639081627129,-0.9985875517293811,0.018974174194270745
1633782383149230300,20.087230224609375,-1.5808791981458663,-1.2913833341017364,-0.2847369790792465
1633782383169109000,20.10710888671875,-1.8823808495432137,-0.2948720041245222,0.17868249645829198
1633782383188989200,20.1269892578125,-2.86949862049222,1.106524779357016,0.602795066871494
1633782383208867000,20.1468671875,-3.1645763763219117,2.0077657633170483,1.1908141510240733
1633782383228747000,20.1667470703125,-2.4265958632826803,2.146759515726566,1.4138510452546178
1633782383248626200,20.186626220703126,-1.4417179802149533,1.2385998384192585,0.7001422191627323
1633782383268505000,20.206505126953125,-0.8589362121939659,0.7558379490301013,0.4098402994327247
1633782383288384300,20.22638427734375,-0.4723100534796715,0.6883268398150801,0.42763796806037424
1633782383308263200,20.24626318359375,-0.2511719786077738,1.124054006306827,0.6930867476932704
1633782383328142000,20.26614208984375,0.016837153032422066,1.5007739802956581,0.9254306917123496
1633782383348021000,20.28602099609375,0.5594499922722578,1.452181506562233,0.7868127868779003
1633782383367900200,20.305900146484376,1.2886544936597346,1.2557321750059722,0.5068060511909425
1633782383387779300,20.325779296875,1.7436077541470527,1.039641738912463,0.2731767435364425
1633782383407658000,20.345657958984376,2.2919114985048767,0.8761877912461757,0.1961518099144101
1633782383427537200,20.365537109375,2.7524896131366487,0.7170610591292381,0.04762333644032478
1633782383447416000,20.385416015625,2.7836832083016634,0.5243909538507461,0.04623787343129515
1633782383467295200,20.405295166015627,2.504998953390121,0.09402794474065303,0.1681308534361422
1633782383487174100,20.425174072265627,2.3405893124341963,-0.23240064264237878,0.16136680266130715
1633782383507053000,20.445052978515626,2.1414982341974973,-0.30528701515495776,0.41522053116634483
1633782383526933200,20.464933349609375,1.6340595841914414,-0.42648821350336075,0.687109280718863
1633782383546812200,20.484812255859374,0.9581161328703165,-0.22469430604875087,0.9907812618926167
1633782383566691000,20.504691162109374,0.6123036305814981,0.13125906650424002,1.1779369876638055
1633782383586569500,20.524569580078126,0.18317980787754057,-0.14048691357672213,0.959171633272618
1633782383606448400,20.544448486328125,-0.09135784874856472,-0.5964852992027998,0.708015144494921
1633782383626327600,20.56432763671875,0.1250298167258501,-1.1794658046662807,0.19092275015451013
1633782383646206500,20.58420654296875,0.2754039180666208,-1.545215179568529,-0.18094518069326876
1633782383666085400,20.60408544921875,0.09746084179878234,-1.502761939242482,-0.3130550188079476
1633782383685964500,20.623964599609376,-1.4215736023306846,-1.741786968460679,-0.7185235328972339
1633782383705843500,20.643843505859376,-1.3715174857854842,-1.5272411314606666,-0.44269028350263834
1633782383725722600,20.66372265625,-1.8147522514283656,-1.5078320821136235,-0.7136777003012598
1633782383745601500,20.6836015625,-2.32308872705698,-1.4001380155920982,-1.227151684948802
1633782383765480400,20.70348046875,-3.187757929944992,-0.22508885832428932,-0.8421579497419297
1633782383785359400,20.723359375,-3.9452363396584986,1.085869529341161,-0.28884185711480675
1633782383805238500,20.743238525390623,-3.3703953015089034,1.7148659360483287,-0.2599449215196073
1633782383825117700,20.76311767578125,-1.6856944943606853,1.123140106332302,-0.8523346219718456
1633782383844997400,20.782997314453127,-0.06625614071786404,0.4593377591818571,-1.389733818216622
1633782383864876500,20.80287646484375,0.7139870585113763,0.26583354116678237,-1.7909587033867835
1633782383884755500,20.82275537109375,0.51615913207829,0.9468290151804685,-1.060438735486567
1633782383904634400,20.84263427734375,0.3518833466351032,1.5982541113168,-0.21919994641616938
1633782383924513500,20.862513427734374,0.26392157006561756,1.795845890906453,0.370986983294785
1633782383944392400,20.882392333984374,0.46979251770079133,1.6420494139015673,0.5199844625201075
1633782383964271600,20.902271728515625,1.1717840179920196,1.533877792996168,0.24404176140166817
1633782383984150500,20.922150634765625,2.175294705337286,1.4637603006750344,-0.5828222461618483
1633782384004029400,20.942029541015625,1.316491179612279,1.8724387167215346,0.21735388015806673
1633782384023908400,20.961908447265625,1.4609949276149272,1.3378648070305585,0.2128548151731491
1633782384043787500,20.98178759765625,2.204972635242343,0.5203320338487625,0.13587050582244992
