time,seconds_elapsed,z,y,x
1634126532288910800,0.018910888671875,15.327880859375,-14.91085433959961,-24.144245147705078
1634126532308790000,0.0387900390625,15.323333740234375,-15.033687591552734,-24.255374908447266
1634126532328669000,0.0586689453125,14.431732177734375,-14.760143280029297,-24.293437957763672
1634126532348547000,0.078547119140625,14.38970947265625,-14.819244384765625,-24.328876495361328
1634126532368425700,0.09842578125,14.37249755859375,-14.840728759765625,-24.137279510498047
1634126532388305000,0.118304931640625,14.518585205078125,-14.84323501586914,-24.105792999267578
1634126532408184000,0.13818408203125,13.980072021484375,-15.23504638671875,-24.279926300048828
1634126532428063000,0.15806298828125,13.736907958984375,-15.176361083984375,-24.397754669189453
1634126532447942100,0.177942138671875,13.485443115234375,-15.229469299316406,-24.579486846923828
1634126532467820800,0.19782080078125,13.288360595703125,-15.566398620605469,-24.338481903076172
1634126532487700000,0.217699951171875,13.39373779296875,-15.436470031738281,-24.44156265258789
1634126532507579000,0.237578857421875,13.380889892578125,-15.77279281616211,-24.525005340576172
1634126532527458000,0.2574580078125,13.49249267578125,-15.674556732177734,-24.267200469970703
1634126532547336700,0.277336669921875,14.095672607421875,-15.822242736816406,-23.922916412353516
1634126532567215900,0.2972158203125,14.98223876953125,-15.68392562866211,-23.324459075927734
1634126532587095000,0.317094970703125,15.38427734375,-15.802772521972656,-22.88399887084961
1634126532606973000,0.336972900390625,16.483184814453125,-15.926467895507812,-22.29934310913086
1634126532626852000,0.35685205078125,17.082000732421875,-16.149192810058594,-21.348583221435547
1634126532646731000,0.37673095703125,18.196685791015625,-16.102291107177734,-20.611736297607422
1634126532666610000,0.39660986328125,19.302734375,-16.323875427246094,-19.19601058959961
1634126532686488800,0.41648876953125,20.661407470703125,-16.602252960205078,-18.281116485595703
1634126532706368000,0.436367919921875,20.8787841796875,-16.301197052001953,-17.18484878540039
1634126532726247000,0.456246826171875,21.91754150390625,-16.262046813964844,-16.223163604736328
1634126532746125800,0.476125732421875,22.022552490234375,-16.450759887695312,-15.261371612548828
1634126532766005000,0.4960048828125,23.20709228515625,-16.864444732666016,-13.982776641845703
1634126532785884000,0.5158837890625,23.848876953125,-17.101978302001953,-12.583728790283203
1634126532805763000,0.53576318359375,23.8800048828125,-17.455333709716797,-11.32352066040039
1634126532825642000,0.55564208984375,24.2686767578125,-17.63431167602539,-9.736148834228516
1634126532845520100,0.57552001953125,24.407562255859375,-18.13701629638672,-8.68881607055664
1634126532865398800,0.595398681640625,24.390167236328125,-18.428333282470703,-7.013553619384766
1634126532885278000,0.61527783203125,24.37548828125,-18.486125946044922,-5.430576324462891
1634126532905156900,0.635156982421875,24.818603515625,-18.801006317138672,-3.922943115234375
1634126532925036000,0.6550361328125,24.918304443359375,-18.898319244384766,-2.2467727661132812
1634126532944915000,0.6749150390625,24.567962646484375,-19.303348541259766,-0.4146156311035156
1634126532964793900,0.6947939453125,24.678802490234375,-19.236865997314453,1.0841178894042969
1634126532984673000,0.714673095703125,24.143768310546875,-19.253074645996094,2.1340904235839844
1634126533004552000,0.734552001953125,23.6297607421875,-19.815319061279297,3.420543670654297
1634126533024431000,0.75443115234375,23.47735595703125,-19.791492462158203,5.0352935791015625
1634126533044309800,0.774309814453125,22.74639892578125,-19.730297088623047,6.59124755859375
1634126533064189000,0.79418896484375,22.13763427734375,-19.691402435302734,7.908393859863281
1634126533084067800,0.81406787109375,21.400390625,-20.020244598388672,9.108890533447266
1634126533103946000,0.833946044921875,20.799652099609375,-20.093791961669922,9.751663208007812
1634126533123825000,0.853824951171875,20.218505859375,-20.560020446777344,10.063621520996094
1634126533143704000,0.8737041015625,19.533477783203125,-21.10836410522461,9.813037872314453
1634126533163583000,0.8935830078125,19.455963134765625,-21.476306915283203,9.32101821899414
1634126533183462000,0.9134619140625,18.909759521484375,-21.75259780883789,9.312492370605469
1634126533203341000,0.933341064453125,18.11346435546875,-21.993968963623047,9.532184600830078
1634126533223220000,0.953219970703125,17.26214599609375,-22.544307708740234,9.463233947753906
1634126533243099000,0.973098876953125,16.013031005859375,-22.896949768066406,9.528152465820312
1634126533262977800,0.992977783203125,15.850799560546875,-23.45864486694336,9.680435180664062
1634126533282857000,1.01285693359375,14.772247314453125,-23.86389923095703,9.653011322021484
1634126533302736100,1.032736083984375,14.268890380859375,-23.876476287841797,10.001445770263672
1634126533322614800,1.05261474609375,13.56732177734375,-24.107418060302734,10.571514129638672
1634126533342494000,1.072493896484375,13.691986083984375,-24.3800048828125,10.585319519042969
1634126533362372900,1.092372802734375,13.343505859375,-24.23064422607422,10.263153076171875
1634126533382251000,1.1122509765625,12.93310546875,-24.32412338256836,9.868988037109375
1634126533402130000,1.1321298828125,13.203643798828125,-24.26380157470703,9.71060562133789
1634126533422009000,1.152009033203125,12.3912353515625,-24.899871826171875,9.300678253173828
1634126533441887700,1.1718876953125,11.9676513671875,-25.348613739013672,8.147735595703125
1634126533461767000,1.191766845703125,11.60382080078125,-25.86623764038086,7.102573394775391
1634126533481645800,1.211645751953125,11.5225830078125,-26.154560089111328,6.346107482910156
1634126533501525000,1.23152490234375,10.68603515625,-26.12539291381836,5.423618316650391
1634126533521404000,1.25140380859375,10.660736083984375,-26.292144775390625,5.219810485839844
1634126533541282800,1.27128271484375,10.22686767578125,-26.759387969970703,4.557949066162109
1634126533561162000,1.291161865234375,9.29742431640625,-27.210330963134766,3.756847381591797
1634126533581041000,1.311041015625,8.4261474609375,-27.101200103759766,3.3473472595214844
1634126533600919600,1.33091943359375,7.7562255859375,-27.452342987060547,3.503948211669922
1634126533620798500,1.350798583984375,6.72149658203125,-27.603084564208984,3.597698211669922
1634126533640676600,1.370676513671875,5.169525146484375,-27.6807861328125,3.601543426513672
1634126533660555500,1.390555419921875,4.268463134765625,-28.090965270996094,4.023040771484375
1634126533680434400,1.410434326171875,2.965789794921875,-27.854843139648438,4.558738708496094
1634126533700313600,1.430313720703125,1.646514892578125,-27.764602661132812,5.272968292236328
1634126533720192500,1.450192626953125,0.2659912109375,-27.761524200439453,5.341976165771484
1634126533740071400,1.470071533203125,-0.861907958984375,-27.78333282470703,5.172580718994141
1634126533759950300,1.489950439453125,-2.667510986328125,-27.895957946777344,4.5244140625
1634126533779829500,1.50982958984375,-4.35845947265625,-28.03455352783203,4.042285919189453
1634126533799708700,1.529708740234375,-5.993560791015625,-28.10344696044922,3.552204132080078
1634126533819587600,1.549587646484375,-7.584869384765625,-27.45315933227539,3.277507781982422
1634126533839466500,1.569466552734375,-9.87939453125,-26.982406616210938,2.5977745056152344
1634126533859345400,1.589345458984375,-11.539215087890625,-26.337360382080078,2.5826148986816406
1634126533879224600,1.609224609375,-13.728851318359375,-25.234294891357422,3.0856666564941406
1634126533899103500,1.629103515625,-15.874725341796875,-24.22243881225586,3.95159912109375
1634126533918981600,1.648981689453125,-17.814666748046875,-22.778533935546875,5.040431976318359
1634126533938860500,1.668860595703125,-19.8326416015625,-21.016559600830078,5.996189117431641
1634126533958739500,1.688739501953125,-21.51434326171875,-19.04125213623047,7.452587127685547
1634126533978618600,1.70861865234375,-23.143951416015625,-16.960529327392578,8.539897918701172
1634126533998497500,1.72849755859375,-24.460052490234375,-14.848182678222656,9.795703887939453
1634126534018376700,1.748376708984375,-25.80682373046875,-12.434799194335938,10.326568603515625
1634126534038255400,1.76825537109375,-26.880828857421875,-10.204177856445312,11.215316772460938
1634126534058134500,1.788134521484375,-27.094482421875,-8.188758850097656,12.12691879272461
1634126534078013400,1.808013427734375,-27.910064697265625,-5.705181121826172,12.793121337890625
1634126534097892600,1.827892578125,-28.55950927734375,-3.1338348388671875,13.385932922363281
1634126534117771500,1.847771484375,-28.869049072265625,-0.1804370880126953,13.465187072753906
1634126534137650400,1.867650390625,-29.29632568359375,2.8441715240478516,13.711071014404297
1634126534157529600,1.887529541015625,-29.461883544921875,5.139921188354492,13.169212341308594
1634126534177408500,1.907408447265625,-28.923431396484375,7.30946159362793,12.852691650390625
1634126534197286700,1.92728662109375,-28.583648681640625,8.785860061645508,12.660308837890625
1634126534217165600,1.94716552734375,-28.844879150390625,10.022317886352539,12.468456268310547
1634126534237044500,1.96704443359375,-28.582000732421875,10.791374206542969,11.945682525634766
1634126534256923400,1.98692333984375,-28.190460205078125,11.320463180541992,11.856201171875
1634126534276802600,2.006802490234375,-28.338409423828125,11.375961303710938,11.903388977050781
1634126534296681500,2.026681396484375,-27.873992919921875,11.69088363647461,11.640628814697266
1634126534316560400,2.046560302734375,-27.45025634765625,11.719100952148438,11.95574951171875
1634126534336439600,2.066439453125,-27.646392822265625,11.648313522338867,11.629135131835938
1634126534356318500,2.086318359375,-27.802490234375,11.293558120727539,12.089263916015625
1634126534376197600,2.10619775390625,-27.782623291015625,10.526878356933594,12.906314849853516
1634126534396076500,2.12607666015625,-27.261260986328125,9.334074020385742,14.060737609863281
1634126534415955500,2.14595556640625,-26.943878173828125,8.925825119018555,15.591968536376953
1634126534435834400,2.16583447265625,-26.15771484375,10.188146591186523,16.187801361083984
1634126534455713500,2.185713623046875,-25.458587646484375,12.655878067016602,16.07980728149414
1634126534475591400,2.20559130859375,-24.6031494140625,15.558828353881836,15.926933288574219
1634126534495470600,2.225470703125,-23.992584228515625,18.064083099365234,14.768505096435547
1634126534515349500,2.245349609375,-22.737152099609375,19.967941284179688,14.357452392578125
1634126534535228400,2.265228515625,-22.043182373046875,21.678707122802734,13.354118347167969
1634126534555107600,2.285107666015625,-21.328460693359375,23.047927856445312,13.05008316040039
1634126534574986500,2.304986572265625,-20.49969482421875,23.765588760375977,12.935794830322266
1634126534594869500,2.324869384765625,-18.94317626953125,24.524097442626953,13.31915283203125
1634126534614748700,2.344748779296875,-17.918121337890625,24.92009162902832,13.81003189086914
1634126534634627600,2.364627685546875,-17.43170166015625,25.633451461791992,14.077857971191406
1634126534654506800,2.3845068359375,-16.87091064453125,26.28459358215332,14.262565612792969
1634126534674385700,2.4043857421875,-15.9398193359375,26.532896041870117,13.863258361816406
1634126534694264600,2.4242646484375,-15.840179443359375,27.26066780090332,14.174266815185547
1634126534714143700,2.444143798828125,-15.640228271484375,27.347885131835938,13.743633270263672
1634126534734021600,2.464021728515625,-15.127899169921875,27.657188415527344,13.469169616699219
1634126534753900500,2.483900634765625,-15.155609130859375,27.806934356689453,13.406200408935547
1634126534773779700,2.50377978515625,-14.747589111328125,27.856103897094727,13.490684509277344
1634126534793658600,2.52365869140625,-14.2593994140625,27.848968505859375,13.682079315185547
1634126534813537500,2.54353759765625,-14.3677978515625,27.94426918029785,13.414722442626953
1634126534833416700,2.563416748046875,-14.741363525390625,28.063566207885742,13.446964263916016
1634126534853295600,2.583295654296875,-14.34881591796875,28.294239044189453,13.463565826416016
1634126534873174800,2.6031748046875,-14.287017822265625,28.4945011138916,12.919410705566406
1634126534893053400,2.623053466796875,-13.330322265625,29.088478088378906,12.339977264404297
1634126534912932600,2.6429326171875,-12.801361083984375,29.386032104492188,12.083072662353516
1634126534932811800,2.662811767578125,-12.446502685546875,30.01144027709961,11.294395446777344
1634126534952690700,2.682690673828125,-11.625640869140625,30.852262496948242,10.59909439086914
1634126534972569600,2.702569580078125,-11.279052734375,31.214962005615234,10.172119140625
1634126534992448500,2.722448486328125,-10.8531494140625,31.66754913330078,9.22079086303711
1634126535012326700,2.74232666015625,-10.255950927734375,31.811403274536133,8.920543670654297
1634126535032205600,2.76220556640625,-9.639251708984375,32.14884948730469,8.645759582519531
1634126535052084700,2.782084716796875,-9.264434814453125,32.28397750854492,8.490840911865234
1634126535071963600,2.801963623046875,-8.666839599609375,32.46706008911133,8.133426666259766
1634126535091842600,2.821842529296875,-8.905670166015625,32.173500061035156,8.150707244873047
1634126535111721700,2.8417216796875,-9.054534912109375,32.00713348388672,8.6058349609375
1634126535131600600,2.8616005859375,-9.9178466796875,32.014122009277344,8.58279800415039
1634126535151479800,2.881479736328125,-10.08026123046875,31.756763458251953,9.346485137939453
1634126535171358500,2.9013583984375,-10.367767333984375,31.317041397094727,9.911846160888672
1634126535191237600,2.921237548828125,-10.402069091796875,31.105661392211914,9.831729888916016
1634126535211116500,2.941116455078125,-9.997589111328125,31.681367874145508,9.600540161132812
1634126535230995700,2.96099560546875,-9.705535888671875,31.93390655517578,9.180431365966797
1634126535250875000,2.980875,-8.66864013671875,32.47425079345703,8.5218505859375
1634126535270752800,3.000752685546875,-7.442596435546875,33.1125373840332,7.970558166503906
1634126535290631400,3.02063134765625,-6.038360595703125,33.425689697265625,7.720005035400391
1634126535310510600,3.040510498046875,-5.1756591796875,34.0130729675293,7.457710266113281
1634126535330389800,3.0603896484375,-3.62274169921875,33.996498107910156,7.410907745361328
1634126535350268700,3.0802685546875,-2.635162353515625,34.09404754638672,7.539165496826172
1634126535370147600,3.100147705078125,-1.995452880859375,34.10197830200195,7.601337432861328
1634126535390026500,3.120026611328125,-1.2471923828125,34.027137756347656,7.949897766113281
1634126535409905700,3.13990576171875,-0.72210693359375,34.16411209106445,7.972068786621094
1634126535429784600,3.15978466796875,-0.35882568359375,33.82883071899414,8.111289978027344
1634126535449663700,3.179663818359375,-0.264312744140625,33.93280029296875,8.106525421142578
1634126535469542700,3.199542724609375,-0.587127685546875,33.911277770996094,8.207138061523438
1634126535489421600,3.219421630859375,-0.900390625,33.8819465637207,8.17828369140625
1634126535509300700,3.23930078125,-1.35296630859375,34.01093292236328,8.189983367919922
1634126535529178600,3.2591787109375,-1.19024658203125,34.10495376586914,8.221813201904297
1634126535549057800,3.279057861328125,-0.390167236328125,34.1318473815918,7.980152130126953
1634126535568936700,3.298936767578125,0.189910888671875,34.10084533691406,7.839199066162109
1634126535588815400,3.3188154296875,0.75970458984375,34.37542724609375,7.393589019775391
1634126535608694500,3.338694580078125,1.031219482421875,34.516380310058594,7.4036102294921875
1634126535628573400,3.358573486328125,0.737945556640625,34.449161529541016,7.372737884521484
1634126535648452600,3.37845263671875,0.05474853515625,34.300804138183594,7.770172119140625
1634126535668331300,3.398331298828125,-0.914337158203125,34.252811431884766,7.998287200927734
1634126535688210400,3.41821044921875,-2.410369873046875,34.005584716796875,8.259296417236328
1634126535708089300,3.43808935546875,-3.33856201171875,33.44832229614258,8.723335266113281
1634126535727968500,3.457968505859375,-4.3214111328125,33.43138122558594,8.972721099853516
1634126535747847400,3.477847412109375,-5.13824462890625,33.370887756347656,9.375091552734375
1634126535767726300,3.497726318359375,-5.234130859375,33.02932357788086,9.431873321533203
1634126535787604200,3.517604248046875,-5.293853759765625,33.196006774902344,9.498420715332031
1634126535807483400,3.5374833984375,-5.10479736328125,33.3797721862793,9.368553161621094
1634126535827362600,3.557362548828125,-4.007049560546875,33.29052734375,9.057403564453125
1634126535847241500,3.577241455078125,-3.67169189453125,33.52547836303711,8.771163940429688
1634126535867120400,3.597120361328125,-3.412017822265625,33.67280960083008,8.754650115966797
1634126535886999300,3.616999267578125,-3.361236572265625,33.443851470947266,8.686111450195312
1634126535906878500,3.63687841796875,-3.56939697265625,33.54792785644531,9.122116088867188
1634126535926757400,3.65675732421875,-3.377044677734375,33.40798568725586,9.368400573730469
1634126535946636500,3.676636474609375,-3.310699462890625,33.26322937011719,9.753467559814453
1634126535966515500,3.696515380859375,-3.717498779296875,32.920989990234375,9.984695434570312
1634126535986394400,3.716394287109375,-3.90411376953125,33.21763610839844,9.794368743896484
1634126536006273500,3.7362734375,-4.05804443359375,33.03032684326172,9.925373077392578
1634126536026152400,3.75615234375,-4.141204833984375,32.90497970581055,9.773799896240234
1634126536046031400,3.77603125,-4.22760009765625,32.66604995727539,10.154655456542969
1634126536065909500,3.795909423828125,-4.234130859375,32.90194320678711,10.300895690917969
1634126536085788400,3.815788330078125,-4.661102294921875,32.94771194458008,9.847103118896484
1634126536105667300,3.835667236328125,-4.08447265625,32.928260803222656,9.869300842285156
1634126536125546500,3.85554638671875,-3.56427001953125,33.140472412109375,9.444271087646484
1634126536145425400,3.87542529296875,-3.271484375,33.20895004272461,9.61105728149414
1634126536165304300,3.89530419921875,-3.08453369140625,33.15707015991211,9.147708892822266
1634126536185183500,3.91518359375,-2.73052978515625,33.38774871826172,9.0799560546875
1634126536205062400,3.9350625,-1.580291748046875,33.345706939697266,9.08120346069336
1634126536224941600,3.954941650390625,-1.17681884765625,33.6163330078125,8.60992431640625
1634126536244820500,3.974820556640625,-0.646209716796875,33.66143798828125,8.446502685546875
1634126536264699400,3.994699462890625,-0.45660400390625,33.79313659667969,8.085411071777344
1634126536284578300,4.014578369140625,0.51507568359375,33.758056640625,7.864410400390625
1634126536304456400,4.03445654296875,0.491485595703125,33.703941345214844,7.7200927734375
1634126536324335400,4.05433544921875,0.83673095703125,33.84225845336914,7.293128967285156
1634126536344214500,4.074214599609375,0.559356689453125,34.11164093017578,7.427436828613281
1634126536364093400,4.094093505859375,1.00384521484375,33.497947692871094,7.344539642333984
1634126536383972400,4.113972412109375,1.035125732421875,33.908042907714844,7.282478332519531
1634126536403851500,4.1338515625,0.587127685546875,33.76295471191406,6.931495666503906
1634126536423730400,4.15373046875,0.246063232421875,33.862186431884766,7.049674987792969
1634126536443609600,4.173609619140625,-0.284515380859375,33.774288177490234,6.884422302246094
1634126536463488300,4.19348828125,-0.99542236328125,33.634605407714844,7.205268859863281
1634126536483367400,4.213367431640625,-2.027618408203125,33.37807846069336,7.123050689697266
1634126536503246600,4.23324658203125,-2.550018310546875,33.20372772216797,7.1485748291015625
1634126536523125500,4.25312548828125,-3.40704345703125,33.28045654296875,7.246761322021484
1634126536543004400,4.27300439453125,-3.526763916015625,33.23212432861328,7.47705078125
1634126536562883300,4.29288330078125,-3.6031494140625,32.760616302490234,7.438804626464844
1634126536582761500,4.312761474609375,-3.668548583984375,33.17516326904297,7.239131927490234
1634126536602637300,4.33263720703125,-2.894195556640625,33.285728454589844,7.02825927734375
1634126536622516200,4.35251611328125,-2.07208251953125,33.343162536621094,7.282451629638672
1634126536642395100,4.37239501953125,-1.5655517578125,33.16719436645508,6.875110626220703
1634126536662274300,4.3922744140625,-0.3040771484375,33.77334976196289,7.214550018310547
1634126536682153200,4.4121533203125,-0.00238037109375,33.42306137084961,7.361412048339844
1634126536702032400,4.432032470703125,0.14068603515625,33.406700134277344,7.313037872314453
1634126536721911300,4.451911376953125,0.355316162109375,33.525413513183594,7.076328277587891
1634126536741790200,4.471790283203125,0.5498046875,33.89822006225586,6.769683837890625
1634126536761669000,4.491669189453125,0.79766845703125,33.55409622192383,6.607097625732422
1634126536781548300,4.51154833984375,0.839111328125,33.79310607910156,6.190891265869141
1634126536801427500,4.531427490234375,0.96295166015625,33.85323715209961,5.628993988037109
1634126536821306000,4.55130615234375,1.686981201171875,33.72529220581055,5.3426513671875
1634126536841185300,4.571185302734375,2.18267822265625,33.933441162109375,5.3675079345703125
1634126536861063200,4.591063232421875,2.75689697265625,33.75723648071289,4.655426025390625
1634126536880942300,4.6109423828125,3.68975830078125,33.827022552490234,4.684112548828125
1634126536900821200,4.6308212890625,5.14825439453125,33.64969253540039,4.307960510253906
1634126536920700400,4.650700439453125,5.55743408203125,33.793792724609375,4.123630523681641
1634126536940579000,4.6705791015625,6.457794189453125,33.65343475341797,3.9656906127929688
1634126536960458200,4.690458251953125,7.271209716796875,33.52237319946289,3.524097442626953
1634126536980337400,4.71033740234375,7.538848876953125,33.253421783447266,3.146350860595703
1634126537000216300,4.73021630859375,8.63812255859375,33.67774200439453,3.044780731201172
1634126537020095200,4.75009521484375,9.20428466796875,33.33081817626953,2.7281227111816406
1634126537039974100,4.76997412109375,9.51800537109375,33.041893005371094,2.7514266967773438
1634126537059853300,4.789853271484375,9.812652587890625,33.205326080322266,2.4145278930664062
1634126537079732200,4.809732177734375,10.35369873046875,33.09214782714844,2.3501205444335938
1634126537099611400,4.829611328125,10.35345458984375,33.065704345703125,2.1454925537109375
1634126537119489300,4.8494892578125,10.680877685546875,32.93332290649414,2.288158416748047
1634126537139368200,4.8693681640625,11.273895263671875,32.636592864990234,2.0225372314453125
1634126537159247000,4.8892470703125,11.5753173828125,32.24169921875,1.7722206115722656
1634126537179126300,4.909126220703125,11.757232666015625,32.390689849853516,1.3325080871582031
1634126537199005400,4.92900537109375,12.462860107421875,32.03244400024414,1.1205635070800781
1634126537218884400,4.94888427734375,13.124664306640625,31.97153091430664,0.7699203491210938
1634126537238763300,4.96876318359375,13.6778564453125,31.903472900390625,0.5058097839355469
1634126537258642200,4.98864208984375,14.2779541015625,31.62332534790039,0.0493621826171875
1634126537278521300,5.008521240234375,14.10650634765625,31.09515953063965,-0.5020370483398438
1634126537298400300,5.028400146484375,15.029693603515625,30.817106246948242,-0.99737548828125
1634126537318279200,5.048279052734375,15.26123046875,30.530014038085938,-1.3757972717285156
1634126537338158300,5.068158447265625,15.4825439453125,30.549196243286133,-1.9009971618652344
1634126537358037200,5.088037353515625,15.874847412109375,30.271867752075195,-2.4362525939941406
1634126537377916400,5.10791650390625,16.27703857421875,29.839031219482422,-2.7425498962402344
1634126537397794300,5.127794189453125,16.98687744140625,29.163658142089844,-3.8040771484375
1634126537417673500,5.147673583984375,17.861907958984375,28.01424217224121,-5.269092559814453
1634126537437552000,5.16755224609375,18.979949951171875,27.40287208557129,-7.047595977783203
1634126537457431300,5.187431396484375,19.609466552734375,26.610639572143555,-7.540706634521484
1634126537477310200,5.207310302734375,20.427978515625,25.262413024902344,-8.605358123779297
1634126537497189400,5.227189453125,22.05572509765625,23.95937728881836,-9.350749969482422
1634126537517068300,5.247068359375,22.729217529296875,23.076099395751953,-9.552165985107422
1634126537536947200,5.266947265625,23.5953369140625,22.173418045043945,-9.531238555908203
1634126537556826400,5.286826416015625,24.13226318359375,21.719064712524414,-9.034793853759766
1634126537576705300,5.306705322265625,24.404449462890625,21.33995246887207,-8.81497573852539
1634126537596583400,5.32658349609375,24.456390380859375,21.243526458740234,-8.39779281616211
1634126537616462300,5.34646240234375,24.2860107421875,21.298095703125,-8.246570587158203
1634126537636341200,5.36634130859375,24.631591796875,21.39401626586914,-8.218334197998047
1634126537656220200,5.38622021484375,24.064117431640625,21.547346115112305,-8.700695037841797
1634126537676098300,5.406098388671875,23.973541259765625,21.567378997802734,-8.972049713134766
1634126537695977200,5.425977294921875,24.02886962890625,21.087711334228516,-9.59939193725586
1634126537715856400,5.4458564453125,24.226806640625,20.354373931884766,-10.31784439086914
1634126537735735300,5.4657353515625,24.6214599609375,19.166135787963867,-11.164974212646484
1634126537755614200,5.4856142578125,25.36578369140625,17.934833526611328,-11.80550765991211
1634126537775493400,5.505493408203125,25.69952392578125,16.471973419189453,-12.385547637939453
1634126537795372300,5.525372314453125,26.426177978515625,15.509981155395508,-12.72829818725586
1634126537815251500,5.54525146484375,26.438934326171875,14.457120895385742,-12.84365463256836
1634126537835130000,5.565130126953125,26.57501220703125,13.932846069335938,-12.88338851928711
1634126537855009300,5.58500927734375,27.159149169921875,13.290884017944336,-12.86080551147461
1634126537874888200,5.60488818359375,27.18768310546875,13.122823715209961,-12.661197662353516
1634126537894767400,5.624767333984375,27.261260986328125,13.188331604003906,-12.65951156616211
1634126537914646300,5.644646240234375,27.432586669921875,13.090564727783203,-12.37697982788086
1634126537934525200,5.664525146484375,27.246795654296875,12.979734420776367,-12.808170318603516
1634126537954403000,5.684403076171875,26.91607666015625,12.54203987121582,-13.151714324951172
1634126537974282200,5.7042822265625,27.272125244140625,11.72770881652832,-13.520099639892578
1634126537994161400,5.724161376953125,27.20379638671875,10.58371353149414,-13.794193267822266
1634126538014040300,5.744040283203125,27.066650390625,9.183557510375977,-14.421382904052734
1634126538033919200,5.763919189453125,27.450408935546875,7.91987419128418,-14.942584991455078
1634126538053798100,5.783798095703125,27.3892822265625,6.6669769287109375,-15.315799713134766
1634126538073677300,5.80367724609375,26.77117919921875,5.63310432434082,-15.60818862915039
1634126538093556200,5.82355615234375,27.0262451171875,5.007755279541016,-15.709766387939453
1634126538113435400,5.843435302734375,26.84185791015625,4.584653854370117,-15.542728424072266
1634126538133314300,5.863314208984375,27.037445068359375,4.675106048583984,-15.267131805419922
1634126538153193200,5.883193115234375,27.063140869140625,4.678071975708008,-15.298046112060547
1634126538173072400,5.903072265625,27.851043701171875,4.857385635375977,-15.312747955322266
1634126538192951300,5.922951416015625,27.450775146484375,5.0725555419921875,-15.031436920166016
1634126538212830200,5.942830322265625,27.400177001953125,5.145730972290039,-14.66513442993164
1634126538232708000,5.9627080078125,27.485260009765625,5.675390243530273,-14.48543930053711
1634126538252587300,5.982587158203125,27.92803955078125,5.956418991088867,-14.264118194580078
1634126538272466200,6.002466064453125,27.5029296875,6.577095031738281,-14.14749526977539
1634126538292345300,6.022345458984375,27.71759033203125,6.903757095336914,-14.122295379638672
1634126538312224300,6.042224365234375,27.533050537109375,7.206777572631836,-13.939281463623047
1634126538332103200,6.062103271484375,27.50750732421875,7.324575424194336,-14.051563262939453
1634126538351982300,6.081982421875,27.14801025390625,7.151531219482422,-14.256786346435547
1634126538371861200,6.101861328125,27.09918212890625,7.205446243286133,-14.338542938232422
1634126538391740400,6.121740478515625,27.02703857421875,6.905025482177734,-14.623600006103516
1634126538411619000,6.141619140625,27.118316650390625,7.218484878540039,-14.66489028930664
1634126538431498200,6.161498291015625,26.828704833984375,7.20710563659668,-14.866451263427734
1634126538451377200,6.181377197265625,26.76470947265625,7.0255126953125,-15.029865264892578
1634126538471256300,6.20125634765625,26.634246826171875,6.916416168212891,-15.362720489501953
1634126538491134200,6.22113427734375,26.174713134765625,6.703704833984375,-15.504718780517578
1634126538511013400,6.241013427734375,26.09124755859375,6.391851425170898,-15.709980010986328
1634126538530892300,6.260892333984375,25.8634033203125,6.1327056884765625,-15.953746795654297
1634126538550771200,6.280771240234375,25.813018798828125,5.773950576782227,-15.960742950439453
1634126538570650400,6.300650390625,25.8707275390625,5.706592559814453,-16.14150619506836
1634126538590532900,6.320532958984375,25.459259033203125,5.717649459838867,-16.125598907470703
1634126538610411800,6.340411865234375,25.512969970703125,6.003656387329102,-15.986309051513672
1634126538630291000,6.360291015625,25.630462646484375,6.550027847290039,-15.57938003540039
1634126538650169900,6.380169921875,25.76776123046875,6.521686553955078,-15.564266204833984
1634126538670049000,6.400049072265625,25.852264404296875,6.428169250488281,-15.824260711669922
1634126538689928000,6.419927978515625,25.973114013671875,6.232089996337891,-16.082897186279297
1634126538709806800,6.439806884765625,25.500885009765625,6.021697998046875,-16.246891021728516
1634126538729685800,6.459685791015625,25.325042724609375,5.79640007019043,-16.306720733642578
1634126538749565000,6.47956494140625,25.5821533203125,5.359991073608398,-16.160396575927734
1634126538769444000,6.499444091796875,25.49267578125,5.243679046630859,-16.417789459228516
1634126538789322000,6.519322021484375,25.951202392578125,4.886890411376953,-16.24979019165039
1634126538809201000,6.539200927734375,25.86956787109375,4.603643417358398,-16.247173309326172
1634126538829079800,6.559079833984375,25.028076171875,3.8555564880371094,-16.128047943115234
1634126538848959000,6.578958984375,25.2891845703125,3.2991085052490234,-16.539539337158203
1634126538868838000,6.598837890625,25.262664794921875,2.8528804779052734,-16.580089569091797
1634126538888717000,6.618717041015625,25.24530029296875,2.2145004272460938,-16.735485076904297
1634126538908595700,6.638595703125,25.088623046875,1.286733627319336,-16.893024444580078
1634126538928475000,6.658474853515625,25.0328369140625,0.8256378173828125,-16.959300994873047
1634126538948354000,6.67835400390625,24.730377197265625,0.3204193115234375,-17.275897979736328
1634126538968233000,6.69823291015625,22.81951904296875,-3.9301528930664062,-16.584583282470703
1634126538988112000,6.71811181640625,22.58209228515625,-4.258934020996094,-16.59640121459961
1634126539007990800,6.73799072265625,22.672882080078125,-5.007898330688477,-16.440441131591797
1634126539027870000,6.757869873046875,22.6759033203125,-5.174203872680664,-16.339794158935547
1634126539047748900,6.777748779296875,22.705352783203125,-5.3335418701171875,-16.187297821044922
1634126539067627000,6.797626953125,22.92010498046875,-5.413190841674805,-16.079151153564453
1634126539087506000,6.817505859375,22.93170166015625,-5.359668731689453,-15.833553314208984
1634126539107384800,6.837384765625,22.968017578125,-5.347444534301758,-15.937076568603516
1634126539127263700,6.857263671875,23.151947021484375,-5.287286758422852,-15.818767547607422
1634126539147143000,6.877142822265625,23.332550048828125,-5.1369476318359375,-15.403003692626953
1634126539167022000,6.89702197265625,23.64044189453125,-5.5492401123046875,-15.176807403564453
1634126539186900700,6.916900634765625,23.352386474609375,-5.605125427246094,-15.208736419677734
1634126539206780000,6.93677978515625,23.58306884765625,-6.031782150268555,-15.075565338134766
1634126539226658800,6.956658935546875,23.422637939453125,-5.928443908691406,-15.256122589111328
1634126539246538000,6.9765380859375,22.608551025390625,-6.268831253051758,-15.18313980102539
1634126539266417000,6.9964169921875,23.34063720703125,-6.260931015014648,-15.682987213134766
1634126539286295800,7.0162958984375,23.122772216796875,-6.320135116577148,-15.959300994873047
1634126539306175000,7.036175048828125,22.63006591796875,-6.387380599975586,-16.25192642211914
1634126539326054000,7.056053955078125,21.87628173828125,-6.619138717651367,-16.863948822021484
1634126539345932000,7.07593212890625,20.9273681640625,-7.468801498413086,-17.754146575927734
1634126539365811000,7.09581103515625,19.882843017578125,-8.755578994750977,-18.493000030517578
1634126539385689900,7.11568994140625,18.562744140625,-10.271280288696289,-18.938343048095703
1634126539405568800,7.13556884765625,17.254241943359375,-11.496664047241211,-19.13760757446289
1634126539425448000,7.155447998046875,16.917724609375,-12.288614273071289,-19.427265167236328
1634126539445326800,7.175326904296875,16.305023193359375,-12.899881362915039,-19.57424545288086
1634126539465206000,7.1952060546875,15.563629150390625,-12.896688461303711,-19.811450958251953
1634126539485085000,7.2150849609375,15.6876220703125,-12.949831008911133,-19.961139678955078
1634126539504963800,7.2349638671875,15.736572265625,-13.157808303833008,-19.831653594970703
1634126539524843000,7.254843017578125,16.272308349609375,-12.944326400756836,-19.61209487915039
1634126539544722000,7.274721923828125,17.20831298828125,-12.791215896606445,-18.964176177978516
1634126539564600800,7.294600830078125,17.299041748046875,-12.66126823425293,-18.45383071899414
1634126539584479700,7.314479736328125,18.05072021484375,-12.682703018188477,-18.596004486083984
1634126539604355000,7.33435498046875,18.1171875,-12.522390365600586,-18.363849639892578
1634126539624234200,7.354234130859375,18.66522216796875,-12.828424453735352,-18.18625259399414
1634126539644112100,7.374112060546875,17.87078857421875,-13.062688827514648,-17.994251251220703
1634126539663991300,7.3939912109375,16.9957275390625,-13.66386604309082,-17.610538482666016
1634126539683870000,7.413869873046875,17.3724365234375,-13.945459365844727,-17.51595687866211
1634126539703749000,7.4337490234375,16.965576171875,-14.508726119995117,-17.571819305419922
1634126539723628300,7.453628173828125,17.000335693359375,-14.928918838500977,-17.555248260498047
1634126539743507200,7.473507080078125,17.085357666015625,-14.718950271606445,-17.54159927368164
1634126539763386400,7.493386474609375,17.611602783203125,-14.530332565307617,-17.346065521240234
1634126539783265000,7.51326513671875,17.5233154296875,-14.019746780395508,-17.570171356201172
1634126539803144200,7.533144287109375,18.05621337890625,-13.965288162231445,-17.39017105102539
1634126539823023000,7.553023193359375,18.7830810546875,-13.812517166137695,-17.20181655883789
1634126539842902300,7.57290234375,18.396759033203125,-13.583349227905273,-17.351749420166016
1634126539862781200,7.59278125,18.62078857421875,-13.799806594848633,-17.43869400024414
1634126539882660000,7.61266015625,18.167572021484375,-13.998750686645508,-17.766780853271484
1634126539902538200,7.632538330078125,17.507720947265625,-14.799875259399414,-17.671489715576172
1634126539922417200,7.652417236328125,17.604766845703125,-15.178937911987305,-17.468700408935547
1634126539942296300,7.67229638671875,17.18572998046875,-15.414308547973633,-17.36513900756836
1634126539962175200,7.69217529296875,17.632171630859375,-15.591089248657227,-17.230426788330078
1634126539982054100,7.71205419921875,17.774169921875,-15.307111740112305,-17.588680267333984
1634126540001933000,7.73193310546875,17.940704345703125,-14.93397331237793,-17.147205352783203
1634126540021812200,7.751812255859375,18.674774169921875,-14.723577499389648,-17.23037338256836
1634126540041691400,7.77169140625,18.85662841796875,-13.782621383666992,-16.984561920166016
1634126540061570000,7.791570068359375,19.199249267578125,-13.748876571655273,-16.873485565185547
1634126540081449200,7.81144921875,19.16461181640625,-13.562929153442383,-17.10061264038086
1634126540101328100,7.831328125,19.5386962890625,-13.624982833862305,-16.616443634033203
1634126540121207300,7.851207275390625,19.597137451171875,-13.426717758178711,-16.461933135986328
1634126540141086200,7.871086181640625,19.922576904296875,-12.924715042114258,-16.812969207763672
1634126540160965000,7.890965087890625,20.058563232421875,-12.633649826049805,-17.04599380493164
1634126540180843000,7.910843017578125,19.8309326171875,-12.482183456420898,-17.34830093383789
1634126540200722200,7.93072216796875,19.595947265625,-12.661493301391602,-17.720653533935547
1634126540220601000,7.95060107421875,19.542144775390625,-12.826574325561523,-18.300853729248047
1634126540240480300,7.970480224609375,19.005035400390625,-12.947824478149414,-18.465747833251953
1634126540260359200,7.990359130859375,18.252044677734375,-13.194616317749023,-18.780269622802734
1634126540280238000,8.010238037109374,17.6785888671875,-13.50935173034668,-18.840457916259766
1634126540300117200,8.0301171875,17.83343505859375,-13.761663436889648,-19.04372787475586
1634126540319996200,8.04999609375,17.760772705078125,-13.706243515014648,-19.010562896728516
1634126540339875300,8.069875244140626,17.4200439453125,-14.145692825317383,-19.213336944580078
1634126540359754000,8.08975390625,17.34832763671875,-14.157758712768555,-19.03659439086914
1634126540379633200,8.109633056640625,17.303192138671875,-14.172433853149414,-19.07827377319336
1634126540399512300,8.12951220703125,17.214630126953125,-14.339323043823242,-19.26931381225586
1634126540419391200,8.14939111328125,17.57415771484375,-13.933111190795898,-19.13248062133789
1634126540439269000,8.16926904296875,17.39453125,-13.78282356262207,-18.783458709716797
1634126540459148300,8.189148193359374,17.7818603515625,-13.505945205688477,-18.835933685302734
1634126540479027200,8.209027099609376,17.758148193359375,-13.575803756713867,-18.606983184814453
1634126540498906000,8.228906005859375,18.151702880859375,-13.211442947387695,-18.76760482788086
1634126540518785300,8.248785400390625,18.65069580078125,-13.015707015991211,-18.654735565185547
1634126540538664200,8.268664306640625,18.526885986328125,-12.777196884155273,-18.681209564208984
1634126540558543000,8.288543212890625,18.52325439453125,-13.032003402709961,-18.91055679321289
1634126540578422000,8.308422119140625,18.52655029296875,-13.053857803344727,-18.983692169189453
1634126540598305800,8.328305908203125,17.75433349609375,-13.235170364379883,-19.32327651977539
1634126540618184400,8.348184326171875,17.98150634765625,-13.658151626586914,-19.331584930419922
1634126540638063600,8.368063720703125,17.681182861328125,-13.965707778930664,-19.035396575927734
1634126540657942800,8.38794287109375,17.734283447265625,-14.214452743530273,-19.037494659423828
1634126540677821700,8.40782177734375,17.784942626953125,-14.301603317260742,-18.769405364990234
1634126540697699800,8.427699951171874,18.11761474609375,-14.450197219848633,-18.652042388916016
1634126540717578800,8.447578857421876,17.69775390625,-14.445135116577148,-18.445491790771484
1634126540737457700,8.467457763671876,18.220977783203125,-14.583135604858398,-18.256122589111328
1634126540757336600,8.487336669921875,18.119537353515625,-14.778337478637695,-18.24795913696289
1634126540777215700,8.5072158203125,17.777984619140625,-14.885618209838867,-18.017902374267578
1634126540797094700,8.5270947265625,17.466888427734375,-15.197320938110352,-18.183124542236328
1634126540816973600,8.5469736328125,17.345794677734375,-15.517633438110352,-18.254688262939453
1634126540836852700,8.566852783203124,17.14208984375,-16.217653274536133,-18.05240249633789
1634126540856731600,8.586731689453124,17.055206298828125,-16.52922248840332,-17.99234390258789
1634126540876610800,8.60661083984375,16.855010986328125,-16.90398597717285,-17.993892669677734
1634126540896489700,8.62648974609375,16.740325927734375,-17.47890281677246,-17.905101776123047
1634126540916368600,8.64636865234375,15.9693603515625,-17.5496768951416,-17.77932357788086
1634126540936247600,8.66624755859375,16.1534423828125,-17.814943313598633,-17.513233184814453
1634126540956125700,8.686125732421875,16.394561767578125,-17.82721519470215,-17.28536605834961
1634126540976004600,8.706004638671875,16.322723388671875,-17.43946647644043,-17.566158294677734
1634126540995883800,8.7258837890625,16.8248291015625,-17.476186752319336,-17.359180450439453
1634126541015762700,8.7457626953125,16.38739013671875,-17.472990036010742,-17.503704071044922
1634126541035641600,8.7656416015625,16.538604736328125,-17.539941787719727,-17.334712982177734
1634126541055520800,8.785520751953126,17.18182373046875,-17.530195236206055,-17.171016693115234
1634126541075399700,8.805399658203125,17.193572998046875,-17.80510902404785,-17.201107025146484
1634126541095278800,8.82527880859375,17.12310791015625,-17.818544387817383,-16.93002700805664
1634126541115157500,8.845157470703125,16.701812744140625,-17.892175674438477,-17.23617935180664
1634126541135036700,8.86503662109375,16.59222412109375,-18.184720993041992,-17.679561614990234
1634126541154915600,8.88491552734375,16.0806884765625,-18.5364933013916,-17.61587142944336
1634126541174794800,8.904794677734374,14.689605712890625,-19.172605514526367,-17.712543487548828
1634126541194673700,8.924673583984376,14.1611328125,-19.881357192993164,-17.383403778076172
1634126541214551800,8.9445517578125,13.027099609375,-20.8006649017334,-17.542713165283203
1634126541234430700,8.9644306640625,12.481201171875,-21.31926918029785,-17.396549224853516
1634126541254309600,8.9843095703125,12.57928466796875,-21.550546646118164,-17.142559051513672
1634126541274188800,9.004188720703125,12.501251220703125,-21.40086555480957,-17.207454681396484
1634126541294067700,9.024067626953125,12.492950439453125,-21.60282325744629,-17.183734893798828
1634126541313946600,9.043946533203124,12.885345458984375,-21.22456169128418,-17.55855941772461
1634126541333825500,9.063825439453124,13.070587158203125,-21.291669845581055,-17.441959381103516
1634126541353704700,9.08370458984375,13.25506591796875,-20.81172752380371,-17.580448150634766
1634126541373584000,9.103583984375,13.87152099609375,-21.227914810180664,-17.311031341552734
1634126541393462800,9.123462890625,13.748626708984375,-21.132131576538086,-17.29476547241211
1634126541413341700,9.143341796875,12.882781982421875,-21.600210189819336,-17.078067779541016
1634126541433220600,9.163220703125,12.95843505859375,-22.064485549926758,-17.25619888305664
1634126541453099800,9.183099853515625,12.07550048828125,-22.448930740356445,-16.948734283447266
1634126541472977700,9.202977783203124,10.927398681640625,-23.168149948120117,-16.856464385986328
1634126541492856800,9.22285693359375,10.31585693359375,-23.956933975219727,-16.626018524169922
1634126541512735500,9.242735595703126,9.021209716796875,-24.48478126525879,-16.55960464477539
1634126541532614700,9.26261474609375,8.4569091796875,-25.08315086364746,-16.385234832763672
1634126541552493600,9.28249365234375,8.445648193359375,-25.13714027404785,-15.88522720336914
1634126541572372700,9.302372802734375,8.78143310546875,-25.23459815979004,-15.972461700439453
1634126541592252000,9.322251953125,9.360687255859375,-24.873186111450195,-15.67300033569336
1634126541612129800,9.3421298828125,10.088531494140625,-24.584836959838867,-15.79684066772461
1634126541632008700,9.3620087890625,10.881866455078125,-23.96235466003418,-15.695911407470703
1634126541651887600,9.3818876953125,12.188720703125,-23.6042537689209,-16.052730560302734
1634126541671766800,9.401766845703126,12.623931884765625,-23.3362979888916,-16.123126983642578
1634126541691646000,9.42164599609375,12.92620849609375,-23.174814224243164,-15.752002716064453
1634126541711524600,9.441524658203125,12.9140625,-23.366212844848633,-15.525348663330078
1634126541731402800,9.46140283203125,12.742919921875,-23.26275062561035,-15.322086334228516
1634126541751281700,9.48128173828125,12.724945068359375,-23.434663772583008,-15.277790069580078
1634126541771160800,9.501160888671874,12.43682861328125,-23.767946243286133,-15.374576568603516
1634126541791039700,9.521039794921874,12.694305419921875,-23.881330490112305,-14.90005874633789
1634126541810919000,9.5409189453125,12.771240234375,-23.627771377563477,-14.961872100830078
1634126541830797600,9.560797607421875,13.27532958984375,-23.488218307495117,-14.927371978759766
1634126541850676700,9.5806767578125,13.66204833984375,-23.29439353942871,-14.796260833740234
1634126541870556000,9.600555908203125,13.64691162109375,-22.83146858215332,-15.195758819580078
1634126541890434800,9.620434814453125,13.99273681640625,-22.5687313079834,-15.205951690673828
1634126541910313700,9.640313720703125,14.76904296875,-22.50882911682129,-15.25545883178711
1634126541930192600,9.660192626953124,14.87591552734375,-22.302141189575195,-15.445072174072266
1634126541950071800,9.68007177734375,14.723907470703125,-22.065629959106445,-15.383686065673828
1634126541969950700,9.69995068359375,15.310455322265625,-21.91023063659668,-15.729602813720703
1634126541989828900,9.719828857421875,15.516021728515625,-21.398149490356445,-15.87252426147461
1634126542009707800,9.739707763671875,15.759918212890625,-20.83237648010254,-16.419750213623047
1634126542029586700,9.759586669921875,15.884368896484375,-20.19504737854004,-16.770877838134766
1634126542049465600,9.779465576171875,16.2410888671875,-19.81098747253418,-17.275775909423828
1634126542069344800,9.7993447265625,16.48199462890625,-19.480039596557617,-17.787532806396484
1634126542089224000,9.819223876953124,16.627471923828125,-19.08125877380371,-18.142833709716797
1634126542109102800,9.839102783203124,16.662353515625,-18.530012130737305,-18.109264373779297
1634126542128981800,9.858981689453126,16.736541748046875,-18.29017448425293,-18.514606475830078
1634126542148860700,9.878860595703125,16.988983154296875,-18.246679306030273,-19.152149200439453
1634126542168739800,9.89873974609375,16.8673095703125,-18.01524543762207,-19.315608978271484
1634126542188618800,9.91861865234375,16.40447998046875,-17.555940628051758,-19.088298797607422
1634126542208497700,9.93849755859375,17.031829833984375,-17.648698806762695,-19.265705108642578
1634126542228375600,9.95837548828125,17.186676025390625,-17.687387466430664,-19.244709014892578
1634126542248254700,9.978254638671874,17.861328125,-17.664033889770508,-19.018802642822266
1634126542268134000,9.9981337890625,18.567596435546875,-17.2888240814209,-18.438159942626953
1634126542288012800,10.0180126953125,19.6396484375,-16.97608757019043,-18.101383209228516
1634126542307892000,10.03789208984375,20.52178955078125,-15.923364639282227,-17.766963958740234
1634126542327770600,10.0577705078125,21.47882080078125,-14.944887161254883,-17.180469512939453
1634126542347649800,10.07764990234375,22.01287841796875,-14.120336532592773,-17.244152069091797
1634126542367528700,10.09752880859375,23.1409912109375,-13.457765579223633,-17.403202056884766
1634126542387408000,10.117407958984375,22.743988037109375,-13.29670524597168,-17.476245880126953
1634126542407286800,10.137286865234374,22.969146728515625,-13.290945053100586,-17.500003814697266
1634126542427165700,10.157165771484374,22.897247314453125,-13.472127914428711,-17.223094940185547
1634126542447044900,10.177044921875,23.065155029296875,-13.462385177612305,-16.704586029052734
1634126542466923800,10.196923828125,23.535003662109375,-13.398103713989258,-16.350605010986328
1634126542486803000,10.216802978515625,23.669891357421875,-13.395296096801758,-16.000041961669922
1634126542506680800,10.236680908203125,24.050384521484375,-13.350793838500977,-15.668758392333984
1634126542526559700,10.256559814453125,24.660552978515625,-13.303800582885742,-15.374645233154297
1634126542546438700,10.276438720703124,24.67205810546875,-13.102083206176758,-15.030902862548828
1634126542566317800,10.29631787109375,24.517578125,-13.013124465942383,-14.76266860961914
1634126542586196700,10.31619677734375,25.02667236328125,-12.75096321105957,-15.010486602783203
1634126542606072300,10.336072265625,24.778411865234375,-12.733835220336914,-15.145084381103516
1634126542625951200,10.355951171875,24.6923828125,-13.012884140014648,-14.99081802368164
1634126542645830400,10.375830322265625,24.942413330078125,-12.99284553527832,-14.909801483154297
1634126542665709600,10.39570947265625,24.93701171875,-13.051889419555664,-14.75815200805664
1634126542685588500,10.41558837890625,25.0709228515625,-13.015390396118164,-14.719547271728516
1634126542705467400,10.43546728515625,25.180999755859375,-13.128339767456055,-14.79373550415039
1634126542725346300,10.45534619140625,25.42486572265625,-12.767126083374023,-14.420452117919922
1634126542745224400,10.475224365234375,25.79461669921875,-12.582300186157227,-14.012638092041016
1634126542765103400,10.495103271484375,26.21258544921875,-12.314664840698242,-13.801692962646484
1634126542784982500,10.514982421875,26.538360595703125,-12.07304573059082,-13.154216766357422
1634126542804861200,10.534861083984374,26.047119140625,-12.502096176147461,-13.28145980834961
1634126542824740400,10.554740234375,26.016082763671875,-12.921335220336914,-13.15981674194336
1634126542844619300,10.574619384765626,25.36456298828125,-13.280340194702148,-13.64626693725586
1634126542864498400,10.59449853515625,25.406982421875,-13.654073715209961,-14.137760162353516
1634126542884377600,10.614377685546875,24.3990478515625,-13.97056770324707,-14.80734634399414
1634126542904256300,10.63425634765625,23.67193603515625,-14.454462051391602,-15.682430267333984
1634126542924135400,10.654135498046875,23.2147216796875,-15.959066390991211,-16.22030258178711
1634126542944014300,10.674014404296875,21.76739501953125,-16.892004013061523,-16.74898910522461
1634126542963893500,10.6938935546875,20.8485107421875,-17.991525650024414,-16.756526947021484
1634126542983772200,10.713772216796874,19.8746337890625,-18.954065322875977,-16.23647689819336
1634126543003651300,10.7336513671875,19.67193603515625,-19.619043350219727,-16.153125762939453
1634126543023529200,10.753529296875,19.465972900390625,-20.307832717895508,-15.65523910522461
1634126543043408400,10.773408447265625,19.493133544921875,-20.62941551208496,-15.505390167236328
1634126543063287600,10.79328759765625,19.541351318359375,-20.515504837036133,-15.016956329345703
1634126543083166500,10.81316650390625,19.7137451171875,-20.459474563598633,-14.679073333740234
1634126543103045400,10.83304541015625,20.014434814453125,-20.25123405456543,-14.597278594970703
1634126543122924300,10.85292431640625,20.746124267578125,-20.203359603881836,-14.49300765991211
1634126543142803500,10.872803466796874,20.650848388671875,-19.905866622924805,-14.65224838256836
1634126543162682400,10.892682373046876,20.332275390625,-20.217226028442383,-14.730892181396484
1634126543182561300,10.912561279296876,19.41497802734375,-20.319581985473633,-15.01455307006836
1634126543202440400,10.9324404296875,18.839935302734375,-21.070741653442383,-15.25021743774414
1634126543222319400,10.9523193359375,18.190155029296875,-21.669931411743164,-15.220378875732422
1634126543242198500,10.972198486328125,17.554107666015625,-22.043352127075195,-15.204486846923828
1634126543262077400,10.992077392578125,17.05877685546875,-22.639352798461914,-14.93606185913086
1634126543281955600,11.01195556640625,17.15447998046875,-22.787111282348633,-14.64883041381836
1634126543301834200,11.031834228515624,17.431640625,-22.789758682250977,-14.451847076416016
1634126543321713400,11.05171337890625,18.20928955078125,-22.31923484802246,-14.321338653564453
1634126543341592300,11.07159228515625,19.118316650390625,-22.04728889465332,-14.065013885498047
1634126543361471500,11.091471435546875,19.54241943359375,-21.344099044799805,-13.865192413330078
1634126543381350400,11.111350341796875,20.0421142578125,-20.754384994506836,-14.116413116455078
1634126543401229300,11.131229248046875,19.9266357421875,-20.633962631225586,-14.04824447631836
1634126543421108500,11.1511083984375,20.407073974609375,-20.56392478942871,-13.808399200439453
1634126543440987400,11.1709873046875,20.239288330078125,-20.523500442504883,-13.80501937866211
1634126543460866600,11.190866455078124,20.182952880859375,-20.716508865356445,-14.183658599853516
1634126543480745200,11.2107451171875,19.907379150390625,-21.16678810119629,-13.723430633544922
1634126543500624400,11.230624267578126,20.22503662109375,-21.121164321899414,-13.64584732055664
1634126543520503300,11.25050341796875,20.493682861328125,-21.213956832885742,-13.701519012451172
1634126543540382500,11.270382568359375,20.83477783203125,-20.862058639526367,-13.632266998291016
1634126543560260400,11.29026025390625,21.020263671875,-20.490427017211914,-13.61031723022461
1634126543580139500,11.310139404296875,21.358673095703125,-19.855501174926758,-13.738689422607422
1634126543600019000,11.33001904296875,21.362457275390625,-19.264772415161133,-13.705577850341797
1634126543619897900,11.34989794921875,21.574676513671875,-18.772592544555664,-13.849468231201172
1634126543639777000,11.369777099609376,21.6796875,-18.571531295776367,-14.30392837524414
1634126543659656000,11.389656005859376,21.515167236328125,-18.08888053894043,-14.99007797241211
1634126543679534800,11.409534912109375,21.313690185546875,-18.015756607055664,-15.398120880126953
1634126543699413800,11.429413818359375,20.653961181640625,-18.140233993530273,-15.92514419555664
1634126543719293000,11.44929296875,20.071319580078125,-18.727991104125977,-16.04208755493164
1634126543739172000,11.469172119140625,20.11578369140625,-18.858457565307617,-16.372028350830078
1634126543759050800,11.48905078125,19.937042236328125,-18.784940719604492,-16.562786102294922
1634126543778930000,11.508929931640624,19.4864501953125,-18.98012351989746,-16.914241790771484
1634126543798808800,11.528808837890624,19.39752197265625,-19.383962631225586,-17.035640716552734
1634126543818687000,11.54868701171875,18.805084228515625,-19.638887405395508,-17.08261489868164
1634126543838566000,11.56856591796875,18.7227783203125,-19.76228904724121,-16.88705062866211
1634126543858445000,11.588445068359375,18.856048583984375,-20.357114791870117,-16.611873626708984
1634126543878323700,11.60832373046875,19.311767578125,-20.02186393737793,-16.59615707397461
1634126543898203000,11.628202880859375,19.031402587890625,-19.802053451538086,-16.00814437866211
1634126543918082000,11.64808203125,20.372955322265625,-19.403051376342773,-16.252613067626953
1634126543937961000,11.6679609375,20.78448486328125,-18.6990909576416,-16.17483139038086
1634126543957840000,11.68783984375,22.242401123046875,-17.8584041595459,-15.766712188720703
1634126543977718800,11.70771875,23.1883544921875,-16.685152053833008,-15.356914520263672
1634126543997598000,11.727597900390625,23.66650390625,-16.258596420288086,-15.008434295654297
1634126544017476900,11.747476806640625,24.6170654296875,-15.226293563842773,-14.882427215576172
1634126544037355800,11.767355712890625,25.44757080078125,-14.426214218139648,-14.397418975830078
1634126544057235000,11.78723486328125,25.98468017578125,-13.829252243041992,-14.018672943115234
1634126544077113900,11.80711376953125,26.45361328125,-12.93159294128418,-13.561351776123047
1634126544096991700,11.82699169921875,26.411407470703125,-12.91859245300293,-13.52518081665039
1634126544116871000,11.846870849609376,26.533203125,-12.487947463989258,-13.504596710205078
1634126544136750000,11.86675,26.672882080078125,-12.992277145385742,-13.60049819946289
1634126544156628700,11.886628662109375,26.585723876953125,-12.873178482055664,-13.432125091552734
1634126544176508000,11.9065078125,26.571441650390625,-12.911409378051758,-13.51107406616211
1634126544196386800,11.92638671875,26.60662841796875,-13.218759536743164,-13.439159393310547
1634126544216266000,11.946265869140625,26.493927001953125,-13.509878158569336,-13.590999603271484
1634126544236145000,11.966144775390624,26.005859375,-13.397806167602539,-13.32973861694336
1634126544256023800,11.98602392578125,26.225555419921875,-13.055086135864258,-13.595386505126953
1634126544275903000,12.005903076171874,26.744781494140625,-13.275270462036133,-13.535457611083984
1634126544295782000,12.025781982421876,26.44097900390625,-13.290704727172852,-13.20279312133789
1634126544315661000,12.0456611328125,27.21783447265625,-12.800333023071289,-13.170780181884766
1634126544335539700,12.065539794921875,27.309295654296875,-12.663660049438477,-12.61678695678711
1634126544355417900,12.08541796875,27.547210693359375,-12.255220413208008,-12.461414337158203
1634126544375296800,12.105296875,27.732452392578125,-11.69202995300293,-12.056262969970703
1634126544395176000,12.125176025390624,27.79461669921875,-11.637182235717773,-11.93423843383789
1634126544415054800,12.145054931640624,28.19305419921875,-10.790292739868164,-11.526935577392578
1634126544434934000,12.16493408203125,28.484375,-10.228620529174805,-11.51889419555664
1634126544454813000,12.18481298828125,28.885009765625,-9.65632438659668,-11.675167083740234
1634126544474691800,12.20469189453125,28.788421630859375,-9.674463272094727,-11.754222869873047
1634126544494571000,12.224571044921875,28.78082275390625,-9.640970230102539,-12.104297637939453
1634126544514450000,12.244449951171875,28.791900634765625,-10.032438278198242,-12.448894500732422
1634126544534328800,12.264328857421875,27.8070068359375,-11.09156608581543,-12.957324981689453
1634126544554207700,12.284207763671875,26.961456298828125,-12.34455680847168,-13.43039321899414
1634126544574087000,12.3040869140625,26.69305419921875,-13.233858108520508,-13.852527618408203
1634126544593966000,12.323966064453124,25.269805908203125,-13.888067245483398,-14.02846908569336
1634126544613844000,12.343843994140625,25.041015625,-14.13884162902832,-14.415424346923828
1634126544633723100,12.36372314453125,25.203948974609375,-13.571783065795898,-14.929767608642578
1634126544653602000,12.38360205078125,25.321258544921875,-13.194005966186523,-15.250850677490234
1634126544673481000,12.40348095703125,25.2452392578125,-12.476129531860352,-15.557689666748047
1634126544693360000,12.423360107421875,25.55657958984375,-11.168245315551758,-15.64956283569336
1634126544713239000,12.443239013671874,26.3328857421875,-9.907018661499023,-16.002429962158203
1634126544733118000,12.463117919921874,26.403656005859375,-8.84467887878418,-15.947467803955078
1634126544752996900,12.482996826171876,26.7650146484375,-7.804449081420898,-15.796390533447266
1634126544772876000,12.5028759765625,27.06219482421875,-6.929170608520508,-15.917339324951172
1634126544792755200,12.522755126953125,26.968170166015625,-6.45512580871582,-15.371997833251953
1634126544812634000,12.542634033203125,27.597869873046875,-5.815164566040039,-15.024272918701172
1634126544832513000,12.562512939453125,27.71026611328125,-5.200511932373047,-14.547069549560547
1634126544852392000,12.582391845703125,28.158782958984375,-4.527475357055664,-14.298648834228516
1634126544872271000,12.60227099609375,28.57720947265625,-3.6083927154541016,-13.44411849975586
1634126544892149000,12.62214892578125,28.898406982421875,-2.7365169525146484,-12.918781280517578
1634126544912028200,12.642028076171876,29.41217041015625,-2.099893569946289,-12.35702133178711
1634126544931906800,12.66190673828125,29.438385009765625,-1.3612957000732422,-12.02022933959961
1634126544951786000,12.681785888671875,29.87188720703125,-0.3590545654296875,-12.296939849853516
1634126544971665000,12.701664794921875,29.89776611328125,0.15058326721191406,-12.160953521728516
1634126544991544000,12.7215439453125,29.257904052734375,0.9006805419921875,-12.37740707397461
1634126545011423200,12.74142333984375,29.24053955078125,1.6216812133789062,-13.127391815185547
1634126545031302000,12.761302001953124,29.179168701171875,2.354022979736328,-13.064868927001953
1634126545051181000,12.78118115234375,28.930206298828125,2.6736278533935547,-13.064632415771484
1634126545071060000,12.80106005859375,29.049774169921875,3.0607452392578125,-12.696300506591797
1634126545090939100,12.820939208984376,29.144287109375,3.7648162841796875,-12.653545379638672
1634126545110817800,12.84081787109375,29.512054443359375,4.206302642822266,-12.349369049072266
1634126545130697000,12.860697021484375,29.42108154296875,4.64634895324707,-11.839603424072266
1634126545150574800,12.880574951171875,29.30987548828125,5.220396041870117,-11.123912811279297
1634126545170454000,12.9004541015625,29.748779296875,5.948678970336914,-10.327007293701172
1634126545190333200,12.920333251953124,29.83990478515625,6.567480087280273,-9.659748077392578
1634126545210212000,12.940212158203124,29.9537353515625,7.901771545410156,-8.764766693115234
1634126545230091000,12.960091064453126,29.90869140625,8.833847045898438,-7.753772735595703
1634126545249970000,12.979969970703126,30.113983154296875,10.310606002807617,-6.801364898681641
1634126545269849000,12.99984912109375,29.843536376953125,11.611175537109375,-5.710582733154297
1634126545289728000,13.01972802734375,29.333953857421875,13.27025318145752,-4.463871002197266
1634126545309607000,13.03960693359375,29.0693359375,13.80903148651123,-3.7148971557617188
1634126545329486000,13.059486083984375,28.347137451171875,15.053327560424805,-2.713207244873047
1634126545349365000,13.079364990234374,27.644622802734375,16.177345275878906,-1.6847953796386719
1634126545369244200,13.099244140625,26.9173583984375,17.23805809020996,-0.9045295715332031
1634126545389123000,13.119123046875,26.6015625,17.754478454589844,-0.4247245788574219
1634126545409002000,13.139001953125,26.187744140625,18.60383415222168,-0.5915260314941406
1634126545428880000,13.1588798828125,25.0081787109375,19.236772537231445,-0.6974601745605469
1634126545448759000,13.178759033203125,24.58941650390625,19.915193557739258,-0.5872726440429688
1634126545468638000,13.198637939453125,24.355712890625,20.550926208496094,-0.6402359008789062
1634126545488517000,13.21851708984375,23.46923828125,21.131990432739258,-0.4066123962402344
1634126545508396000,13.23839599609375,23.17974853515625,21.47178840637207,-0.19504547119140625
1634126545528275000,13.25827490234375,22.750946044921875,21.934551239013672,0.3471794128417969
1634126545548154000,13.278154052734376,22.35638427734375,22.328296661376953,0.5664863586425781
1634126545568033000,13.298032958984376,21.904937744140625,22.405967712402344,1.2182846069335938
1634126545587912200,13.317912109375,21.70147705078125,22.540464401245117,1.5787696838378906
1634126545607791000,13.337791015625,21.157867431640625,23.143531799316406,1.4617424011230469
1634126545627670300,13.357670166015625,20.869598388671875,23.210187911987305,2.1536483764648438
1634126545647549200,13.377549072265625,20.997833251953125,23.458702087402344,2.3530540466308594
1634126545667428400,13.397428466796875,20.80224609375,23.247699737548828,2.5476760864257812
1634126545687307300,13.417307373046874,20.900177001953125,23.499614715576172,2.7785873413085938
1634126545707185200,13.43718505859375,20.754364013671875,23.503686904907227,3.0691986083984375
1634126545727064300,13.457064208984375,20.521209716796875,23.686317443847656,3.2861671447753906
1634126545746943200,13.476943115234375,20.34783935546875,23.90665054321289,3.595165252685547
1634126545766822400,13.496822509765625,19.993438720703125,23.986536026000977,4.040794372558594
1634126545786701300,13.516701416015625,19.4713134765625,24.410701751708984,4.611724853515625
1634126545806580200,13.536580322265625,18.93890380859375,24.870784759521484,5.285438537597656
1634126545826459100,13.556459228515624,18.328948974609375,25.104951858520508,6.149456024169922
1634126545846338300,13.57633837890625,17.570648193359375,25.281126022338867,7.123928070068359
1634126545866217500,13.596217529296876,16.3184814453125,25.704059600830078,7.9004364013671875
1634126545886096100,13.61609619140625,16.052001953125,26.02977180480957,8.931156158447266
1634126545905975300,13.635975341796875,15.0068359375,26.22848129272461,9.428573608398438
1634126545925854200,13.655854248046875,13.71734619140625,26.416757583618164,10.37863540649414
1634126545945733400,13.6757333984375,12.98565673828125,26.75177001953125,10.603271484375
1634126545965611300,13.695611328125,12.44659423828125,27.24253273010254,10.826358795166016
1634126545985490400,13.715490478515624,11.9281005859375,27.369861602783203,10.891380310058594
1634126546005369000,13.735369140625,11.466583251953125,27.605222702026367,10.843559265136719
1634126546025248300,13.755248291015626,11.34149169921875,27.415563583374023,11.064273834228516
1634126546045127200,13.775127197265626,11.452423095703125,27.261985778808594,11.093559265136719
1634126546065006300,13.79500634765625,11.1717529296875,27.285512924194336,10.96286392211914
1634126546084885200,13.81488525390625,11.113861083984375,27.396438598632812,11.049678802490234
1634126546104764200,13.83476416015625,10.506866455078125,27.481416702270508,10.902725219726562
1634126546124643300,13.854643310546875,10.042877197265625,27.496612548828125,11.129047393798828
1634126546144522200,13.874522216796874,9.433929443359375,27.757980346679688,11.8885498046875
1634126546164401400,13.8944013671875,8.280364990234375,27.668867111206055,12.325618743896484
1634126546184280000,13.914280029296876,6.648284912109375,27.645748138427734,13.457908630371094
1634126546204159200,13.9341591796875,4.975555419921875,27.546432495117188,14.246543884277344
1634126546224037000,13.954037109375,3.2730712890625,27.250099182128906,15.066093444824219
1634126546243916300,13.973916259765625,1.9927978515625,27.305450439453125,15.571739196777344
1634126546263795500,13.99379541015625,0.30682373046875,27.29306411743164,15.932552337646484
1634126546283674400,14.01367431640625,-1.525421142578125,26.868867874145508,16.322628021240234
1634126546303553300,14.03355322265625,-2.42047119140625,26.478363037109375,16.39542007446289
1634126546323432200,14.05343212890625,-2.958251953125,26.480140686035156,16.473224639892578
1634126546343311400,14.073311279296876,-3.3216552734375,26.078813552856445,16.86855697631836
1634126546363190300,14.093190185546876,-3.425567626953125,26.036088943481445,16.878341674804688
1634126546383069200,14.113069091796875,-4.0660400390625,26.089406967163086,16.89397430419922
1634126546402948400,14.1329482421875,-4.440185546875,25.80123519897461,17.038829803466797
1634126546422827300,14.1528271484375,-4.29486083984375,25.941740036010742,17.17483901977539
1634126546442706400,14.17270654296875,-5.029754638671875,25.919540405273438,17.2479248046875
1634126546462585000,14.192585205078124,-4.735382080078125,25.687999725341797,17.454586029052734
1634126546482463200,14.212463134765626,-4.552001953125,25.473705291748047,17.680435180664062
1634126546502342100,14.232342041015626,-4.289794921875,25.43309783935547,17.564777374267578
1634126546522221300,14.25222119140625,-4.26202392578125,25.546674728393555,17.603164672851562
1634126546542100200,14.272100341796875,-4.467681884765625,25.496936798095703,18.014854431152344
1634126546561979400,14.2919794921875,-4.563140869140625,25.52204132080078,18.154266357421875
1634126546581858000,14.311858154296875,-4.7598876953125,25.417993545532227,17.95574188232422
1634126546601739800,14.33173974609375,-5.007537841796875,25.42869758605957,17.942333221435547
1634126546621619000,14.351618896484375,-5.447021484375,25.13136100769043,18.14049530029297
1634126546641497900,14.371497802734375,-6.22845458984375,24.854639053344727,18.220478057861328
1634126546661377000,14.391376953125,-6.934783935546875,24.611360549926758,18.375118255615234
1634126546681256000,14.411255859375,-7.740631103515625,24.190650939941406,18.864177703857422
1634126546701134800,14.431134765625,-8.035919189453125,24.010263442993164,18.987159729003906
1634126546721013800,14.451013671875,-8.4285888671875,23.92615509033203,19.11068344116211
1634126546740892000,14.470891845703125,-8.4476318359375,23.809326171875,18.952281951904297
1634126546760770800,14.490770751953125,-8.846588134765625,23.691762924194336,18.730010986328125
1634126546780650000,14.51064990234375,-7.981597900390625,24.009199142456055,18.680957794189453
1634126546800529000,14.53052880859375,-8.076019287109375,24.20920181274414,18.395721435546875
1634126546820407800,14.55040771484375,-7.143585205078125,24.257986068725586,18.408267974853516
1634126546840287000,14.570286865234374,-7.10894775390625,24.17952537536621,18.64339828491211
1634126546860166000,14.590165771484376,-6.296112060546875,24.101945877075195,18.748008728027344
1634126546880045000,14.610045166015626,-6.119140625,24.241260528564453,19.030689239501953
1634126546899923700,14.629923828125,-6.43804931640625,24.10164451599121,19.192073822021484
1634126546919803000,14.649802978515625,-6.879547119140625,24.05556297302246,19.289840698242188
1634126546939682000,14.66968212890625,-7.6697998046875,23.89112091064453,19.369548797607422
1634126546959561000,14.68956103515625,-9.23419189453125,23.269535064697266,19.212207794189453
1634126546979439900,14.70943994140625,-10.348541259765625,22.818317413330078,19.61148452758789
1634126546999318800,14.72931884765625,-11.77154541015625,22.035171508789062,19.550983428955078
1634126547019197000,14.749197021484376,-13.18170166015625,21.159135818481445,19.65243148803711
1634126547039075800,14.769075927734375,-14.347198486328125,20.26712417602539,19.625858306884766
1634126547058955000,14.788955078125,-15.391082763671875,19.40560531616211,20.16018295288086
1634126547078834000,14.808833984375,-16.027984619140625,18.403743743896484,20.539955139160156
1634126547098712800,14.828712890625,-16.660736083984375,17.832857131958008,20.452194213867188
1634126547118591700,14.848591796875,-17.18927001953125,17.131908416748047,20.53491973876953
1634126547138471000,14.868470947265624,-17.83453369140625,16.31111717224121,20.506771087646484
1634126547158350000,14.88835009765625,-18.351898193359375,15.645838737487793,20.821022033691406
1634126547178228700,14.908228759765626,-19.270172119140625,14.802103996276855,20.518417358398438
1634126547198108000,14.92810791015625,-20.350860595703125,13.62064266204834,20.143550872802734
1634126547217986800,14.94798681640625,-21.304046630859375,12.666879653930664,20.12281036376953
1634126547237866000,14.967865966796875,-21.886260986328125,11.74596118927002,20.01010513305664
1634126547257745000,14.987744873046875,-22.404388427734375,11.11849308013916,20.28569793701172
1634126547277623000,15.007623046875,-22.659759521484375,10.875333786010742,19.67081069946289
1634126547297501700,15.027501708984374,-22.962615966796875,10.190959930419922,19.751461029052734
1634126547317380900,15.047380859375,-23.4080810546875,9.895495414733887,19.73992156982422
1634126547337260000,15.067260009765626,-23.887908935546875,9.121658325195312,19.25540542602539
1634126547357139000,15.087138916015626,-24.307281494140625,8.58599853515625,19.291419982910156
1634126547377017900,15.107017822265625,-24.68463134765625,7.773857116699219,18.999759674072266
1634126547396896800,15.126896728515625,-25.500762939453125,7.505998611450195,18.79266357421875
1634126547416776000,15.14677587890625,-25.6552734375,6.699562072753906,18.125152587890625
1634126547436654800,15.16665478515625,-26.105072021484375,6.181514739990234,18.0849609375
1634126547456534000,15.186533935546874,-25.960906982421875,5.500040054321289,17.96725845336914
1634126547476413000,15.206412841796874,-26.4029541015625,4.930023193359375,17.896759033203125
1634126547496291800,15.226291748046876,-26.48577880859375,4.309268951416016,17.429004669189453
1634126547516171000,15.2461708984375,-26.9853515625,3.9953174591064453,17.412311553955078
1634126547536050000,15.2660498046875,-27.122802734375,3.5504016876220703,17.450183868408203
1634126547555928000,15.285927978515625,-26.9141845703125,3.1450881958007812,17.804725646972656
1634126547575807000,15.305806884765625,-27.439178466796875,2.9630489349365234,17.91376495361328
1634126547595686000,15.325685791015625,-27.189361572265625,2.1431236267089844,18.413490295410156
1634126547615561700,15.345561767578126,-26.533782958984375,1.89044189453125,18.545394897460938
1634126547635441000,15.36544091796875,-26.25421142578125,1.9397621154785156,18.859638214111328
1634126547655319800,15.38531982421875,-25.8665771484375,2.2007198333740234,20.175033569335938
1634126547675198700,15.40519873046875,-25.5101318359375,2.3507442474365234,20.652828216552734
1634126547695078000,15.425077880859375,-25.153656005859375,2.2959747314453125,21.111278533935547
1634126547714956800,15.444956787109374,-25.04150390625,2.3860950469970703,21.281757354736328
1634126547734836000,15.4648359375,-24.860107421875,2.127370834350586,21.558002471923828
1634126547754714600,15.484714599609376,-24.90802001953125,1.43621826171875,21.481971740722656
1634126547774593800,15.50459375,-25.288055419921875,0.7397861480712891,21.4041748046875
1634126547794472700,15.52447265625,-25.24591064453125,-0.30583763122558594,21.16736602783203
1634126547814350800,15.544350830078125,-25.647491455078125,-1.688791275024414,20.610034942626953
1634126547834229800,15.564229736328125,-25.944671630859375,-3.7931747436523438,19.97439193725586
1634126547854109000,15.58410888671875,-26.662841796875,-5.693819046020508,19.12704086303711
1634126547873987800,15.60398779296875,-26.854095458984375,-8.110006332397461,17.76559066772461
1634126547893866800,15.62386669921875,-27.2239990234375,-10.513017654418945,15.847488403320312
1634126547913746000,15.643745849609376,-26.962921142578125,-11.304140090942383,15.07303237915039
1634126547933624800,15.663624755859376,-27.315277099609375,-13.29511833190918,13.482025146484375
1634126547953503700,15.683503662109375,-27.5545654296875,-14.821222305297852,11.487632751464844
1634126547973382700,15.703382568359375,-27.170379638671875,-16.376707077026367,10.30618667602539
1634126547993261800,15.72326171875,-27.064971923828125,-17.302175521850586,9.140121459960938
1634126548013141000,15.74314111328125,-27.002960205078125,-17.806859970092773,8.3394775390625
1634126548033020000,15.76302001953125,-26.5665283203125,-18.329309463500977,8.33718490600586
1634126548052898800,15.78289892578125,-26.610076904296875,-18.79805564880371,8.750049591064453
1634126548072776700,15.802776611328126,-26.218597412109375,-18.80515480041504,8.827995300292969
1634126548092655900,15.82265576171875,-25.635986328125,-19.10917091369629,9.27260971069336
1634126548112534800,15.84253466796875,-25.727325439453125,-18.83721351623535,9.698184967041016
1634126548132414000,15.8624140625,-25.823944091796875,-18.76466178894043,10.109603881835938
1634126548152292600,15.882292724609375,-25.983856201171875,-18.514352798461914,10.31527328491211
1634126548172171800,15.902171875,-26.459197998046875,-17.9101505279541,10.632770538330078
1634126548192050700,15.92205078125,-25.950439453125,-17.49492835998535,10.897403717041016
1634126548211929900,15.941929931640624,-26.724334716796875,-16.73476219177246,10.968036651611328
1634126548231809000,15.96180908203125,-27.27276611328125,-15.964723587036133,11.254005432128906
1634126548251687700,15.981687744140626,-27.305816650390625,-15.297616958618164,11.784282684326172
1634126548271566800,16.00156689453125,-27.882965087890625,-15.009542465209961,12.445903778076172
1634126548291445800,16.02144580078125,-27.857879638671875,-14.22053337097168,12.29166030883789
1634126548311324000,16.041323974609377,-28.40008544921875,-13.601011276245117,12.559455871582031
1634126548331202800,16.061202880859376,-28.4244384765625,-13.101152420043945,13.172039031982422
1634126548351081700,16.081081787109376,-28.441619873046875,-12.582223892211914,13.763385772705078
1634126548370960600,16.100960693359376,-28.125213623046875,-12.148508071899414,14.691532135009766
1634126548390839800,16.12083984375,-28.07818603515625,-11.400629043579102,15.971595764160156
1634126548410719000,16.140718994140624,-27.6929931640625,-10.183782577514648,17.210330963134766
1634126548430598000,16.160597900390623,-27.39923095703125,-8.543153762817383,18.269805908203125
1634126548450476800,16.180476806640623,-27.31280517578125,-6.233942031860352,19.338607788085938
1634126548470355700,16.200355712890627,-27.165740966796875,-4.479373931884766,20.17129898071289
1634126548490235000,16.22023486328125,-27.373138427734375,-2.193204879760742,20.772117614746094
1634126548510113800,16.24011376953125,-27.082916259765625,-0.8162384033203125,20.811092376708984
1634126548529992700,16.25999267578125,-27.266876220703125,0.1315326690673828,20.610530853271484
1634126548549871900,16.279871826171874,-27.9237060546875,0.9275360107421875,20.259933471679688
1634126548569749800,16.299749755859374,-28.120452880859375,1.3212604522705078,19.94321060180664
1634126548589628700,16.319628662109373,-28.22698974609375,1.6282768249511719,19.528095245361328
1634126548609508600,16.339508544921873,-28.733062744140625,1.8601741790771484,19.139705657958984
1634126548629387500,16.359387451171877,-28.944580078125,2.295085906982422,18.915283203125
1634126548649266400,16.379266357421876,-28.90093994140625,2.6303348541259766,18.885650634765625
1634126548669145600,16.3991455078125,-28.683349609375,3.0733165740966797,19.05771255493164
1634126548689024500,16.4190244140625,-28.513824462890625,3.0900726318359375,19.27104949951172
1634126548708903400,16.4389033203125,-28.57464599609375,3.5831165313720703,19.66986846923828
1634126548728782300,16.4587822265625,-28.332550048828125,3.5137577056884766,19.819385528564453
1634126548748661500,16.47866162109375,-28.01885986328125,4.021989822387695,19.764610290527344
1634126548768540700,16.498540771484375,-27.756439208984375,4.544218063354492,19.8157958984375
1634126548788419600,16.518419677734375,-27.504547119140625,5.432804107666016,20.480133056640625
1634126548808298500,16.538298583984375,-26.87896728515625,6.861978530883789,20.78417205810547
1634126548828176400,16.55817626953125,-26.254486083984375,7.959695816040039,21.025814056396484
1634126548848055600,16.5780556640625,-25.4097900390625,8.956941604614258,21.164894104003906
1634126548867934500,16.5979345703125,-25.26171875,9.514888763427734,20.87546157836914
1634126548887813600,16.617813720703126,-25.3780517578125,10.33048152923584,20.883079528808594
1634126548907692500,16.637692626953125,-25.641693115234375,9.933919906616211,20.4490966796875
1634126548927571500,16.657571533203125,-26.693572998046875,9.358013153076172,19.93370819091797
1634126548947450400,16.677450439453125,-27.131378173828125,8.850465774536133,19.54486083984375
1634126548967329500,16.69732958984375,-28.096527099609375,7.767934799194336,19.162513732910156
1634126548987208700,16.717208740234376,-28.36419677734375,7.065834045410156,18.622573852539062
1634126549007087400,16.73708740234375,-28.857269287109375,6.4817657470703125,18.55844497680664
1634126549026966500,16.756966552734376,-28.9642333984375,6.140342712402344,18.180347442626953
1634126549046845400,16.776845458984376,-28.87310791015625,5.953948974609375,17.90605926513672
1634126549066723600,16.7967236328125,-29.29302978515625,5.918865203857422,17.888492584228516
1634126549086602500,16.8166025390625,-29.42254638671875,5.894086837768555,18.05133056640625
1634126549106481700,16.836481689453127,-29.43701171875,5.288225173950195,18.075618743896484
1634126549126360300,16.8563603515625,-29.331085205078125,4.658409118652344,18.144351959228516
1634126549146239500,16.876239501953126,-29.519805908203125,3.859895706176758,17.99664306640625
1634126549166118700,16.89611865234375,-29.4161376953125,2.7585487365722656,18.353439331054688
1634126549185997600,16.91599755859375,-29.38482666015625,1.8896732330322266,17.85358428955078
1634126549205876500,16.93587646484375,-29.9019775390625,1.3445777893066406,17.83077621459961
1634126549225755400,16.95575537109375,-30.38519287109375,0.1272563934326172,17.577247619628906
1634126549245634600,16.975634521484373,-30.522247314453125,-1.0878124237060547,17.421630859375
1634126549265513500,16.995513427734377,-30.4776611328125,-1.619985580444336,17.08509063720703
1634126549285392600,17.015392578125,-30.405120849609375,-2.6432571411132812,17.219120025634766
1634126549305270500,17.0352705078125,-30.454254150390625,-3.0559120178222656,17.264202117919922
1634126549325149400,17.0551494140625,-30.559234619140625,-3.723491668701172,16.977577209472656
1634126549345028400,17.0750283203125,-30.242156982421875,-3.948762893676758,17.142913818359375
1634126549364907500,17.094907470703124,-30.04937744140625,-4.019947052001953,17.075721740722656
1634126549384786700,17.11478662109375,-29.904937744140625,-4.123043060302734,17.240379333496094
1634126549404665300,17.134665283203127,-29.910400390625,-4.304162979125977,17.345664978027344
1634126549424544500,17.15454443359375,-29.816070556640625,-5.055612564086914,17.213092803955078
1634126549444423400,17.17442333984375,-29.84307861328125,-5.451789855957031,17.346481323242188
1634126549464302600,17.194302490234374,-30.02978515625,-6.005674362182617,16.94178009033203
1634126549484181500,17.214181396484374,-29.45623779296875,-6.819063186645508,16.59235382080078
1634126549504060400,17.234060302734374,-29.88909912109375,-7.027769088745117,16.355770111083984
1634126549523939600,17.253939697265626,-29.56793212890625,-7.22907829284668,16.462848663330078
1634126549543817500,17.2738173828125,-29.475830078125,-7.572866439819336,16.429546356201172
1634126549563696600,17.293696533203125,-29.80303955078125,-7.377763748168945,16.739238739013672
1634126549583575600,17.313575439453125,-29.4927978515625,-6.924280166625977,16.99280548095703
1634126549603453200,17.333453125,-29.64935302734375,-6.916059494018555,17.01117706298828
1634126549623332000,17.35333203125,-29.509246826171875,-6.362031936645508,17.03339385986328
1634126549643211000,17.3732109375,-29.575927734375,-6.387907028198242,17.255226135253906
1634126549663090200,17.393090087890624,-29.15814208984375,-6.479780197143555,17.347328186035156
1634126549682969000,17.412968994140623,-29.697235107421875,-6.356771469116211,17.04987335205078
1634126549702848300,17.43284814453125,-29.88543701171875,-6.292051315307617,16.771175384521484
1634126549722727200,17.45272705078125,-29.782501220703125,-6.579259872436523,16.895092010498047
1634126549742606000,17.472606201171875,-29.57647705078125,-6.630056381225586,16.61920928955078
1634126549762485000,17.492485107421874,-29.481964111328125,-6.339578628540039,16.542724609375
1634126549782363100,17.512363037109374,-29.238616943359375,-6.28941535949707,17.062400817871094
1634126549802242000,17.532241943359374,-29.4552001953125,-6.165311813354492,17.272552490234375
1634126549822121200,17.552121337890625,-29.487030029296875,-5.646841049194336,17.458663940429688
1634126549842000100,17.572000244140625,-29.152069091796875,-5.249114990234375,17.40115737915039
1634126549861879000,17.591879150390625,-29.572021484375,-4.772380828857422,17.407920837402344
1634126549881758200,17.61175830078125,-29.444915771484375,-4.494871139526367,17.553775787353516
1634126549901637000,17.63163720703125,-29.233001708984375,-4.1559906005859375,17.53691864013672
1634126549921516300,17.651516357421876,-29.5284423828125,-3.8789100646972656,17.43295669555664
1634126549941395000,17.67139501953125,-29.243682861328125,-3.985738754272461,17.418807983398438
1634126549961274000,17.691274169921876,-29.655914306640625,-3.973104476928711,17.08499526977539
1634126549981153300,17.7111533203125,-30.188751220703125,-3.9188365936279297,17.555908203125
1634126550001032200,17.7310322265625,-29.292144775390625,-3.436016082763672,17.673789978027344
1634126550020911000,17.7509111328125,-29.598602294921875,-3.172731399536133,17.928062438964844
1634126550040789200,17.770789306640626,-29.5999755859375,-3.3122425079345703,17.975616455078125
1634126550060668200,17.790668212890626,-29.50103759765625,-3.0832672119140625,17.829238891601562
1634126550080547000,17.810547119140626,-29.397705078125,-2.8953075408935547,17.915786743164062
1634126550100426200,17.83042626953125,-29.41790771484375,-2.884593963623047,18.045242309570312
1634126550120305200,17.85030517578125,-29.67059326171875,-2.9429454803466797,18.058246612548828
1634126550140184000,17.87018408203125,-29.524505615234375,-2.8903274536132812,17.85699462890625
1634126550160063000,17.89006298828125,-29.917694091796875,-2.570039749145508,17.673465728759766
1634126550179942100,17.909942138671877,-29.917572021484375,-2.510364532470703,17.460430145263672
1634126550199821300,17.9298212890625,-30.3201904296875,-2.396961212158203,17.058979034423828
1634126550219700200,17.9497001953125,-30.21343994140625,-2.403085708618164,16.955074310302734
1634126550239579100,17.9695791015625,-30.10870361328125,-1.7902240753173828,17.00128173828125
1634126550259458000,17.9894580078125,-30.0142822265625,-1.5641212463378906,17.030651092529297
1634126550279336200,18.009336181640624,-30.202545166015625,-1.0088653564453125,16.99472427368164
1634126550299215000,18.029215087890623,-29.997161865234375,-0.4436626434326172,17.354095458984375
1634126550319094300,18.04909423828125,-29.77740478515625,0.051624298095703125,17.976573944091797
1634126550338973000,18.068972900390627,-29.5750732421875,1.0963916778564453,18.26761245727539
1634126550358852000,18.08885205078125,-29.24200439453125,1.8608055114746094,18.50371551513672
1634126550378731300,18.108731201171874,-28.885284423828125,2.627614974975586,19.041423797607422
1634126550398610200,18.128610107421874,-28.813720703125,3.012723922729492,19.4459228515625
1634126550418489300,18.1484892578125,-28.486328125,3.555072784423828,19.460220336914062
1634126550438368000,18.168367919921874,-28.737945556640625,3.5873279571533203,19.368698120117188
1634126550458247200,18.1882470703125,-28.33404541015625,3.0555038452148438,19.146968841552734
1634126550478126000,18.2081259765625,-28.984588623046875,2.2787914276123047,18.824359893798828
1634126550498004200,18.228004150390625,-29.1812744140625,1.1112957000732422,18.240192413330078
1634126550517883100,18.247883056640624,-29.17218017578125,0.7018947601318359,18.315250396728516
1634126550537762000,18.267761962890624,-29.327484130859375,-0.11331939697265625,18.397850036621094
1634126550557641000,18.287640869140624,-29.667572021484375,-1.2604084014892578,18.086593627929688
1634126550577520000,18.30752001953125,-29.506256103515625,-1.8312816619873047,17.940353393554688
1634126550597399300,18.3273994140625,-29.6529541015625,-2.347400665283203,17.75278091430664
1634126550617278700,18.34727880859375,-29.519744873046875,-2.7674083709716797,17.41693878173828
1634126550637158000,18.367157958984375,-29.82763671875,-3.054128646850586,17.682392120361328
1634126550657036800,18.387036865234375,-29.853118896484375,-3.4049644470214844,17.702957153320312
1634126550676916000,18.406916015625,-30.0389404296875,-3.424224853515625,17.905017852783203
1634126550696794600,18.426794677734375,-29.722808837890625,-3.149057388305664,17.845104217529297
1634126550716673800,18.446673828125,-29.574188232421875,-2.8371963500976562,17.698772430419922
1634126550736551700,18.4665517578125,-29.465789794921875,-2.454986572265625,17.986724853515625
1634126550756430800,18.486430908203126,-29.5150146484375,-1.998666763305664,17.882144927978516
1634126550776309800,18.506309814453125,-29.477508544921875,-1.50421142578125,17.809349060058594
1634126550796189000,18.52618896484375,-29.873870849609375,-1.1617088317871094,18.162643432617188
1634126550816067600,18.546067626953125,-29.398773193359375,-0.7118358612060547,18.237346649169922
1634126550835946800,18.56594677734375,-29.2689208984375,-0.5138568878173828,18.619277954101562
1634126550855826000,18.585825927734376,-29.325592041015625,-0.013448715209960938,18.603729248046875
1634126550875704800,18.605704833984376,-29.177001953125,0.2937946319580078,18.66992950439453
1634126550895583700,18.625583740234376,-29.617401123046875,0.4703483581542969,18.769439697265625
1634126550915462700,18.645462646484376,-29.394683837890625,0.6944503784179688,18.500267028808594
1634126550935341800,18.665341796875,-29.253875732421875,0.7846088409423828,18.679153442382812
1634126550955220700,18.685220703125,-29.46954345703125,1.0426521301269531,18.268566131591797
1634126550975099000,18.705098876953127,-29.202178955078125,1.1799201965332031,18.019512176513672
1634126550994977800,18.724977783203126,-29.6302490234375,1.1391773223876953,17.98575210571289
1634126551014856700,18.744856689453126,-29.74078369140625,1.3841133117675781,17.89171600341797
1634126551034735900,18.76473583984375,-29.141845703125,1.7048110961914062,18.192676544189453
1634126551054614800,18.78461474609375,-29.219757080078125,1.7997627258300781,18.177364349365234
1634126551074494000,18.804493896484374,-28.9398193359375,1.8876514434814453,18.574665069580078
1634126551094372900,18.824372802734374,-28.619293212890625,1.7195281982421875,18.74423599243164
1634126551114251800,18.844251708984373,-28.856048583984375,1.8599052429199219,18.920970916748047
1634126551134130700,18.864130615234377,-28.617523193359375,1.7657012939453125,19.151409149169922
1634126551154009900,18.884009765625,-28.671844482421875,1.4900379180908203,19.43158721923828
1634126551173889000,18.903888916015624,-28.47979736328125,1.097137451171875,19.198646545410156
1634126551193767700,18.923767578125,-28.465423583984375,0.8463764190673828,19.147212982177734
1634126551213646800,18.943646728515624,-28.6298828125,0.22958946228027344,19.086864471435547
1634126551233524700,18.963524658203124,-28.68426513671875,-0.3632469177246094,19.14431381225586
1634126551253404000,18.98340380859375,-28.05828857421875,-0.7908515930175781,19.374267578125
1634126551273282800,19.00328271484375,-27.8970947265625,-0.6638221740722656,19.595863342285156
1634126551293162000,19.023161865234375,-28.15118408203125,-0.7642421722412109,19.952110290527344
1634126551313040600,19.04304052734375,-28.076171875,-1.1452198028564453,19.6214599609375
1634126551332919800,19.062919921875,-28.53704833984375,-1.2805233001708984,19.359878540039062
1634126551352798700,19.082798828125,-28.626373291015625,-1.4884757995605469,19.17462158203125
1634126551372678000,19.102677978515626,-29.1650390625,-1.8049373626708984,18.557662963867188
1634126551392556800,19.122556884765626,-28.80096435546875,-1.9189586639404297,17.898239135742188
1634126551412435700,19.142435791015625,-29.726959228515625,-1.5503387451171875,17.859779357910156
1634126551432315000,19.16231494140625,-29.827392578125,-1.2985820770263672,17.851383209228516
1634126551452192800,19.18219287109375,-29.352508544921875,-0.3376598358154297,18.306774139404297
1634126551472072000,19.202072021484376,-29.36907958984375,0.7755165100097656,18.66836166381836
1634126551491950800,19.221950927734376,-28.35040283203125,1.6363677978515625,19.292526245117188
1634126551511829800,19.241829833984376,-28.05096435546875,2.6194210052490234,20.216922760009766
1634126551531708700,19.261708740234376,-28.002777099609375,3.5283737182617188,20.765399932861328
1634126551551587800,19.281587890625,-27.379302978515625,4.269678115844727,21.18439483642578
1634126551571467000,19.301467041015623,-26.85791015625,4.524106979370117,21.296123504638672
1634126551591345700,19.321345703125,-27.145111083984375,4.293691635131836,21.487098693847656
1634126551611224600,19.341224609375,-26.84326171875,4.362081527709961,21.3709716796875
1634126551631103700,19.361103759765626,-27.738922119140625,4.182407379150391,21.083786010742188
1634126551650982700,19.380982666015626,-27.6094970703125,4.12260627746582,20.807220458984375
1634126551670861800,19.40086181640625,-27.841705322265625,3.7956886291503906,20.06881332397461
1634126551690740500,19.420740478515626,-28.28350830078125,3.442188262939453,19.392555236816406
1634126551710618600,19.44061865234375,-29.069854736328125,3.0911865234375,18.81125259399414
1634126551730497500,19.46049755859375,-29.6090087890625,2.7196884155273438,18.063228607177734
1634126551750376700,19.480376708984377,-29.651336669921875,2.4146347045898438,17.51116180419922
1634126551770255600,19.500255615234376,-29.947113037109375,2.1273326873779297,17.157062530517578
1634126551790134800,19.520134765625,-29.912933349609375,1.8175506591796875,17.011398315429688
1634126551810013700,19.540013671875,-29.808990478515625,1.639078140258789,17.006099700927734
1634126551829892600,19.559892578125,-29.86639404296875,1.3742733001708984,17.171100616455078
1634126551849771800,19.579771728515624,-29.35235595703125,1.3433418273925781,17.294082641601562
1634126551869650700,19.599650634765624,-29.423004150390625,1.4208641052246094,18.05166244506836
1634126551889529600,19.619529541015623,-29.417694091796875,1.6279411315917969,18.501419067382812
1634126551909408500,19.639408447265627,-28.330657958984375,2.4420433044433594,19.621139526367188
1634126551929287700,19.65928759765625,-27.28271484375,3.410371780395508,20.583282470703125
1634126551949165600,19.67916552734375,-26.492279052734375,4.964597702026367,21.40804672241211
1634126551969044700,19.699044677734374,-26.097747802734375,6.143993377685547,21.838851928710938
1634126551988924000,19.718923828125,-25.53070068359375,7.36338996887207,21.960411071777344
1634126552008802600,19.738802490234374,-25.47491455078125,8.14596176147461,22.057842254638672
1634126552028681700,19.758681640625,-25.49163818359375,8.233867645263672,21.88684844970703
1634126552048560600,19.778560546875,-25.63629150390625,8.008735656738281,21.406898498535156
1634126552068439800,19.798439697265625,-26.76483154296875,7.44734001159668,21.206592559814453
1634126552088318500,19.818318359375,-27.091522216796875,6.471792221069336,20.704044342041016
1634126552108197600,19.83819775390625,-27.03851318359375,5.749650955200195,20.486392974853516
1634126552128076800,19.858076904296876,-27.599273681640625,5.209753036499023,20.30371856689453
1634126552147955700,19.877955810546876,-27.6336669921875,4.771755218505859,20.648303985595703
1634126552167833600,19.89783349609375,-27.310302734375,4.620454788208008,20.58953857421875
1634126552187712800,19.917712646484375,-27.47857666015625,4.774974822998047,20.93975830078125
1634126552207591700,19.937591796875,-27.490875244140625,4.856935501098633,21.250484466552734
1634126552227470600,19.957470703125,-27.319610595703125,4.859884262084961,21.281185150146484
1634126552247349800,19.977349853515626,-27.49261474609375,4.607856750488281,21.172809600830078
1634126552267228700,19.997228759765626,-27.3189697265625,4.4130401611328125,20.96192169189453
1634126552287107600,20.017107666015626,-27.641448974609375,4.144397735595703,20.629169464111328
1634126552306986500,20.036986572265626,-27.98724365234375,3.5856285095214844,20.407711029052734
1634126552326865700,20.05686572265625,-27.88983154296875,3.1656837463378906,20.272747039794922
1634126552346744800,20.076744873046874,-28.4061279296875,2.8643245697021484,19.89068603515625
1634126552366623700,20.096623779296873,-28.411590576171875,2.387002944946289,19.72970962524414
1634126552386502700,20.116502685546877,-28.12158203125,2.3594017028808594,19.772518157958984
1634126552406380500,20.136380615234376,-28.368743896484375,2.5885887145996094,20.31146240234375
1634126552426259700,20.156259765625,-28.1190185546875,2.8282642364501953,20.529464721679688
1634126552446138600,20.176138671875,-28.18988037109375,3.1564693450927734,20.726905822753906
1634126552466017800,20.196017822265624,-27.610137939453125,3.2552032470703125,20.976810455322266
1634126552485896700,20.215896728515624,-27.6348876953125,3.530599594116211,21.16180419921875
1634126552505775600,20.235775634765623,-27.2996826171875,3.589649200439453,21.181896209716797
1634126552525654800,20.25565478515625,-27.4769287109375,3.484983444213867,21.127517700195312
1634126552545533700,20.27553369140625,-27.646240234375,3.2387351989746094,21.050113677978516
1634126552565412900,20.295412841796875,-27.3812255859375,3.12652587890625,21.1922607421875
1634126552585291500,20.31529150390625,-27.65045166015625,2.9084548950195312,20.93140411376953
1634126552605170700,20.335170654296874,-27.431732177734375,2.7660274505615234,20.826473236083984
1634126552625050400,20.35505029296875,-27.61322021484375,2.7283401489257812,20.751224517822266
1634126552644928300,20.37492822265625,-27.791961669921875,2.8478260040283203,20.466266632080078
1634126552664807400,20.394807373046874,-27.804901123046875,2.7145252227783203,20.672042846679688
1634126552684686000,20.41468603515625,-27.97119140625,2.4785499572753906,20.650588989257812
1634126552704565200,20.434565185546877,-27.916778564453125,2.301624298095703,20.662342071533203
1634126552724444200,20.454444091796876,-27.544677734375,2.433847427368164,20.968006134033203
1634126552744323300,20.4743232421875,-27.6651611328125,2.418252944946289,21.087989807128906
1634126552764202200,20.4942021484375,-27.59637451171875,2.6274051666259766,21.06665802001953
1634126552784081200,20.5140810546875,-27.8447265625,2.822711944580078,21.132797241210938
1634126552803960300,20.533960205078124,-27.795654296875,2.654603958129883,21.106689453125
1634126552823839200,20.553839111328124,-27.388336181640625,2.76513671875,21.01015853881836
1634126552843718400,20.573718505859375,-27.866851806640625,2.7892494201660156,20.96019744873047
1634126552863597000,20.59359716796875,-27.722198486328125,2.813211441040039,21.089351654052734
1634126552883475200,20.61347509765625,-27.282318115234375,2.991668701171875,21.074668884277344
1634126552903354000,20.63335400390625,-27.357666015625,2.885072708129883,21.142406463623047
1634126552923233300,20.6532333984375,-26.970062255859375,3.092386245727539,21.355510711669922
1634126552943112400,20.673112548828126,-26.90582275390625,3.332813262939453,21.61931610107422
1634126552962991400,20.692991455078126,-27.441558837890625,3.5953235626220703,21.72772979736328
1634126552982870300,20.712870361328125,-26.5870361328125,3.8577938079833984,21.875995635986328
1634126553002749200,20.732749267578125,-27.27032470703125,3.9198474884033203,21.543010711669922
1634126553022628400,20.75262841796875,-26.959869384765625,3.6463966369628906,21.310871124267578
1634126553042507300,20.77250732421875,-27.39404296875,3.612802505493164,21.29144287109375
1634126553062386200,20.79238623046875,-27.791473388671875,3.4432220458984375,20.99306869506836
1634126553082265300,20.812265380859376,-27.656524658203125,3.3774261474609375,20.884193420410156
1634126553102143200,20.832143310546876,-27.426849365234375,3.1424713134765625,20.89177703857422
1634126553122022100,20.852022216796875,-27.88739013671875,3.157024383544922,20.96759796142578
1634126553141901300,20.8719013671875,-27.505340576171875,3.3201351165771484,20.967193603515625
1634126553161780500,20.891780517578123,-27.546051025390625,3.6836071014404297,21.046634674072266
1634126553181659100,20.9116591796875,-27.156097412109375,3.7727394104003906,21.204784393310547
1634126553201538300,20.931538330078126,-26.992279052734375,3.977550506591797,21.120235443115234
1634126553221417200,20.951417236328126,-27.158172607421875,4.134304046630859,21.423171997070312
1634126553241296400,20.97129638671875,-27.2906494140625,4.3676300048828125,21.322235107421875
1634126553261175000,20.991175048828126,-27.284423828125,4.62614631652832,21.443988800048828
1634126553281054200,21.01105419921875,-26.98846435546875,4.423696517944336,21.32162857055664
1634126553300933400,21.030933349609374,-27.11688232421875,4.546804428100586,21.464088439941406
1634126553320812300,21.050812255859373,-27.230010986328125,4.939891815185547,21.296585083007812
1634126553340690400,21.0706904296875,-27.30987548828125,4.741962432861328,21.136165618896484
1634126553360569300,21.0905693359375,-27.468994140625,4.717607498168945,21.236923217773438
1634126553380448300,21.1104482421875,-27.350250244140625,4.923595428466797,21.19791030883789
1634126553400327200,21.1303271484375,-27.095550537109375,4.796669006347656,21.09587860107422
1634126553420206300,21.150206298828124,-27.260528564453125,4.839193344116211,20.955360412597656
1634126553440085200,21.170085205078124,-27.450042724609375,5.08497428894043,21.046119689941406
1634126553459964200,21.189964111328123,-27.45538330078125,5.154569625854492,21.016738891601562
1634126553479843300,21.20984326171875,-27.3695068359375,4.8173370361328125,20.771236419677734
1634126553499722200,21.22972216796875,-27.3717041015625,4.956392288208008,20.781085968017578
1634126553519601400,21.249601318359375,-26.8890380859375,4.969278335571289,20.99448013305664
1634126553539480300,21.269480224609374,-27.546142578125,4.931083679199219,20.537769317626953
1634126553559358500,21.2893583984375,-27.434417724609375,5.130319595336914,20.753032684326172
1634126553579237000,21.309237060546874,-27.3187255859375,5.4233551025390625,20.954891204833984
1634126553599116300,21.3291162109375,-27.44207763671875,5.488698959350586,20.684322357177734
1634126553618995200,21.3489951171875,-27.215087890625,5.791696548461914,20.74844741821289
1634126553638874000,21.3688740234375,-27.489501953125,5.4944915771484375,20.89807891845703
1634126553658753300,21.388753173828125,-27.202056884765625,5.776844024658203,21.005901336669922
1634126553678632200,21.408632080078124,-27.3101806640625,5.850675582885742,20.795310974121094
1634126553698511000,21.428510986328124,-27.64898681640625,6.0786895751953125,20.759490966796875
1634126553718390300,21.448390380859376,-26.931976318359375,5.954008102416992,20.738548278808594
1634126553738269200,21.468269287109376,-27.0792236328125,6.061031341552734,20.82180404663086
1634126553758148000,21.488148193359375,-27.098175048828125,5.895776748657227,20.87969970703125
1634126553778027000,21.508027099609375,-27.134979248046875,5.857658386230469,21.063568115234375
1634126553797905200,21.5279052734375,-27.492950439453125,5.711420059204102,20.567543029785156
1634126553817784000,21.5477841796875,-27.472900390625,6.002124786376953,20.780742645263672
1634126553837663200,21.567663330078126,-27.356658935546875,5.905763626098633,20.815876007080078
1634126553857542100,21.587542236328126,-27.4324951171875,6.145511627197266,20.755355834960938
1634126553877421000,21.607421142578126,-27.470062255859375,6.14008903503418,20.72237777709961
1634126553897300200,21.62730029296875,-27.48162841796875,6.205865859985352,20.84290313720703
1634126553917179100,21.64717919921875,-27.31573486328125,6.181665420532227,20.668582916259766
1634126553937058300,21.667058349609373,-27.726959228515625,6.22551155090332,20.85934066772461
1634126553956937000,21.68693701171875,-27.36724853515625,6.196552276611328,20.875469207763672
1634126553976816000,21.706816162109376,-27.143341064453125,6.067045211791992,20.77444839477539
1634126553996695000,21.726695068359376,-27.34576416015625,5.857046127319336,20.959304809570312
1634126554016574200,21.74657421875,-27.351348876953125,6.057415008544922,20.843219757080078
1634126554036452000,21.7664521484375,-27.160552978515625,6.120555877685547,20.68169403076172
1634126554056331300,21.786331298828124,-27.380950927734375,6.162601470947266,20.67436981201172
1634126554076210200,21.806210205078123,-27.488861083984375,5.99150276184082,20.680740356445312
1634126554096089000,21.826089111328123,-27.65338134765625,6.075260162353516,20.567081451416016
1634126554115968300,21.84596826171875,-27.73760986328125,5.923616409301758,20.807456970214844
1634126554135847200,21.86584716796875,-27.318511962890625,5.732963562011719,20.847835540771484
1634126554155726000,21.88572607421875,-26.7618408203125,5.668333053588867,20.650543212890625
1634126554175605000,21.90560498046875,-27.55712890625,5.5743865966796875,20.814987182617188
1634126554195484200,21.925484130859374,-27.642547607421875,5.821680068969727,20.755962371826172
1634126554215363000,21.945363037109374,-27.73150634765625,5.495018005371094,20.729717254638672
1634126554235241200,21.9652412109375,-27.676849365234375,5.666088104248047,20.529972076416016
1634126554255120100,21.9851201171875,-27.95428466796875,5.696144104003906,20.50815200805664
1634126554274999000,22.0049990234375,-27.993011474609375,5.676158905029297,20.743480682373047
1634126554294878200,22.024878173828125,-27.064117431640625,5.444252014160156,20.856098175048828
1634126554314757000,22.044757080078124,-27.207000732421875,5.712779998779297,20.547672271728516
1634126554334636300,22.06463623046875,-27.438934326171875,5.412961959838867,20.358768463134766
1634126554354515200,22.08451513671875,-27.15972900390625,5.419485092163086,20.6396484375
1634126554374394000,22.10439404296875,-27.461639404296875,5.203283309936523,20.664283752441406
1634126554394273000,22.12427294921875,-27.10009765625,5.540704727172852,20.63785171508789
1634126554414152200,22.144152099609375,-27.30621337890625,5.393836975097656,20.446826934814453
1634126554434031400,22.16403125,-27.654205322265625,5.736671447753906,20.538738250732422
1634126554453910000,22.183909912109375,-27.922454833984375,5.684144973754883,20.458282470703125
1634126554473788200,22.2037880859375,-27.826812744140625,5.690723419189453,20.76309585571289
1634126554493667000,22.2236669921875,-27.5211181640625,5.719377517700195,20.33197021484375
1634126554513546200,22.243546142578126,-27.440948486328125,5.677013397216797,20.576393127441406
1634126554533425200,22.263425048828125,-27.460906982421875,5.531620025634766,20.543113708496094
1634126554553304300,22.28330419921875,-27.699615478515625,5.437807083129883,20.581314086914062
1634126554573183000,22.303182861328125,-27.412841796875,5.6577911376953125,20.52939224243164
1634126554593062100,22.323062255859377,-27.548248291015625,5.504539489746094,20.658893585205078
1634126554612940800,22.34294091796875,-27.971343994140625,5.8354034423828125,20.558670043945312
1634126554632819700,22.36281982421875,-28.1241455078125,5.879175186157227,20.739505767822266
1634126554652699000,22.382698974609376,-28.017547607421875,5.860799789428711,20.774250030517578
1634126554672577800,22.402577880859376,-27.778350830078125,5.93284797668457,20.579425811767578
1634126554692455700,22.42245556640625,-27.659912109375,5.807567596435547,20.451873779296875
1634126554712334800,22.4423349609375,-27.54681396484375,5.943418502807617,20.460018157958984
1634126554732213800,22.4622138671875,-27.85284423828125,6.063459396362305,20.73520278930664
1634126554752093000,22.482093017578126,-27.620086669921875,5.800376892089844,20.67156219482422
1634126554771971600,22.5019716796875,-27.49005126953125,5.786006927490234,20.43741226196289
1634126554791850800,22.521850830078126,-27.729644775390625,5.7822113037109375,20.413883209228516
1634126554811729700,22.541729736328126,-27.74176025390625,6.046787261962891,20.506732940673828
1634126554831608800,22.56160888671875,-27.74835205078125,6.168415069580078,20.654590606689453
1634126554851488000,22.581488037109374,-28.09405517578125,6.273183822631836,20.665882110595703
1634126554871366700,22.60136669921875,-27.749237060546875,6.25459098815918,20.80584716796875
1634126554891245800,22.621245849609377,-27.573211669921875,6.556415557861328,20.699657440185547
1634126554911123700,22.641123779296876,-27.3851318359375,6.508144378662109,20.795604705810547
1634126554931003000,22.6610029296875,-27.312713623046875,6.139789581298828,20.730308532714844
1634126554950881800,22.6808818359375,-27.4356689453125,6.258916854858398,20.7769775390625
1634126554970760700,22.7007607421875,-27.47564697265625,6.192827224731445,20.72881317138672
1634126554990639600,22.7206396484375,-27.42034912109375,6.233573913574219,20.931480407714844
1634126555010518800,22.740518798828123,-27.40240478515625,6.159353256225586,20.741363525390625
1634126555030397700,22.760397705078127,-27.2877197265625,6.213329315185547,20.830162048339844
1634126555050276900,22.78027685546875,-27.1964111328125,6.204477310180664,20.76346206665039
1634126555070155800,22.80015576171875,-26.888702392578125,6.386707305908203,20.839710235595703
1634126555090034700,22.82003466796875,-26.8076171875,6.328619003295898,20.60112762451172
1634126555109913900,22.839913818359374,-26.6654052734375,6.472564697265625,20.76394271850586
1634126555129792800,22.859792724609374,-26.845458984375,6.755716323852539,20.783580780029297
1634126555149671000,22.8796708984375,-26.800262451171875,6.608240127563477,20.780269622802734
1634126555169549800,22.8995498046875,-27.194549560546875,6.468759536743164,20.740089416503906
1634126555189428700,22.9194287109375,-27.12078857421875,6.529905319213867,20.90778350830078
1634126555209307600,22.9393076171875,-27.424102783203125,6.497419357299805,20.969345092773438
1634126555229186800,22.959186767578124,-26.983978271484375,6.36297607421875,20.66777801513672
1634126555249066000,22.97906591796875,-26.9166259765625,6.589469909667969,21.011688232421875
1634126555268944600,22.998944580078124,-27.0228271484375,6.474956512451172,20.886066436767578
1634126555288823800,23.01882373046875,-27.329833984375,6.499765396118164,20.845417022705078
1634126555308702700,23.03870263671875,-27.00347900390625,6.322065353393555,20.774761199951172
1634126555328582000,23.058581787109375,-27.364776611328125,6.482736587524414,20.569812774658203
1634126555348460800,23.078460693359375,-27.208099365234375,6.718862533569336,20.622802734375
1634126555368339000,23.0983388671875,-27.253204345703125,6.629022598266602,20.775150299072266
1634126555388217600,23.118217529296874,-27.591522216796875,6.764684677124023,20.822917938232422
1634126555408096800,23.1380966796875,-27.217315673828125,6.841432571411133,20.729206085205078
1634126555427975700,23.1579755859375,-27.79168701171875,6.791738510131836,20.825111389160156
1634126555447854800,23.177854736328126,-27.421661376953125,6.954599380493164,20.873199462890625
1634126555467733800,23.197733642578125,-27.0955810546875,6.738801956176758,20.800640106201172
1634126555487612700,23.21761279296875,-26.93408203125,6.903778076171875,21.118789672851562
1634126555507491800,23.237491943359377,-27.13372802734375,6.953319549560547,20.82712173461914
1634126555527370800,23.257370849609377,-27.062347412109375,6.891910552978516,20.88727569580078
1634126555547250000,23.27725,-27.231048583984375,6.848268508911133,20.924930572509766
1634126555567128600,23.297128662109376,-26.881561279296875,6.846590042114258,21.136489868164062
1634126555587006700,23.3170068359375,-26.9217529296875,6.772584915161133,21.209964752197266
1634126555606885600,23.3368857421875,-27.382232666015625,6.976371765136719,21.08013153076172
1634126555626764500,23.3567646484375,-27.362762451171875,6.58735466003418,21.078266143798828
1634126555646643500,23.3766435546875,-27.287078857421875,6.881471633911133,21.207393646240234
1634126555666522600,23.396522705078127,-27.56689453125,6.96971321105957,21.13381576538086
1634126555686401300,23.4164013671875,-27.590576171875,7.095617294311523,20.934181213378906
1634126555706280400,23.436280517578126,-27.479248046875,6.904539108276367,21.10272979736328
1634126555726159400,23.456159423828126,-27.27227783203125,6.875057220458984,21.238662719726562
1634126555746038500,23.47603857421875,-27.605194091796875,6.700336456298828,21.107440948486328
1634126555765917400,23.49591748046875,-27.734405517578125,6.743570327758789,20.846511840820312
1634126555785795300,23.51579541015625,-27.129302978515625,6.627931594848633,21.341156005859375
1634126555805674500,23.535674560546877,-27.499176025390625,6.640508651733398,20.989444732666016
1634126555825553400,23.555553466796876,-27.623748779296875,6.325969696044922,21.224567413330078
1634126555845432600,23.5754326171875,-27.891448974609375,6.365442276000977,20.776363372802734
1634126555865311500,23.5953115234375,-27.830657958984375,6.127704620361328,20.625057220458984
1634126555885190400,23.6151904296875,-27.8128662109375,6.194841384887695,20.65117645263672
1634126555905069300,23.6350693359375,-27.494903564453125,6.044389724731445,20.552257537841797
1634126555924948500,23.654948486328124,-27.413482666015625,5.914693832397461,20.633567810058594
1634126555944827400,23.674827392578123,-27.988983154296875,5.941888809204102,20.66345977783203
1634126555964706300,23.694706298828127,-28.13525390625,5.801977157592773,20.816158294677734
1634126555984584400,23.71458447265625,-28.1761474609375,5.795051574707031,20.977798461914062
1634126556004463400,23.73446337890625,-28.06964111328125,5.83905029296875,20.698917388916016
1634126556024342500,23.754342529296874,-27.98052978515625,5.990032196044922,20.78973388671875
1634126556044221400,23.774221435546874,-27.83935546875,6.010890960693359,20.604267120361328
1634126556064100600,23.7941005859375,-27.471343994140625,5.825664520263672,20.82275390625
1634126556083979300,23.813979248046873,-27.853485107421875,5.981698989868164,20.938941955566406
1634126556103858400,23.8338583984375,-27.5225830078125,6.032987594604492,20.911033630371094
1634126556123737300,23.8537373046875,-27.708251953125,5.754831314086914,20.83551788330078
1634126556143616500,23.873616455078125,-27.52655029296875,5.941234588623047,20.867427825927734
1634126556163495400,23.893495361328124,-27.60205078125,5.585710525512695,20.71115493774414
1634126556183374300,23.913374267578124,-27.304473876953125,5.53462028503418,20.7864990234375
1634126556203252200,23.933252197265624,-27.614349365234375,5.719263076782227,20.617046356201172
1634126556223131400,23.95313134765625,-27.427459716796875,5.683197021484375,20.744029998779297
1634126556243010600,23.973010498046875,-27.27984619140625,5.587657928466797,20.717937469482422
1634126556262889500,23.992889404296875,-27.537017822265625,5.786176681518555,20.41402816772461
1634126556282768400,24.012768310546875,-27.906402587890625,5.859218597412109,20.652359008789062
1634126556302647300,24.032647216796875,-27.41015625,5.711183547973633,20.84061050415039
1634126556322526500,24.0525263671875,-27.579742431640625,6.157251358032227,20.871932983398438
1634126556342405400,24.0724052734375,-27.48370361328125,6.195608139038086,21.069820404052734
1634126556362284500,24.092284423828126,-27.265777587890625,6.13087272644043,20.86336898803711
1634126556382163500,24.11216357421875,-27.121978759765625,6.093542098999023,20.786739349365234
1634126556402041300,24.132041259765625,-27.1990966796875,6.317895889282227,20.977279663085938
1634126556421920500,24.15192041015625,-27.092926025390625,6.47279167175293,20.94589614868164
1634126556441799400,24.17179931640625,-27.263397216796875,6.571338653564453,20.99041748046875
1634126556461678600,24.1916787109375,-27.272430419921875,6.418603897094727,21.169166564941406
1634126556481557200,24.21155712890625,-27.222412109375,6.691928863525391,21.106761932373047
1634126556501436400,24.2314365234375,-27.220001220703125,6.683177947998047,21.22506332397461
1634126556521315300,24.2513154296875,-26.770721435546875,6.553092956542969,21.09551239013672
1634126556541194500,24.271194580078124,-27.2398681640625,6.917428970336914,21.029434204101562
1634126556561073700,24.29107373046875,-27.19012451171875,6.911235809326172,21.24964141845703
1634126556580952300,24.310952392578123,-27.450714111328125,7.040201187133789,21.034400939941406
1634126556600830200,24.330830322265626,-27.579071044921875,7.114545822143555,21.316917419433594
1634126556620710000,24.3507099609375,-27.2938232421875,6.668848037719727,21.220001220703125
1634126556640588800,24.3705888671875,-27.347625732421875,6.97087287902832,21.067928314208984
1634126556660468000,24.390468017578126,-27.060516357421875,7.085348129272461,21.361473083496094
1634126556680346600,24.4103466796875,-27.033843994140625,6.912944793701172,21.389080047607422
1634126556700225800,24.430225830078125,-27.133148193359375,6.737871170043945,21.495609283447266
1634126556720104700,24.450104736328125,-27.18255615234375,6.803892135620117,21.185855865478516
1634126556739984000,24.46998388671875,-27.165283203125,6.918169021606445,21.417030334472656
1634126556759862800,24.48986279296875,-26.71868896484375,6.776594161987305,21.19681167602539
1634126556779741700,24.50974169921875,-27.2386474609375,6.684413909912109,21.168651580810547
1634126556799619800,24.529619873046876,-26.957305908203125,6.517951965332031,21.421730041503906
1634126556819498800,24.549498779296876,-26.695220947265625,6.51579475402832,21.163433074951172
1634126556839378000,24.5693779296875,-27.0040283203125,6.640598297119141,21.147804260253906
1634126556859256800,24.5892568359375,-26.600006103515625,6.422395706176758,21.489883422851562
1634126556879135700,24.6091357421875,-27.467742919921875,6.482965469360352,21.397720336914062
1634126556899014700,24.6290146484375,-27.039276123046875,6.561679840087891,21.326736450195312
1634126556918893800,24.648893798828126,-27.080169677734375,6.334817886352539,21.27780532836914
1634126556938773000,24.66877294921875,-27.646240234375,6.262725830078125,21.19652557373047
1634126556958652000,24.68865185546875,-27.418212890625,6.086589813232422,21.419395446777344
1634126556978530800,24.70853076171875,-27.44146728515625,6.001308441162109,21.537452697753906
1634126556998408700,24.72840869140625,-27.56689453125,6.237270355224609,21.38681411743164
1634126557018287900,24.748287841796873,-27.593963623046875,6.101781845092773,21.219688415527344
1634126557038166800,24.768166748046873,-27.399078369140625,5.955898284912109,21.1890869140625
1634126557058046000,24.7880458984375,-27.199920654296875,5.898931503295898,21.336891174316406
1634126557077924600,24.807924560546876,-27.208465576171875,5.839149475097656,21.359638214111328
1634126557097803800,24.8278037109375,-26.656219482421875,5.705587387084961,21.37149429321289
1634126557117682700,24.8476826171875,-26.924560546875,5.519321441650391,21.422393798828125
1634126557137561900,24.867561767578124,-27.294525146484375,5.830928802490234,21.021610260009766
1634126557157441000,24.88744091796875,-27.0621337890625,5.722026824951172,21.23419189453125
1634126557177319000,24.90731884765625,-27.917449951171875,5.742650985717773,21.144325256347656
1634126557197197800,24.92719775390625,-27.407958984375,5.4263916015625,21.17906951904297
1634126557217076700,24.94707666015625,-27.291900634765625,5.5731048583984375,21.21630096435547
1634126557236956000,24.966955810546875,-27.473663330078125,5.671003341674805,20.939373016357422
1634126557256834800,24.986834716796874,-27.031829833984375,5.498193740844727,21.128650665283203
1634126557276713700,25.006713623046874,-27.352752685546875,5.443553924560547,21.328800201416016
1634126557296592600,25.026592529296874,-27.357177734375,5.592517852783203,21.17406463623047
1634126557316471800,25.046471923828125,-27.59173583984375,5.484048843383789,21.133846282958984
1634126557336351000,25.06635107421875,-27.397491455078125,5.69422721862793,20.86426544189453
1634126557356228900,25.086228759765625,-27.095367431640625,5.615936279296875,21.235401153564453
1634126557376107800,25.106107666015625,-27.223358154296875,5.443450927734375,21.179954528808594
1634126557395986700,25.125986572265624,-27.39697265625,5.651681900024414,21.101238250732422
1634126557415865900,25.145865966796876,-27.58050537109375,5.916276931762695,21.123985290527344
1634126557435744800,25.165744873046876,-27.719512939453125,5.707311630249023,20.861236572265625
1634126557455624000,25.1856240234375,-27.6607666015625,5.852581024169922,20.85544204711914
1634126557475502800,25.2055029296875,-27.32135009765625,5.879528045654297,20.796348571777344
1634126557495381800,25.2253818359375,-27.354461669921875,6.00993537902832,20.802745819091797
1634126557515260700,25.2452607421875,-27.22015380859375,6.048883438110352,20.897144317626953
1634126557535138800,25.265138916015626,-27.658721923828125,6.067432403564453,20.862579345703125
1634126557555017700,25.285017822265626,-27.49505615234375,5.876258850097656,21.00631332397461
1634126557574897000,25.30489697265625,-27.005218505859375,6.0184326171875,21.037181854248047
1634126557594775800,25.32477587890625,-27.130462646484375,6.011449813842773,20.967872619628906
1634126557614654700,25.34465478515625,-27.383941650390625,6.008344650268555,21.123519897460938
1634126557634533600,25.36453369140625,-27.12744140625,6.051872253417969,20.817588806152344
1634126557654412800,25.384412841796873,-27.602996826171875,5.898830413818359,21.046039581298828
