Acc_timestamp,Accx,Accy,Accz,Gyro_timestamp,Gyrox,Gyroy,Gyroz,Baro_timestamp,Pressure_Reading
 35187392.000000, -0.751346 , 3.917051, 8.918050, 0.000000, 0.000000,  0.000000,  0.000000, 0.000000,  0.000000
 19904.000000, -0.507278 , 3.390630, 9.018548, 677128704.000000, -12.320000,  0.280000,  -11.690000, 0.000000,  0.000000
 39936.000000, -0.358923 , 3.543770, 8.939585, 677148672.000000, -12.320000,  0.280000,  -11.690000, 0.000000,  0.000000 
 59904.000000, -0.435494 , 3.639483, 8.774480, 677168640.000000, -4.200000,  6.510000,  3.850000, 0.000000,  0.000000 
 80192.000000, -0.488136 , 3.388237, 8.992228, 677188608.000000, -3.010000,  -0.770000,  -2.170000, 0.000000,  0.000000 
 99904.000000, -0.478565 , 3.500700, 9.064013, 677208960.000000, -5.530000,  -0.840000,  -3.850000, 0.000000,  0.000000 
 119872.000000, -0.394816 , 3.555735, 8.898908, 677228608.000000, -1.680000,  -0.420000,  -4.270000, 0.000000,  0.000000 
 139840.000000, -0.468993 , 3.455236, 8.994620, 677248576.000000, 0.210000,  0.350000,  -3.570000, 0.000000,  0.000000 
 159872.000000, -0.488136 , 3.457629, 9.042477, 677268608.000000, -3.220000,  1.050000,  -3.500000, 0.000000,  0.000000 
 180160.000000, -0.535992 , 3.457629, 8.867801, 677288576.000000, -3.640000,  1.190000,  -3.570000, 0.000000,  0.000000 
 199808.000000, -0.476172 , 3.481557, 8.927622, 677308864.000000, -2.590000,  1.190000,  -3.360000, 0.000000,  0.000000 
 219840.000000, -0.521635 , 3.448057, 8.836694, 677328576.000000, -3.500000,  1.540000,  -3.080000, 0.000000,  0.000000 
 239808.000000, -0.528814 , 3.558127, 8.724231, 677348544.000000, -4.970000,  2.450000,  -2.730000, 0.000000,  0.000000 
 259776.000000, -0.622134 , 3.388237, 8.520842, 677368512.000000, -6.510000,  3.500000,  -1.750000, 0.000000,  0.000000 
 280128.000000, -0.646062 , 3.225525, 8.525627, 677388544.000000, -9.520000,  4.620000,  -1.190000, 0.000000,  0.000000 
 299776.000000, -0.677169 , 3.421736, 8.355737, 677408832.000000, -9.520000,  6.300000,  -0.280000, 0.000000,  0.000000 
 319744.000000, -0.772882 , 3.622734, 7.994420, 677428480.000000, -7.980000,  8.540000,  0.770000, 0.000000,  0.000000 
 339776.000000, -0.976272 , 3.452843, 7.647461, 677448512.000000, -12.250000,  12.320000,  2.870000, 0.000000,  0.000000 
 359744.000000, -1.395016 , 3.160919, 7.477571, 677468480.000000, -23.240000,  17.219999,  5.110000, 0.000000,  0.000000 
 380032.000000, -1.694118 , 3.136991, 7.374680, 677488448.000000, -34.020000,  22.610001,  7.630000, 0.000000,  0.000000 
 399744.000000, -1.797010 , 3.014957, 7.525427, 677508800.000000, -38.639999,  28.559999,  11.970000, 0.000000,  0.000000 
 419712.000000, -2.009971 , 2.842674, 7.587641, 677528448.000000, -42.980000,  33.950001,  16.799999, 0.000000,  0.000000 
 439680.000000, -2.270789 , 2.739782, 7.472785, 677548416.000000, -47.110001,  40.810001,  21.000000, 0.000000,  0.000000 
 459712.000000, -2.646462 , 2.699104, 7.326823, 677568448.000000, -50.049999,  49.279999,  25.410000, 0.000000,  0.000000 
 480000.000000, -2.763710 , 2.615355, 7.298109, 677588416.000000, -56.980000,  57.400002,  29.049999, 0.000000,  0.000000 
 499648.000000, -2.967100 , 2.419144, 7.006185, 677608704.000000, -66.919998,  63.700001,  34.299999, 0.000000,  0.000000 
 519680.000000, -3.156133 , 2.158326, 6.898508, 677628416.000000, -81.830002,  69.930000,  37.730000, 0.000000,  0.000000 
 539648.000000, -3.744767 , 1.263410, 7.066005, 677648384.000000, -99.680000,  79.379997,  42.420002, 0.000000,  0.000000 
 559616.000000, -4.199404 , 0.602991, 7.494320, 677668352.000000, -112.209999,  91.000000,  47.529999, 0.000000,  0.000000 
 579968.000000, -4.429115 , 0.784846, 7.470392, 677688384.000000, -108.150002,  99.260002,  56.420002, 0.000000,  0.000000 
 599616.000000, -4.503292 , 1.198804, 7.046863, 677708672.000000, -94.010002,  104.370003,  65.519997, 0.000000,  0.000000 
 619584.000000, -5.082355 , 0.215354, 7.274181, 677728320.000000, -95.620003,  110.739998,  71.820000, 0.000000,  0.000000 
 639616.000000, -5.891129 , -0.921237, 7.448857, 677748352.000000, -110.599998,  119.000000,  76.650002, 0.000000,  0.000000 
 659584.000000, -6.259624 , -0.689133, 7.355537, 677768320.000000, -103.669998,  126.559998,  84.629997, 0.000000,  0.000000 
 679872.000000, -6.460621 , -0.055035, 6.932007, 677788288.000000, -77.419998,  131.669998,  95.410004, 0.000000,  0.000000 
 699584.000000, -6.786045 , 0.155533, 7.422535, 677808640.000000, -65.730003,  133.839996,  98.629997, 0.000000,  0.000000 
 719552.000000, -7.680960 , 0.062213, 7.166504, 677848256.000000, -100.519997,  149.589996,  94.570000, 737836992.000000,  1010.399536 
 739520.000000, -8.451449 , -0.655633, 6.829116, 0.000000, 0.000000,  0.000000,  0.000000, 0.000000,  0.000000 
 759552.000000, -8.657232 , -1.062413, 6.757331, 677868288.000000, -125.650002,  157.009995,  92.120003, 0.000000,  0.000000 
 779840.000000, -8.810372 , -1.237089, 7.281359, 677888256.000000, -136.430008,  159.389999,  86.519997, 0.000000,  0.000000 
 799488.000000, -9.243474 , -0.756132, 7.549356, 677908544.000000, -128.520004,  162.050003,  84.209999, 0.000000,  0.000000 
 819520.000000, -9.394222 , -0.373280, 6.786045, 677928256.000000, -109.480003,  166.039993,  84.209999, 0.000000,  0.000000 
 839488.000000, -9.410972 , -0.674776, 6.309873, 677948224.000000, -91.070000,  164.009995,  88.690002, 0.000000,  0.000000 
 859456.000000, -9.315259 , -1.330409, 6.015556, 677968192.000000, -86.379997,  161.350006,  89.879997, 0.000000,  0.000000 
 879808.000000, -9.528220 , -1.421337, 6.056234, 677988224.000000, -77.559998,  155.750000,  93.730003, 0.000000,  0.000000 
 899456.000000, -9.609575 , -1.210768, 5.809773, 678008512.000000, -60.340000,  150.850006,  98.910004, 0.000000,  0.000000 
 919488.000000, -9.678967 , -0.466600, 5.570491, 678028160.000000, -41.160000,  148.190002,  101.150002, 0.000000,  0.000000 
 939456.000000, -9.805787 , -0.488136, 5.190032, 678048192.000000, -31.080000,  142.729996,  98.559998, 0.000000,  0.000000 
 959424.000000, -10.133603 , -1.074377, 5.182854, 678068160.000000, -38.849998,  137.270004,  90.160004, 0.000000,  0.000000 
 979712.000000, -10.425529 , -1.191626, 5.264209, 678088128.000000, -49.070000,  133.490005,  82.320000, 0.000000,  0.000000 
 999424.000000, -10.801201 , -0.988236, 5.539384, 678108480.000000, -45.360001,  127.750000,  78.680000, 0.000000,  0.000000 
 1019392.000000, -10.939985 , -0.746561, 5.417351, 678128128.000000, -32.619999,  119.139999,  77.070000, 0.000000,  0.000000 
 1039360.000000, -10.753345 , -0.914058, 5.268995, 678148096.000000, -18.830000,  105.489998,  77.769997, 0.000000,  0.000000 
 1059392.000000, -10.461421 , -0.808774, 5.510671, 678168064.000000, -5.880000,  89.669998,  75.389999, 0.000000,  0.000000 
 1079680.000000, -10.183852 , -0.191426, 5.355137, 678188096.000000, 12.880000,  75.040001,  71.820000, 0.000000,  0.000000 
 1099328.000000, -9.903893 , 0.279960, 5.257031, 678208384.000000, 34.160000,  61.950001,  64.470001, 0.000000,  0.000000 
 1119360.000000, -9.619147 , 0.361316, 5.094319, 678228032.000000, 41.650002,  48.790001,  51.310001, 0.000000,  0.000000 
 1139328.000000, -9.451650 , 0.485743, 4.950750, 678248064.000000, 39.410000,  33.599998,  35.630001, 0.000000,  0.000000 
 1159296.000000, -9.265009 , 0.540778, 4.709075, 678268032.000000, 37.730000,  17.850000,  20.510000, 0.000000,  0.000000 
 1179648.000000, -9.020942 , 0.736989, 4.481757, 678288064.000000, 39.270000,  2.240000,  6.930000, 0.000000,  0.000000 
 1199296.000000, -8.678767 , 0.988236, 4.058227, 678308352.000000, 38.920002,  -13.020000,  -3.780000, 0.000000,  0.000000 
 1219264.000000, -8.599805 , 0.993021, 3.826123, 678328000.000000, 33.250000,  -27.580000,  -12.530000, 0.000000,  0.000000 
 1239296.000000, -9.798609 , 0.746561, 3.821337, 678347968.000000, 20.930000,  -37.170002,  -20.790001, 0.000000,  0.000000 
 1259264.000000, -12.193825 , 0.789631, 3.857230, 678368000.000000, 10.850000,  -36.889999,  -28.070000, 0.000000,  0.000000 
 1279552.000000, -14.770894 , 0.799203, 3.409772, 678387968.000000, 8.540000,  -28.559999,  -30.170000, 0.000000,  0.000000 
 1299264.000000, -14.742181 , 0.665205, 2.581856, 678408320.000000, 7.700000,  -27.440001,  -27.230000, 0.000000,  0.000000 
 1319232.000000, -11.164910 , 0.715454, 2.084148, 678427968.000000, 2.030000,  -53.900002,  -31.920000, 0.000000,  0.000000 
 1339200.000000, -8.528020 , 1.148555, 1.883151, 678447936.000000, -2.590000,  -98.139999,  -44.450001, 0.000000,  0.000000 
 1359168.000000, -7.712067 , 1.454836, 1.639083, 678467904.000000, -2.310000,  -118.650002,  -60.970001, 0.000000,  0.000000 
 1379520.000000, -8.382057 , 0.930808, 1.734797, 678487936.000000, -3.640000,  -114.590004,  -79.169998, 0.000000,  0.000000 
 1399168.000000, -9.324830 , 0.193819, 2.053042, 678508224.000000, -12.460000,  -103.459999,  -91.489998, 0.000000,  0.000000 
 1419136.000000, -9.712467 , 0.177069, 2.514857, 678527872.000000, -17.710001,  -94.919998,  -96.110001, 0.000000,  0.000000 
 1439168.000000, -10.128819 , 0.212961, 2.572284, 678547904.000000, -3.710000,  -91.070000,  -87.709999, 0.000000,  0.000000 
 1459136.000000, -10.782058 , -0.119641, 2.529213, 678567872.000000, 18.760000,  -82.250000,  -70.000000, 0.000000,  0.000000 
 1479488.000000, -11.069198 , -0.433101, 2.493321, 678587840.000000, 27.860001,  -72.309998,  -49.420002, 0.000000,  0.000000 
 1499136.000000, -10.602598 , 0.119641, 2.519642, 678608192.000000, 29.120001,  -67.410004,  -29.750000, 0.000000,  0.000000 
 1519104.000000, -10.241282 , 0.969093, 2.335395, 678627840.000000, 34.790001,  -65.519997,  -14.420000, 0.000000,  0.000000 
 1539072.000000, -10.413565 , 1.033699, 2.048256, 678647808.000000, 37.099998,  -60.900002,  -6.790000, 0.000000,  0.000000 
 1559104.000000, -10.600205 , 0.691526, 2.139183, 678667840.000000, 23.730000,  -53.549999,  -7.840000, 0.000000,  0.000000 
 1579392.000000, -10.214959 , 0.607777, 2.076970, 678687808.000000, 5.530000,  -49.910000,  -12.110000, 0.000000,  0.000000 
 1599040.000000, -9.712467 , 1.014557, 2.072184, 678708096.000000, -2.100000,  -50.470001,  -15.750000, 0.000000,  0.000000 
 1619072.000000, -8.973085 , 1.406980, 1.852045, 678727808.000000, -6.650000,  -51.730000,  -21.139999, 0.000000,  0.000000 
 1639040.000000, -8.250452 , 1.172483, 1.806581, 678747776.000000, -12.740000,  -53.900002,  -26.809999, 0.000000,  0.000000 
 1659008.000000, -7.860423 , 0.734596, 1.998007, 678767744.000000, -22.400000,  -56.000000,  -33.250000, 0.000000,  0.000000 
 1679360.000000, -7.877172 , 0.698704, 2.179861, 678787776.000000, -30.450001,  -54.950001,  -38.920002, 0.000000,  0.000000 
 1699008.000000, -7.980063 , 0.720240, 2.091327, 678808064.000000, -28.700001,  -50.820000,  -39.759998, 0.000000,  0.000000 
 1718976.000000, -7.865208 , 0.538385, 2.167897, 678827712.000000, -23.660000,  -45.360001,  -37.310001, 0.000000,  0.000000 
 1739008.000000, -7.472785 , 0.495314, 2.220540, 678847744.000000, -23.379999,  -39.410000,  -32.900002, 738836416.000000,  1010.404175 
 1758976.000000, -7.049256 , 0.794417, 2.234896, 678867712.000000, -19.250000,  -32.340000,  -24.500000, 0.000000,  0.000000 
 1779264.000000, -6.589834 , 0.849452, 2.081756, 678887680.000000, -16.100000,  -22.120001,  -14.980000, 0.000000,  0.000000 
 1798976.000000, -6.044270 , 0.607777, 2.002793, 678908032.000000, -20.440001,  -10.780000,  -4.130000, 0.000000,  0.000000 
 1818944.000000, -5.871986 , 0.703490, 2.057827, 678927680.000000, -30.940001,  0.910000,  4.200000, 0.000000,  0.000000 
 1838912.000000, -6.228518 , 0.993021, 2.069792, 678947648.000000, -37.799999,  17.570000,  14.770000, 0.000000,  0.000000 
 1858944.000000, -6.833901 , 0.748954, 2.177469, 678967680.000000, -42.490002,  37.520000,  29.049999, 0.000000,  0.000000 
 1879232.000000, -7.250252 , 0.471386, 2.409572, 678987648.000000, -52.990002,  55.299999,  42.630001, 0.000000,  0.000000 
 1898880.000000, -7.554141 , 0.739382, 2.533999, 679007936.000000, -60.130001,  69.019997,  56.980000, 0.000000,  0.000000 
 1918912.000000, -8.178668 , 0.926022, 2.407180, 679027648.000000, -66.570000,  85.120003,  71.190002, 0.000000,  0.000000 
 1938880.000000, -8.937192 , 0.703490, 2.663212, 679047680.000000, -79.239998,  102.550003,  82.739998, 0.000000,  0.000000 
 1958848.000000, -9.920642 , 0.669990, 3.012564, 679067584.000000, -94.570000,  117.320000,  92.050003, 0.000000,  0.000000 
 1979200.000000, -10.801201 , 0.031107, 3.517449, 679087616.000000, -107.449997,  127.680000,  101.779999, 0.000000,  0.000000 
 1998848.000000, -10.913664 , -0.289532, 3.706482, 679107904.000000, -118.580002,  130.199997,  111.720001, 0.000000,  0.000000 
 2018816.000000, -10.715059 , 0.141177, 3.649055, 679127552.000000, -114.730003,  124.599998,  122.709999, 0.000000,  0.000000 
 2038848.000000, -11.822936 , 0.093320, 4.000800, 679147584.000000, -98.629997,  115.779999,  130.690002, 0.000000,  0.000000 
 2058816.000000, -13.773087 , -0.409173, 4.486543, 679167552.000000, -92.610001,  117.180000,  132.860001, 0.000000,  0.000000 
 2079104.000000, -14.976677 , -0.600598, 4.934000, 679187520.000000, -89.809998,  118.370003,  134.259995, 0.000000,  0.000000 
 2098816.000000, -13.931013 , -0.818345, 4.733003, 679207872.000000, -78.820000,  108.010002,  133.350006, 0.000000,  0.000000 
 2118784.000000, -13.663017 , -1.043271, 4.505685, 679227520.000000, -64.190002,  82.809998,  126.770004, 0.000000,  0.000000 
 2138752.000000, -15.857236 , -1.584049, 4.859823, 679247488.000000, -54.040001,  66.779999,  115.220001, 0.000000,  0.000000 
 2158784.000000, -15.259030 , -1.586441, 4.249653, 679267520.000000, -45.709999,  70.349998,  97.930000, 0.000000,  0.000000 
 2179072.000000, -12.201002 , -0.294317, 3.634698, 679287488.000000, -25.900000,  39.759998,  71.680000, 0.000000,  0.000000 
 2198720.000000, -10.691131 , -0.023928, 3.661019, 679307776.000000, -8.470000,  -3.780000,  41.650002, 0.000000,  0.000000 
 2218752.000000, -10.430314 , -0.490529, 3.460021, 679327488.000000, -12.320000,  -16.799999,  11.830000, 0.000000,  0.000000 
 2238720.000000, -10.073784 , -0.569492, 3.122634, 679347456.000000, -25.129999,  -23.590000,  -13.160000, 0.000000,  0.000000 
 2258688.000000, -9.621540 , -0.172283, 2.833102, 679367424.000000, -34.230000,  -36.680000,  -25.760000, 0.000000,  0.000000 
 2278976.000000, -9.138189 , 0.059821, 2.392823, 679387456.000000, -45.009998,  -47.320000,  -33.599998, 0.000000,  0.000000 
 2298688.000000, -8.343772 , -0.167498, 2.220540, 679407744.000000, -58.380001,  -54.740002,  -40.880001, 0.000000,  0.000000 
 2318656.000000, -7.405786 , -0.423530, 2.378466, 679427392.000000, -73.500000,  -61.950001,  -50.470001, 0.000000,  0.000000 
 2338688.000000, -6.675975 , -0.143569, 2.586641, 679447424.000000, -83.860001,  -65.519997,  -59.709999, 0.000000,  0.000000 
 2358656.000000, -6.218946 , -0.136391, 2.498107, 679467392.000000, -82.739998,  -63.000000,  -66.360001, 0.000000,  0.000000 
 2379072.000000, -6.118448 , -0.684347, 2.691926, 679487360.000000, -79.029999,  -56.630001,  -71.190002, 0.000000,  0.000000 
 2398656.000000, -6.053841 , -1.045663, 2.964707, 679507776.000000, -78.050003,  -47.320000,  -73.849998, 0.000000,  0.000000 
 2418624.000000, -5.891129 , -0.662812, 3.206382, 679527360.000000, -64.050003,  -35.630001,  -71.959999, 0.000000,  0.000000 
 2438592.000000, -6.027520 , -0.399601, 3.103491, 679547328.000000, -35.139999,  -24.639999,  -67.620003, 0.000000,  0.000000 
 2458624.000000, -6.398407 , -0.564706, 3.416951, 679567360.000000, -14.630000,  -14.490000,  -64.400002, 0.000000,  0.000000 
 2478912.000000, -7.137790 , -0.648455, 4.173083, 679587328.000000, -9.940000,  -2.940000,  -59.709999, 0.000000,  0.000000 
 2498560.000000, -8.118847 , -0.392423, 4.744967, 679607616.000000, -1.120000,  10.290000,  -54.459999, 0.000000,  0.000000 
 2518592.000000, -9.054441 , -0.064606, 4.433900, 679627328.000000, 15.750000,  20.650000,  -44.310001, 0.000000,  0.000000 
 2538560.000000, -9.789038 , -0.803988, 4.091727, 679647296.000000, 28.910000,  22.610001,  -31.150000, 0.000000,  0.000000 
 2558528.000000, -10.253245 , -1.296910, 4.019942, 679667264.000000, 31.850000,  18.270000,  -21.420000, 0.000000,  0.000000 
 2578816.000000, -10.497313 , -0.524028, 4.005585, 679687296.000000, 43.959999,  12.600000,  -13.790000, 0.000000,  0.000000 
 2598528.000000, -10.181459 , 0.701097, 3.979264, 679707584.000000, 67.760002,  4.760000,  -9.030000, 0.000000,  0.000000 
 2618496.000000, -9.750752 , 1.131805, 3.804588, 679727232.000000, 82.040001,  -3.220000,  -12.390000, 0.000000,  0.000000 
 2638528.000000, -9.025726 , 0.373280, 3.711268, 679747264.000000, 71.540001,  -10.990000,  -25.690001, 0.000000,  0.000000 
 2658496.000000, -8.511270 , -0.492921, 3.833302, 679767232.000000, 46.549999,  -18.620001,  -41.650002, 0.000000,  0.000000 
 2678784.000000, -8.662018 , -0.521635, 4.086941, 679787200.000000, 29.469999,  -22.049999,  -54.250000, 0.000000,  0.000000 
 2698496.000000, -9.944571 , -1.229911, 3.814159, 679807488.000000, 23.240000,  -16.520000,  -54.110001, 0.000000,  0.000000 
 2718464.000000, -11.490334 , -2.660819, 3.414558, 679847168.000000, 4.410000,  2.100000,  -43.540001, 739835904.000000,  1010.404724 
 2738432.000000, -13.079168 , -3.919443, 3.766303, 0.000000, 0.000000,  0.000000,  0.000000, 0.000000,  0.000000 
 2758464.000000, -13.734802 , -3.929015, 4.211368, 679867200.000000, -1.190000,  6.300000,  -36.330002, 0.000000,  0.000000 
 2778752.000000, -11.401800 , -2.902494, 3.931407, 679887168.000000, 7.280000,  17.430000,  -19.950001, 0.000000,  0.000000 
 2798400.000000, -10.344172 , -2.481357, 3.438486, 679907456.000000, 32.689999,  5.040000,  -13.580000, 0.000000,  0.000000 
 2818432.000000, -10.408779 , -2.761317, 3.397808, 679927168.000000, 46.830002,  -17.360001,  -18.059999, 0.000000,  0.000000 
 2838400.000000, -12.710674 , -3.962514, 3.323631, 679947136.000000, 30.520000,  -14.070000,  -28.000000, 0.000000,  0.000000 
 2858368.000000, -13.385449 , -4.275974, 3.211168, 679967104.000000, 13.090000,  -5.180000,  -32.200001, 0.000000,  0.000000 
 2878656.000000, -12.165110 , -3.110669, 2.969493, 679987072.000000, 18.760000,  -17.150000,  -30.240000, 0.000000,  0.000000 
 2898368.000000, -10.884951 , -1.919044, 2.840281, 680007424.000000, 30.730000,  -35.139999,  -31.080000, 0.000000,  0.000000 
 2918400.000000, -9.643075 , -1.674976, 2.943172, 680027072.000000, 25.410000,  -40.529999,  -39.340000, 0.000000,  0.000000 
 2938304.000000, -8.286345 , -1.557728, 2.627320, 680047104.000000, 6.230000,  -42.840000,  -54.459999, 0.000000,  0.000000 
 2958336.000000, -7.022934 , -1.165305, 2.431108, 680067072.000000, -7.700000,  -47.459999,  -69.720001, 0.000000,  0.000000 
 2978624.000000, -5.965307 , -0.775275, 2.301895, 680087040.000000, -7.980000,  -49.420002,  -78.820000, 0.000000,  0.000000 
 2998272.000000, -5.517848 , -0.550349, 2.330609, 680107328.000000, -1.680000,  -47.670002,  -80.150002, 0.000000,  0.000000 
 3018304.000000, -5.572884 , -0.356531, 2.517249, 680127040.000000, 2.730000,  -38.220001,  -74.760002, 0.000000,  0.000000 
 3038272.000000, -5.592027 , -0.425922, 2.397608, 680147008.000000, 9.730000,  -27.510000,  -61.250000, 0.000000,  0.000000 
 3058240.000000, -5.441278 , -0.691526, 1.990828, 680166976.000000, 22.889999,  -22.540001,  -45.920002, 0.000000,  0.000000 
 3078592.000000, -5.599205 , -0.567099, 1.607977, 680187008.000000, 35.420002,  -22.260000,  -31.500000, 0.000000,  0.000000 
 3098240.000000, -6.312266 , -0.136391, 1.342373, 680207296.000000, 43.049999,  -19.320000,  -17.500000, 0.000000,  0.000000 
 3118208.000000, -6.903293 , -0.047856, 0.815953, 680226944.000000, 49.349998,  -13.020000,  -1.120000, 0.000000,  0.000000 
 3138240.000000, -7.152147 , -0.069392, 0.882952, 680246976.000000, 51.939999,  -7.490000,  13.650000, 0.000000,  0.000000 
 3158208.000000, -7.350751 , 0.136391, 1.241875, 680266944.000000, 47.250000,  -2.450000,  23.940001, 0.000000,  0.000000 
 3178496.000000, -7.836494 , 0.969093, 1.332802, 680286912.000000, 51.380001,  8.470000,  37.310001, 0.000000,  0.000000 
 3198208.000000, -8.382057 , 0.902094, 1.127020, 680307264.000000, 44.380001,  22.260000,  47.459999, 0.000000,  0.000000 
 3218176.000000, -8.566305 , 0.270389, 1.251446, 680326912.000000, 16.170000,  33.529999,  55.090000, 0.000000,  0.000000 
 3238144.000000, -8.147561 , 0.162712, 1.564906, 680346880.000000, -22.540001,  42.700001,  58.450001, 0.000000,  0.000000 
 3258176.000000, -9.032906 , 0.038285, 1.710868, 680366912.000000, -49.000000,  46.970001,  65.239998, 0.000000,  0.000000 
 3278464.000000, -10.760524 , -0.765703, 2.440679, 680386880.000000, -76.160004,  62.299999,  69.650002, 0.000000,  0.000000 
 3298112.000000, -12.942777 , -1.674976, 3.189633, 680407168.000000, -105.209999,  79.099998,  74.970001, 0.000000,  0.000000 
 3318144.000000, -14.842678 , -1.971686, 3.297310, 680426880.000000, -108.290001,  90.790001,  84.489998, 0.000000,  0.000000 
 3338112.000000, -17.041683 , -2.557927, 3.390630, 680446848.000000, -89.739998,  88.269997,  94.919998, 0.000000,  0.000000 
 3358080.000000, -18.510876 , -2.689533, 4.182654, 680466816.000000, -79.379997,  86.590004,  103.250000, 0.000000,  0.000000 
 3378432.000000, -16.390835 , -2.084148, 4.170690, 680486848.000000, -66.989998,  83.440002,  107.449997, 0.000000,  0.000000 
 3398080.000000, -13.686946 , -1.421337, 3.804588, 680507136.000000, -36.119999,  59.709999,  94.919998, 0.000000,  0.000000 
 3418048.000000, -12.253645 , -1.045663, 3.708875, 680526784.000000, -13.230000,  43.330002,  70.840004, 0.000000,  0.000000 
 3438080.000000, -11.531013 , -1.105484, 3.775874, 680546816.000000, -6.580000,  40.180000,  37.660000, 0.000000,  0.000000 
 3458048.000000, -11.265409 , -1.844866, 3.677768, 680566784.000000, 1.400000,  35.279999,  8.190000, 0.000000,  0.000000 
 3478336.000000, -10.640882 , -2.079363, 3.393023, 680586752.000000, 10.640000,  30.940001,  -14.280000, 0.000000,  0.000000 
 3498048.000000, -10.001998 , -1.186840, 3.232704, 680607104.000000, 18.549999,  23.100000,  -22.680000, 0.000000,  0.000000 
 3518016.000000, -9.085547 , -0.145962, 2.091327, 680626752.000000, 20.650000,  13.790000,  -25.270000, 0.000000,  0.000000 
 3537984.000000, -7.506285 , 0.124427, 1.667797, 680646720.000000, 4.550000,  4.480000,  -21.980000, 0.000000,  0.000000 
 3558016.000000, -6.013163 , -0.614955, 1.859223, 680666752.000000, -22.540001,  -6.230000,  -13.300000, 0.000000,  0.000000 
 3578304.000000, -5.048856 , -1.304088, 2.199004, 680686720.000000, -48.650002,  -8.540000,  -1.330000, 0.000000,  0.000000 
 3598144.000000, -4.759324 , -1.581656, 2.318645, 680707008.000000, -60.970001,  -3.290000,  17.150000, 0.000000,  0.000000 
 3617984.000000, -4.881358 , -1.409373, 2.263610, 680726848.000000, -48.720001,  5.460000,  34.860001, 0.000000,  0.000000 
 3637952.000000, -5.204390 , -1.435694, 2.352145, 680746688.000000, -28.630001,  15.680000,  48.230000, 0.000000,  0.000000 
 3657920.000000, -5.941379 , -1.689333, 2.778067, 680766656.000000, -14.070000,  23.870001,  56.349998, 0.000000,  0.000000 
 3678272.000000, -6.929615 , -1.674976, 3.218346, 680786688.000000, 3.080000,  32.200001,  58.660000, 0.000000,  0.000000 
 3697920.000000, -7.965706 , -1.861616, 3.668197, 680806976.000000, 19.670000,  38.220001,  59.150002, 0.000000,  0.000000 
 3717888.000000, -8.992228 , -2.124826, 4.125226, 680826624.000000, 31.920000,  40.810001,  57.189999, 0.000000,  0.000000 
 3737920.000000, -9.537791 , -2.160719, 4.273581, 680846656.000000, 46.689999,  38.920002,  50.959999, 740835328.000000,  1010.411987 
 3757888.000000, -9.585647 , -2.311467, 4.232903, 680866624.000000, 62.160000,  30.100000,  41.720001, 0.000000,  0.000000 
 3778176.000000, -9.499505 , -2.404787, 4.182654, 680886592.000000, 70.980003,  18.270000,  27.370001, 0.000000,  0.000000 
 3797888.000000, -9.351151 , -1.947758, 3.589234, 680906880.000000, 80.220001,  9.870000,  10.080000, 0.000000,  0.000000 
 3817856.000000, -9.597611 , -1.227518, 3.108276, 680926592.000000, 95.970001,  2.520000,  -6.230000, 0.000000,  0.000000 
 3837824.000000, -10.671989 , -1.361516, 2.991028, 680946560.000000, 101.639999,  -5.180000,  -24.920000, 0.000000,  0.000000 
 3857792.000000, -11.691331 , -1.964507, 2.895315, 680966528.000000, 85.330002,  -7.070000,  -40.389999, 0.000000,  0.000000 
 3878144.000000, -12.306287 , -2.232504, 2.251646, 680986560.000000, 64.610001,  -12.600000,  -48.790001, 0.000000,  0.000000 
 3897792.000000, -14.313866 , -2.775674, 2.983850, 681006848.000000, 60.619999,  -24.920000,  -51.450001, 0.000000,  0.000000 
 3917824.000000, -16.457834 , -2.737389, 2.897708, 681026496.000000, 63.070000,  -20.440001,  -47.950001, 0.000000,  0.000000 
 3937792.000000, -14.340185 , -1.619941, 1.459622, 681046528.000000, 72.590004,  -18.200001,  -39.970001, 0.000000,  0.000000 
 3957760.000000, -12.442677 , -1.081556, 0.413958, 681066496.000000, 96.949997,  -61.670002,  -40.950001, 0.000000,  0.000000 
 3978048.000000, -14.124832 , -1.715654, 0.722632, 681086464.000000, 91.489998,  -78.400002,  -47.670002, 0.000000,  0.000000 
 3997760.000000, -15.507884 , -2.443072, 1.026521, 681126464.000000, 34.299999,  -58.029999,  -72.099998, 0.000000,  0.000000 
 4017728.000000, -14.706287 , -1.411765, 0.634098, 0.000000, 0.000000,  0.000000,  0.000000, 0.000000,  0.000000 
 4037696.000000, -13.354343 , -0.981057, -0.165105, 681146432.000000, 33.180000,  -80.360001,  -77.000000, 0.000000,  0.000000 
 4057728.000000, -12.021541 , -1.899901, -0.320638, 681166464.000000, 11.340000,  -89.529999,  -85.120003, 0.000000,  0.000000 
 4078016.000000, -10.765309 , -2.134398, 0.722632, 681186432.000000, -24.500000,  -87.849998,  -95.900002, 0.000000,  0.000000 
 4097728.000000, -10.183852 , -1.663012, 0.648455, 681206720.000000, -52.920002,  -84.489998,  -107.660004, 0.000000,  0.000000 
 4117696.000000, -8.604590 , 0.088534, 0.830309, 681226432.000000, -54.599998,  -79.239998,  -114.449997, 0.000000,  0.000000 
 4137664.000000, -6.326623 , 0.904487, 0.971486, 681246400.000000, -41.230000,  -77.629997,  -109.480003, 0.000000,  0.000000 
 4157632.000000, -4.589434 , 0.442672, 1.751546, 681266368.000000, -30.730000,  -71.889999,  -102.690002, 0.000000,  0.000000 
 4177984.000000, -4.086941 , -0.356531, 2.452643, 681286400.000000, -36.610001,  -54.110001,  -92.820000, 0.000000,  0.000000 
 4197632.000000, -4.366901 , -0.442672, 2.294717, 681306688.000000, -33.250000,  -30.450001,  -72.169998, 0.000000,  0.000000 
 4217600.000000, -4.424329 , -0.007178, 1.777867, 681326336.000000, -1.330000,  -12.530000,  -47.950001, 0.000000,  0.000000 
 4237824.000000, -4.563113 , 0.186640, 1.351945, 681346368.000000, 34.790001,  -5.600000,  -26.110001, 0.000000,  0.000000 
 4257600.000000, -5.280960 , 0.093320, 1.146162, 681366528.000000, 51.869999,  -1.190000,  -10.990000, 0.000000,  0.000000 
 4277888.000000, -6.209375 , -0.210568, 0.574277, 681386304.000000, 54.880001,  6.370000,  2.100000, 0.000000,  0.000000 
 4297600.000000, -7.094719 , -0.796810, 0.370888, 681406656.000000, 54.950001,  12.390000,  15.120000, 0.000000,  0.000000 
 4317568.000000, -8.159525 , -1.009771, 0.485743, 681426304.000000, 52.920002,  16.590000,  24.710001, 0.000000,  0.000000 
 4337600.000000, -9.590433 , -1.124627, 0.531207, 681446272.000000, 42.700001,  22.120001,  33.389999, 0.000000,  0.000000 
 4357568.000000, -10.719845 , -0.760918, 0.150748, 681466304.000000, 30.450001,  27.440001,  44.099998, 0.000000,  0.000000 
 4377856.000000, -10.710274 , 0.035892, 0.198604, 681486272.000000, 18.690001,  31.290001,  51.939999, 0.000000,  0.000000 
 4397568.000000, -10.088140 , 0.320638, -0.102891, 681506560.000000, 5.040000,  25.969999,  50.259998, 0.000000,  0.000000 
 4417536.000000, -9.982857 , -0.296710, -0.007178, 681526272.000000, -17.219999,  17.780001,  38.009998, 0.000000,  0.000000 
 4437504.000000, -10.645668 , -1.105484, 0.593420, 681546240.000000, -47.880001,  24.500000,  30.100000, 0.000000,  0.000000 
 4457536.000000, -11.667403 , -0.909273, 1.543371, 681566208.000000, -70.559998,  37.450001,  24.710001, 0.000000,  0.000000 
 4477824.000000, -13.277774 , -1.234696, 0.827917, 681586240.000000, -77.699997,  50.540001,  31.780001, 0.000000,  0.000000 
 4497472.000000, -15.907485 , -2.024328, 1.060020, 681606528.000000, -85.120003,  63.840000,  50.610001, 0.000000,  0.000000 
 4517440.000000, -17.204393 , -2.830709, 1.895115, 681626176.000000, -98.279999,  90.019997,  77.000000, 0.000000,  0.000000 
 4537472.000000, -15.426528 , -2.545963, 3.775874, 681646208.000000, -95.690002,  105.070000,  105.629997, 0.000000,  0.000000 
 4557440.000000, -14.014762 , -1.710868, 4.828716, 681666176.000000, -66.919998,  96.739998,  113.889999, 0.000000,  0.000000 
 4577728.000000, -14.038691 , -1.359123, 4.563113, 681686144.000000, -40.389999,  93.590004,  115.989998, 0.000000,  0.000000 
 4597440.000000, -13.261024 , -1.966900, 3.699304, 681706496.000000, -24.850000,  92.540001,  107.449997, 0.000000,  0.000000 
 4617408.000000, -12.100503 , -2.344966, 2.971886, 681726144.000000, 2.870000,  72.029999,  94.290001, 0.000000,  0.000000 
 4637376.000000, -10.865808 , -2.395216, 3.084348, 681746112.000000, 20.370001,  59.639999,  80.430000, 0.000000,  0.000000 
 4657408.000000, -9.580862 , -1.186840, 2.878566, 681766144.000000, 48.860001,  39.410000,  74.269997, 0.000000,  0.000000 
 4677696.000000, -7.970492 , -0.129212, 2.445465, 681786112.000000, 63.840000,  21.420000,  59.990002, 0.000000,  0.000000 
 4697344.000000, -7.125826 , -0.014357, 2.301895, 681806400.000000, 59.990002,  4.550000,  46.340000, 0.000000,  0.000000 
 4717376.000000, -5.929415 , -0.258425, 2.297110, 681826112.000000, 26.250000,  -7.000000,  32.689999, 0.000000,  0.000000 
 4737344.000000, -5.402994 , -0.674776, 2.400001, 681846080.000000, -20.580000,  -7.980000,  19.320000, 741834752.000000,  1010.421692 
 4757312.000000, -5.328816 , -1.524228, 2.459821, 681866048.000000, -52.779999,  -2.730000,  11.760000, 0.000000,  0.000000 
 4777664.000000, -5.443672 , -1.605584, 2.794817, 681886080.000000, -58.029999,  2.310000,  6.790000, 0.000000,  0.000000 
 4797312.000000, -5.809773 , -1.866402, 2.979064, 681906368.000000, -47.670002,  5.320000,  7.350000, 0.000000,  0.000000 
 4817280.000000, -6.364908 , -2.194218, 3.065206, 681926016.000000, -32.689999,  6.860000,  15.820000, 0.000000,  0.000000 
 4837312.000000, -7.032506 , -1.957329, 3.201597, 681946048.000000, -13.230000,  9.660000,  26.460001, 0.000000,  0.000000 
 4857280.000000, -8.054241 , -1.660619, 3.467200, 681966016.000000, 11.690000,  13.020000,  41.090000, 0.000000,  0.000000 
 4877568.000000, -9.231510 , -2.122434, 3.397808, 681985984.000000, 22.610001,  16.170000,  52.080002, 0.000000,  0.000000 
 4897280.000000, -10.102496 , -2.993421, 3.476771, 682006336.000000, 16.100000,  17.219999,  56.209999, 0.000000,  0.000000 
 4917312.000000, -10.088140 , -3.627519, 3.476771, 682025984.000000, 8.750000,  10.290000,  47.810001, 0.000000,  0.000000 
 4937280.000000, -9.219545 , -3.907479, 2.440679, 682046016.000000, 16.379999,  -7.280000,  29.960001, 0.000000,  0.000000 
 4957312.000000, -9.293723 , -3.156133, 2.222932, 682066048.000000, 38.290001,  -27.020000,  0.700000, 0.000000,  0.000000 
 4978560.000000, -10.875379 , -1.512264, 1.990828, 682086016.000000, 77.139999,  -29.469999,  -24.570000, 0.000000,  0.000000 
 4997248.000000, -12.813565 , -0.655633, 1.213161, 682107264.000000, 112.559998,  -19.389999,  -36.400002, 0.000000,  0.000000 
 5018048.000000, -12.624532 , -0.600598, 1.280160, 682125952.000000, 108.639999,  -20.580000,  -52.080002, 0.000000,  0.000000 
 5037952.000000, -11.636297 , -1.098306, 1.201197, 682146752.000000, 64.540001,  -45.779999,  -62.510002, 0.000000,  0.000000 
 5057984.000000, -14.208582 , -1.708475, 1.945365, 682166720.000000, 25.830000,  -63.490002,  -73.150002, 0.000000,  0.000000 
 5078272.000000, -16.390835 , -1.641476, 1.737189, 682186688.000000, 9.730000,  -24.850000,  -81.199997, 0.000000,  0.000000 
 5097920.000000, -14.196616 , -1.579263, 1.533799, 682207040.000000, 0.210000,  -20.160000,  -84.629997, 0.000000,  0.000000 
 5118400.000000, -12.320643 , -1.847259, 1.682154, 682226624.000000, -1.190000,  -58.660000,  -85.050003, 0.000000,  0.000000 
 5138304.000000, -13.067204 , -2.036292, 1.811367, 682247104.000000, -7.490000,  -67.690002,  -90.019997, 0.000000,  0.000000 
 5158272.000000, -13.466805 , -1.536192, 1.347159, 682267072.000000, -3.710000,  -46.340000,  -96.669998, 0.000000,  0.000000 
 5178688.000000, -12.095718 , -0.935594, 0.823131, 682286976.000000, 16.520000,  -46.830002,  -101.430000, 0.000000,  0.000000 
 5198272.000000, -11.016556 , -0.911665, 0.899701, 682307392.000000, 28.770000,  -61.320000,  -102.690002, 0.000000,  0.000000 
 5218752.000000, -10.825130 , -1.019342, 1.445265, 682327040.000000, 26.950001,  -63.980000,  -109.340004, 0.000000,  0.000000 
 5238592.000000, -10.298709 , -0.897308, 1.445265, 682347456.000000, 24.080000,  -51.380001,  -113.680000, 0.000000,  0.000000 
 5258624.000000, -9.166903 , -1.222732, 1.225125, 682367360.000000, 21.350000,  -50.259998,  -113.120003, 0.000000,  0.000000 
 5278976.000000, -7.948956 , -0.916451, 1.287339, 682387328.000000, 3.850000,  -57.260002,  -112.070000, 0.000000,  0.000000 
 5298624.000000, -6.398407 , -0.093320, 1.490728, 682407680.000000, -7.140000,  -62.299999,  -110.250000, 0.000000,  0.000000 
 5318336.000000, -4.960321 , -0.071785, 1.495514, 682427328.000000, 10.500000,  -63.910000,  -95.059998, 0.000000,  0.000000 
 5339648.000000, -4.433900 , -0.229711, 1.674976, 682447104.000000, 23.590000,  -61.740002,  -81.340004, 0.000000,  0.000000 
 5359616.000000, -4.725825 , -0.464208, 1.883151, 682468352.000000, 24.780001,  -51.240002,  -69.440002, 0.000000,  0.000000 
 5379968.000000, -5.773881 , -0.490529, 2.182254, 682488384.000000, 26.809999,  -35.630001,  -45.570000, 0.000000,  0.000000 
 5399616.000000, -6.948757 , -0.473779, 1.753939, 682528320.000000, 33.950001,  -19.110001,  -9.800000, 0.000000,  0.000000 
 5419648.000000, -7.190433 , -0.239282, 1.004985, 0.000000, 0.000000,  0.000000,  0.000000, 0.000000,  0.000000 
 5439616.000000, -7.214360 , -0.064606, 0.543171, 682548352.000000, 30.799999,  -23.170000,  7.980000, 0.000000,  0.000000 
 5459584.000000, -7.190433 , -0.349352, 0.751346, 682568320.000000, 18.270000,  -21.770000,  18.270000, 0.000000,  0.000000 
 5479936.000000, -7.441679 , -0.447458, 1.428515, 682588288.000000, 5.530000,  -9.870000,  25.760000, 0.000000,  0.000000 
 5499520.000000, -7.898707 , -0.547956, 1.012164, 682608640.000000, 3.430000,  3.150000,  31.080000, 0.000000,  0.000000 
 5519616.000000, -8.635696 , -0.909273, 0.559920, 682628288.000000, 9.590000,  14.210000,  35.980000, 0.000000,  0.000000 
 5539520.000000, -9.872787 , -1.485943, 0.416351, 682648320.000000, 5.250000,  27.930000,  44.799999, 0.000000,  0.000000 
 5559552.000000, -11.899508 , -1.505085, 0.062213, 682668288.000000, -7.350000,  47.599998,  58.590000, 0.000000,  0.000000 
 5579840.000000, -14.780465 , -2.074577, -0.521635, 682688256.000000, -18.129999,  71.190002,  77.209999, 0.000000,  0.000000 
 5599488.000000, -17.893528 , -3.060420, 0.148355, 682708608.000000, -35.279999,  93.800003,  94.290001, 0.000000,  0.000000 
 5619584.000000, -18.108883 , -3.550949, 1.859223, 682728256.000000, -58.099998,  115.150002,  112.699997, 0.000000,  0.000000 
 5639488.000000, -15.046068 , -2.866602, 2.940779, 682748288.000000, -60.480000,  105.699997,  129.990005, 0.000000,  0.000000 
 5659456.000000, -13.512270 , -1.385444, 3.103491, 682768192.000000, -34.369999,  79.099998,  134.119995, 0.000000,  0.000000 
 5679808.000000, -13.478769 , -0.133998, 2.998207, 682788160.000000, -13.790000,  74.410004,  111.510002, 0.000000,  0.000000 
 5699456.000000, -13.359130 , 0.212961, 2.553142, 682808512.000000, -4.830000,  77.489998,  75.250000, 0.000000,  0.000000 
 5719488.000000, -12.641282 , -0.669990, 2.536392, 682828160.000000, 8.960000,  68.320000,  41.090000, 0.000000,  0.000000 
 5739392.000000, -11.629118 , -1.636691, 2.629712, 682848256.000000, 12.530000,  56.209999,  16.170000, 742836928.000000,  1010.432373 
 5759424.000000, -10.135997 , -1.512264, 2.416751, 682868096.000000, 2.590000,  43.049999,  -1.750000, 0.000000,  0.000000 
 5779776.000000, -8.559127 , -1.184447, 1.911865, 682888128.000000, -9.940000,  24.150000,  -12.180000, 0.000000,  0.000000 
 5799424.000000, -7.207181 , -0.997807, 1.854438, 682908480.000000, -24.500000,  9.800000,  -15.960000, 0.000000,  0.000000 
 5819456.000000, -6.185446 , -0.957129, 2.105684, 682928128.000000, -49.630001,  4.480000,  -14.910000, 0.000000,  0.000000 
 5839360.000000, -5.508278 , -1.028914, 2.498107, 682948160.000000, -75.320000,  6.650000,  -9.660000, 0.000000,  0.000000 
 5859392.000000, -5.225924 , -1.653440, 2.431108, 682968064.000000, -88.129997,  11.970000,  1.470000, 0.000000,  0.000000 
 5879744.000000, -5.240282 , -2.321038, 2.596212, 682988096.000000, -87.919998,  18.410000,  15.540000, 0.000000,  0.000000 
 5899328.000000, -5.249853 , -2.498107, 2.818745, 683008448.000000, -73.500000,  20.160000,  32.549999, 0.000000,  0.000000 
 5919424.000000, -5.627919 , -2.055435, 2.940779, 683028032.000000, -45.360001,  21.280001,  49.420002, 0.000000,  0.000000 
 5939328.000000, -6.690332 , -1.878366, 3.136991, 683048192.000000, -21.490000,  25.549999,  65.730003, 0.000000,  0.000000 
 5959232.000000, -8.422735 , -2.256432, 3.584448, 683068032.000000, -12.530000,  36.330002,  81.340004, 0.000000,  0.000000 
 5979520.000000, -10.224532 , -2.828316, 3.649055, 683087936.000000, -16.870001,  44.869999,  91.139999, 0.000000,  0.000000 
 5999232.000000, -11.215159 , -2.866602, 3.455236, 683108288.000000, -20.160000,  44.590000,  96.180000, 0.000000,  0.000000 
 6019200.000000, -10.394422 , -2.347359, 3.184847, 683127936.000000, -14.910000,  26.250000,  89.739998, 0.000000,  0.000000 
 6039168.000000, -9.224331 , -1.481157, 2.691926, 683147904.000000, -3.430000,  -2.870000,  72.309998, 0.000000,  0.000000 
 6059200.000000, -9.166903 , -0.495314, 2.388037, 683167936.000000, 5.880000,  -20.930000,  46.060001, 0.000000,  0.000000 
 6079488.000000, -10.657632 , -0.622134, 2.273181, 683187904.000000, 5.250000,  -21.559999,  15.540000, 0.000000,  0.000000 
 6099136.000000, -11.916256 , -1.641476, 2.115255, 683208192.000000, -8.680000,  -10.920000,  -11.970000, 0.000000,  0.000000 
 6119168.000000, -12.043077 , -2.352145, 1.359123, 683227904.000000, -26.670000,  -9.590000,  -31.360001, 0.000000,  0.000000 
 6139136.000000, -14.026726 , -3.393023, 1.926222, 683247872.000000, -33.740002,  -24.990000,  -41.369999, 0.000000,  0.000000 
 6159104.000000, -16.876577 , -4.084548, 2.237289, 683267840.000000, -32.759998,  -7.280000,  -43.470001, 0.000000,  0.000000 
 6179456.000000, -13.832907 , -2.842674, 1.768296, 683287872.000000, -22.120001,  12.320000,  -39.200001, 0.000000,  0.000000 
 6199104.000000, -10.281959 , -1.677369, 1.586441, 683308160.000000, 15.120000,  -32.830002,  -26.950001, 0.000000,  0.000000 
 6219072.000000, -10.269995 , -1.612763, 2.519642, 683327808.000000, 32.480000,  -55.299999,  -24.710001, 0.000000,  0.000000 
 6239104.000000, -11.669796 , -1.531406, 2.184647, 683347840.000000, 12.320000,  -26.600000,  -41.299999, 0.000000,  0.000000 
 6259072.000000, -11.504691 , -1.378266, 1.493121, 683367808.000000, 15.330000,  -12.530000,  -56.910000, 0.000000,  0.000000 
 6279360.000000, -10.738988 , -1.978864, 1.691726, 683387776.000000, 35.000000,  -26.180000,  -63.560001, 0.000000,  0.000000 
 6299072.000000, -10.415956 , -2.435893, 2.124826, 683408128.000000, 27.790001,  -33.250000,  -71.400002, 0.000000,  0.000000 
 6319040.000000, -9.896714 , -1.820938, 1.887937, 683427776.000000, 24.219999,  -31.850000,  -80.500000, 0.000000,  0.000000 
 6339008.000000, -9.267403 , -1.088734, 1.395016, 683447744.000000, 41.160000,  -35.139999,  -83.370003, 0.000000,  0.000000 
 6359040.000000, -8.250452 , -0.830309, 1.282553, 683467776.000000, 45.360001,  -43.400002,  -85.889999, 0.000000,  0.000000 
 6379328.000000, -7.578069 , -1.067199, 1.411765, 683487744.000000, 29.469999,  -51.730000,  -89.599998, 0.000000,  0.000000 
 6398976.000000, -7.128219 , -1.182054, 1.584049, 683508032.000000, 13.510000,  -55.090000,  -92.610001, 0.000000,  0.000000 
 6419008.000000, -6.939186 , -1.095913, 1.517050, 683527744.000000, 7.770000,  -54.810001,  -92.470001, 0.000000,  0.000000 
 6438976.000000, -6.867401 , -1.141376, 1.397408, 683547712.000000, 12.320000,  -54.599998,  -88.760002, 0.000000,  0.000000 
 6458944.000000, -7.025328 , -1.122234, 1.050449, 683567680.000000, 20.299999,  -53.619999,  -80.150002, 0.000000,  0.000000 
 6479296.000000, -7.010970 , -1.016950, 0.708275, 683587712.000000, 25.340000,  -53.200001,  -69.580002, 0.000000,  0.000000 
 6498944.000000, -6.941578 , -0.902094, 0.705883, 683608000.000000, 24.430000,  -54.250000,  -60.480000, 0.000000,  0.000000 
 6518912.000000, -6.979864 , -0.902094, 0.859023, 683627648.000000, 19.250000,  -54.040001,  -50.889999, 0.000000,  0.000000 
 6538944.000000, -7.405786 , -1.220340, 1.277767, 683647680.000000, 12.460000,  -47.389999,  -40.529999, 0.000000,  0.000000 
 6558912.000000, -7.781459 , -1.596013, 1.148555, 683667648.000000, 6.580000,  -37.799999,  -28.980000, 0.000000,  0.000000 
 6579200.000000, -8.092526 , -1.770689, 0.823131, 683687616.000000, 8.120000,  -31.850000,  -18.410000, 0.000000,  0.000000 
 6598912.000000, -9.243474 , -1.866402, 0.612563, 683707904.000000, 15.960000,  -26.250000,  -7.210000, 0.000000,  0.000000 
 6618880.000000, -11.485549 , -1.639083, 0.193819, 683727616.000000, 18.480000,  -10.850000,  1.750000, 0.000000,  0.000000 
 6638848.000000, -14.222939 , -1.210768, -0.985843, 683747584.000000, 15.260000,  16.240000,  13.020000, 0.000000,  0.000000 
 6658880.000000, -16.275980 , -1.234696, -0.844666, 683767552.000000, 12.950000,  34.720001,  29.120001, 0.000000,  0.000000 
 6679168.000000, -15.572490 , -1.777867, 1.299303, 683787584.000000, -2.240000,  51.590000,  46.130001, 0.000000,  0.000000 
 6698816.000000, -13.610376 , -1.150948, 2.105684, 683807872.000000, -15.050000,  44.590000,  59.290001, 0.000000,  0.000000 
 6718848.000000, -13.174881 , -0.519243, 2.349752, 683827584.000000, -8.260000,  36.400002,  60.270000, 0.000000,  0.000000 
 6738816.000000, -13.088740 , -0.842274, 3.089134, 683847552.000000, -7.210000,  53.760002,  50.400002, 743836224.000000,  1010.448120 
 6758784.000000, -11.933006 , -0.480957, 3.598805, 683867520.000000, -20.580000,  66.290001,  32.970001, 0.000000,  0.000000 
 6779072.000000, -10.944772 , 0.124427, 2.981457, 683887488.000000, -11.340000,  61.459999,  22.190001, 0.000000,  0.000000 
 6798784.000000, -10.104890 , -0.122034, 2.005185, 683907840.000000, 3.920000,  55.369999,  19.670000, 0.000000,  0.000000 
 6818752.000000, -8.898908 , -0.526421, 1.720440, 683927488.000000, -3.640000,  48.930000,  21.490000, 0.000000,  0.000000 
 6838720.000000, -7.652246 , -0.619741, 2.232504, 683947520.000000, -21.420000,  38.220001,  28.139999, 0.000000,  0.000000 
 6858752.000000, -6.929615 , -0.524028, 2.866602, 683967488.000000, -32.270000,  31.990000,  38.990002, 0.000000,  0.000000 
 6879040.000000, -6.831509 , -0.524028, 2.981457, 683987456.000000, -41.930000,  35.490002,  50.959999, 0.000000,  0.000000 
 6898752.000000, -6.776474 , -1.060020, 2.833102, 684007744.000000, -51.730000,  42.209999,  60.549999, 0.000000,  0.000000 
 6918720.000000, -6.508478 , -1.612763, 2.505285, 684027456.000000, -53.060001,  41.369999,  70.279999, 0.000000,  0.000000 
 6938688.000000, -6.436693 , -1.921437, 2.586641, 684047488.000000, -42.980000,  34.930000,  79.800003, 0.000000,  0.000000 
 6958656.000000, -7.353144 , -2.045863, 2.983850, 684067392.000000, -26.670000,  32.340000,  84.840004, 0.000000,  0.000000 
 6979008.000000, -8.874979 , -2.210968, 3.199204, 684087424.000000, -9.520000,  38.990002,  85.680000, 0.000000,  0.000000 
 6998656.000000, -9.896714 , -2.452643, 3.206382, 684107712.000000, 6.930000,  45.570000,  84.769997, 0.000000,  0.000000 
 7018624.000000, -9.956534 , -2.624927, 3.192025, 684127360.000000, 14.420000,  45.009998,  84.070000, 0.000000,  0.000000 
 7038656.000000, -9.308081 , -2.067399, 3.672983, 684147392.000000, 31.639999,  36.610001,  79.940002, 0.000000,  0.000000 
 7058624.000000, -9.269794 , -1.375873, 2.933600, 684167360.000000, 50.259998,  23.100000,  71.190002, 0.000000,  0.000000 
 7078912.000000, -10.779665 , -0.287139, 2.519642, 684187328.000000, 62.510002,  13.860000,  55.299999, 0.000000,  0.000000 
 7098624.000000, -11.322837 , -0.708275, 2.299503, 684207680.000000, 55.790001,  13.650000,  39.130001, 0.000000,  0.000000 
 7118592.000000, -11.708081 , -1.864009, 2.065006, 684227328.000000, 20.580000,  11.620000,  28.210001, 0.000000,  0.000000 
 7138624.000000, -10.951948 , -2.443072, 1.404587, 684247360.000000, -16.730000,  -0.420000,  18.549999, 0.000000,  0.000000 
 7158592.000000, -11.854043 , -2.658426, 1.328017, 684267328.000000, -26.040001,  -20.860001,  12.180000, 0.000000,  0.000000 
 7178880.000000, -15.038890 , -2.644069, 1.818545, 684287296.000000, -22.400000,  -16.660000,  3.290000, 0.000000,  0.000000 
 7198592.000000, -16.091732 , -1.993221, 1.495514, 684307584.000000, -24.010000,  9.520000,  -4.270000, 0.000000,  0.000000 
 7218560.000000, -13.406984 , -0.892523, 0.988236, 684327296.000000, -13.160000,  -11.690000,  -8.260000, 0.000000,  0.000000 
 7238528.000000, -11.765509 , -0.622134, 1.351945, 684347264.000000, 3.920000,  -55.020000,  -7.070000, 0.000000,  0.000000 
 7258560.000000, -10.949556 , -0.928415, 2.112862, 684367232.000000, -10.150000,  -57.820000,  -20.860001, 0.000000,  0.000000 
 7278848.000000, -10.394422 , -0.713061, 1.923829, 684387264.000000, -27.299999,  -49.630001,  -40.459999, 0.000000,  0.000000 
 7298496.000000, -10.004392 , -0.217747, 1.339981, 684407552.000000, -18.270000,  -49.560001,  -59.290001, 0.000000,  0.000000 
 7318528.000000, -9.631111 , -0.074178, 1.519442, 684427200.000000, -12.810000,  -46.619999,  -69.930000, 0.000000,  0.000000 
 7338496.000000, -8.819944 , -0.019143, 1.679761, 684447232.000000, -18.129999,  -42.420002,  -77.349998, 0.000000,  0.000000 
 7358464.000000, -7.779066 , 0.069392, 1.701297, 684467200.000000, -15.610000,  -44.799999,  -76.160004, 0.000000,  0.000000 
 7378880.000000, -6.683154 , 0.052642, 1.229911, 684487232.000000, -8.120000,  -49.279999,  -66.360001, 0.000000,  0.000000 
 7398464.000000, -5.697310 , -0.133998, 0.485743, 684507584.000000, -10.290000,  -52.709999,  -54.320000, 0.000000,  0.000000 
 7418432.000000, -5.534599 , -0.296710, -0.055035, 684527168.000000, -18.620001,  -50.400002,  -42.630001, 0.000000,  0.000000 
 7438400.000000, -5.996413 , -0.078963, 0.028714, 684547136.000000, -27.090000,  -37.869999,  -34.090000, 0.000000,  0.000000 
 7458432.000000, -6.216553 , 0.406780, -0.648455, 684567168.000000, -24.920000,  -23.309999,  -26.460001, 0.000000,  0.000000 
 7478720.000000, -6.161518 , 1.117448, -0.959522, 684587136.000000, -10.710000,  -21.980000,  -17.010000, 0.000000,  0.000000 
 7498368.000000, -6.139983 , 1.483550, -0.985843, 684607424.000000, -14.350000,  -22.960001,  -13.160000, 0.000000,  0.000000 
 7518400.000000, -6.398407 , 0.993021, -0.392423, 684627136.000000, -33.740002,  -17.080000,  -7.910000, 0.000000,  0.000000 
 7538368.000000, -6.750153 , 0.291924, 0.643669, 684647104.000000, -59.430000,  -9.380000,  -6.440000, 0.000000,  0.000000 
 7558336.000000, -7.477571 , -0.370888, 1.024128, 684667072.000000, -77.910004,  1.890000,  -0.910000, 0.000000,  0.000000 
 7578688.000000, -9.008978 , -1.232304, 0.674776, 684687104.000000, -77.209999,  15.400000,  9.590000, 0.000000,  0.000000 
 7598528.000000, -11.758330 , -2.146362, 0.949951, 684707392.000000, -72.239998,  37.660000,  17.570000, 0.000000,  0.000000 
 7618304.000000, -15.278172 , -2.612962, 1.024128, 684727232.000000, -70.070000,  69.650002,  26.040001, 0.000000,  0.000000 
 7638336.000000, -18.714266 , -4.003192, 2.388037, 684747072.000000, -56.980000,  89.180000,  43.259998, 0.000000,  0.000000 
 7658304.000000, -20.858232 , -4.615755, 5.201996, 684767040.000000, -26.670000,  93.590004,  69.090004, 0.000000,  0.000000 
 7678592.000000, -15.747166 , -2.651247, 5.601598, 684787008.000000, 5.740000,  94.430000,  94.919998, 0.000000,  0.000000 
 7698304.000000, -11.413764 , 0.157926, 4.828716, 684807360.000000, 72.099998,  33.810001,  105.629997, 0.000000,  0.000000 
 7718272.000000, -10.128819 , 1.679761, 4.388437, 684846976.000000, 107.379997,  12.600000,  36.189999, 744835712.000000,  1010.466858 
 7738240.000000, -11.705689 , 0.964308, 3.586841, 0.000000, 0.000000,  0.000000,  0.000000, 0.000000,  0.000000 
 7758272.000000, -12.736995 , -0.217747, 2.318645, 684867008.000000, 71.750000,  29.889999,  -6.090000, 0.000000,  0.000000 
 7778560.000000, -11.351551 , -1.395016, 1.773082, 684886976.000000, 45.220001,  14.350000,  -27.790001, 0.000000,  0.000000 
 7798208.000000, -9.576077 , -1.919044, 1.789831, 684907264.000000, 15.820000,  -22.120001,  -30.240000, 0.000000,  0.000000 
 7818240.000000, -8.087741 , -1.591227, 1.966900, 684926976.000000, -14.910000,  -41.509998,  -31.920000, 0.000000,  0.000000 
 7838208.000000, -6.592227 , -0.763310, 1.952543, 684946944.000000, -32.970001,  -47.250000,  -33.250000, 0.000000,  0.000000 
 7858176.000000, -5.295317 , -0.045464, 1.804188, 684966912.000000, -43.750000,  -49.770000,  -32.200001, 0.000000,  0.000000 
 7878528.000000, -4.670790 , -0.421137, 1.885544, 684986944.000000, -64.540001,  -46.060001,  -32.130001, 0.000000,  0.000000 
 7898176.000000, -4.709075 , -1.363909, 1.957329, 685007232.000000, -87.849998,  -35.070000,  -33.670002, 0.000000,  0.000000 
 7918208.000000, -5.044070 , -2.242075, 2.069792, 685026880.000000, -100.590004,  -21.700001,  -31.990000, 0.000000,  0.000000 
 7938176.000000, -5.529813 , -2.964707, 2.091327, 685046912.000000, -95.199997,  -12.600000,  -26.670000, 0.000000,  0.000000 
 7958144.000000, -6.312266 , -3.261417, 2.088934, 685066880.000000, -72.029999,  -7.490000,  -17.710001, 0.000000,  0.000000 
 7978432.000000, -7.412964 , -3.397808, 1.847259, 685086848.000000, -39.970001,  -1.120000,  -4.830000, 0.000000,  0.000000 
 7998144.000000, -8.276773 , -3.890730, 1.459622, 685107200.000000, -10.080000,  1.260000,  9.240000, 0.000000,  0.000000 
 8018112.000000, -8.626125 , -4.156333, 1.406980, 685126848.000000, 3.360000,  -1.190000,  22.820000, 0.000000,  0.000000 
 8038080.000000, -8.449057 , -4.252046, 1.509871, 685146816.000000, 8.330000,  -7.140000,  30.240000, 0.000000,  0.000000 
 8058112.000000, -8.669197 , -3.881158, 1.540978, 685166848.000000, 19.670000,  -9.940000,  30.450001, 0.000000,  0.000000 
 8078400.000000, -9.793823 , -3.409772, 1.775474, 685186816.000000, 37.380001,  -4.550000,  14.910000, 0.000000,  0.000000 
 8098048.000000, -11.775080 , -2.904887, 1.964507, 685207104.000000, 54.250000,  7.210000,  -5.740000, 0.000000,  0.000000 
 8118080.000000, -12.605389 , -1.926222, 1.493121, 685226752.000000, 64.120003,  16.450001,  -26.530001, 0.000000,  0.000000 
 8138048.000000, -12.600604 , -1.452443, 0.023928, 685266752.000000, 78.470001,  -8.680000,  -50.889999, 0.000000,  0.000000 
 8158016.000000, -16.280766 , -2.737389, 0.373280, 0.000000, 0.000000,  0.000000,  0.000000, 0.000000,  0.000000 
 8178304.000000, -19.240686 , -4.086941, 1.631905, 685286720.000000, 40.320000,  22.190001,  -66.080002, 0.000000,  0.000000 
 8198016.000000, -16.134804 , -3.122634, 1.615155, 685307072.000000, 4.130000,  32.549999,  -67.059998, 0.000000,  0.000000 
 8217984.000000, -12.854243 , -1.399801, 0.679562, 685326720.000000, 31.430000,  -11.340000,  -56.630001, 0.000000,  0.000000 
 8237952.000000, -11.236694 , -0.758525, 0.598206, 685346688.000000, 50.820000,  -30.870001,  -53.689999, 0.000000,  0.000000 
 8257984.000000, -9.621540 , -0.478565, 1.028914, 685366720.000000, 32.619999,  -23.730000,  -59.290001, 0.000000,  0.000000 
 8278272.000000, -8.118847 , -0.098106, 1.316052, 685386688.000000, 22.680000,  -24.780001,  -62.160000, 0.000000,  0.000000 
 8297920.000000, -7.735995 , -0.401994, 1.974079, 685406976.000000, 19.950001,  -23.309999,  -61.459999, 0.000000,  0.000000 
 8317952.000000, -8.231310 , -1.215554, 2.349752, 685426688.000000, 8.820000,  -6.650000,  -61.250000, 0.000000,  0.000000 
 8337920.000000, -8.327023 , -1.538585, 2.481357, 685446656.000000, 2.660000,  10.220000,  -55.439999, 0.000000,  0.000000 
 8357888.000000, -7.350751 , -0.882952, 2.323431, 685466624.000000, 12.810000,  13.020000,  -39.270000, 0.000000,  0.000000 
 8378240.000000, -6.266802 , -0.418744, 1.995614, 685486656.000000, 32.340000,  1.750000,  -19.530001, 0.000000,  0.000000 
 8397888.000000, -5.714060 , -0.327817, 2.014757, 685506944.000000, 44.380001,  -5.810000,  -3.290000, 0.000000,  0.000000 
 8417856.000000, -5.699703 , -0.198604, 1.897508, 685526592.000000, 46.759998,  -7.000000,  7.630000, 0.000000,  0.000000 
 8437888.000000, -5.800202 , -0.126820, 1.490728, 685546624.000000, 51.869999,  -7.070000,  13.160000, 0.000000,  0.000000 
 8457856.000000, -6.001199 , -0.196211, 0.961915, 685566592.000000, 64.820000,  -12.040000,  16.520000, 0.000000,  0.000000 
 8478144.000000, -6.678369 , -0.088534, 0.713061, 685586560.000000, 73.779999,  -14.280000,  19.320000, 0.000000,  0.000000 
 8497856.000000, -7.286145 , 0.059821, 0.780060, 685606912.000000, 70.769997,  -9.520000,  22.120001, 0.000000,  0.000000 
 8517824.000000, -7.625926 , 0.220140, 0.792024, 685626560.000000, 59.709999,  -4.060000,  29.469999, 0.000000,  0.000000 
 8537792.000000, -7.747960 , 0.133998, 0.519243, 685646528.000000, 43.400002,  -2.730000,  36.189999, 0.000000,  0.000000 
 8557824.000000, -8.482556 , -0.471386, -0.138784, 685666560.000000, 21.629999,  -2.940000,  42.910000, 0.000000,  0.000000 
 8578112.000000, -10.597812 , -1.332802, -0.153141, 685686528.000000, -3.920000,  7.420000,  48.369999, 0.000000,  0.000000 
 8597760.000000, -13.789837 , -1.622334, -0.318245, 685706816.000000, -31.150000,  36.680000,  55.020000, 0.000000,  0.000000 
 8617792.000000, -17.149361 , -2.227718, -1.426122, 685726528.000000, -51.380001,  63.490002,  66.709999, 0.000000,  0.000000 
 8637760.000000, -20.925234 , -3.349952, -0.468993, 685746496.000000, -63.560001,  69.720001,  77.209999, 0.000000,  0.000000 
 8657728.000000, -17.548960 , -3.326023, 2.364109, 685766464.000000, -90.019997,  90.510002,  86.730003, 0.000000,  0.000000 
 8678080.000000, -12.535997 , -1.789831, 3.158526, 685786496.000000, -90.790001,  52.779999,  106.050003, 0.000000,  0.000000 
 8697728.000000, -11.193624 , -0.538385, 3.749553, 685806784.000000, -53.689999,  21.910000,  101.080002, 0.000000,  0.000000 
 8717696.000000, -12.083755 , -0.153141, 3.950550, 685826432.000000, -37.730000,  49.630001,  72.519997, 0.000000,  0.000000 
 8737728.000000, -12.114861 , -0.296710, 3.203990, 685846464.000000, -44.380001,  73.779999,  38.779999, 745835136.000000,  1010.483765 
 8757696.000000, -10.700702 , -1.201197, 2.361716, 685866432.000000, -47.040001,  63.279999,  13.930000, 0.000000,  0.000000 
 8777984.000000, -9.358330 , -1.646262, 1.430908, 685886400.000000, -47.599998,  37.799999,  3.360000, 0.000000,  0.000000 
 8797696.000000, -7.987241 , -1.550549, 1.124627, 685906752.000000, -51.450001,  17.570000,  -2.870000, 0.000000,  0.000000 
 8817664.000000, -6.752545 , -1.165305, 1.426122, 685926400.000000, -55.439999,  3.640000,  -0.700000, 0.000000,  0.000000 
 8837632.000000, -5.972485 , -0.964308, 2.026721, 685946368.000000, -64.470001,  -1.820000,  2.520000, 0.000000,  0.000000 
 8857664.000000, -5.510671 , -1.198804, 2.644069, 685966400.000000, -81.410004,  1.890000,  7.770000, 0.000000,  0.000000 
 8877952.000000, -5.321638 , -1.780260, 3.017349, 685986368.000000, -94.919998,  8.540000,  12.950000, 0.000000,  0.000000 
 8897600.000000, -5.245068 , -2.411965, 2.813959, 686006656.000000, -94.779999,  11.480000,  19.809999, 0.000000,  0.000000 
 8917632.000000, -5.998806 , -3.098706, 2.746960, 686026368.000000, -74.480003,  11.760000,  25.200001, 0.000000,  0.000000 
 8937600.000000, -7.369894 , -3.474378, 3.046063, 686046400.000000, -42.209999,  15.120000,  34.509998, 0.000000,  0.000000 
 8957568.000000, -7.932207 , -3.608376, 3.438486, 686066304.000000, -13.580000,  22.400000,  37.590000, 0.000000,  0.000000 
 8977920.000000, -8.764909 , -3.543770, 3.493521, 686086336.000000, 12.950000,  22.820000,  41.299999, 0.000000,  0.000000 
 8997568.000000, -8.748159 , -3.136991, 3.242275, 686106624.000000, 43.470001,  13.230000,  42.070000, 0.000000,  0.000000 
 9017536.000000, -8.633304 , -2.053042, 2.861816, 686126272.000000, 75.599998,  1.050000,  38.290001, 0.000000,  0.000000 
 9037568.000000, -8.367701 , -1.337588, 2.388037, 686146304.000000, 93.029999,  -9.660000,  27.440001, 0.000000,  0.000000 
 9057536.000000, -8.944371 , -1.698904, 2.258825, 686166272.000000, 89.180000,  -17.780001,  12.040000, 0.000000,  0.000000 
 9077824.000000, -10.588240 , -2.455036, 2.294717, 686186240.000000, 70.629997,  -15.890000,  -6.160000, 0.000000,  0.000000 
 9097536.000000, -12.878171 , -2.916851, 1.698904, 686206592.000000, 49.700001,  -5.880000,  -20.510000, 0.000000,  0.000000 
 9117504.000000, -14.979070 , -3.345166, 0.751346, 686226240.000000, 41.160000,  -0.700000,  -28.139999, 0.000000,  0.000000 
 9137472.000000, -16.644474 , -3.873980, 0.897308, 686246208.000000, 45.709999,  -3.990000,  -31.639999, 0.000000,  0.000000 
 9157504.000000, -17.072790 , -3.529413, 1.746760, 686266240.000000, 51.029999,  -10.080000,  -33.529999, 0.000000,  0.000000 
 9177792.000000, -15.342779 , -1.330409, 1.215554, 686286208.000000, 63.420002,  -22.889999,  -31.500000, 0.000000,  0.000000 
 9197440.000000, -13.086348 , 0.098106, 0.607777, 686306496.000000, 79.870003,  -49.420002,  -28.559999, 0.000000,  0.000000 
 9217472.000000, -10.956735 , -0.519243, 0.681954, 686326208.000000, 61.599998,  -68.949997,  -33.320000, 0.000000,  0.000000 
 9237440.000000, -10.016356 , -1.495514, 0.990629, 686366144.000000, -15.540000,  -62.650002,  -62.439999, 0.000000,  0.000000 
 9257408.000000, -9.810574 , -1.658226, 1.399801, 0.000000, 0.000000,  0.000000,  0.000000, 0.000000,  0.000000 
 9277760.000000, -9.949356 , -0.947558, 1.186840, 686386176.000000, -14.350000,  -48.580002,  -72.169998, 0.000000,  0.000000 
 9297408.000000, -9.274581 , -0.459422, 1.476372, 686406464.000000, -6.720000,  -39.970001,  -76.019997, 0.000000,  0.000000 
 9317376.000000, -8.228917 , -0.358923, 1.931008, 686426112.000000, -8.260000,  -41.369999,  -75.879997, 0.000000,  0.000000 
 9337408.000000, -7.104291 , -0.483350, 2.148755, 686446144.000000, -7.840000,  -43.750000,  -70.000000, 0.000000,  0.000000 
 9357376.000000, -6.084948 , -0.612563, 2.182254, 686466112.000000, -4.340000,  -44.240002,  -59.849998, 0.000000,  0.000000 
 9377664.000000, -5.094319 , -0.464208, 1.919044, 686486080.000000, -1.260000,  -45.500000,  -51.450001, 0.000000,  0.000000 
 9397376.000000, -4.304688 , -0.349352, 1.545763, 686506368.000000, 5.040000,  -45.500000,  -42.770000, 0.000000,  0.000000 
 9417344.000000, -4.252046 , -0.394816, 1.330409, 686526080.000000, 16.100000,  -42.349998,  -32.270000, 0.000000,  0.000000 
 9437312.000000, -5.268995 , -0.232104, 1.196411, 686546048.000000, 32.480000,  -32.900002,  -25.830000, 0.000000,  0.000000 
 9457344.000000, -6.692725 , 0.133998, 0.466600, 686566016.000000, 51.310001,  -18.270000,  -19.600000, 0.000000,  0.000000 
 9477632.000000, -7.532606 , 0.222532, -0.239282, 686586048.000000, 68.389999,  -11.550000,  -9.030000, 0.000000,  0.000000 
 9497280.000000, -8.291130 , 0.787239, -0.988236, 686606336.000000, 73.220001,  -13.510000,  3.150000, 0.000000,  0.000000 
 9517248.000000, -10.076177 , 0.674776, -1.770689, 686625984.000000, 59.430000,  -14.280000,  13.510000, 0.000000,  0.000000 
 9537280.000000, -14.400006 , 0.246461, -2.249253, 686646016.000000, 28.630001,  2.310000,  19.950001, 0.000000,  0.000000 
 9557248.000000, -19.673786 , -0.684347, -1.624727, 686665984.000000, -25.059999,  48.650002,  24.290001, 0.000000,  0.000000 
 9577600.000000, -18.742979 , -0.890130, -0.813560, 686685952.000000, -70.139999,  74.830002,  28.280001, 0.000000,  0.000000 
 9597248.000000, -16.852650 , -0.461815, 0.780060, 686706304.000000, -66.500000,  30.380001,  48.299999, 0.000000,  0.000000 
 9617216.000000, -16.120445 , -0.330210, 2.457429, 686725952.000000, -54.529999,  29.750000,  62.299999, 0.000000,  0.000000 
 9637184.000000, -14.584253 , 0.236889, 3.450450, 686745920.000000, -54.180000,  56.279999,  53.549999, 0.000000,  0.000000 
 9657216.000000, -13.641481 , 1.526621, 3.562913, 686765952.000000, -22.680000,  62.510002,  45.500000, 0.000000,  0.000000 
 9677504.000000, -12.880564 , 1.540978, 2.359323, 686785920.000000, 15.190001,  68.250000,  33.670002, 0.000000,  0.000000 
 9697152.000000, -11.844472 , 0.892523, 1.397408, 686806208.000000, 33.529999,  63.980000,  22.960001, 0.000000,  0.000000 
 9717184.000000, -10.585848 , 0.387637, 1.311267, 686845888.000000, 24.780001,  39.270000,  26.530001, 746834560.000000,  1010.501282 
 9737152.000000, -9.315259 , -0.291924, 1.543371, 0.000000, 0.000000,  0.000000,  0.000000, 0.000000,  0.000000 
 9757120.000000, -8.001599 , -0.756132, 2.060220, 686885888.000000, 15.330000,  35.139999,  51.029999, 0.000000,  0.000000 
 9777472.000000, -7.018148 , -0.406780, 2.464607, 0.000000, 0.000000,  0.000000,  0.000000, 0.000000,  0.000000 
 9797120.000000, -6.699903 , 0.033500, 2.132005, 686906176.000000, 15.540000,  40.880001,  60.619999, 0.000000,  0.000000 
 9817088.000000, -6.731010 , 0.095713, 2.103291, 686925824.000000, 10.990000,  49.349998,  65.239998, 0.000000,  0.000000 
 9837120.000000, -6.611369 , -0.409173, 2.553142, 686945856.000000, -10.710000,  55.230000,  66.779999, 0.000000,  0.000000 
 9857088.000000, -6.427122 , -0.844666, 3.393023, 686965824.000000, -33.880001,  55.720001,  69.230003, 0.000000,  0.000000 
 9877376.000000, -6.384050 , -1.660619, 3.885944, 686985792.000000, -51.170002,  54.740002,  70.139999, 0.000000,  0.000000 
 9897088.000000, -6.996613 , -2.787638, 4.297509, 687006144.000000, -54.250000,  55.860001,  71.330002, 0.000000,  0.000000 
 9917120.000000, -8.563912 , -3.383451, 4.888536, 687025792.000000, -38.779999,  60.410000,  70.769997, 0.000000,  0.000000 
 9937024.000000, -10.621738 , -3.318845, 4.249653, 687045824.000000, -3.570000,  65.309998,  69.370003, 0.000000,  0.000000 
 9957056.000000, -11.964113 , -3.251846, 3.163311, 687065792.000000, 29.330000,  59.639999,  63.770000, 0.000000,  0.000000 
 9977344.000000, -11.851650 , -3.493521, 2.467000, 687085760.000000, 38.360001,  34.650002,  52.709999, 0.000000,  0.000000 
 9996992.000000, -12.186646 , -3.400201, 3.041277, 687106048.000000, 27.719999,  3.780000,  34.230000, 0.000000,  0.000000 
 10017024.000000, -14.294723 , -3.275774, 3.328416, 687125760.000000, 13.020000,  -3.710000,  7.280000, 0.000000,  0.000000 
 10036992.000000, -17.056040 , -3.158526, 2.522035, 687145728.000000, 11.550000,  3.780000,  -19.040001, 0.000000,  0.000000 
 10056960.000000, -16.460228 , -2.787638, 0.847059, 687165696.000000, 10.500000,  2.660000,  -38.150002, 0.000000,  0.000000 
 10077312.000000, -12.490535 , -1.785046, 0.468993, 687185728.000000, 16.520000,  -31.080000,  -44.799999, 0.000000,  0.000000 
 10096960.000000, -9.052048 , -1.270589, 0.748954, 687206016.000000, 30.730000,  -82.040001,  -53.760002, 0.000000,  0.000000 
 10116928.000000, -8.109276 , -1.225125, 1.244268, 687225664.000000, 41.090000,  -99.889999,  -74.760002, 0.000000,  0.000000 
 10136960.000000, -9.997212 , -1.162912, 1.337588, 687245696.000000, 49.139999,  -84.349998,  -101.430000, 0.000000,  0.000000 
 10156928.000000, -13.177275 , -1.631905, 1.478764, 687265664.000000, 47.250000,  -52.009998,  -117.599998, 0.000000,  0.000000 
 10177216.000000, -15.046068 , -2.624927, 1.478764, 687285632.000000, 31.990000,  -33.599998,  -123.550003, 0.000000,  0.000000 
 10196928.000000, -14.012369 , -3.156133, 0.301496, 687305984.000000, 18.830000,  -48.860001,  -121.520004, 0.000000,  0.000000 
 10216896.000000, -11.765509 , -2.770889, -0.294317, 687325632.000000, 21.910000,  -82.739998,  -112.000000, 0.000000,  0.000000 
 10236864.000000, -10.301102 , -2.292324, -0.131605, 687345600.000000, 29.820000,  -107.239998,  -103.250000, 0.000000,  0.000000 
 10256896.000000, -9.540184 , -1.665405, 0.205783, 687365632.000000, 29.610001,  -109.270004,  -101.010002, 0.000000,  0.000000 
 10277184.000000, -9.501899 , -0.753739, 0.361316, 687385600.000000, 33.040001,  -101.220001,  -103.809998, 0.000000,  0.000000 
 10296832.000000, -9.559326 , -0.382852, 0.291924, 687405888.000000, 35.630001,  -92.120003,  -110.110001, 0.000000,  0.000000 
 10316864.000000, -9.518648 , -0.734596, 0.198604, 687425600.000000, 27.090000,  -86.660004,  -112.840004, 0.000000,  0.000000 
 10336832.000000, -9.420543 , -1.189233, 0.701097, 687445568.000000, 12.600000,  -81.760002,  -114.309998, 0.000000,  0.000000 
 10356800.000000, -9.418150 , -1.229911, 0.545564, 687465536.000000, 2.870000,  -77.980003,  -111.860001, 0.000000,  0.000000 
 10377152.000000, -9.107083 , -0.851845, 0.363709, 687485568.000000, 5.040000,  -75.809998,  -106.680000, 0.000000,  0.000000 
 10396800.000000, -8.504091 , -0.473779, -0.059821, 687505856.000000, 17.639999,  -78.610001,  -94.290001, 0.000000,  0.000000 
 10416768.000000, -8.056634 , -0.547956, -0.325424, 687545536.000000, 23.520000,  -77.209999,  -62.580002, 0.000000,  0.000000 
 10436800.000000, -8.386844 , -0.870987, -0.423530, 0.000000, 0.000000,  0.000000,  0.000000, 0.000000,  0.000000 
 10456768.000000, -9.121440 , -0.875773, -0.600598, 687565504.000000, 14.490000,  -62.580002,  -49.630001, 0.000000,  0.000000 
 10477056.000000, -9.198010 , -0.323031, -1.098306, 687585472.000000, 14.140000,  -47.670002,  -36.889999, 0.000000,  0.000000 
 10496768.000000, -8.867801 , 0.248854, -1.009771, 687605760.000000, 26.320000,  -42.770000,  -20.790001, 0.000000,  0.000000 
 10516736.000000, -8.370094 , 0.825524, -1.292124, 687625472.000000, 36.820000,  -36.189999,  -9.380000, 0.000000,  0.000000 
 10536704.000000, -8.353344 , 1.713261, -2.203789, 687645440.000000, 45.709999,  -25.270000,  2.520000, 0.000000,  0.000000 
 10556736.000000, -9.250652 , 2.053042, -2.665605, 687665472.000000, 52.080002,  -7.770000,  17.219999, 0.000000,  0.000000 
 10577024.000000, -10.612168 , 1.457229, -1.957329, 687685440.000000, 29.260000,  21.420000,  31.219999, 0.000000,  0.000000 
 10596672.000000, -11.205588 , -0.399601, -1.064806, 687705728.000000, -37.099998,  50.820000,  39.759998, 0.000000,  0.000000 
 10616704.000000, -11.885150 , -1.971686, -0.512064, 687745408.000000, -99.400002,  76.930000,  74.410004, 0.000000,  0.000000 
 10636672.000000, -13.270595 , -1.631905, 0.294317, 0.000000, 0.000000,  0.000000,  0.000000, 0.000000,  0.000000 
 10656640.000000, -14.316258 , -0.988236, 1.002593, 687765376.000000, -95.410004,  97.580002,  94.290001, 0.000000,  0.000000 
 10676928.000000, -15.988840 , -1.081556, 2.734996, 687785408.000000, -93.449997,  107.660004,  109.340004, 0.000000,  0.000000 
 10696640.000000, -16.730616 , -1.473979, 3.701697, 687805696.000000, -97.580002,  122.430000,  116.970001, 0.000000,  0.000000 
 10716608.000000, -14.993427 , -1.818545, 2.849852, 687825344.000000, -94.080002,  121.449997,  127.610001, 0.000000,  0.000000 
 10736640.000000, -12.710674 , -1.660619, 1.962115, 687845376.000000, -62.720001,  95.199997,  133.279999, 747834048.000000,  1010.518738 
 10756608.000000, -11.413764 , -1.622334, 2.103291, 687865344.000000, -38.570000,  79.660004,  134.050003, 0.000000,  0.000000 
 10776896.000000, -10.169496 , -1.911865, 2.715853, 687885312.000000, -40.180000,  74.970001,  126.980003, 0.000000,  0.000000 
 10796608.000000, -9.020942 , -1.701297, 3.029313, 687925312.000000, -33.670002,  66.290001,  111.440002, 0.000000,  0.000000 
 10816576.000000, -8.202596 , -1.256232, 2.790031, 0.000000, 0.000000,  0.000000,  0.000000, 0.000000,  0.000000 
 10836544.000000, -7.817351 , -1.138984, 2.502892, 687945280.000000, -19.530001,  64.260002,  105.139999, 0.000000,  0.000000 
 10856576.000000, -7.640282 , -0.885344, 2.266003, 687965312.000000, -19.600000,  66.290001,  99.120003, 0.000000,  0.000000 
 10876864.000000, -6.960721 , -1.844866, 2.364109, 687985280.000000, -36.750000,  65.870003,  93.309998, 0.000000,  0.000000 
 10896512.000000, -6.759724 , -2.227718, 2.766103, 688005568.000000, -51.310001,  59.220001,  91.559998, 0.000000,  0.000000 
 10916544.000000, -6.778866 , -2.840281, 3.251846, 688045312.000000, -50.189999,  48.160000,  97.300003, 0.000000,  0.000000 
 10936512.000000, -6.977471 , -3.548556, 3.156133, 0.000000, 0.000000,  0.000000,  0.000000, 0.000000,  0.000000 
 10956480.000000, -7.479963 , -4.065405, 2.854637, 688065216.000000, -33.459999,  43.959999,  102.760002, 0.000000,  0.000000 
 10976768.000000, -8.307880 , -4.474578, 2.995814, 688085248.000000, -15.960000,  42.070000,  103.599998, 0.000000,  0.000000 
 10996480.000000, -8.829515 , -4.694718, 3.649055, 688105536.000000, -4.550000,  42.139999,  100.379997, 0.000000,  0.000000 
 11016448.000000, -8.336594 , -4.529613, 4.352544, 688125184.000000, 11.480000,  35.490002,  91.840004, 0.000000,  0.000000 
 11036480.000000, -7.929814 , -4.000800, 4.201797, 688145216.000000, 32.759998,  20.719999,  75.949997, 0.000000,  0.000000 
 11056448.000000, -7.716853 , -2.553142, 3.160919, 688165184.000000, 53.900002,  6.510000,  45.779999, 0.000000,  0.000000 
 11076736.000000, -7.826923 , -2.103291, 2.347359, 688185152.000000, 62.720001,  -4.970000,  11.480000, 0.000000,  0.000000 
 11096448.000000, -9.308081 , -2.675175, 2.060220, 688205440.000000, 48.299999,  -10.010000,  -16.799999, 0.000000,  0.000000 
 11116416.000000, -11.425728 , -3.065206, 1.304088, 688225152.000000, 18.620001,  -0.840000,  -40.180000, 0.000000,  0.000000 
 11136384.000000, -14.330614 , -3.933800, 0.533599, 688245120.000000, 16.379999,  1.960000,  -54.740002, 0.000000,  0.000000 
 11156416.000000, -19.116261 , -5.525027, 1.502693, 688265152.000000, 25.900000,  -1.610000,  -66.220001, 0.000000,  0.000000 
 11176704.000000, -19.757536 , -5.424529, 2.021935, 688285120.000000, 17.290001,  5.740000,  -75.389999, 0.000000,  0.000000 
 11196352.000000, -16.027126 , -2.524428, 0.825524, 688305408.000000, 32.270000,  -33.529999,  -76.510002, 0.000000,  0.000000 
 11216320.000000, -14.438292 , -0.937986, 0.390030, 688325056.000000, 73.989998,  -95.760002,  -76.019997, 0.000000,  0.000000 
 11236352.000000, -14.108082 , -1.186840, 0.660419, 688345088.000000, 58.310001,  -103.320000,  -96.669998, 0.000000,  0.000000 
 11256320.000000, -13.540984 , -0.875773, 0.452243, 688365056.000000, 23.309999,  -101.080002,  -128.100006, 0.000000,  0.000000 
 11276608.000000, -12.504892 , -1.136591, 0.476172, 688385024.000000, 17.990000,  -109.410004,  -153.720001, 0.000000,  0.000000 
 11296320.000000, -11.624333 , -1.646262, 1.012164, 688405376.000000, 12.600000,  -114.940002,  -173.809998, 0.000000,  0.000000 
 11316288.000000, -10.971091 , -1.663012, 1.471586, 688425024.000000, 7.980000,  -113.680000,  -190.960007, 0.000000,  0.000000 
 11336256.000000, -10.322637 , -0.813560, 1.237089, 688444992.000000, 16.940001,  -110.529999,  -200.899994, 0.000000,  0.000000 
 11356288.000000, -8.865408 , 0.153141, 0.722632, 688465024.000000, 30.170000,  -109.830002,  -200.059998, 0.000000,  0.000000 
 11376576.000000, -6.649654 , 0.607777, 0.390030, 688484992.000000, 40.110001,  -119.000000,  -187.389999, 0.000000,  0.000000 
 11396224.000000, -4.835894 , 0.196211, 0.459422, 688505280.000000, 34.090000,  -129.779999,  -168.350006, 0.000000,  0.000000 
 11416256.000000, -4.929214 , -0.363709, 0.473779, 688524992.000000, 12.110000,  -124.809998,  -147.630005, 0.000000,  0.000000 
 11436224.000000, -6.692725 , -0.926022, 0.083749, 688544960.000000, -15.400000,  -95.970001,  -125.160004, 0.000000,  0.000000 
 11456192.000000, -8.068598 , -1.153341, -0.559920, 688564928.000000, -23.940001,  -66.150002,  -99.470001, 0.000000,  0.000000 
 11476544.000000, -8.530413 , -1.052842, -0.851845, 688584960.000000, -13.720000,  -53.410000,  -69.860001, 0.000000,  0.000000 
 11496192.000000, -9.188439 , -0.344566, -0.909273, 688605248.000000, 6.440000,  -54.459999,  -41.790001, 0.000000,  0.000000 
 11516160.000000, -9.863215 , 1.081556, -0.519243, 688624896.000000, 26.809999,  -45.500000,  -21.559999, 0.000000,  0.000000 
 11536192.000000, -9.657433 , 2.136791, -0.411566, 688644928.000000, 34.790001,  -34.509998,  -4.130000, 0.000000,  0.000000 
 11556160.000000, -9.253045 , 1.521835, 0.222532, 688664896.000000, 22.820000,  -35.420002,  7.140000, 0.000000,  0.000000 
 11576448.000000, -10.291530 , 0.301496, 0.038285, 688684864.000000, -7.840000,  -27.719999,  13.300000, 0.000000,  0.000000 
 11596288.000000, -11.743973 , -0.275175, -1.502693, 688705216.000000, -30.309999,  3.430000,  23.240000, 0.000000,  0.000000 
 11616128.000000, -13.531413 , -1.744368, -2.031506, 688725056.000000, -36.400002,  18.340000,  35.700001, 0.000000,  0.000000 
 11636096.000000, -16.060625 , -3.314059, -0.746561, 688744832.000000, -55.090000,  45.360001,  56.349998, 0.000000,  0.000000 
 11656128.000000, -15.806986 , -3.388237, 0.875773, 688764864.000000, -83.160004,  83.860001,  85.680000, 0.000000,  0.000000 
 11676416.000000, -12.667603 , -1.904687, 2.184647, 688784832.000000, -71.470001,  93.730003,  118.300003, 0.000000,  0.000000 
 11696064.000000, -11.519048 , -0.748954, 2.438286, 688805120.000000, -44.660000,  91.489998,  144.830002, 0.000000,  0.000000 
 11716096.000000, -12.940384 , -1.452443, 1.885544, 688824832.000000, -47.740002,  117.739998,  154.699997, 0.000000,  0.000000 
 11736064.000000, -13.820943 , -3.739982, 1.445265, 688844800.000000, -80.080002,  140.000000,  151.199997, 748833472.000000,  1010.537842 
 11756032.000000, -12.942777 , -5.264209, 1.674976, 688864768.000000, -96.949997,  133.770004,  158.970001, 0.000000,  0.000000 
 11776320.000000, -11.420943 , -5.288138, 2.199004, 688884800.000000, -77.699997,  104.720001,  169.960007, 0.000000,  0.000000 
 11796032.000000, -10.389636 , -3.249453, 0.976272, 688905088.000000, -31.920000,  79.940002,  173.740005, 0.000000,  0.000000 
 11816000.000000, -9.013763 , -1.555335, 0.375673, 688924736.000000, 13.300000,  62.230000,  158.899994, 0.000000,  0.000000 
 11836032.000000, -7.649854 , -1.351945, 1.418944, 688944768.000000, 32.130001,  47.810001,  144.410004, 0.000000,  0.000000 
 11856000.000000, -7.393822 , -2.201397, 2.895315, 688964736.000000, -4.970000,  49.070000,  124.529999, 0.000000,  0.000000 
 11876288.000000, -8.398808 , -2.969493, 3.287738, 688984704.000000, -47.740002,  61.389999,  101.989998, 0.000000,  0.000000 
 11896000.000000, -9.327222 , -3.955336, 3.050849, 689004992.000000, -62.930000,  68.180000,  83.720001, 0.000000,  0.000000 
 11915968.000000, -9.662218 , -4.460221, 2.986243, 689044736.000000, -31.080000,  53.130001,  69.720001, 0.000000,  0.000000 
 11935936.000000, -8.980263 , -4.462614, 2.919244, 0.000000, 0.000000,  0.000000,  0.000000, 0.000000,  0.000000 
 11955968.000000, -8.836694 , -4.522435, 2.785245, 689064704.000000, -2.170000,  36.820000,  64.470001, 0.000000,  0.000000 
 11976256.000000, -9.597611 , -4.424329, 2.813959, 689084672.000000, 24.780001,  32.200001,  55.860001, 0.000000,  0.000000 
 11995904.000000, -10.602598 , -3.725625, 3.438486, 689104960.000000, 45.150002,  32.200001,  45.779999, 0.000000,  0.000000 
 12015936.000000, -12.119646 , -2.868994, 2.177469, 689124608.000000, 56.420002,  26.320000,  35.630001, 0.000000,  0.000000 
 12035904.000000, -13.840086 , -2.548356, 0.732204, 689144640.000000, 48.509998,  10.640000,  22.190001, 0.000000,  0.000000 
 12055872.000000, -15.560526 , -4.046263, 0.569492, 689164608.000000, 12.600000,  -8.680000,  14.280000, 0.000000,  0.000000 
 12076160.000000, -13.926227 , -4.340580, 1.174876, 689184576.000000, -46.830002,  -17.010000,  5.180000, 0.000000,  0.000000 
 12095872.000000, -10.968699 , -3.012564, 0.583849, 689204928.000000, -69.440002,  -52.779999,  -7.980000, 0.000000,  0.000000 
 12115840.000000, -10.554741 , -1.794617, 0.691526, 689224576.000000, -32.200001,  -82.809998,  -24.639999, 0.000000,  0.000000 
 12135872.000000, -12.780065 , -1.342373, -0.885344, 689244544.000000, -0.630000,  -73.150002,  -49.000000, 0.000000,  0.000000 
 12155840.000000, -15.577275 , -1.375873, -0.425922, 689264576.000000, 0.140000,  -49.490002,  -77.699997, 0.000000,  0.000000 
 12176128.000000, -14.947963 , -1.311267, 0.308674, 689284544.000000, -20.860001,  -35.700001,  -106.120003, 0.000000,  0.000000 
 12195840.000000, -11.736795 , 0.512064, 0.969093, 689304832.000000, -21.910000,  -59.290001,  -125.440002, 0.000000,  0.000000 
 12215808.000000, -9.860823 , 1.734797, 0.327817, 689324544.000000, 13.720000,  -80.290001,  -126.000000, 0.000000,  0.000000 
 12235776.000000, -8.779266 , 1.935793, 0.323031, 689344512.000000, 42.209999,  -73.360001,  -122.919998, 0.000000,  0.000000 
 12255808.000000, -7.716853 , 0.854238, 0.236889, 689364480.000000, 23.240000,  -57.260002,  -110.879997, 0.000000,  0.000000 
 12276096.000000, -6.692725 , -0.966700, 0.751346, 689384512.000000, -22.330000,  -50.119999,  -93.169998, 0.000000,  0.000000 
 12295744.000000, -5.898308 , -1.974079, 1.328017, 689404800.000000, -59.779999,  -47.320000,  -78.050003, 0.000000,  0.000000 
 12315712.000000, -5.637490 , -1.363909, 1.210768, 689424448.000000, -59.849998,  -43.400002,  -63.349998, 0.000000,  0.000000 
 12335744.000000, -6.108876 , 0.449851, 0.378066, 689444480.000000, -6.440000,  -36.610001,  -46.340000, 0.000000,  0.000000 
 12355712.000000, -6.537192 , 1.981257, -0.409173, 689464448.000000, 64.889999,  -28.070000,  -32.480000, 0.000000,  0.000000 
 12376128.000000, -6.580262 , 2.778067, -0.303888, 689484416.000000, 101.080002,  -29.960001,  -22.750000, 0.000000,  0.000000 
 12395712.000000, -6.671190 , 2.617748, -0.552742, 689504832.000000, 80.709999,  -36.470001,  -21.210001, 0.000000,  0.000000 
 12415680.000000, -7.800602 , 1.686940, -0.882952, 689524416.000000, 39.200001,  -38.849998,  -19.180000, 0.000000,  0.000000 
 12435648.000000, -9.291330 , 0.909273, -0.547956, 689544384.000000, -0.630000,  -26.389999,  -16.870001, 0.000000,  0.000000 
 12455680.000000, -9.408579 , 0.562313, -0.275175, 689564416.000000, -34.790001,  -11.200000,  -10.290000, 0.000000,  0.000000 
 12475968.000000, -7.525427 , 0.808774, 0.069392, 689584384.000000, -45.570000,  -12.600000,  3.780000, 0.000000,  0.000000 
 12495616.000000, -7.087541 , 0.363709, 0.155533, 689604672.000000, -41.369999,  -28.910000,  18.340000, 0.000000,  0.000000 
 12515648.000000, -10.057034 , -0.045464, 0.330210, 689624384.000000, -55.439999,  -12.110000,  25.760000, 0.000000,  0.000000 
 12535616.000000, -13.088740 , -0.971486, -0.011964, 689644352.000000, -84.209999,  35.700001,  29.820000, 0.000000,  0.000000 
 12555584.000000, -15.842879 , -3.046063, -0.930808, 689664320.000000, -94.919998,  51.730000,  39.200001, 0.000000,  0.000000 
 12575936.000000, -21.001806 , -4.371687, 0.708275, 689684352.000000, -88.199997,  55.020000,  50.540001, 0.000000,  0.000000 
 12595584.000000, -19.039690 , -2.313859, 2.390430, 689704640.000000, -88.900002,  88.970001,  59.920002, 0.000000,  0.000000 
 12615616.000000, -12.997812 , 0.368495, 3.424129, 689724288.000000, -51.869999,  53.830002,  79.730003, 0.000000,  0.000000 
 12635584.000000, -10.365707 , 0.550349, 2.979064, 689744320.000000, 4.760000,  15.260000,  89.320000, 0.000000,  0.000000 
 12655552.000000, -10.461421 , -1.007378, 3.199204, 689764288.000000, 6.300000,  38.360001,  70.279999, 0.000000,  0.000000 
 12675840.000000, -10.329816 , -2.213361, 2.751746, 689784320.000000, -10.010000,  62.720001,  43.820000, 0.000000,  0.000000 
 12695552.000000, -9.233903 , -2.557927, 1.718047, 689804608.000000, -24.150000,  63.420002,  37.240002, 0.000000,  0.000000 
 12715520.000000, -8.126025 , -2.407180, 1.107877, 689844224.000000, 40.389999,  29.190001,  40.389999, 749832960.000000,  1010.560364 
 12735488.000000, -7.661818 , -2.213361, 1.435694, 0.000000, 0.000000,  0.000000,  0.000000, 0.000000,  0.000000 
 12755520.000000, -6.994221 , -0.823131, 1.476372, 689864256.000000, 68.529999,  25.200001,  41.090000, 0.000000,  0.000000 
 12775808.000000, -6.372087 , -0.026321, 1.641476, 689884224.000000, 76.510002,  27.160000,  41.230000, 0.000000,  0.000000 
 12795456.000000, -6.252446 , -0.547956, 1.897508, 689904512.000000, 58.869999,  28.559999,  38.360001, 0.000000,  0.000000 
 12815488.000000, -6.419943 , -1.962115, 2.268396, 689924224.000000, 20.299999,  33.110001,  34.930000, 0.000000,  0.000000 
 12835456.000000, -7.015756 , -3.302095, 2.871387, 689944192.000000, -11.760000,  38.360001,  33.670002, 0.000000,  0.000000 
 12855424.000000, -7.858029 , -4.299902, 3.381058, 689964160.000000, -16.799999,  41.509998,  34.230000, 0.000000,  0.000000 
 12875776.000000, -8.628519 , -4.677969, 3.424129, 689984192.000000, 5.880000,  39.619999,  33.950001, 0.000000,  0.000000 
 12895424.000000, -8.640482 , -4.331009, 3.266203, 690004480.000000, 45.009998,  30.730000,  33.110001, 0.000000,  0.000000 
 12915456.000000, -8.130811 , -3.562913, 2.778067, 690024128.000000, 82.879997,  15.050000,  32.060001, 0.000000,  0.000000 
 12935424.000000, -8.396415 , -2.998207, 2.522035, 690044160.000000, 105.629997,  -0.070000,  23.520000, 0.000000,  0.000000 
 12955392.000000, -9.650253 , -3.297310, 2.742175, 690064128.000000, 103.669998,  -6.440000,  7.000000, 0.000000,  0.000000 
 12975680.000000, -11.205588 , -3.684947, 2.670390, 690084096.000000, 92.330002,  -7.280000,  -11.130000, 0.000000,  0.000000 
 12995392.000000, -12.909278 , -3.242275, 1.627119, 690104448.000000, 89.389999,  -11.550000,  -25.410000, 0.000000,  0.000000 
 13015360.000000, -16.438692 , -4.268795, 1.043271, 690124096.000000, 86.800003,  -26.389999,  -37.590000, 0.000000,  0.000000 
 13035328.000000, -19.697716 , -5.347959, 0.873380, 690144064.000000, 63.349998,  -25.200001,  -47.320000, 0.000000,  0.000000 
 13055360.000000, -15.527027 , -3.735196, 0.064606, 690164096.000000, 32.900002,  -30.799999,  -52.920002, 0.000000,  0.000000 
 13075648.000000, -13.000205 , -2.076970, -0.646062, 690184064.000000, 53.340000,  -93.169998,  -46.970001, 0.000000,  0.000000 
 13095296.000000, -14.663218 , -2.038685, -0.217747, 690204352.000000, 54.320000,  -109.340004,  -58.730000, 0.000000,  0.000000 
 13115328.000000, -15.395420 , -2.263610, 0.160319, 690224064.000000, 5.600000,  -78.680000,  -86.519997, 0.000000,  0.000000 
 13135296.000000, -13.170096 , -1.493121, -0.019143, 690244032.000000, -22.190001,  -73.919998,  -106.540001, 0.000000,  0.000000 
 13155264.000000, -11.533404 , -1.136591, 0.186640, 690264000.000000, -18.270000,  -91.419998,  -117.320000, 0.000000,  0.000000 
 13175616.000000, -10.456635 , -0.875773, 0.756132, 690284032.000000, -28.840000,  -84.840004,  -132.369995, 0.000000,  0.000000 
 13195264.000000, -9.032906 , -0.559920, 0.985843, 690304320.000000, -41.860001,  -72.239998,  -143.500000, 0.000000,  0.000000 
 13215232.000000, -7.391429 , -0.411566, 1.091127, 690323968.000000, -39.759998,  -66.639999,  -143.149994, 0.000000,  0.000000 
 13235264.000000, -5.814559 , -1.021735, 0.892523, 690344000.000000, -24.080000,  -66.290001,  -129.220001, 0.000000,  0.000000 
 13255232.000000, -4.900501 , -1.871187, 1.014557, 690363968.000000, -11.340000,  -65.379997,  -111.720001, 0.000000,  0.000000 
 13275520.000000, -4.931608 , -2.294717, 1.038485, 690383936.000000, -15.610000,  -58.869999,  -97.440002, 0.000000,  0.000000 
 13295232.000000, -5.491528 , -2.474179, 0.880559, 690404288.000000, -12.740000,  -48.860001,  -85.470001, 0.000000,  0.000000 
 13315200.000000, -6.685547 , -2.371287, 0.885344, 690423936.000000, 17.430000,  -39.689999,  -66.150002, 0.000000,  0.000000 
 13335168.000000, -7.848458 , -1.612763, 0.325424, 690443904.000000, 61.250000,  -32.410000,  -46.270000, 0.000000,  0.000000 
 13355200.000000, -8.556733 , 0.363709, -0.610170, 690463936.000000, 104.790001,  -32.340000,  -28.630001, 0.000000,  0.000000 
 13375488.000000, -8.011170 , 1.548156, -1.071985, 690483904.000000, 124.180000,  -43.470001,  -14.910000, 0.000000,  0.000000 
 13395136.000000, -6.934400 , 1.263410, -0.476172, 690504192.000000, 98.349998,  -55.020000,  -2.660000, 0.000000,  0.000000 
 13415104.000000, -7.135397 , 0.981057, 0.038285, 690523840.000000, 42.560001,  -55.369999,  -4.550000, 0.000000,  0.000000 
 13435136.000000, -8.463413 , 0.686740, -0.502493, 690543872.000000, 0.630000,  -40.250000,  -9.380000, 0.000000,  0.000000 
 13455104.000000, -9.492328 , 0.016750, -0.564706, 690563840.000000, -28.980000,  -23.379999,  -7.630000, 0.000000,  0.000000 
 13475456.000000, -10.281959 , -0.119641, -1.083949, 690583808.000000, -62.160000,  -11.620000,  0.980000, 0.000000,  0.000000 
 13495104.000000, -13.079168 , -0.899701, -1.904687, 690604160.000000, -82.739998,  -4.760000,  15.260000, 0.000000,  0.000000 
 13515072.000000, -16.819151 , -2.634498, -0.981057, 690623808.000000, -104.720001,  31.710001,  33.320000, 0.000000,  0.000000 
 13535040.000000, -16.673187 , -3.742374, 1.004985, 690643776.000000, -127.540001,  66.430000,  58.939999, 0.000000,  0.000000 
 13555072.000000, -13.988441 , -2.469393, 3.345166, 690663808.000000, -99.610001,  59.150002,  88.900002, 0.000000,  0.000000 
 13575360.000000, -13.160524 , -0.973879, 3.357130, 690683776.000000, -55.510002,  49.420002,  115.500000, 0.000000,  0.000000 
 13595008.000000, -12.244074 , -0.892523, 2.859423, 690704064.000000, -28.070000,  66.709999,  124.949997, 0.000000,  0.000000 
 13615040.000000, -11.399406 , -2.009971, 2.596212, 690723776.000000, -24.080000,  71.330002,  128.869995, 0.000000,  0.000000 
 13635008.000000, -11.117055 , -3.275774, 2.146362, 690743744.000000, -38.360001,  71.610001,  128.589996, 0.000000,  0.000000 
 13654976.000000, -10.894521 , -3.261417, 1.521835, 690763712.000000, -34.020000,  71.470001,  126.840004, 0.000000,  0.000000 
 13675328.000000, -9.937392 , -2.565106, 1.244268, 690783744.000000, -4.270000,  67.340004,  125.930000, 0.000000,  0.000000 
 13694976.000000, -9.095119 , -1.797010, 1.174876, 690804032.000000, 24.639999,  59.639999,  122.500000, 0.000000,  0.000000 
 13714944.000000, -8.556733 , -1.531406, 1.500300, 690823680.000000, 30.520000,  60.130001,  112.139999, 0.000000,  0.000000 
 13734976.000000, -8.221739 , -1.335195, 2.000400, 690843712.000000, 13.160000,  67.830002,  100.309998, 750832384.000000,  1010.586304 
 13754944.000000, -8.111670 , -1.119841, 2.069792, 690863680.000000, -11.550000,  74.059998,  88.340004, 0.000000,  0.000000 
 13775232.000000, -8.523234 , -1.531406, 1.682154, 690883648.000000, -31.639999,  72.940002,  79.239998, 0.000000,  0.000000 
 13794944.000000, -8.805587 , -2.878566, 1.935793, 690904000.000000, -53.830002,  69.930000,  75.180000, 0.000000,  0.000000 
 13814912.000000, -9.087940 , -3.996014, 2.390430, 690923648.000000, -66.080002,  64.610001,  79.660004, 0.000000,  0.000000 
 13834880.000000, -8.913264 , -4.436293, 2.445465, 690943616.000000, -56.070000,  57.260002,  89.040001, 0.000000,  0.000000 
 13854912.000000, -8.551948 , -4.713861, 2.533999, 690963648.000000, -35.490002,  46.619999,  99.750000, 0.000000,  0.000000 
 13875200.000000, -9.145369 , -4.953143, 2.699104, 691003904.000000, -1.330000,  38.430000,  103.389999, 0.000000,  0.000000 
 13894848.000000, -10.427922 , -5.694918, 3.036492, 0.000000, 0.000000,  0.000000,  0.000000, 0.000000,  0.000000 
 13914880.000000, -11.442478 , -6.295516, 2.560320, 691023616.000000, 6.160000,  38.430000,  93.660004, 0.000000,  0.000000 
 13934848.000000, -15.850057 , -8.580662, 4.591826, 691043648.000000, 13.370000,  25.760000,  81.269997, 0.000000,  0.000000 
 13954816.000000, -19.525433 , -8.449057, 3.393023, 691063552.000000, 30.590000,  39.270000,  63.139999, 0.000000,  0.000000 
 13975168.000000, -15.728023 , -2.579463, 0.538385, 691083584.000000, 91.279999,  32.830002,  46.130001, 0.000000,  0.000000 
 13994816.000000, -12.265609 , 0.842274, 0.090927, 691103872.000000, 195.300003,  -37.450001,  40.599998, 0.000000,  0.000000 
 14014784.000000, -10.557133 , 0.849452, 1.244268, 691123520.000000, 191.869995,  -66.849998,  11.340000, 0.000000,  0.000000 
 14034816.000000, -10.054641 , -1.012164, 1.785046, 691143552.000000, 92.680000,  -66.919998,  -41.299999, 0.000000,  0.000000 
 14054784.000000, -10.193424 , -2.120041, 1.643869, 691163520.000000, 16.590000,  -71.470001,  -89.180000, 0.000000,  0.000000 
 14075072.000000, -11.133803 , -2.699104, 1.701297, 691183488.000000, -20.790001,  -72.870003,  -112.209999, 0.000000,  0.000000 
 14094784.000000, -12.040684 , -2.452643, 1.990828, 691203840.000000, -40.250000,  -65.169998,  -127.190002, 0.000000,  0.000000 
 14114752.000000, -11.255837 , -1.753939, 1.371087, 691223488.000000, -43.259998,  -65.029999,  -137.899994, 0.000000,  0.000000 
 14134720.000000, -9.559326 , -1.289732, 1.136591, 691243456.000000, -32.619999,  -77.840004,  -141.050003, 0.000000,  0.000000 
 14154752.000000, -8.216952 , -1.328017, 1.165305, 691263488.000000, -21.280001,  -89.040001,  -142.520004, 0.000000,  0.000000 
 14175040.000000, -7.523034 , -1.931008, 1.268196, 691283456.000000, -16.940001,  -87.430000,  -144.410004, 0.000000,  0.000000 
 14194688.000000, -7.448857 , -2.167897, 1.497907, 691303744.000000, -16.309999,  -81.269997,  -147.210007, 0.000000,  0.000000 
 14214720.000000, -8.063812 , -1.952543, 1.198804, 691323456.000000, -14.420000,  -75.739998,  -150.710007, 0.000000,  0.000000 
 14234688.000000, -8.846266 , -2.328217, 0.672383, 691343424.000000, -3.570000,  -68.879997,  -148.470001, 0.000000,  0.000000 
 14254656.000000, -9.504292 , -2.656033, 0.617348, 691363392.000000, 12.880000,  -65.800003,  -139.930008, 0.000000,  0.000000 
 14275008.000000, -10.104890 , -2.213361, 1.012164, 691383424.000000, 24.219999,  -65.940002,  -132.160004, 0.000000,  0.000000 
 14294656.000000, -9.992428 , -0.772882, 0.641276, 691403712.000000, 50.400002,  -69.440002,  -116.480003, 0.000000,  0.000000 
 14314624.000000, -9.116654 , 0.421137, -0.114855, 691423360.000000, 80.570000,  -79.730003,  -96.599998, 0.000000,  0.000000 
 14334656.000000, -8.664411 , 0.468993, -0.495314, 691443392.000000, 82.529999,  -93.519997,  -78.330002, 0.000000,  0.000000 
 14354624.000000, -9.583255 , -0.435494, 0.454636, 691463360.000000, 47.529999,  -86.730003,  -63.349998, 0.000000,  0.000000 
 14374912.000000, -10.612168 , -0.902094, 0.129212, 691483328.000000, 3.220000,  -63.279999,  -49.910000, 0.000000,  0.000000 
 14394624.000000, -11.892329 , -1.251446, -0.789631, 691503680.000000, -16.379999,  -48.020000,  -36.610001, 0.000000,  0.000000 
 14414592.000000, -13.569696 , -1.426122, 0.129212, 691523328.000000, -9.870000,  -25.830000,  -17.780001, 0.000000,  0.000000 
 14434560.000000, -14.249258 , -1.517050, 2.029114, 691543296.000000, -16.730000,  7.560000,  2.450000, 0.000000,  0.000000 
 14454592.000000, -13.344771 , -0.954736, 2.857030, 691563328.000000, -19.110001,  22.680000,  13.160000, 0.000000,  0.000000 
 14474880.000000, -11.576476 , -0.485743, 2.780460, 691583296.000000, 1.470000,  27.860001,  26.110001, 0.000000,  0.000000 
 14494528.000000, -10.057034 , -0.679562, 2.763710, 691603584.000000, 21.840000,  31.710001,  37.029999, 0.000000,  0.000000 
 14514560.000000, -9.073583 , -1.397408, 2.888137, 691623296.000000, 26.530001,  42.349998,  39.830002, 0.000000,  0.000000 
 14534528.000000, -9.037691 , -1.730011, 2.251646, 691643264.000000, 30.450001,  51.520000,  46.830002, 0.000000,  0.000000 
 14554496.000000, -8.860621 , -1.060020, 1.203590, 691663232.000000, 48.020000,  59.010002,  54.740002, 0.000000,  0.000000 
 14574784.000000, -8.705089 , 0.346959, 2.005185, 691683264.000000, 59.220001,  60.689999,  64.610001, 0.000000,  0.000000 
 14594496.000000, -8.482556 , 1.289732, 0.794417, 691703552.000000, 71.190002,  59.360001,  67.269997, 0.000000,  0.000000 
 14614464.000000, -7.769495 , 1.567299, 0.162712, 691723200.000000, 49.630001,  54.040001,  66.220001, 0.000000,  0.000000 
 14634496.000000, -7.412964 , 1.052842, 0.270389, 691743232.000000, 7.560000,  43.259998,  65.379997, 0.000000,  0.000000 
 14654464.000000, -7.109076 , -0.406780, 0.981057, 691763200.000000, -48.090000,  39.480000,  63.139999, 0.000000,  0.000000 
 14674752.000000, -7.211967 , -1.782653, 2.115255, 691783168.000000, -91.769997,  46.970001,  62.510002, 0.000000,  0.000000 
 14694464.000000, -7.518249 , -2.000400, 2.531606, 691803456.000000, -98.279999,  54.459999,  70.559998, 0.000000,  0.000000 
 14714432.000000, -8.970692 , -2.038685, 2.931208, 691843136.000000, -37.240002,  72.590004,  87.639999, 751831872.000000,  1010.611084 
 14734400.000000, -10.420743 , -1.875973, 2.694318, 0.000000, 0.000000,  0.000000,  0.000000, 0.000000,  0.000000 
 14754432.000000, -10.681561 , -1.945365, 2.694318, 691863168.000000, -4.340000,  74.199997,  94.709999, 0.000000,  0.000000 
 14774720.000000, -9.946963 , -2.364109, 3.007778, 691883136.000000, 10.640000,  63.630001,  97.090004, 0.000000,  0.000000 
 14794368.000000, -10.040283 , -2.199004, 3.089134, 691903424.000000, 14.280000,  51.450001,  93.239998, 0.000000,  0.000000 
 14814400.000000, -11.255837 , -1.883151, 2.742175, 691923136.000000, 18.340000,  49.490002,  88.059998, 0.000000,  0.000000 
 14834368.000000, -12.411572 , -2.167897, 1.832902, 691943104.000000, 13.370000,  51.240002,  82.320000, 0.000000,  0.000000 
 14854336.000000, -15.361920 , -3.345166, 1.612763, 691963072.000000, 0.770000,  44.869999,  75.879997, 0.000000,  0.000000 
 14874624.000000, -20.396420 , -5.077570, 2.459821, 691983040.000000, -15.400000,  49.910000,  70.840004, 0.000000,  0.000000 
 14894336.000000, -18.781265 , -4.661219, 2.596212, 692003392.000000, -26.110001,  66.360001,  67.830002, 0.000000,  0.000000 
 14914368.000000, -13.232309 , -1.459622, 1.351945, 692023040.000000, 16.940001,  16.450001,  69.370003, 0.000000,  0.000000 
 14934336.000000, -11.117055 , -0.344566, 0.887737, 692043072.000000, 54.810001,  -43.540001,  68.599998, 0.000000,  0.000000 
 14954304.000000, -11.107484 , -1.205983, 1.677369, 692063040.000000, 16.730000,  -35.910000,  38.150002, 0.000000,  0.000000 
 14974592.000000, -10.530812 , -2.069792, 2.139183, 692083008.000000, -49.420002,  -18.830000,  1.540000, 0.000000,  0.000000 
 14994240.000000, -9.389436 , -2.191825, 1.926222, 692103296.000000, -73.150002,  -20.650000,  -21.210001, 0.000000,  0.000000 
 15014272.000000, -8.518449 , -2.230111, 1.907080, 692123008.000000, -72.940002,  -29.540001,  -35.770000, 0.000000,  0.000000 
 15034240.000000, -7.886744 , -2.261217, 1.885544, 692142976.000000, -68.669998,  -29.330000,  -49.700001, 0.000000,  0.000000 
 15054208.000000, -7.056434 , -2.093720, 2.043471, 692162944.000000, -56.139999,  -27.090000,  -57.400002, 0.000000,  0.000000 
 15074560.000000, -6.099305 , -1.598405, 2.151148, 692182976.000000, -34.090000,  -30.380001,  -61.040001, 0.000000,  0.000000 
 15094208.000000, -5.314459 , -1.284946, 1.890330, 692203264.000000, -13.440001,  -37.310001,  -63.000000, 0.000000,  0.000000 
 15114176.000000, -4.673182 , -1.263410, 1.816152, 692222912.000000, -2.730000,  -42.770000,  -64.330002, 0.000000,  0.000000 
 15134208.000000, -4.254438 , -1.588834, 1.785046, 692242944.000000, -6.720000,  -45.849998,  -64.889999, 0.000000,  0.000000 
 15154176.000000, -4.450650 , -2.021935, 1.694118, 692262912.000000, -12.880000,  -44.799999,  -63.420002, 0.000000,  0.000000 
 15174528.000000, -5.716454 , -1.945365, 1.957329, 692282880.000000, -9.940000,  -39.130001,  -60.830002, 0.000000,  0.000000 
 15194176.000000, -7.233503 , -1.411765, 1.701297, 692303232.000000, 5.880000,  -29.469999,  -55.720001, 0.000000,  0.000000 
 15214144.000000, -7.927422 , -1.287339, 1.220340, 692322880.000000, 21.490000,  -28.000000,  -46.270000, 0.000000,  0.000000 
 15234112.000000, -8.042276 , -1.395016, 1.071985, 692342848.000000, 23.100000,  -38.709999,  -35.209999, 0.000000,  0.000000 
 15254144.000000, -7.889136 , -1.430908, 1.014557, 692362880.000000, 10.220000,  -49.770000,  -28.210001, 0.000000,  0.000000 
 15274432.000000, -7.891530 , -1.127020, 0.875773, 692382848.000000, -3.920000,  -52.290001,  -21.629999, 0.000000,  0.000000 
 15294080.000000, -8.331808 , -0.681954, 0.988236, 692403136.000000, -7.910000,  -49.070000,  -16.660000, 0.000000,  0.000000 
 15314112.000000, -9.248260 , -0.873380, 1.270589, 692422848.000000, -21.000000,  -38.920002,  -15.050000, 0.000000,  0.000000 
 15334080.000000, -10.463813 , -1.433301, 0.442672, 692442816.000000, -46.130001,  -24.290001,  -12.040000, 0.000000,  0.000000 
 15354048.000000, -13.670196 , -2.624927, 0.468993, 692462784.000000, -62.369999,  -12.180000,  -8.260000, 0.000000,  0.000000 
 15374400.000000, -18.374485 , -4.431508, 2.632105, 692482816.000000, -76.370003,  25.059999,  5.880000, 0.000000,  0.000000 
 15394048.000000, -16.472191 , -4.649254, 4.577469, 692503104.000000, -90.440002,  60.619999,  26.389999, 0.000000,  0.000000 
 15414016.000000, -11.717653 , -1.983650, 4.335794, 692522752.000000, -42.630001,  29.330000,  33.950001, 0.000000,  0.000000 
 15434048.000000, -11.021341 , -0.430708, 3.608376, 692542784.000000, 32.130001,  -0.840000,  34.860001, 0.000000,  0.000000 
 15454016.000000, -11.212767 , -1.241875, 3.895515, 692562752.000000, 48.230000,  20.510000,  6.580000, 0.000000,  0.000000 
 15474304.000000, -10.394422 , -3.151347, 4.749753, 692582720.000000, 23.379999,  33.529999,  -28.210001, 0.000000,  0.000000 
 15494016.000000, -9.468399 , -3.900301, 4.764110, 692603072.000000, 29.120001,  32.410000,  -42.209999, 0.000000,  0.000000 
 15513984.000000, -8.994620 , -3.407379, 3.766303, 692622720.000000, 61.320000,  28.910000,  -42.070000, 0.000000,  0.000000 
 15533952.000000, -9.099905 , -2.093720, 2.766103, 692642688.000000, 98.279999,  19.460001,  -31.290001, 0.000000,  0.000000 
 15553984.000000, -8.410772 , -1.978864, 2.574677, 692662720.000000, 103.739998,  9.030000,  -22.960001, 0.000000,  0.000000 
 15574272.000000, -7.841280 , -2.715853, 3.385844, 692682688.000000, 70.000000,  -3.500000,  -17.990000, 0.000000,  0.000000 
 15594112.000000, -7.960921 , -3.215954, 4.354938, 692702976.000000, 24.500000,  -6.720000,  -18.270000, 0.000000,  0.000000 
 15613952.000000, -8.204988 , -3.098706, 4.366901, 692722816.000000, 7.630000,  -6.020000,  -20.230000, 0.000000,  0.000000 
 15633920.000000, -8.114061 , -3.055635, 3.998406, 692742656.000000, 14.280000,  -10.780000,  -24.430000, 0.000000,  0.000000 
 15653888.000000, -7.795816 , -2.883351, 3.586841, 692762624.000000, 21.210001,  -20.090000,  -32.549999, 0.000000,  0.000000 
 15674240.000000, -7.396214 , -2.555535, 3.378666, 692782656.000000, 28.770000,  -30.170000,  -41.160000, 0.000000,  0.000000 
 15693888.000000, -7.257431 , -2.328217, 3.302095, 692802944.000000, 36.820000,  -37.029999,  -49.349998, 0.000000,  0.000000 
 15713856.000000, -7.712067 , -2.175076, 2.988636, 692842624.000000, 26.950001,  -39.549999,  -67.830002, 752831296.000000,  1010.635803 
 15733888.000000, -9.128618 , -2.285146, 2.510071, 0.000000, 0.000000,  0.000000,  0.000000, 0.000000,  0.000000 
 15753856.000000, -11.574083 , -2.868994, 2.225325, 692862592.000000, 18.200001,  -34.090000,  -73.849998, 0.000000,  0.000000 
 15774144.000000, -13.837693 , -3.314059, 1.567299, 692882560.000000, 5.670000,  -24.780001,  -69.580002, 0.000000,  0.000000 
 15793856.000000, -14.455042 , -3.242275, 0.897308, 692902848.000000, -0.840000,  -22.120001,  -55.090000, 0.000000,  0.000000 
 15813824.000000, -14.526826 , -3.108276, 1.457229, 692922560.000000, 9.100000,  -32.689999,  -38.779999, 0.000000,  0.000000 
 15833792.000000, -13.012171 , -2.388037, 1.651048, 692942528.000000, 7.980000,  -31.080000,  -21.840000, 0.000000,  0.000000 
 15853824.000000, -11.985649 , -1.028914, 0.291924, 692962560.000000, 14.910000,  -38.080002,  -14.420000, 0.000000,  0.000000 
 15874112.000000, -11.976077 , -1.067199, -0.413958, 692982528.000000, 28.139999,  -41.860001,  -13.650000, 0.000000,  0.000000 
 15893760.000000, -11.901899 , -2.029114, 0.088534, 693002816.000000, 8.680000,  -31.710001,  -17.850000, 0.000000,  0.000000 
 15913792.000000, -10.308280 , -1.117448, 0.375673, 693022528.000000, -8.120000,  -21.700001,  -23.030001, 0.000000,  0.000000 
 15933760.000000, -8.865408 , 0.045464, 0.562313, 693042496.000000, 12.460000,  -21.350000,  -19.879999, 0.000000,  0.000000 
 15953728.000000, -7.597212 , 0.358923, 1.323231, 693062464.000000, 19.530001,  -16.309999,  -17.780001, 0.000000,  0.000000 
 15974016.000000, -6.417551 , 0.040678, 1.622334, 693082496.000000, -5.110000,  -0.070000,  -17.430000, 0.000000,  0.000000 
 15993728.000000, -5.486742 , -0.899701, 1.890330, 693102784.000000, -26.040001,  14.070000,  -6.300000, 0.000000,  0.000000 
 16013696.000000, -5.249853 , -1.342373, 1.971686, 693122432.000000, -41.790001,  24.570000,  10.430000, 0.000000,  0.000000 
 16033728.000000, -5.044070 , -1.627119, 1.971686, 693142464.000000, -48.090000,  31.850000,  29.120001, 0.000000,  0.000000 
 16053696.000000, -4.852644 , -2.014757, 2.122434, 693162432.000000, -43.680000,  34.299999,  49.980000, 0.000000,  0.000000 
 16073984.000000, -5.020142 , -2.079363, 1.861616, 693182400.000000, -31.780001,  35.420002,  70.000000, 0.000000,  0.000000 
 16093696.000000, -5.754738 , -1.926222, 1.586441, 693202688.000000, -15.680000,  39.619999,  84.699997, 0.000000,  0.000000 
 16113664.000000, -6.632904 , -1.395016, 1.167697, 693222400.000000, 5.320000,  42.840000,  95.690002, 0.000000,  0.000000 
 16133632.000000, -7.499106 , -1.265803, 0.801596, 693242368.000000, 19.040001,  40.950001,  103.320000, 0.000000,  0.000000 
 16153664.000000, -8.489735 , -1.337588, 1.349552, 693262400.000000, 17.290001,  38.080002,  109.760002, 0.000000,  0.000000 
 16173952.000000, -9.442079 , -1.375873, 1.658226, 693282368.000000, -1.680000,  38.849998,  112.770004, 0.000000,  0.000000 
 16193600.000000, -10.236496 , -1.143769, 1.598405, 693302656.000000, -21.770000,  42.209999,  112.139999, 0.000000,  0.000000 
 16213632.000000, -10.365707 , -1.311267, 1.134198, 693322304.000000, -37.869999,  43.680000,  111.440002, 0.000000,  0.000000 
 16233600.000000, -9.982857 , -2.031506, 0.911665, 693342336.000000, -54.880001,  38.080002,  108.360001, 0.000000,  0.000000 
 16253568.000000, -10.679168 , -2.749353, 1.150948, 693362304.000000, -73.360001,  30.590000,  102.550003, 0.000000,  0.000000 
 16273856.000000, -12.423534 , -3.029313, 1.483550, 693382336.000000, -87.360001,  35.700001,  96.949997, 0.000000,  0.000000 
 16293568.000000, -13.952549 , -3.735196, 1.593620, 693402624.000000, -96.459999,  45.360001,  91.559998, 0.000000,  0.000000 
 16313536.000000, -16.240088 , -5.044070, 3.022135, 693422272.000000, -100.800003,  47.740002,  90.440002, 0.000000,  0.000000 
 16333568.000000, -18.424734 , -5.730811, 4.074977, 693442304.000000, -106.820000,  59.500000,  89.949997, 0.000000,  0.000000 
 16353536.000000, -17.053648 , -3.936193, 4.189832, 693462272.000000, -107.239998,  66.500000,  80.150002, 0.000000,  0.000000 
 16373824.000000, -14.196616 , -1.725225, 4.876573, 693482240.000000, -83.860001,  42.980000,  63.490002, 0.000000,  0.000000 
 16393536.000000, -11.313265 , -1.189233, 5.125426, 693502528.000000, -60.270000,  24.219999,  41.650002, 0.000000,  0.000000 
 16413504.000000, -8.370094 , -2.167897, 5.120641, 693522240.000000, -52.849998,  17.290001,  12.880000, 0.000000,  0.000000 
 16433472.000000, -6.580262 , -2.876173, 4.493721, 693542208.000000, -36.610001,  6.930000,  -13.090000, 0.000000,  0.000000 
 16453504.000000, -6.230910 , -2.876173, 3.656233, 693562240.000000, -17.150000,  3.570000,  -34.439999, 0.000000,  0.000000 
 16473792.000000, -7.109076 , -2.476572, 2.840281, 693582208.000000, -9.100000,  4.690000,  -42.000000, 0.000000,  0.000000 
 16493440.000000, -7.585248 , -2.076970, 2.342573, 693602496.000000, 7.070000,  11.270000,  -53.830002, 0.000000,  0.000000 
 16513472.000000, -7.362715 , -1.988436, 2.457429, 693622144.000000, 17.850000,  11.760000,  -59.430000, 0.000000,  0.000000 
 16533440.000000, -6.594619 , -2.060220, 2.648855, 693662144.000000, 28.000000,  -9.450000,  -46.689999, 0.000000,  0.000000 
 16553408.000000, -6.192625 , -2.081756, 2.809174, 0.000000, 0.000000,  0.000000,  0.000000, 0.000000,  0.000000 
 16573696.000000, -6.137590 , -2.060220, 2.388037, 693682176.000000, 31.360001,  -12.880000,  -41.509998, 0.000000,  0.000000 
 16593408.000000, -6.687939 , -2.519642, 2.330609, 693702464.000000, 39.759998,  -9.100000,  -35.139999, 0.000000,  0.000000 
 16613376.000000, -7.645068 , -2.876173, 2.689533, 693722112.000000, 45.430000,  -1.540000,  -31.430000, 0.000000,  0.000000 
 16633344.000000, -8.760124 , -2.964707, 2.634498, 693742080.000000, 46.759998,  6.090000,  -30.940001, 0.000000,  0.000000 
 16653376.000000, -9.633504 , -2.742175, 2.550749, 693762112.000000, 55.230000,  6.510000,  -30.799999, 0.000000,  0.000000 
 16673664.000000, -9.884750 , -2.577070, 2.672783, 693782080.000000, 70.559998,  -1.750000,  -30.309999, 0.000000,  0.000000 
 16693312.000000, -9.786645 , -2.155933, 2.469393, 693802368.000000, 87.709999,  -13.860000,  -28.350000, 0.000000,  0.000000 
 16713344.000000, -9.734003 , -1.572084, 2.100898, 693842048.000000, 96.599998,  -31.639999,  -33.740002, 753830720.000000,  1010.659729 
 16733312.000000, -10.552348 , -1.622334, 1.718047, 0.000000, 0.000000,  0.000000,  0.000000, 0.000000,  0.000000 
 16753280.000000, -11.808580 , -2.596212, 1.579263, 693862016.000000, 77.629997,  -29.469999,  -40.950001, 0.000000,  0.000000 
 16773632.000000, -13.607983 , -3.723232, 1.452443, 693882048.000000, 55.090000,  -23.379999,  -45.709999, 0.000000,  0.000000 
 16793280.000000, -17.166111 , -4.596612, 2.244468, 693902336.000000, 54.110001,  -18.270000,  -46.060001, 0.000000,  0.000000 
 16813248.000000, -18.338593 , -3.706482, 1.749153, 693921984.000000, 69.650002,  1.050000,  -42.070000, 0.000000,  0.000000 
 16833280.000000, -14.000405 , -1.033699, 0.799203, 693942016.000000, 98.139999,  -11.200000,  -28.700001, 0.000000,  0.000000 
 16853248.000000, -11.452050 , 0.368495, 0.026321, 693961984.000000, 128.660004,  -66.080002,  -17.850000, 0.000000,  0.000000 
 16873536.000000, -12.222539 , 0.777667, 0.404387, 693981952.000000, 111.510002,  -71.889999,  -28.280001, 0.000000,  0.000000 
 16893248.000000, -13.091133 , 0.234497, 0.997807, 694002304.000000, 53.619999,  -46.130001,  -51.590000, 0.000000,  0.000000 
 16913280.000000, -11.846866 , -0.236889, 1.519442, 694021952.000000, 20.930000,  -38.150002,  -60.480000, 0.000000,  0.000000 
 16933184.000000, -10.588240 , -0.593420, 1.710868, 694041984.000000, 10.290000,  -44.590000,  -53.900002, 0.000000,  0.000000 
 16953216.000000, -9.597611 , -0.011964, 1.677369, 694061952.000000, 4.200000,  -40.529999,  -49.630001, 0.000000,  0.000000 
 16973504.000000, -8.504091 , 0.655633, 1.021735, 694081920.000000, 6.370000,  -32.900002,  -40.389999, 0.000000,  0.000000 
 16993152.000000, -7.235896 , 0.995414, 0.921237, 694102208.000000, 6.930000,  -30.170000,  -29.260000, 0.000000,  0.000000 
 17013184.000000, -6.068198 , 0.617348, 1.469193, 694121920.000000, -12.110000,  -30.660000,  -23.309999, 0.000000,  0.000000 
 17033152.000000, -5.307281 , 0.179462, 2.177469, 694141888.000000, -37.869999,  -26.880001,  -20.230000, 0.000000,  0.000000 
 17053120.000000, -4.838287 , 0.102891, 2.483750, 694161856.000000, -42.349998,  -18.900000,  -15.820000, 0.000000,  0.000000 
 17073472.000000, -4.596612 , 0.459422, 2.021935, 694181888.000000, -18.410000,  -10.780000,  -7.210000, 0.000000,  0.000000 
 17093120.000000, -4.670790 , 0.725025, 1.237089, 694202176.000000, 17.150000,  -6.440000,  4.340000, 0.000000,  0.000000 
 17113088.000000, -4.823930 , 0.734596, 0.878166, 694221824.000000, 35.209999,  -5.320000,  15.610000, 0.000000,  0.000000 
 17133120.000000, -5.130211 , 0.191426, 0.643669, 694241856.000000, 25.129999,  -6.160000,  24.570000, 0.000000,  0.000000 
 17153088.000000, -5.757132 , -0.428315, 0.435494, 694261824.000000, 2.100000,  -6.370000,  31.639999, 0.000000,  0.000000 
 17173376.000000, -6.522834 , -0.952343, 0.483350, 694281792.000000, -16.379999,  -3.290000,  39.270000, 0.000000,  0.000000 
 17193088.000000, -7.334002 , -1.435694, 0.500100, 694302144.000000, -26.250000,  3.570000,  46.830002, 0.000000,  0.000000 
 17213056.000000, -8.169096 , -1.696511, 0.186640, 694321792.000000, -24.570000,  10.150000,  54.040001, 0.000000,  0.000000 
 17233024.000000, -9.609575 , -2.354537, -0.066999, 694341760.000000, -10.500000,  17.990000,  59.920002, 0.000000,  0.000000 
 17253056.000000, -11.727223 , -2.778067, 0.227318, 694361792.000000, 14.630000,  34.160000,  65.449997, 0.000000,  0.000000 
 17273344.000000, -14.435899 , -0.947558, 0.693919, 694381760.000000, 52.080002,  52.639999,  74.410004, 0.000000,  0.000000 
 17292992.000000, -18.135202 , 0.557528, 1.141376, 694402048.000000, 78.610001,  55.650002,  86.309998, 0.000000,  0.000000 
 17313024.000000, -20.269602 , -0.655633, 2.390430, 694421760.000000, 41.790001,  55.580002,  91.349998, 0.000000,  0.000000 
 17332992.000000, -16.565512 , -1.287339, 2.907279, 694441728.000000, -47.599998,  63.209999,  83.650002, 0.000000,  0.000000 
 17352960.000000, -13.931013 , -0.662812, 3.354738, 694461696.000000, -98.629997,  56.209999,  80.779999, 0.000000,  0.000000 
 17373376.000000, -14.275579 , -0.464208, 5.053641, 694481728.000000, -101.290001,  71.470001,  67.480003, 0.000000,  0.000000 
 17392960.000000, -13.636696 , -0.014357, 6.580262, 694502144.000000, -89.529999,  103.389999,  41.439999, 0.000000,  0.000000 
 17412928.000000, -11.633904 , 0.634098, 5.477170, 694521664.000000, -33.529999,  107.099998,  27.020000, 0.000000,  0.000000 
 17432960.000000, -9.128618 , 0.148355, 3.464807, 694541632.000000, 47.320000,  85.120003,  17.430000, 0.000000,  0.000000 
 17452928.000000, -7.802995 , 0.162712, 3.515057, 694561664.000000, 104.580002,  60.410000,  17.080000, 0.000000,  0.000000 
 17473216.000000, -8.257630 , 1.607977, 1.715654, 694581632.000000, 118.230003,  48.930000,  19.600000, 0.000000,  0.000000 
 17492864.000000, -7.793423 , 2.368894, 1.203590, 694601920.000000, 102.550003,  46.340000,  19.950001, 0.000000,  0.000000 
 17512896.000000, -6.577869 , 1.806581, 1.509871, 694621632.000000, 58.380001,  36.400002,  22.960001, 0.000000,  0.000000 
 17532864.000000, -6.013163 , 0.258425, 2.043471, 694641600.000000, -20.930000,  27.580000,  26.809999, 0.000000,  0.000000 
 17552832.000000, -6.230910 , -1.344766, 2.622534, 694661568.000000, -89.389999,  29.260000,  31.430000, 0.000000,  0.000000 
 17573184.000000, -6.551548 , -1.976472, 3.046063, 694681600.000000, -108.430000,  33.320000,  37.099998, 0.000000,  0.000000 
 17592832.000000, -6.898508 , -1.873580, 3.089134, 694701888.000000, -80.150002,  30.240000,  42.840000, 0.000000,  0.000000 
 17612800.000000, -7.374680 , -1.196411, 3.436093, 694721536.000000, -36.330002,  24.710001,  42.840000, 0.000000,  0.000000 
 17632832.000000, -7.805387 , -0.904487, 3.840480, 694741568.000000, -10.080000,  18.830000,  37.939999, 0.000000,  0.000000 
 17652800.000000, -8.547162 , -0.976272, 3.984050, 694761536.000000, -1.190000,  15.330000,  36.540001, 0.000000,  0.000000 
 17673088.000000, -9.434900 , -0.832702, 4.115655, 694781504.000000, 12.320000,  14.210000,  34.020000, 0.000000,  0.000000 
 17692800.000000, -9.714860 , -0.701097, 4.089334, 694801856.000000, 31.010000,  12.600000,  28.070000, 0.000000,  0.000000 
 17712768.000000, -8.930015 , -0.277567, 3.548556, 694841472.000000, 47.740002,  -12.110000,  9.870000, 754830208.000000,  1010.684326 
 17732736.000000, -8.475377 , -0.263210, 3.041277, 0.000000, 0.000000,  0.000000,  0.000000, 0.000000,  0.000000 
 17752768.000000, -9.963714 , -1.440479, 2.868994, 694861504.000000, 40.110001,  -21.280001,  -2.660000, 0.000000,  0.000000 
 17773056.000000, -12.162716 , -2.679961, 2.122434, 694881472.000000, 24.570000,  -12.740000,  -17.290001, 0.000000,  0.000000 
 17792704.000000, -14.378471 , -3.818945, 1.689333, 694901760.000000, 19.389999,  -6.440000,  -25.620001, 0.000000,  0.000000 
 17812736.000000, -17.204393 , -4.713861, 1.933401, 694921472.000000, 10.430000,  -10.010000,  -31.219999, 0.000000,  0.000000 
 17832704.000000, -19.472790 , -3.701697, 2.337788, 694941440.000000, 1.190000,  -9.100000,  -36.189999, 0.000000,  0.000000 
 17852672.000000, -17.773888 , -1.301696, 2.292324, 694961408.000000, 5.110000,  -18.900000,  -37.029999, 0.000000,  0.000000 
 17873024.000000, -14.991035 , 0.057428, 2.349752, 694981440.000000, 19.950001,  -54.459999,  -33.389999, 0.000000,  0.000000 
 17892672.000000, -13.402200 , -0.428315, 2.663212, 695001728.000000, 11.200000,  -78.120003,  -47.599998, 0.000000,  0.000000 
 17912704.000000, -12.306287 , -1.727618, 3.148954, 695021376.000000, -22.820000,  -76.230003,  -72.870003, 0.000000,  0.000000 
 17932672.000000, -11.466407 , -1.962115, 3.156133, 695041408.000000, -39.060001,  -75.809998,  -98.840004, 0.000000,  0.000000 
 17952640.000000, -10.980663 , -1.684547, 2.897708, 695061376.000000, -26.250000,  -76.860001,  -118.020004, 0.000000,  0.000000 
 17972928.000000, -10.195816 , -1.366302, 3.062813, 695081344.000000, -6.860000,  -76.440002,  -133.770004, 0.000000,  0.000000 
 17992640.000000, -9.391829 , -1.277767, 3.158526, 695101696.000000, 4.550000,  -77.139999,  -142.869995, 0.000000,  0.000000 
 18012608.000000, -8.748159 , -1.038485, 2.687140, 695121344.000000, 10.150000,  -79.519997,  -147.630005, 0.000000,  0.000000 
 18032576.000000, -8.106883 , -0.839881, 1.926222, 695141312.000000, 11.760000,  -84.489998,  -148.960007, 0.000000,  0.000000 
 18052608.000000, -7.231110 , -0.868595, 1.476372, 695161344.000000, 11.480000,  -90.790001,  -144.199997, 0.000000,  0.000000 
 18072896.000000, -6.525227 , -0.916451, 1.261017, 695181312.000000, 5.600000,  -94.779999,  -133.979996, 0.000000,  0.000000 
 18092608.000000, -6.266802 , -0.909273, 1.344766, 695201600.000000, 2.310000,  -93.169998,  -119.279999, 0.000000,  0.000000 
 18112576.000000, -6.695118 , -0.710668, 1.483550, 695221312.000000, 3.990000,  -85.260002,  -104.019997, 0.000000,  0.000000 
 18132544.000000, -7.688138 , -0.531207, 1.483550, 695241280.000000, 7.910000,  -72.660004,  -86.940002, 0.000000,  0.000000 
 18152512.000000, -8.685946 , -0.497707, 1.208375, 695261248.000000, 15.400000,  -60.900002,  -67.059998, 0.000000,  0.000000 
 18172864.000000, -9.346365 , -0.457029, 0.698704, 695281280.000000, 22.540001,  -52.150002,  -45.990002, 0.000000,  0.000000 
 18192512.000000, -9.899107 , -0.641276, 0.547956, 695301568.000000, 26.110001,  -48.230000,  -26.250000, 0.000000,  0.000000 
 18212480.000000, -11.538191 , -0.619741, -0.296710, 695321216.000000, 27.020000,  -41.860001,  -9.450000, 0.000000,  0.000000 
 18232512.000000, -14.246865 , -0.078963, -1.641476, 695341248.000000, 27.440001,  -25.270000,  7.000000, 0.000000,  0.000000 
 18252480.000000, -15.809379 , -0.153141, -1.808974, 695361216.000000, 18.760000,  0.630000,  25.620001, 0.000000,  0.000000 
 18272768.000000, -13.986048 , -0.658026, -0.373280, 695381184.000000, -2.940000,  15.960000,  44.590000, 0.000000,  0.000000 
 18292480.000000, -11.279767 , -0.275175, 0.181855, 695401536.000000, -25.900000,  14.140000,  63.630001, 0.000000,  0.000000 
 18312448.000000, -9.432507 , 0.514457, 0.181855, 695421184.000000, -28.350000,  19.040001,  81.900002, 0.000000,  0.000000 
 18332416.000000, -8.539984 , 0.447458, 0.555135, 695441152.000000, -29.190001,  32.270000,  86.590004, 0.000000,  0.000000 
 18352448.000000, -9.626326 , 0.267996, 1.804188, 695481152.000000, -63.490002,  64.050003,  77.139999, 0.000000,  0.000000 
 18372736.000000, -12.184253 , -0.193819, 1.619941, 0.000000, 0.000000,  0.000000,  0.000000, 0.000000,  0.000000 
 18392384.000000, -13.672589 , -0.263210, 1.318445, 695501440.000000, -67.410004,  89.529999,  73.639999, 0.000000,  0.000000 
 18412416.000000, -13.406984 , -0.512064, 1.306481, 695521152.000000, -40.250000,  100.660004,  79.940002, 0.000000,  0.000000 
 18432384.000000, -11.767902 , -0.741775, 1.406980, 695541120.000000, -18.200001,  89.389999,  90.230003, 0.000000,  0.000000 
 18452352.000000, -10.358529 , -0.131605, 1.249053, 695561088.000000, -19.250000,  74.410004,  96.739998, 0.000000,  0.000000 
 18472704.000000, -9.729217 , -0.021535, 1.349552, 695581120.000000, -28.700001,  71.750000,  104.230003, 0.000000,  0.000000 
 18492352.000000, -9.643075 , -0.772882, 1.909473, 695601408.000000, -47.459999,  78.400002,  107.029999, 0.000000,  0.000000 
 18512320.000000, -9.793823 , -1.380659, 2.337788, 695621056.000000, -59.290001,  86.099998,  110.529999, 0.000000,  0.000000 
 18532352.000000, -9.863215 , -1.349552, 2.469393, 695641088.000000, -52.430000,  88.970001,  110.949997, 0.000000,  0.000000 
 18552320.000000, -9.913465 , -1.452443, 2.349752, 695661056.000000, -36.750000,  86.519997,  112.070000, 0.000000,  0.000000 
 18572608.000000, -9.899107 , -1.464408, 2.471786, 695681024.000000, -26.950001,  83.230003,  110.809998, 0.000000,  0.000000 
 18592320.000000, -9.815358 , -1.691726, 2.904887, 695701376.000000, -28.980000,  78.820000,  108.989998, 0.000000,  0.000000 
 18612288.000000, -9.482756 , -2.175076, 3.460021, 695721024.000000, -36.540001,  76.230003,  108.080002, 0.000000,  0.000000 
 18632256.000000, -8.977871 , -2.627320, 4.072584, 695740992.000000, -44.520000,  71.050003,  104.650002, 0.000000,  0.000000 
 18652288.000000, -9.032906 , -3.022135, 4.539185, 695780992.000000, -18.480000,  60.549999,  93.590004, 0.000000,  0.000000 
 18672576.000000, -9.834501 , -3.512664, 4.661219, 0.000000, 0.000000,  0.000000,  0.000000, 0.000000,  0.000000 
 18692224.000000, -10.059426 , -3.665804, 4.290331, 695801280.000000, 5.880000,  59.430000,  83.580002, 0.000000,  0.000000 
 18712256.000000, -9.769895 , -3.617948, 4.110869, 695840960.000000, 40.459999,  27.719999,  50.889999, 755829632.000000,  1010.710876 
 18732224.000000, -11.164910 , -3.917051, 4.366901, 0.000000, 0.000000,  0.000000,  0.000000, 0.000000,  0.000000 
 18752192.000000, -13.746766 , -3.962514, 4.402793, 695860928.000000, 57.470001,  27.930000,  30.380001, 0.000000,  0.000000 
 18772544.000000, -14.196616 , -2.974278, 3.302095, 695880896.000000, 72.870003,  28.420000,  10.780000, 0.000000,  0.000000 
 18792192.000000, -11.418550 , -1.710868, 2.605784, 695901248.000000, 90.019997,  0.280000,  -1.890000, 0.000000,  0.000000 
 18812160.000000, -9.257831 , -1.385444, 2.471786, 695920896.000000, 91.209999,  -47.670002,  -11.550000, 0.000000,  0.000000 
 18832128.000000, -9.107083 , -1.761117, 2.603391, 695940864.000000, 65.029999,  -66.360001,  -30.940001, 0.000000,  0.000000 
 18852160.000000, -10.241282 , -2.146362, 2.498107, 695960896.000000, 35.070000,  -63.209999,  -54.740002, 0.000000,  0.000000 
 18872448.000000, -12.040684 , -2.488536, 2.289931, 695980864.000000, 22.400000,  -61.040001,  -72.239998, 0.000000,  0.000000 
 18892096.000000, -14.210974 , -2.885744, 2.007578, 696001216.000000, 21.629999,  -63.070000,  -82.110001, 0.000000,  0.000000 
 18912128.000000, -15.512670 , -2.648855, 1.481157, 696020864.000000, 23.170000,  -69.300003,  -88.620003, 0.000000,  0.000000 
 18932096.000000, -14.758930 , -1.533799, 0.770489, 696040896.000000, 33.459999,  -86.029999,  -92.750000, 0.000000,  0.000000 
 18952064.000000, -12.854243 , -1.079163, 0.643669, 696060800.000000, 37.590000,  -112.980003,  -97.580002, 0.000000,  0.000000 
 18972416.000000, -11.708081 , -0.787239, 0.918844, 696080832.000000, 23.240000,  -128.380005,  -105.769997, 0.000000,  0.000000 
 18992064.000000, -11.260624 , -0.622134, 0.921237, 696101120.000000, 4.130000,  -126.980003,  -121.730003, 0.000000,  0.000000 
