Acc_timestamp,Accx,Accy,Accz,Gyro_timestamp,Gyrox,Gyroy,Gyroz,Baro_timestamp,Pressure_Reading
 1787278720.000000, -0.267996 , 3.079563, 9.267403, 0.000000, 0.000000,  0.000000,  0.000000, 0.000000,  0.000000
 20352.000000, -0.421137 , 2.957529, 9.403792, 0.000000, 0.000000,  0.000000,  0.000000, 0.000000,  0.000000
 41344.000000, -0.495314 , 2.672783, 9.588040, 0.000000, 0.000000,  0.000000,  0.000000, 0.000000,  0.000000 
 59776.000000, -0.440279 , 2.792424, 9.566505, 1787339904.000000, -0.070000,  -0.070000,  -0.070000, 0.000000,  0.000000 
 80384.000000, -0.483350 , 2.720639, 9.561719, 1787358336.000000, 0.350000,  4.060000,  11.060000, 0.000000,  0.000000 
 100352.000000, -0.626920 , 2.665605, 9.573684, 1787379072.000000, 7.210000,  -5.040000,  8.540000, 0.000000,  0.000000 
 120320.000000, -0.622134 , 2.565106, 9.528220, 1787399040.000000, 2.310000,  -4.130000,  9.590000, 0.000000,  0.000000 
 141184.000000, -0.538385 , 2.732604, 9.291330, 1787419008.000000, -0.350000,  -6.580000,  8.960000, 0.000000,  0.000000 
 160256.000000, -0.411566 , 2.861816, 9.056834, 1787439872.000000, -0.140000,  -7.280000,  5.810000, 0.000000,  0.000000 
 180352.000000, -0.270389 , 2.840281, 9.099905, 1787458944.000000, 0.560000,  -7.910000,  2.450000, 0.000000,  0.000000 
 200320.000000, 0.064606 , 2.727818, 9.162118, 1787478912.000000, -3.640000,  -9.170000,  -1.610000, 0.000000,  0.000000 
 220288.000000, 0.258425 , 2.876173, 9.085547, 1787499008.000000, -2.380000,  -10.710000,  -2.310000, 0.000000,  0.000000 
 241152.000000, 0.224925 , 3.117848, 9.008978, 1787518976.000000, 6.090000,  -8.400000,  -2.450000, 0.000000,  0.000000 
 260480.000000, -0.040678 , 2.995814, 9.092726, 1787539840.000000, 9.380000,  -2.660000,  0.980000, 0.000000,  0.000000 
 280192.000000, -0.162712 , 2.734996, 9.310472, 1787559040.000000, 2.520000,  -1.330000,  4.550000, 0.000000,  0.000000 
 300288.000000, -0.181855 , 2.557927, 9.454042, 1787578880.000000, -7.420000,  -5.040000,  5.250000, 0.000000,  0.000000 
 320256.000000, -0.349352 , 2.615355, 9.446864, 1787598848.000000, -8.680000,  -7.280000,  5.600000, 0.000000,  0.000000 
 341120.000000, -0.643669 , 2.780460, 9.432507, 1787618816.000000, -3.220000,  -4.620000,  5.740000, 0.000000,  0.000000 
 360192.000000, -0.952343 , 2.761317, 9.516255, 1787639808.000000, 2.800000,  -0.980000,  5.180000, 0.000000,  0.000000 
 380160.000000, -1.117448 , 2.711068, 9.401401, 1787658880.000000, 3.150000,  0.420000,  3.570000, 0.000000,  0.000000 
 400128.000000, -1.165305 , 2.876173, 9.133404, 1787678848.000000, 3.220000,  -0.560000,  5.740000, 0.000000,  0.000000 
 420224.000000, -1.359123 , 2.823531, 8.796017, 1787698816.000000, 2.660000,  0.700000,  10.290000, 0.000000,  0.000000 
 443008.000000, -1.416551 , 2.644069, 8.597411, 1787741696.000000, -15.260000,  1.260000,  20.790001, 1788210048.000000,  1008.586304 
 460160.000000, -1.246661 , 2.438286, 8.295916, 0.000000, 0.000000,  0.000000,  0.000000, 0.000000,  0.000000 
 480128.000000, -1.064806 , 2.431108, 7.963314, 1787758848.000000, -21.280001,  -1.470000,  24.430000, 0.000000,  0.000000 
 500224.000000, -1.160519 , 2.313859, 7.621140, 1787778816.000000, -23.030001,  -0.210000,  26.880001, 0.000000,  0.000000 
 520064.000000, -1.385444 , 2.124826, 7.125826, 1787798784.000000, -25.129999,  5.600000,  32.130001, 0.000000,  0.000000 
 541056.000000, -1.617548 , 2.086541, 6.690332, 1787818752.000000, -29.680000,  12.040000,  39.480000, 0.000000,  0.000000 
 560128.000000, -1.545763 , 1.947758, 6.340980, 1787839616.000000, -42.000000,  15.680000,  48.020000, 0.000000,  0.000000 
 580096.000000, -1.782653 , 1.186840, 5.814559, 1787858688.000000, -64.680000,  18.410000,  63.209999, 0.000000,  0.000000 
 600064.000000, -2.098505 , 0.313460, 5.950950, 1787878784.000000, -103.180000,  21.420000,  81.340004, 0.000000,  0.000000 
 620032.000000, -2.584249 , -1.009771, 5.379066, 1787898752.000000, -149.869995,  22.889999,  99.470001, 0.000000,  0.000000 
 640896.000000, -2.916851 , -1.959722, 5.362316, 1787918720.000000, -202.089996,  22.120001,  122.849998, 0.000000,  0.000000 
 660096.000000, -3.084348 , -3.158526, 5.111069, 1787939584.000000, -246.680008,  17.500000,  147.910004, 0.000000,  0.000000 
 680064.000000, -3.163311 , -3.857230, 4.278367, 1787958656.000000, -277.130005,  9.660000,  160.930008, 0.000000,  0.000000 
 700032.000000, -2.955136 , -4.474578, 3.002992, 1787978624.000000, -308.910004,  1.610000,  169.820007, 0.000000,  0.000000 
 720000.000000, -3.177669 , -5.101498, 1.969293, 1787998720.000000, -345.799988,  -2.240000,  182.699997, 0.000000,  0.000000 
 740864.000000, -3.091527 , -5.414958, 1.241875, 1788018688.000000, -390.179993,  -2.870000,  188.860001, 0.000000,  0.000000 
 759936.000000, -3.096312 , -5.967700, 0.751346, 1788039552.000000, -424.480011,  -4.550000,  195.089996, 0.000000,  0.000000 
 779904.000000, -2.833102 , -6.343372, 0.971486, 1788058624.000000, -442.890015,  -20.090000,  187.389999, 0.000000,  0.000000 
 800256.000000, -2.593820 , -7.491928, 3.247060, 1788078592.000000, -455.630005,  -42.139999,  178.570007, 0.000000,  0.000000 
 819968.000000, -2.569891 , -8.295916, 3.460021, 1788098944.000000, -445.619995,  -64.260002,  180.600006, 0.000000,  0.000000 
 840832.000000, -2.861816 , -9.757930, 3.835695, 1788118656.000000, -394.660004,  -75.739998,  184.380005, 0.000000,  0.000000 
 859904.000000, -3.847659 , -14.328221, 2.483750, 1788139520.000000, -307.720001,  -81.970001,  180.809998, 0.000000,  0.000000 
 879872.000000, -5.656632 , -24.672394, 1.564906, 1788158592.000000, -182.979996,  -91.699997,  185.850006, 0.000000,  0.000000 
 899840.000000, -12.344571 , -36.179478, -2.175076, 1788178560.000000, -105.000000,  -59.570000,  175.979996, 0.000000,  0.000000 
 919936.000000, -19.738392 , -43.690552, -2.146362, 1788198528.000000, -85.330002,  -7.280000,  82.389999, 0.000000,  0.000000 
 940800.000000, -10.552348 , -40.804806, 2.603391, 1788218496.000000, -171.080002,  -87.080002,  -29.120001, 0.000000,  0.000000 
 960128.000000, -11.088341 , -36.107693, 1.320838, 1788239488.000000, -179.339996,  -126.349998,  -34.650002, 0.000000,  0.000000 
 979840.000000, -8.070991 , -31.503904, -0.820738, 1788258816.000000, -47.529999,  -77.000000,  -101.570000, 0.000000,  0.000000 
 999808.000000, -5.175675 , -26.007591, 2.282753, 1788278528.000000, -29.190001,  -40.250000,  -124.739998, 0.000000,  0.000000 
 1019776.000000, -2.517249 , -18.539589, 4.517649, 1788298496.000000, -77.980003,  -35.630001,  -155.470001, 0.000000,  0.000000 
 1040896.000000, -0.679562 , -10.738988, 4.785645, 1788318464.000000, -33.459999,  -44.029999,  -164.009995, 0.000000,  0.000000 
 1059840.000000, 0.208176 , -5.257031, 4.137190, 1788339456.000000, 36.470001,  -55.930000,  -160.300003, 0.000000,  0.000000 
 1079808.000000, 0.114855 , -0.212961, 3.804588, 1788358528.000000, 79.800003,  -66.919998,  -158.690002, 0.000000,  0.000000 
 1099776.000000, 0.507278 , 3.814159, 2.359323, 1788378496.000000, 90.790001,  -67.059998,  -162.889999, 0.000000,  0.000000 
 1119744.000000, 0.277567 , 6.668797, 1.301696, 1788398464.000000, 137.759995,  -49.840000,  -157.570007, 0.000000,  0.000000 
 1140736.000000, -0.502493 , 7.649854, -1.830509, 1788418432.000000, 233.729996,  -26.950001,  -139.300003, 0.000000,  0.000000 
 1159808.000000, -1.040878 , 8.078169, -2.742175, 1788439296.000000, 320.179993,  -1.190000,  -110.250000, 0.000000,  0.000000 
 1179776.000000, -2.433501 , 8.176274, -4.510471, 1788458368.000000, 327.110016,  24.710001,  -63.139999, 0.000000,  0.000000 
 1199744.000000, -3.103491 , 7.281359, -5.283352, 1788478464.000000, 275.309998,  45.220001,  -44.590000, 0.000000,  0.000000 
 1219712.000000, -2.404787 , 4.316652, -5.324030, 1788498432.000000, 173.669998,  27.790001,  -38.430000, 0.000000,  0.000000 
 1240576.000000, -1.572084 , 2.313859, -4.771288, 1788518400.000000, 60.340000,  -28.630001,  -24.290001, 0.000000,  0.000000 
 1259648.000000, -0.947558 , 1.186840, -4.472186, 1788539264.000000, -32.970001,  -75.320000,  2.380000, 0.000000,  0.000000 
 1279744.000000, -0.672383 , -0.241675, -4.283153, 1788558336.000000, -61.320000,  -96.180000,  42.630001, 0.000000,  0.000000 
 1299712.000000, -1.184447 , -0.887737, -3.263810, 1788578304.000000, -52.990002,  -92.889999,  60.340000, 0.000000,  0.000000 
 1319680.000000, -1.634298 , -0.818345, -2.667997, 1788598400.000000, -58.939999,  -73.570000,  51.310001, 0.000000,  0.000000 
 1340544.000000, -1.691726 , -0.303888, -2.440679, 1788618368.000000, -55.650002,  -61.599998,  57.260002, 0.000000,  0.000000 
 1359616.000000, -1.284946 , -0.021535, -2.510071, 1788639232.000000, -35.490002,  -67.690002,  71.959999, 0.000000,  0.000000 
 1379584.000000, -0.605384 , 0.004786, -2.306681, 1788658304.000000, -11.830000,  -80.430000,  85.330002, 0.000000,  0.000000 
 1399680.000000, -0.026321 , 0.253639, -1.194018, 1788678272.000000, -10.570000,  -79.449997,  97.090004, 0.000000,  0.000000 
 1419648.000000, 0.277567 , -2.143969, 0.404387, 1788698240.000000, -30.870001,  -63.070000,  104.580002, 0.000000,  0.000000 
 1442432.000000, -0.167498 , -6.565905, 3.716053, 1788718336.000000, -39.480000,  -29.190001,  117.110001, 0.000000,  0.000000 
 1459584.000000, -2.100898 , -15.993626, 0.753739, 1788741120.000000, -68.879997,  11.200000,  125.370003, 1789209472.000000,  1008.581055 
 1479552.000000, -7.728817 , -39.098721, -2.285146, 1788758272.000000, -105.070000,  -0.700000,  168.279999, 0.000000,  0.000000 
 1499648.000000, -32.805595 , -48.112484, 4.570292, 1788778240.000000, -239.190002,  93.029999,  243.809998, 0.000000,  0.000000 
 1519616.000000, -3.783052 , -38.962330, 8.807980, 1788798336.000000, -412.160004,  238.630005,  147.910004, 0.000000,  0.000000 
 1540480.000000, -1.100698 , -32.319855, 11.787045, 1788818176.000000, -161.419998,  -8.610000,  131.949997, 0.000000,  0.000000 
 1559552.000000, -3.771089 , -26.534012, 10.006784, 1788839168.000000, -26.040001,  53.689999,  59.290001, 0.000000,  0.000000 
 1579520.000000, -8.800802 , -25.974091, 7.680960, 1788858240.000000, 92.330002,  185.009995,  21.629999, 0.000000,  0.000000 
 1599488.000000, -8.973085 , -25.797020, 7.716853, 1788878208.000000, 93.029999,  187.529999,  3.150000, 0.000000,  0.000000 
 1619456.000000, -6.809973 , -25.732414, 8.791230, 1788898176.000000, 13.300000,  93.730003,  4.060000, 0.000000,  0.000000 
 1640448.000000, -6.309873 , -22.136003, 7.613962, 1788918144.000000, -50.470001,  23.379999,  -14.770000, 0.000000,  0.000000 
 1659520.000000, -6.128019 , -15.534204, 5.146961, 1788939008.000000, -7.420000,  7.700000,  -29.750000, 0.000000,  0.000000 
 1679488.000000, -4.651647 , -9.583255, 3.493521, 1788958208.000000, 79.870003,  1.330000,  -38.009998, 0.000000,  0.000000 
 1699456.000000, -3.098706 , -4.161119, 2.498107, 1788978176.000000, 113.889999,  -8.960000,  -43.610001, 0.000000,  0.000000 
 1719424.000000, -1.596013 , -0.461815, 0.993021, 1788998144.000000, 128.589996,  -23.660000,  -51.310001, 0.000000,  0.000000 
 1740416.000000, -1.182054 , 2.409572, -0.368495, 1789018112.000000, 152.180008,  -30.170000,  -56.209999, 0.000000,  0.000000 
 1759488.000000, -0.480957 , 4.871787, -2.428715, 1789038976.000000, 179.339996,  -32.270000,  -84.699997, 0.000000,  0.000000 
 1779456.000000, 0.758525 , 6.951149, -4.438686, 1789058048.000000, 221.130005,  -15.610000,  -78.050003, 0.000000,  0.000000 
 1799424.000000, 0.631705 , 6.764510, -4.527221, 1789078144.000000, 232.680008,  -10.780000,  -56.209999, 0.000000,  0.000000 
 1819392.000000, 1.004985 , 5.379066, -4.220939, 1789098112.000000, 170.240005,  -17.710001,  -55.650002, 0.000000,  0.000000 
 1840256.000000, 0.780060 , 3.381058, -4.130012, 1789118080.000000, 53.270000,  -41.090000,  -25.129999, 0.000000,  0.000000 
 1859328.000000, 0.471386 , 2.060220, -3.873980, 1789138944.000000, -43.820000,  -70.419998,  -0.910000, 0.000000,  0.000000 
 1879424.000000, 0.177069 , 1.091127, -2.749353, 1789158016.000000, -103.809998,  -73.709999,  17.080000, 0.000000,  0.000000 
 1899392.000000, -0.244068 , 0.179462, -1.892723, 1789177984.000000, -130.970001,  -64.050003,  28.070000, 0.000000,  0.000000 
 1919360.000000, -0.595813 , -0.698704, -2.170290, 1789198080.000000, -131.600006,  -56.349998,  32.130001, 0.000000,  0.000000 
 1940224.000000, -0.770489 , -1.753939, -2.825923, 1789218048.000000, -114.099998,  -50.889999,  33.459999, 0.000000,  0.000000 
 1959296.000000, -0.677169 , -2.347359, -1.993221, 1789238912.000000, -87.849998,  -43.540001,  30.520000, 0.000000,  0.000000 
 1979264.000000, -0.157926 , -1.904687, -0.370888, 1789257984.000000, -74.550003,  -36.470001,  26.530001, 0.000000,  0.000000 
 1999360.000000, 0.464208 , -1.177269, -0.136391, 1789277952.000000, -60.689999,  -31.080000,  26.320000, 0.000000,  0.000000 
 2019328.000000, 0.741775 , -0.906880, -0.177069, 1789297920.000000, -33.670002,  -8.610000,  21.700001, 0.000000,  0.000000 
 2040192.000000, 0.746561 , -2.871387, 1.261017, 1789317888.000000, -14.560000,  28.980000,  19.879999, 0.000000,  0.000000 
 2059264.000000, 0.859023 , -10.308280, 6.472585, 1789338880.000000, -7.350000,  60.970001,  20.719999, 0.000000,  0.000000 
 2079232.000000, -2.244468 , -31.286156, -3.352344, 1789357952.000000, -1.960000,  42.630001,  35.209999, 0.000000,  0.000000 
 2099200.000000, -20.102102 , -44.525642, -0.114855, 1789377920.000000, -52.570000,  17.360001,  113.540001, 0.000000,  0.000000 
 2119168.000000, -14.589039 , -42.747780, 4.912465, 1789397888.000000, -368.899994,  268.799988,  95.340004, 0.000000,  0.000000 
 2140160.000000, -2.220540 , -31.977680, 10.935200, 1789417856.000000, -187.740005,  -72.730003,  14.770000, 0.000000,  0.000000 
 2159232.000000, -4.491328 , -24.095724, 9.700503, 1789438848.000000, -86.309998,  74.199997,  47.740002, 0.000000,  0.000000 
 2179200.000000, -8.429914 , -22.698315, 9.006584, 1789457920.000000, 151.270004,  170.520004,  -57.610001, 0.000000,  0.000000 
 2199168.000000, -11.631511 , -25.923840, 7.085148, 1789477888.000000, 183.259995,  199.500000,  -57.820000, 0.000000,  0.000000 
 2219136.000000, -6.798009 , -24.253651, 7.281359, 1789497856.000000, 79.029999,  113.400002,  -52.150002, 0.000000,  0.000000 
 2240128.000000, -4.967500 , -21.083160, 5.673382, 1789517824.000000, 12.320000,  -1.610000,  -40.389999, 0.000000,  0.000000 
 2259200.000000, -5.252246 , -16.553547, 4.208975, 1789538688.000000, 31.780001,  -36.610001,  -52.290001, 0.000000,  0.000000 
 2279168.000000, -5.017749 , -12.071791, 2.823531, 1789557760.000000, 66.919998,  -21.770000,  -54.950001, 0.000000,  0.000000 
 2299136.000000, -4.110869 , -8.032705, 3.390630, 1789577856.000000, 102.129997,  -11.270000,  -37.450001, 0.000000,  0.000000 
 2319104.000000, -2.309074 , -5.209175, 3.366701, 1789597824.000000, 113.330002,  -17.360001,  -20.230000, 0.000000,  0.000000 
 2339968.000000, -1.416551 , -2.124826, -1.557728, 1789617792.000000, 174.229996,  -36.330002,  1.960000, 0.000000,  0.000000 
 2359040.000000, -0.789631 , 2.098505, -4.804788, 1789638656.000000, 268.940002,  -44.310001,  -0.980000, 0.000000,  0.000000 
 2379136.000000, -0.239282 , 7.197611, -5.498707, 1789657728.000000, 291.200012,  -9.170000,  -28.980000, 0.000000,  0.000000 
 2399104.000000, 0.665205 , 9.824929, -5.185246, 1789677696.000000, 283.570007,  21.070000,  -54.529999, 0.000000,  0.000000 
 2419072.000000, 1.490728 , 7.896315, -5.185246, 1789697792.000000, 275.239990,  10.150000,  -64.120003, 0.000000,  0.000000 
 2441984.000000, 2.330609 , 5.723632, -5.044070, 1789717760.000000, 186.550003,  -31.500000,  -58.380001, 0.000000,  0.000000 
 2459008.000000, 1.931008 , 3.263810, -4.692325, 1789740544.000000, 26.180000,  -64.820000,  0.560000, 1790208896.000000,  1008.577820 
 2478976.000000, 0.818345 , 1.684547, -4.503292, 1789757696.000000, -89.250000,  -61.670002,  44.869999, 0.000000,  0.000000 
 2499072.000000, -0.696311 , 0.246461, -3.854837, 1789777664.000000, -157.009995,  -32.689999,  70.699997, 0.000000,  0.000000 
 2519040.000000, -1.919044 , -0.327817, -1.885544, 1789797760.000000, -188.369995,  -4.340000,  74.410004, 0.000000,  0.000000 
 2539904.000000, -2.550749 , -1.239482, -1.493121, 1789817728.000000, -198.660004,  4.410000,  72.940002, 0.000000,  0.000000 
 2558976.000000, -2.440679 , -2.318645, -1.261017, 1789838592.000000, -160.300003,  -16.590000,  71.470001, 0.000000,  0.000000 
 2578944.000000, -1.208375 , -2.254039, -1.584049, 1789857664.000000, -92.050003,  -43.820000,  69.860001, 0.000000,  0.000000 
 2598912.000000, -0.356531 , -1.414158, -1.478764, 1789877632.000000, -35.700001,  -46.060001,  80.500000, 0.000000,  0.000000 
 2619008.000000, -0.062213 , -0.892523, -0.545564, 1789897600.000000, -14.070000,  -21.840000,  76.860001, 0.000000,  0.000000 
 2639872.000000, -0.313460 , -1.856830, 0.552742, 1789917568.000000, -13.230000,  19.110001,  66.989998, 0.000000,  0.000000 
 2658944.000000, -1.208375 , -4.790431, 3.108276, 1789938560.000000, -27.299999,  61.250000,  64.889999, 0.000000,  0.000000 
 2678912.000000, -3.376273 , -15.153747, 8.575876, 1789957632.000000, -61.459999,  95.550003,  56.349998, 0.000000,  0.000000 
 2698880.000000, -11.846866 , -42.539600, 1.383051, 1789977600.000000, -85.680000,  90.720001,  60.340000, 0.000000,  0.000000 
 2718848.000000, -32.913277 , -46.155159, 0.899701, 1789997568.000000, -165.270004,  134.680008,  115.220001, 0.000000,  0.000000 
 2739840.000000, -9.061620 , -34.272400, 6.671190, 1790017536.000000, -168.839996,  138.389999,  119.770004, 0.000000,  0.000000 
 2758912.000000, -9.992428 , -30.333813, 12.808779, 1790038528.000000, -132.089996,  14.980000,  58.520000, 0.000000,  0.000000 
 2778880.000000, -10.392029 , -24.739393, 15.237494, 1790057600.000000, -134.539993,  50.610001,  -112.000000, 0.000000,  0.000000 
 2798848.000000, -13.380664 , -24.291937, 8.047063, 1790077568.000000, 45.220001,  135.309998,  -52.500000, 0.000000,  0.000000 
 2818816.000000, -10.463813 , -18.367306, 6.147161, 1790097536.000000, 153.300003,  112.279999,  -59.430000, 0.000000,  0.000000 
 2839808.000000, -7.240681 , -17.922241, 5.982057, 1790117504.000000, 105.910004,  -24.920000,  -22.260000, 0.000000,  0.000000 
 2858880.000000, -5.654240 , -20.415564, 5.429315, 1790138368.000000, -43.470001,  -135.520004,  -47.950001, 0.000000,  0.000000 
 2878848.000000, -4.357330 , -16.077375, 4.778467, 1790157440.000000, -131.949997,  -145.949997,  -53.200001, 0.000000,  0.000000 
 2898816.000000, -4.476971 , -9.956534, 3.139383, 1790177536.000000, -48.720001,  -103.669998,  -38.150002, 0.000000,  0.000000 
 2918784.000000, -3.311667 , -4.778467, 1.808974, 1790197504.000000, 75.250000,  -65.870003,  -57.189999, 0.000000,  0.000000 
 2939648.000000, -2.112862 , -0.653241, 0.705883, 1790217472.000000, 146.089996,  -52.920002,  -50.189999, 0.000000,  0.000000 
 2958720.000000, -0.399601 , 1.801795, -1.055235, 1790238336.000000, 179.830002,  -55.090000,  -38.570000, 0.000000,  0.000000 
 2978816.000000, -0.260818 , 5.079963, -2.079363, 1790257408.000000, 195.930008,  -58.380001,  -29.120001, 0.000000,  0.000000 
 2998784.000000, 0.098106 , 6.226124, -2.909672, 1790277376.000000, 189.350006,  -51.520000,  -45.360001, 0.000000,  0.000000 
 3018752.000000, 0.055035 , 5.608776, -3.079563, 1790297472.000000, 164.570007,  -36.119999,  -38.009998, 0.000000,  0.000000 
 3039616.000000, -0.485743 , 3.938586, -3.383451, 1790317440.000000, 130.759995,  0.350000,  0.350000, 0.000000,  0.000000 
 3058688.000000, -0.380459 , 3.500700, -3.117848, 1790338304.000000, 77.000000,  -0.210000,  0.420000, 0.000000,  0.000000 
 3078656.000000, -0.031107 , 2.483750, -2.912065, 1790357376.000000, 23.170000,  -19.670000,  3.080000, 0.000000,  0.000000 
 3098880.000000, 0.011964 , 1.804188, -2.739782, 1790377344.000000, 3.920000,  -43.680000,  19.809999, 0.000000,  0.000000 
 3119488.000000, -0.136391 , 1.351945, -2.567499, 1790397440.000000, -13.160000,  -53.549999,  26.880001, 0.000000,  0.000000 
 3139584.000000, -0.234497 , 0.971486, -2.684747, 1790418176.000000, -29.610001,  -52.009998,  37.730000, 0.000000,  0.000000 
 3158784.000000, -0.224925 , 0.725025, -2.608176, 1790438272.000000, -38.150002,  -55.299999,  47.950001, 0.000000,  0.000000 
 3178752.000000, -0.004786 , 0.567099, -2.311467, 1790477440.000000, -55.230000,  -64.750000,  52.709999, 0.000000,  0.000000 
 3198720.000000, 0.334995 , 0.251246, -2.074577, 0.000000, 0.000000,  0.000000,  0.000000, 0.000000,  0.000000 
 3218688.000000, 0.796810 , -0.246461, -2.103291, 1790497408.000000, -55.720001,  -62.510002,  55.650002, 0.000000,  0.000000 
 3239552.000000, 1.148555 , -0.535992, -1.392623, 1790517376.000000, -47.670002,  -51.099998,  56.840000, 0.000000,  0.000000 
 3258752.000000, 1.940579 , -2.213361, 1.205983, 1790538240.000000, -42.490002,  -30.660000,  57.540001, 0.000000,  0.000000 
 3278720.000000, 0.619741 , -15.560526, 7.542177, 1790557440.000000, -32.970001,  -8.960000,  66.010002, 0.000000,  0.000000 
 3298688.000000, -8.539984 , -43.628334, 2.880959, 1790577280.000000, -33.110001,  -39.060001,  118.790001, 0.000000,  0.000000 
 3318656.000000, -36.717861 , -51.215977, 5.130211, 1790597376.000000, -222.949997,  169.960007,  222.600006, 0.000000,  0.000000 
 3339520.000000, -2.813959 , -38.316269, 13.194024, 1790617344.000000, -285.600006,  241.360001,  105.980003, 0.000000,  0.000000 
 3358720.000000, -7.448857 , -33.583267, 14.794822, 1790638208.000000, -193.339996,  33.389999,  70.629997, 0.000000,  0.000000 
 3378560.000000, -13.050454 , -25.691738, 11.980864, 1790657408.000000, -18.480000,  91.419998,  -126.699997, 0.000000,  0.000000 
 3398656.000000, -13.861622 , -21.090338, 8.528020, 1790677248.000000, 134.820007,  226.800003,  -75.110001, 0.000000,  0.000000 
 3418624.000000, -8.157133 , -17.422142, 9.190832, 1790697344.000000, 131.949997,  121.309998,  -95.269997, 0.000000,  0.000000 
 3441408.000000, -6.661618 , -19.415363, 9.013763, 1790717312.000000, -2.660000,  -4.410000,  -71.610001, 0.000000,  0.000000 
 3458688.000000, -4.881358 , -15.926627, 7.731210, 1790740096.000000, -93.590004,  -39.549999,  -93.800003, 1791208448.000000,  1008.576599 
 3478528.000000, -4.405186 , -10.195816, 5.158926, 1790757248.000000, 1.890000,  -8.960000,  -54.250000, 0.000000,  0.000000 
 3498624.000000, -3.605984 , -6.202196, 3.558127, 1790777216.000000, 131.110001,  21.000000,  -35.700001, 0.000000,  0.000000 
 3518592.000000, -2.663212 , -2.536392, 2.421536, 1790797312.000000, 151.759995,  24.500000,  -24.990000, 0.000000,  0.000000 
 3539456.000000, -0.842274 , -0.516850, 0.356531, 1790817280.000000, 141.960007,  17.920000,  -16.309999, 0.000000,  0.000000 
 3558528.000000, -0.502493 , 3.148954, -1.282553, 1790838016.000000, 144.199997,  7.140000,  -9.730000, 0.000000,  0.000000 
 3578496.000000, 0.722632 , 5.568098, -2.995814, 1790857216.000000, 138.809998,  -0.770000,  -24.080000, 0.000000,  0.000000 
 3599360.000000, 1.361516 , 6.364908, -3.663411, 1790877184.000000, 144.550003,  19.320000,  -6.370000, 0.000000,  0.000000 
 3619328.000000, 1.079163 , 4.811966, -3.093920, 1790898048.000000, 126.000000,  32.060001,  -3.430000, 0.000000,  0.000000 
 3640192.000000, 1.100698 , 2.821138, -2.596212, 1790918016.000000, 76.510002,  26.740000,  -5.810000, 0.000000,  0.000000 
 3659392.000000, 0.813560 , 0.868595, -1.904687, 1790938880.000000, 0.490000,  8.610000,  24.360001, 0.000000,  0.000000 
 3679232.000000, 0.093320 , -0.904487, -2.026721, 1790958080.000000, -55.510002,  -0.350000,  44.380001, 0.000000,  0.000000 
 3699712.000000, -0.727418 , -2.335395, -1.691726, 1790977920.000000, -81.059998,  1.960000,  48.020000, 0.000000,  0.000000 
 3719680.000000, -1.459622 , -3.029313, -1.409373, 1790998400.000000, -95.199997,  2.310000,  47.040001, 0.000000,  0.000000 
 3740544.000000, -1.627119 , -2.742175, -1.246661, 1791018240.000000, -99.470001,  -13.580000,  37.520000, 0.000000,  0.000000 
 3759616.000000, -0.868595 , -1.890330, -1.375873, 1791039232.000000, -93.940002,  -38.290001,  23.379999, 0.000000,  0.000000 
 3779584.000000, -0.145962 , -1.363909, -1.404587, 1791058304.000000, -84.070000,  -57.540001,  18.200001, 0.000000,  0.000000 
 3800064.000000, -0.064606 , -1.519442, -0.612563, 1791078272.000000, -70.980003,  -55.160000,  11.270000, 0.000000,  0.000000 
 3820032.000000, -0.071785 , -1.873580, -0.253639, 1791098752.000000, -61.670002,  -31.080000,  2.170000, 0.000000,  0.000000 
 3840896.000000, -0.043071 , -2.249253, -0.267996, 1791118592.000000, -42.630001,  1.750000,  0.070000, 0.000000,  0.000000 
 3859968.000000, -0.354138 , -2.852244, 0.844666, 1791139456.000000, -12.950000,  28.980000,  -4.690000, 0.000000,  0.000000 
 3879936.000000, -0.885344 , -6.778866, 4.618148, 1791158656.000000, 3.010000,  53.760002,  -11.130000, 0.000000,  0.000000 
 3899776.000000, -4.412365 , -18.386450, 5.271388, 1791178624.000000, 0.700000,  70.699997,  -14.700000, 0.000000,  0.000000 
 3921024.000000, -14.258829 , -39.957748, 3.050849, 1791198464.000000, -45.709999,  69.440002,  1.750000, 0.000000,  0.000000 
 3941888.000000, -18.077776 , -38.622551, 5.927022, 1791219712.000000, -143.360001,  170.800003,  55.720001, 0.000000,  0.000000 
 3961088.000000, -6.728617 , -28.043880, 8.011170, 1791240576.000000, -82.669998,  16.100000,  -13.580000, 0.000000,  0.000000 
 3981056.000000, -8.635696 , -21.556938, 9.030513, 1791259776.000000, 9.730000,  11.130000,  -16.030001, 0.000000,  0.000000 
 4001024.000000, -10.389636 , -22.853849, 9.729217, 1791279616.000000, 64.190002,  51.730000,  -91.139999, 0.000000,  0.000000 
 4020992.000000, -11.901899 , -25.837698, 9.686146, 1791299712.000000, 51.380001,  91.349998,  -72.239998, 0.000000,  0.000000 
 4041856.000000, -9.114261 , -21.561724, 9.578469, 1791319680.000000, 47.110001,  69.440002,  -85.889999, 0.000000,  0.000000 
 4061056.000000, -9.803394 , -19.975283, 7.417750, 1791340544.000000, 73.779999,  5.250000,  -55.160000, 0.000000,  0.000000 
 4080896.000000, -8.135597 , -17.699709, 4.756931, 1791359744.000000, 46.759998,  -14.210000,  -57.610001, 0.000000,  0.000000 
 4100992.000000, -6.915257 , -14.340185, 2.581856, 1791379584.000000, 18.549999,  -34.509998,  -41.580002, 0.000000,  0.000000 
 4120832.000000, -6.001199 , -12.193825, 1.861616, 1791399680.000000, 26.040001,  -27.719999,  -23.660000, 0.000000,  0.000000 
 4141696.000000, -4.953143 , -9.121440, 2.347359, 1791419520.000000, 33.040001,  -11.900000,  -4.340000, 0.000000,  0.000000 
 4160768.000000, -3.594020 , -5.955735, 2.076970, 1791440384.000000, 33.459999,  2.520000,  14.000000, 0.000000,  0.000000 
 4180864.000000, -2.323431 , -2.060220, 1.031307, 1791459456.000000, 69.720001,  1.680000,  24.990000, 0.000000,  0.000000 
 4200832.000000, -0.997807 , 2.043471, -0.325424, 1791479424.000000, 94.290001,  -4.480000,  27.790001, 0.000000,  0.000000 
 4220800.000000, 0.732204 , 5.058427, -1.593620, 1791499520.000000, 101.430000,  -5.530000,  29.540001, 0.000000,  0.000000 
 4241664.000000, 1.646262 , 7.223931, -2.033899, 1791519488.000000, 133.210007,  -5.670000,  8.190000, 0.000000,  0.000000 
 4260992.000000, 3.692125 , 7.264609, -2.447858, 1791540352.000000, 180.320007,  0.980000,  -32.830002, 0.000000,  0.000000 
 4280704.000000, 4.524827 , 5.941379, -2.691926, 1791559552.000000, 170.869995,  -0.910000,  -15.120000, 0.000000,  0.000000 
 4300800.000000, 3.845266 , 4.036692, -2.352145, 1791579392.000000, 84.070000,  -28.910000,  10.990000, 0.000000,  0.000000 
 4320768.000000, 2.108077 , 1.842474, -1.899901, 1791599360.000000, -10.220000,  -29.610001,  51.310001, 0.000000,  0.000000 
 4341632.000000, 0.019143 , 0.478565, -1.533799, 1791619456.000000, -58.310001,  -9.240000,  82.739998, 0.000000,  0.000000 
 4360704.000000, -1.095913 , -0.555135, -1.840081, 1791640320.000000, -68.949997,  -0.210000,  95.620003, 0.000000,  0.000000 
 4380672.000000, -1.581656 , -0.555135, -2.423929, 1791659392.000000, -59.500000,  -0.770000,  105.699997, 0.000000,  0.000000 
 4400640.000000, -1.028914 , 0.045464, -3.165704, 1791679360.000000, -62.720001,  -12.390000,  106.610001, 0.000000,  0.000000 
 4420736.000000, -0.186640 , -0.011964, -2.600998, 1791699328.000000, -64.750000,  -21.420000,  104.790001, 0.000000,  0.000000 
 4443520.000000, 0.124427 , -1.031307, -1.148555, 1791719296.000000, -51.590000,  -28.980000,  89.739998, 0.000000,  0.000000 
 4460672.000000, -0.026321 , -2.895315, 0.224925, 1791742208.000000, -35.139999,  -19.530001,  62.790001, 1792210560.000000,  1008.574341 
 4480640.000000, 0.277567 , -2.474179, 0.186640, 1791759360.000000, -14.980000,  8.400000,  43.400002, 0.000000,  0.000000 
 4500736.000000, 0.765703 , -0.667598, 0.760918, 1791779328.000000, -1.400000,  39.689999,  55.160000, 0.000000,  0.000000 
 4520576.000000, -0.299103 , -1.887937, 1.861616, 1791799296.000000, 20.650000,  62.439999,  64.959999, 0.000000,  0.000000 
 4541568.000000, -4.120440 , -10.815558, 8.066205, 1791819264.000000, 16.379999,  101.290001,  51.590000, 0.000000,  0.000000 
 4560640.000000, -17.395821 , -27.876385, 2.172683, 1791840128.000000, -61.459999,  139.020004,  32.410000, 0.000000,  0.000000 
 4580608.000000, -56.635715 , -49.521858, -3.675375, 1791859328.000000, -200.059998,  234.430008,  60.060001, 0.000000,  0.000000 
 4600576.000000, -17.357534 , -37.316067, 7.685746, 1791879296.000000, -284.619995,  119.980003,  210.490005, 0.000000,  0.000000 
 4620544.000000, -13.612768 , -30.843485, 9.245867, 1791899264.000000, -309.540009,  -59.639999,  117.389999, 0.000000,  0.000000 
 4641536.000000, -14.857035 , -18.015562, 12.363714, 1791940096.000000, 123.129997,  96.529999,  -115.639999, 0.000000,  0.000000 
 4660608.000000, -11.933006 , -14.268401, 8.903693, 0.000000, 0.000000,  0.000000,  0.000000, 0.000000,  0.000000 
 4680576.000000, -13.768302 , -12.990634, 8.130811, 1791959168.000000, 210.350006,  76.580002,  -82.809998, 0.000000,  0.000000 
 4700544.000000, -12.866207 , -17.733210, 7.936993, 1791979264.000000, 95.900002,  32.480000,  -51.799999, 0.000000,  0.000000 
 4720512.000000, -10.650455 , -21.329622, 6.836295, 1791999232.000000, -23.379999,  -43.820000,  -57.889999, 0.000000,  0.000000 
 4741376.000000, -11.490334 , -17.924635, 3.634698, 1792019200.000000, -23.799999,  -85.120003,  -77.279999, 0.000000,  0.000000 
 4760448.000000, -10.389636 , -12.014362, 2.165504, 1792040064.000000, 64.889999,  -63.560001,  -46.689999, 0.000000,  0.000000 
 4780544.000000, -7.159326 , -9.410972, 2.244468, 1792059136.000000, 93.519997,  -37.939999,  -44.310001, 0.000000,  0.000000 
 4800512.000000, -5.706882 , -6.608976, 1.502693, 1792079104.000000, 62.650002,  -54.670002,  -72.239998, 0.000000,  0.000000 
 4820480.000000, -4.503292 , -3.249453, -0.622134, 1792099200.000000, 69.019997,  -49.420002,  -74.410004, 0.000000,  0.000000 
 4841344.000000, -3.218346 , 1.373480, -0.820738, 1792119168.000000, 90.090004,  -40.389999,  -45.849998, 0.000000,  0.000000 
 4860416.000000, -0.873380 , 4.917251, -1.521835, 1792140032.000000, 68.529999,  -47.599998,  -23.520000, 0.000000,  0.000000 
 4880384.000000, 1.103091 , 5.508278, -2.567499, 1792159104.000000, 59.010002,  -66.639999,  -15.470000, 0.000000,  0.000000 
 4900480.000000, 2.651247 , 5.931807, -2.459821, 1792179072.000000, 59.570000,  -64.190002,  -48.160000, 0.000000,  0.000000 
 4920448.000000, 4.589434 , 6.532406, -2.423929, 1792199040.000000, 69.019997,  -41.020000,  -62.230000, 0.000000,  0.000000 
 4941312.000000, 5.343173 , 6.613762, -3.232704, 1792219136.000000, 107.379997,  -28.280001,  -47.040001, 0.000000,  0.000000 
 4960384.000000, 4.249653 , 5.484349, -3.613162, 1792240000.000000, 112.980003,  -6.860000,  -31.990000, 0.000000,  0.000000 
 4980352.000000, 1.986043 , 3.811767, -3.158526, 1792259072.000000, 59.920002,  31.920000,  11.270000, 0.000000,  0.000000 
 5000320.000000, 0.318245 , 2.593820, -3.017349, 1792279040.000000, -29.049999,  56.000000,  56.139999, 0.000000,  0.000000 
 5020416.000000, -0.602991 , 0.756132, -2.744568, 1792299008.000000, -108.779999,  53.410000,  82.809998, 0.000000,  0.000000 
 5041280.000000, -1.371087 , -1.299303, -1.756332, 1792318976.000000, -157.430008,  33.880001,  84.840004, 0.000000,  0.000000 
 5060352.000000, -1.627119 , -2.955136, -0.677169, 1792339968.000000, -183.680008,  7.210000,  71.889999, 0.000000,  0.000000 
 5080320.000000, -1.686940 , -3.725625, -0.260818, 1792359040.000000, -168.490005,  -15.260000,  63.910000, 0.000000,  0.000000 
 5100288.000000, -0.847059 , -2.713461, -0.600598, 1792379008.000000, -106.820000,  -33.040001,  55.860001, 0.000000,  0.000000 
 5120256.000000, -0.504886 , -1.840081, -0.894916, 1792398976.000000, -39.060001,  -31.290001,  55.790001, 0.000000,  0.000000 
 5141248.000000, -1.619941 , -3.213561, 0.394816, 1792418944.000000, -6.230000,  -7.000000,  44.310001, 0.000000,  0.000000 
 5160320.000000, -3.613162 , -9.372685, 3.046063, 1792439936.000000, -36.540001,  41.160000,  20.930000, 0.000000,  0.000000 
 5181056.000000, -10.841879 , -22.868206, 1.390230, 1792459008.000000, -79.940002,  81.269997,  18.270000, 0.000000,  0.000000 
 5200384.000000, -47.160141 , -43.771908, 2.888137, 1792479744.000000, -70.840004,  106.190002,  52.990002, 0.000000,  0.000000 
 5220352.000000, -16.302301 , -31.460831, 4.407579, 1792498944.000000, -96.809998,  208.880005,  127.050003, 0.000000,  0.000000 
 5241216.000000, -18.094524 , -28.082167, 5.828916, 1792519040.000000, -32.900002,  27.370001,  111.790001, 0.000000,  0.000000 
 5260288.000000, -15.062819 , -21.236300, 10.796415, 1792539904.000000, -4.340000,  61.599998,  -101.010002, 0.000000,  0.000000 
 5280384.000000, -16.594225 , -21.906290, 9.801002, 1792558976.000000, -7.630000,  107.379997,  -105.139999, 0.000000,  0.000000 
 5300224.000000, -16.735401 , -19.858034, 7.049256, 1792579072.000000, 17.500000,  113.400002,  -108.150002, 0.000000,  0.000000 
 5320320.000000, -14.548362 , -18.264416, 7.544570, 1792598912.000000, 76.790001,  52.990002,  -56.279999, 0.000000,  0.000000 
 5341184.000000, -12.514462 , -14.828322, 6.778866, 1792619008.000000, 109.199997,  -33.180000,  -38.009998, 0.000000,  0.000000 
 5360256.000000, -11.863614 , -11.574083, 4.400401, 1792639872.000000, 95.410004,  -33.950001,  -37.869999, 0.000000,  0.000000 
 5380352.000000, -9.066404 , -8.047063, 3.617948, 1792658944.000000, 62.369999,  -19.670000,  -30.309999, 0.000000,  0.000000 
 5400192.000000, -6.776474 , -6.216553, 2.981457, 1792678912.000000, 58.660000,  -33.810001,  3.500000, 0.000000,  0.000000 
 5420288.000000, -4.589434 , -3.926622, 1.390230, 1792698880.000000, 52.990002,  -28.770000,  28.630001, 0.000000,  0.000000 
 5443072.000000, -2.612962 , -1.931008, -0.947558, 1792718848.000000, 62.720001,  -31.710001,  25.830000, 0.000000,  0.000000 
 5460224.000000, -1.517050 , 1.670190, -1.481157, 1792741760.000000, 86.099998,  -25.549999,  15.750000, 1793210112.000000,  1008.569641 
 5480192.000000, 1.399801 , 4.031906, -2.242075, 1792758784.000000, 113.750000,  -11.620000,  -7.980000, 0.000000,  0.000000 
 5500160.000000, 2.258825 , 4.244867, -2.924029, 1792778880.000000, 119.629997,  -42.000000,  41.930000, 0.000000,  0.000000 
 5520128.000000, 3.381058 , 4.390830, -3.455236, 1792798848.000000, 158.130005,  -47.040001,  43.820000, 0.000000,  0.000000 
 5541120.000000, 4.122833 , 4.421937, -3.026921, 1792818816.000000, 180.880005,  -23.240000,  15.330000, 0.000000,  0.000000 
 5560064.000000, 3.804588 , 4.027121, -2.778067, 1792839808.000000, 154.000000,  10.570000,  25.059999, 0.000000,  0.000000 
 5580160.000000, 2.634498 , 3.189633, -2.880959, 1792858752.000000, 94.919998,  26.530001,  39.830002, 0.000000,  0.000000 
 5600128.000000, 1.471586 , 2.435893, -3.072384, 1792878848.000000, 19.879999,  30.520000,  58.450001, 0.000000,  0.000000 
 5620992.000000, 0.392423 , 1.292124, -3.546163, 1792898816.000000, -48.930000,  21.139999,  76.650002, 0.000000,  0.000000 
 5641856.000000, -0.002393 , 0.050249, -2.646462, 1792919680.000000, -109.199997,  3.290000,  81.199997, 0.000000,  0.000000 
 5660928.000000, -0.090927 , -0.985843, -2.014757, 1792940544.000000, -160.160004,  -13.790000,  74.480003, 0.000000,  0.000000 
 5681024.000000, -0.138784 , -1.423729, -2.301895, 1792959616.000000, -196.279999,  -28.559999,  65.870003, 0.000000,  0.000000 
 5700992.000000, -0.055035 , -2.122434, -2.325824, 1792979712.000000, -195.720001,  -38.709999,  53.900002, 0.000000,  0.000000 
 5721472.000000, -0.997807 , -5.058427, -0.074178, 1792999680.000000, -161.139999,  -40.040001,  47.529999, 0.000000,  0.000000 
 5742208.000000, -2.555535 , -9.631111, 1.593620, 1793020032.000000, -121.940002,  -24.430000,  35.700001, 0.000000,  0.000000 
 5761280.000000, -3.768696 , -12.236896, 2.541178, 1793040896.000000, -82.250000,  -2.800000,  17.219999, 0.000000,  0.000000 
 5781376.000000, -7.932207 , -18.573088, 5.017749, 1793059968.000000, -47.740002,  34.650002,  -7.630000, 0.000000,  0.000000 
 5801344.000000, -22.853849 , -35.095528, 4.584648, 1793080064.000000, -2.240000,  65.870003,  -12.600000, 0.000000,  0.000000 
 5821824.000000, -24.748966 , -31.001410, 5.845665, 1793099904.000000, -1.400000,  125.720001,  43.540001, 0.000000,  0.000000 
 5842560.000000, -20.714666 , -29.745178, 11.612368, 1793120384.000000, 8.820000,  -20.160000,  107.309998, 0.000000,  0.000000 
 5861632.000000, -22.796421 , -24.859034, 11.710474, 1793141248.000000, -54.529999,  48.860001,  -19.389999, 0.000000,  0.000000 
 5881728.000000, -24.564716 , -19.642681, 13.043276, 1793160320.000000, 74.269997,  111.440002,  -127.680000, 0.000000,  0.000000 
 5901696.000000, -25.952555 , -16.235302, 7.432107, 1793180416.000000, 189.559998,  147.559998,  -113.750000, 0.000000,  0.000000 
 5921408.000000, -18.384056 , -11.526227, 5.307281, 1793200256.000000, 174.369995,  91.419998,  -63.840000, 0.000000,  0.000000 
 5943552.000000, -9.808180 , -9.214760, 5.759524, 1793220096.000000, 25.480000,  -11.060000,  -12.600000, 0.000000,  0.000000 
 5962624.000000, -6.130411 , -4.079762, 4.266403, 1793242240.000000, 16.450001,  -103.180000,  -51.660000, 0.000000,  0.000000 
 5982720.000000, -1.079163 , 2.749353, 1.328017, 1793261312.000000, 63.209999,  -138.949997,  -20.860001, 0.000000,  0.000000 
 6002688.000000, 1.368695 , 5.228317, -1.552942, 1793281408.000000, 177.169998,  -163.729996,  16.030001, 0.000000,  0.000000 
 6022784.000000, 2.555535 , 5.414958, -3.426522, 1793301376.000000, 188.440002,  -154.699997,  22.680000, 0.000000,  0.000000 
 6043648.000000, 5.436492 , 6.336195, -2.694318, 1793321472.000000, 192.639999,  -105.910004,  -88.269997, 0.000000,  0.000000 
 6062720.000000, 7.625926 , 5.278566, -3.041277, 1793342336.000000, 145.039993,  -42.490002,  -127.260002, 0.000000,  0.000000 
 6082688.000000, 7.759924 , 2.012364, -3.225525, 1793361280.000000, 14.070000,  -102.970001,  4.200000, 0.000000,  0.000000 
 6102656.000000, 3.914658 , 0.859023, -2.268396, 1793381376.000000, -56.770000,  -3.430000,  26.670000, 0.000000,  0.000000 
 6122624.000000, 1.761117 , -0.057428, -2.246860, 1793401344.000000, -101.430000,  81.550003,  -1.400000, 0.000000,  0.000000 
 6143488.000000, 0.435494 , -1.533799, -2.378466, 1793421312.000000, -90.860001,  85.889999,  7.770000, 0.000000,  0.000000 
 6162560.000000, -0.330210 , -2.411965, -1.849652, 1793442176.000000, -61.110001,  42.349998,  7.980000, 0.000000,  0.000000 
 6182528.000000, -0.461815 , -2.352145, -1.244268, 1793461248.000000, -36.889999,  2.170000,  11.130000, 0.000000,  0.000000 
 6202496.000000, -0.586242 , -1.940579, -1.050449, 1793481216.000000, -16.660000,  -18.129999,  23.799999, 0.000000,  0.000000 
 6222464.000000, -0.763310 , -1.849652, -1.402194, 1793501184.000000, -2.170000,  -29.820000,  15.050000, 0.000000,  0.000000 
 6243456.000000, -0.851845 , -1.909473, -1.402194, 1793521152.000000, -1.330000,  -32.340000,  -0.490000, 0.000000,  0.000000 
 6262528.000000, -0.617348 , -1.497907, -1.299303, 1793542016.000000, 2.310000,  -31.850000,  -9.310000, 0.000000,  0.000000 
 6282496.000000, -0.332602 , -0.722632, -0.897308, 1793561088.000000, 18.270000,  -30.170000,  -19.809999, 0.000000,  0.000000 
 6302464.000000, -0.189033 , -0.672383, -0.378066, 1793581184.000000, 20.860001,  -20.160000,  -31.010000, 0.000000,  0.000000 
 6322432.000000, -1.191626 , -1.064806, 2.019542, 1793601152.000000, 6.300000,  5.250000,  -35.770000, 0.000000,  0.000000 
 6343296.000000, -3.115455 , -4.876573, 8.456236, 1793621120.000000, -12.810000,  42.560001,  -36.820000, 0.000000,  0.000000 
 6362496.000000, -11.246266 , -23.856440, 10.640882, 1793641984.000000, -10.220000,  83.930000,  -31.080000, 0.000000,  0.000000 
 6382464.000000, -70.997444 , -44.126045, 10.126426, 1793661056.000000, -24.920000,  126.209999,  17.780001, 0.000000,  0.000000 
 6402432.000000, -23.997616 , -28.790443, 10.449455, 1793681024.000000, -236.529999,  447.440002,  145.110001, 0.000000,  0.000000 
 6422400.000000, -18.573088 , -24.799213, 12.339786, 1793701120.000000, -52.849998,  19.740000,  75.320000, 0.000000,  0.000000 
 6445184.000000, -15.067604 , -18.558733, 14.756538, 1793743872.000000, 14.420000,  41.930000,  -135.940002, 1794212224.000000,  1008.566040 
 6462336.000000, -15.524633 , -16.072590, 11.617154, 0.000000, 0.000000,  0.000000,  0.000000, 0.000000,  0.000000 
 6482432.000000, -16.137196 , -11.937792, 6.690332, 1793761024.000000, 72.800003,  55.160000,  -84.070000, 0.000000,  0.000000 
 6502400.000000, -12.966705 , -11.145767, 5.379066, 1793780992.000000, 69.930000,  9.940000,  -8.330000, 0.000000,  0.000000 
 6522368.000000, -11.294124 , -15.096318, 5.369494, 1793801088.000000, -30.870001,  -65.379997,  31.150000, 0.000000,  0.000000 
 6543232.000000, -8.712267 , -11.832507, 5.187639, 1793821056.000000, -80.150002,  -99.260002,  18.549999, 0.000000,  0.000000 
 6562304.000000, -5.867201 , -7.209574, 4.357330, 1793841920.000000, -32.480000,  -60.340000,  34.720001, 0.000000,  0.000000 
 6582272.000000, -3.634698 , -3.670590, 2.483750, 1793860992.000000, 40.040001,  -29.820000,  47.740002, 0.000000,  0.000000 
 6602240.000000, -2.060220 , -0.387637, 0.062213, 1793880960.000000, 85.680000,  -28.420000,  38.150002, 0.000000,  0.000000 
 6622336.000000, -0.631705 , 1.552942, -1.478764, 1793900928.000000, 120.680000,  -37.310001,  14.490000, 0.000000,  0.000000 
 6643200.000000, 1.792224 , 4.180261, -1.765903, 1793920896.000000, 144.759995,  -64.889999,  -13.090000, 0.000000,  0.000000 
 6662272.000000, 6.034698 , 4.596612, -1.050449, 1793941888.000000, 135.729996,  -112.840004,  -15.820000, 0.000000,  0.000000 
 6682240.000000, 7.290931 , 2.928815, -2.749353, 1793960960.000000, 113.260002,  -94.919998,  11.200000, 0.000000,  0.000000 
 6702208.000000, 4.972286 , 1.770689, -3.156133, 1793980928.000000, 61.810001,  -28.559999,  13.930000, 0.000000,  0.000000 
 6722176.000000, 2.885744 , 0.875773, -2.830709, 1794000896.000000, -7.700000,  26.600000,  10.570000, 0.000000,  0.000000 
 6743168.000000, 1.804188 , 0.057428, -2.751746, 1794020864.000000, -45.430000,  37.730000,  11.200000, 0.000000,  0.000000 
 6762240.000000, 1.538585 , -0.725025, -2.009971, 1794041728.000000, -69.510002,  1.470000,  11.480000, 0.000000,  0.000000 
 6782208.000000, 1.543371 , -1.265803, -1.234696, 1794060928.000000, -83.230003,  -38.849998,  18.760000, 0.000000,  0.000000 
 6802176.000000, 1.325624 , -0.851845, -2.050649, 1794080896.000000, -78.680000,  -59.430000,  24.850000, 0.000000,  0.000000 
 6822144.000000, 1.122234 , -0.114855, -2.806781, 1794100864.000000, -67.830002,  -55.439999,  21.910000, 0.000000,  0.000000 
 6843136.000000, 0.770489 , -0.880559, -2.421536, 1794120832.000000, -60.410000,  -42.139999,  22.190001, 0.000000,  0.000000 
 6862208.000000, 0.815953 , -1.904687, -1.421337, 1794141696.000000, -43.610001,  -29.330000,  17.150000, 0.000000,  0.000000 
 6882176.000000, 1.033699 , -1.758725, -0.600598, 1794160768.000000, -20.440001,  -27.790001,  13.160000, 0.000000,  0.000000 
 6902144.000000, 0.203390 , -1.454836, 0.859023, 1794180864.000000, 9.730000,  -16.940001,  14.560000, 0.000000,  0.000000 
 6922112.000000, -1.672583 , -4.359723, 5.587241, 1794200832.000000, 24.780001,  35.070000,  10.080000, 0.000000,  0.000000 
 6942976.000000, -9.444471 , -17.615959, 11.676974, 1794220800.000000, 9.520000,  85.680000,  15.890000, 0.000000,  0.000000 
 6962048.000000, -35.665020 , -38.225342, 11.430513, 1794241664.000000, -24.010000,  111.160004,  54.950001, 0.000000,  0.000000 
 6982144.000000, -25.797020 , -26.976681, 6.618547, 1794260736.000000, -177.029999,  471.380005,  192.080002, 0.000000,  0.000000 
 7002112.000000, -22.971098 , -31.348370, 9.932607, 1794280704.000000, -104.300003,  -10.430000,  159.389999, 0.000000,  0.000000 
 7022080.000000, -17.771494 , -17.979670, 15.046068, 1794320768.000000, 84.139999,  114.309998,  -112.910004, 0.000000,  0.000000 
 7042944.000000, -20.800808 , -13.093525, 10.727024, 0.000000, 0.000000,  0.000000,  0.000000, 0.000000,  0.000000 
 7062016.000000, -18.821943 , -12.011970, 7.465607, 1794341632.000000, 159.669998,  137.410004,  -64.889999, 0.000000,  0.000000 
 7081984.000000, -13.268202 , -13.691730, 6.910471, 1794360704.000000, 63.910000,  56.770000,  -1.400000, 0.000000,  0.000000 
 7102080.000000, -11.464014 , -17.764317, 6.276374, 1794380672.000000, -80.989998,  -43.959999,  8.960000, 0.000000,  0.000000 
 7122048.000000, -9.681360 , -13.045669, 4.701896, 1794400640.000000, -124.320000,  -86.519997,  -38.080002, 0.000000,  0.000000 
 7142912.000000, -6.348158 , -6.020342, 3.168097, 1794420608.000000, -47.810001,  -75.180000,  -30.030001, 0.000000,  0.000000 
 7161984.000000, -3.567699 , -1.019342, 1.210768, 1794441600.000000, 46.970001,  -68.110001,  -7.490000, 0.000000,  0.000000 
 7182080.000000, -1.428515 , 2.275574, 0.038285, 1794460672.000000, 74.129997,  -80.220001,  -22.820000, 0.000000,  0.000000 
 7202816.000000, 0.531207 , 3.409772, -0.478565, 1794480768.000000, 67.059998,  -103.529999,  -19.460001, 0.000000,  0.000000 
 7222016.000000, 1.196411 , 3.402594, -0.634098, 1794501376.000000, 72.379997,  -91.980003,  -30.380001, 0.000000,  0.000000 
 7243904.000000, 2.088934 , 3.739982, -1.103091, 1794542464.000000, 88.340004,  -31.850000,  -49.209999, 0.000000,  0.000000 
 7262848.000000, 3.086741 , 3.433701, -1.825724, 0.000000, 0.000000,  0.000000,  0.000000, 0.000000,  0.000000 
 7282816.000000, 2.220540 , 2.048256, -2.476572, 1794561536.000000, 54.180000,  5.810000,  -0.350000, 0.000000,  0.000000 
 7302912.000000, 1.569692 , 0.966700, -1.763510, 1794581504.000000, 26.809999,  25.270000,  1.050000, 0.000000,  0.000000 
 7322880.000000, 1.842474 , 0.782453, -1.198804, 1794601600.000000, 8.820000,  10.920000,  13.440001, 0.000000,  0.000000 
 7344256.000000, 1.873580 , 0.753739, -1.672583, 1794621568.000000, 6.370000,  -19.670000,  31.219999, 0.000000,  0.000000 
 7363200.000000, 1.584049 , 1.083949, -1.998007, 1794642816.000000, 1.400000,  -33.670002,  31.290001, 0.000000,  0.000000 
 7383168.000000, 1.026521 , 0.669990, -1.588834, 1794661888.000000, -22.680000,  -30.940001,  40.810001, 0.000000,  0.000000 
 7403264.000000, 0.543171 , -0.277567, -0.815953, 1794681856.000000, -49.000000,  -24.850000,  47.320000, 0.000000,  0.000000 
 7423232.000000, 0.509671 , -1.514657, -0.593420, 1794701952.000000, -78.540001,  -27.860001,  45.570000, 0.000000,  0.000000 
 7446528.000000, 0.631705 , -2.163112, -0.363709, 1794745216.000000, -22.680000,  -30.660000,  34.230000, 1795213440.000000,  1008.565369 
 7463552.000000, 0.074178 , -2.390430, 0.090927, 0.000000, 0.000000,  0.000000,  0.000000, 0.000000,  0.000000 
 7483520.000000, -1.060020 , -3.503092, 1.942972, 1794762240.000000, -3.430000,  -9.660000,  16.730000, 0.000000,  0.000000 
 7503616.000000, -3.194418 , -9.939785, 6.513263, 1794782208.000000, -28.000000,  19.879999,  6.860000, 0.000000,  0.000000 
 7523456.000000, -13.081561 , -33.131023, 6.053841, 1794802304.000000, -70.769997,  61.110001,  -18.340000, 0.000000,  0.000000 
 7544320.000000, -48.693939 , -41.118263, 6.235696, 1794822144.000000, -162.050003,  104.580002,  -19.460001, 0.000000,  0.000000 
 7564672.000000, -17.046469 , -29.671001, 7.475177, 1794842880.000000, -247.869995,  188.369995,  45.500000, 0.000000,  0.000000 
 7584640.000000, -17.029718 , -26.854649, 8.736196, 1794863232.000000, -88.690002,  -49.770000,  16.730000, 0.000000,  0.000000 
 7604608.000000, -16.850256 , -23.880371, 10.432706, 1794883328.000000, -55.720001,  -56.209999,  -165.759995, 0.000000,  0.000000 
 7624576.000000, -16.496119 , -24.811180, 7.922636, 1794903296.000000, -15.330000,  11.900000,  -133.630005, 0.000000,  0.000000 
 7645568.000000, -17.032110 , -22.999811, 7.144968, 1794923264.000000, 23.170000,  53.619999,  -153.930008, 0.000000,  0.000000 
 7664640.000000, -12.806387 , -17.747566, 6.762117, 1794944256.000000, 52.500000,  42.139999,  -149.660004, 0.000000,  0.000000 
 7684608.000000, -8.700303 , -14.306686, 5.352744, 1794963200.000000, 37.730000,  -22.400000,  -127.400002, 0.000000,  0.000000 
 7704704.000000, -6.623333 , -11.124231, 5.230711, 1794983168.000000, 10.920000,  -73.709999,  -99.190002, 0.000000,  0.000000 
 7724544.000000, -4.874180 , -6.793223, 5.280960, 1795003264.000000, 3.570000,  -74.690002,  -92.959999, 0.000000,  0.000000 
 7745536.000000, -4.060620 , -2.091327, 3.321238, 1795023232.000000, 55.020000,  -50.540001,  -77.769997, 0.000000,  0.000000 
 7764480.000000, -3.134598 , 0.658026, -0.021535, 1795044096.000000, 143.639999,  -30.590000,  -66.010002, 0.000000,  0.000000 
 7784576.000000, -2.031506 , 3.771089, -1.509871, 1795063168.000000, 222.320007,  -33.389999,  -41.930000, 0.000000,  0.000000 
 7804544.000000, -0.710668 , 6.616155, -2.725425, 1795083136.000000, 231.279999,  -54.250000,  -20.160000, 0.000000,  0.000000 
 7824512.000000, -0.129212 , 7.436893, -4.237689, 1795103232.000000, 194.740005,  -71.540001,  -29.049999, 0.000000,  0.000000 
 7845504.000000, 1.062413 , 6.439085, -4.778467, 1795123200.000000, 151.550003,  -41.790001,  -47.250000, 0.000000,  0.000000 
 7864448.000000, 1.890330 , 4.335794, -4.139583, 1795144064.000000, 55.299999,  -28.490000,  -17.850000, 0.000000,  0.000000 
 7884416.000000, 2.636890 , 2.072184, -4.034299, 1795183104.000000, -75.250000,  -56.700001,  18.270000, 0.000000,  0.000000 
 7904512.000000, 2.443072 , 0.442672, -3.725625, 0.000000, 0.000000,  0.000000,  0.000000, 0.000000,  0.000000 
 7924480.000000, 1.665405 , -0.519243, -3.613162, 1795203200.000000, -77.980003,  -59.990002,  38.290001, 0.000000,  0.000000 
 7945472.000000, 0.445065 , -0.583849, -2.684747, 1795223040.000000, -62.650002,  -35.560001,  62.439999, 0.000000,  0.000000 
 7964416.000000, -0.583849 , -1.028914, -2.208575, 1795244032.000000, -62.860001,  -5.530000,  60.900002, 0.000000,  0.000000 
 7984384.000000, -0.918844 , -1.722832, -2.136791, 1795263104.000000, -62.860001,  -8.750000,  48.160000, 0.000000,  0.000000 
 8004480.000000, -0.413958 , -2.457429, -1.770689, 1795283072.000000, -67.970001,  -29.960001,  37.029999, 0.000000,  0.000000 
 8024448.000000, 0.789631 , -2.488536, -1.143769, 1795303168.000000, -69.440002,  -53.270000,  29.750000, 0.000000,  0.000000 
 8045312.000000, 1.818545 , -2.167897, 0.363709, 1795323008.000000, -63.840000,  -64.330002,  27.860001, 0.000000,  0.000000 
 8064384.000000, 1.725225 , -3.428915, 2.153540, 1795344000.000000, -51.310001,  -45.430000,  26.740000, 0.000000,  0.000000 
 8084352.000000, 0.313460 , -7.032506, 5.111069, 1795363072.000000, -33.670002,  9.730000,  23.520000, 0.000000,  0.000000 
 8104448.000000, -1.112662 , -16.539190, 7.776673, 1795383040.000000, -24.290001,  76.790001,  22.049999, 0.000000,  0.000000 
 8124288.000000, -8.484949 , -30.197422, 9.403792, 1795403136.000000, -22.889999,  82.739998,  30.940001, 0.000000,  0.000000 
 8145280.000000, -17.704494 , -36.244083, 5.510671, 1795422976.000000, -82.320000,  104.650002,  74.690002, 0.000000,  0.000000 
 8164224.000000, -19.525433 , -28.919655, 4.106083, 1795443968.000000, -127.540001,  328.230011,  175.559998, 0.000000,  0.000000 
 8184320.000000, -9.942179 , -31.468010, 9.724431, 1795462912.000000, -75.599998,  55.580002,  110.250000, 0.000000,  0.000000 
 8204160.000000, -11.921042 , -27.495924, 15.117853, 1795483008.000000, -90.090004,  89.250000,  -17.500000, 0.000000,  0.000000 
 8224256.000000, -11.272588 , -21.556938, 9.865608, 1795502848.000000, -10.990000,  136.919998,  -73.430000, 0.000000,  0.000000 
 8245120.000000, -8.066205 , -18.130417, 6.604190, 1795522816.000000, 68.739998,  133.070007,  -30.940001, 0.000000,  0.000000 
 8264320.000000, -5.627919 , -17.632710, 5.931807, 1795543808.000000, 35.490002,  5.950000,  -18.059999, 0.000000,  0.000000 
 8284160.000000, -6.498906 , -17.474783, 5.833702, 1795563008.000000, -16.520000,  -64.610001,  -7.980000, 0.000000,  0.000000 
 8304128.000000, -6.455836 , -13.497912, 6.185446, 1795602816.000000, -39.410000,  -2.450000,  -9.450000, 0.000000,  0.000000 
 8324096.000000, -5.864808 , -9.915856, 3.873980, 0.000000, 0.000000,  0.000000,  0.000000, 0.000000,  0.000000 
 8345088.000000, -3.498307 , -5.436492, 2.493321, 1795622784.000000, 20.580000,  -13.650000,  -23.030001, 0.000000,  0.000000 
 8364160.000000, -3.218346 , -1.983650, 0.792024, 1795643776.000000, 106.470001,  -28.910000,  -4.550000, 0.000000,  0.000000 
 8384128.000000, -2.464607 , 0.631705, -0.660419, 1795662848.000000, 184.520004,  -9.520000,  -41.439999, 0.000000,  0.000000 
 8404096.000000, -1.323231 , 3.610770, -1.222732, 1795682816.000000, 213.430008,  -17.010000,  -54.250000, 0.000000,  0.000000 
 8424064.000000, 0.394816 , 5.601598, -2.498107, 1795702784.000000, 180.389999,  -54.670002,  -57.189999, 0.000000,  0.000000 
 8446976.000000, 2.246860 , 5.139783, -4.003192, 1795722752.000000, 165.899994,  -63.070000,  -61.950001, 0.000000,  0.000000 
 8464128.000000, 3.290131 , 4.632504, -3.433701, 1795745664.000000, 163.589996,  -58.310001,  -46.830002, 1796213888.000000,  1008.562988 
 8484096.000000, 3.984050 , 3.804588, -2.703890, 1795762688.000000, 118.930000,  -67.760002,  -39.970001, 0.000000,  0.000000 
 8504064.000000, 3.799802 , 2.959922, -2.651247, 1795782784.000000, 50.680000,  -68.529999,  -11.550000, 0.000000,  0.000000 
 8524032.000000, 2.122434 , 1.761117, -2.514857, 1795802752.000000, 0.140000,  -43.470001,  17.850000, 0.000000,  0.000000 
 8544896.000000, 0.686740 , 1.426122, -3.079563, 1795822720.000000, -48.860001,  -10.570000,  28.980000, 0.000000,  0.000000 
 8563968.000000, -0.052642 , 1.380659, -2.993421, 1795843584.000000, -80.150002,  4.410000,  45.709999, 0.000000,  0.000000 
 8584064.000000, -0.562313 , 0.162712, -1.756332, 1795862656.000000, -98.419998,  -3.360000,  51.029999, 0.000000,  0.000000 
 8604032.000000, -0.591027 , -0.937986, -1.002593, 1795882624.000000, -105.489998,  -24.570000,  45.570000, 0.000000,  0.000000 
 8624000.000000, -0.021535 , -0.689133, -1.792224, 1795902720.000000, -109.340004,  -41.439999,  42.770000, 0.000000,  0.000000 
 8644864.000000, 0.076570 , -1.911865, -0.993021, 1795922688.000000, -93.940002,  -38.009998,  37.660000, 0.000000,  0.000000 
 8663936.000000, -1.203590 , -4.261617, 2.610569, 1795943552.000000, -66.570000,  -18.549999,  21.139999, 0.000000,  0.000000 
 8683904.000000, -2.890530 , -9.044869, 3.275774, 1795962624.000000, -90.790001,  11.200000,  13.370000, 0.000000,  0.000000 
 8704000.000000, -5.190032 , -23.313271, 7.080362, 1795982592.000000, -110.180000,  60.130001,  8.820000, 0.000000,  0.000000 
 8723968.000000, -14.498112 , -40.886162, 4.060620, 1796002560.000000, -107.169998,  61.250000,  -11.060000, 0.000000,  0.000000 
 8744832.000000, -21.879971 , -39.122650, 2.397608, 1796022656.000000, -188.229996,  65.099998,  34.230000, 0.000000,  0.000000 
 8763904.000000, -10.001998 , -30.290743, 4.450650, 1796043520.000000, -111.440002,  24.850000,  73.570000, 0.000000,  0.000000 
 8783872.000000, -8.372486 , -24.256042, 8.245667, 1796062592.000000, -46.130001,  -3.640000,  -19.879999, 0.000000,  0.000000 
 8803840.000000, -11.904292 , -28.043880, 10.150353, 1796082560.000000, -10.010000,  18.760000,  -93.449997, 0.000000,  0.000000 
 8823936.000000, -15.431314 , -27.605997, 6.412765, 1796102528.000000, 15.890000,  82.599998,  -74.970001, 0.000000,  0.000000 
 8844800.000000, -11.873186 , -21.834507, 5.125426, 1796122496.000000, 63.700001,  91.279999,  -61.040001, 0.000000,  0.000000 
 8863872.000000, -8.384450 , -18.355343, 4.771288, 1796143488.000000, 53.410000,  -5.460000,  -40.110001, 0.000000,  0.000000 
 8883840.000000, -6.063413 , -14.158331, 4.666004, 1796162560.000000, 17.920000,  -86.660004,  -43.330002, 0.000000,  0.000000 
 8903808.000000, -4.926822 , -9.482756, 3.680161, 1796182528.000000, 13.370000,  -102.830002,  -39.060001, 0.000000,  0.000000 
 8923776.000000, -4.163511 , -5.749953, 1.478764, 1796202496.000000, 36.400002,  -77.070000,  -14.770000, 0.000000,  0.000000 
 8944768.000000, -2.880959 , -2.270789, 0.351745, 1796222464.000000, 67.550003,  -53.130001,  4.410000, 0.000000,  0.000000 
 8963840.000000, -1.117448 , 1.359123, 0.244068, 1796243328.000000, 97.860001,  -66.849998,  22.330000, 0.000000,  0.000000 
 8983808.000000, 1.277767 , 3.902694, -1.847259, 1796262528.000000, 127.400002,  -77.279999,  36.330002, 0.000000,  0.000000 
 9003776.000000, 2.993421 , 6.293124, -2.191825, 1796282496.000000, 158.619995,  -69.230003,  23.030001, 0.000000,  0.000000 
 9023744.000000, 5.125426 , 6.644868, -3.058028, 1796302464.000000, 163.660004,  -47.320000,  -29.610001, 0.000000,  0.000000 
 9044608.000000, 6.525227 , 5.819345, -3.718446, 1796322432.000000, 155.050003,  -18.480000,  -37.170002, 0.000000,  0.000000 
 9063808.000000, 5.233103 , 3.498307, -3.309274, 1796343296.000000, 93.870003,  -3.430000,  -1.540000, 0.000000,  0.000000 
 9083776.000000, 2.723032 , 2.041078, -2.505285, 1796362368.000000, 21.350000,  21.700001,  23.030001, 0.000000,  0.000000 
 9103744.000000, 1.052842 , 1.457229, -2.646462, 1796382464.000000, -39.970001,  42.840000,  43.540001, 0.000000,  0.000000 
 9123712.000000, 0.184247 , 0.854238, -2.682354, 1796402432.000000, -72.590004,  42.139999,  64.330002, 0.000000,  0.000000 
 9144576.000000, -0.459422 , -0.574277, -2.110470, 1796422400.000000, -87.709999,  23.450001,  61.599998, 0.000000,  0.000000 
 9163648.000000, -0.825524 , -2.081756, -0.452243, 1796443264.000000, -102.620003,  2.940000,  47.599998, 0.000000,  0.000000 
 9183744.000000, -0.823131 , -3.361916, -0.215354, 1796462336.000000, -115.709999,  -10.990000,  44.660000, 0.000000,  0.000000 
 9203712.000000, -0.497707 , -3.598805, -0.535992, 1796482304.000000, -93.029999,  -19.389999,  37.170002, 0.000000,  0.000000 
 9224448.000000, 0.167498 , -2.682354, -0.509671, 1796502400.000000, -53.619999,  -17.780001,  21.420000, 0.000000,  0.000000 
 9244544.000000, 0.650848 , -2.289931, 0.071785, 1796523136.000000, -14.840000,  -15.680000,  12.810000, 0.000000,  0.000000 
 9263744.000000, 0.660419 , -3.002992, 1.648655, 1796543232.000000, 13.720000,  -5.320000,  12.880000, 0.000000,  0.000000 
 9283712.000000, -0.449851 , -6.649654, 3.806981, 1796562432.000000, 24.570000,  19.250000,  18.059999, 0.000000,  0.000000 
 9303680.000000, -3.000600 , -17.577675, 6.293124, 1796582400.000000, -2.520000,  58.450001,  12.950000, 0.000000,  0.000000 
 9323776.000000, -15.026926 , -47.693741, 4.046263, 1796602368.000000, -86.590004,  83.580002,  8.820000, 0.000000,  0.000000 
 9344512.000000, -24.976284 , -44.489746, 3.067599, 1796622464.000000, -237.649994,  179.690002,  45.709999, 0.000000,  0.000000 
 9364736.000000, -8.482556 , -29.529823, 6.266802, 1796643200.000000, -107.590004,  68.879997,  75.389999, 0.000000,  0.000000 
 9384704.000000, -7.645068 , -22.995026, 10.035499, 1796663424.000000, -45.080002,  28.980000,  18.969999, 0.000000,  0.000000 
 9404672.000000, -6.537192 , -19.475183, 12.500106, 1796683392.000000, -35.560001,  57.330002,  -121.660004, 0.000000,  0.000000 
 9424640.000000, -7.812566 , -17.336000, 10.133603, 1796703360.000000, 52.779999,  118.020004,  -71.260002, 0.000000,  0.000000 
 9447552.000000, -10.001998 , -16.950754, 6.912865, 1796746112.000000, 53.480000,  68.320000,  -19.320000, 1797214464.000000,  1008.559937 
 9465088.000000, -9.178867 , -19.628325, 6.137590, 0.000000, 0.000000,  0.000000,  0.000000, 0.000000,  0.000000 
 9485056.000000, -7.700103 , -21.638294, 4.541577, 1796763776.000000, -28.420000,  -31.990000,  -3.360000, 0.000000,  0.000000 
 9505024.000000, -7.448857 , -16.321442, 4.027121, 1796783744.000000, -24.780001,  -68.250000,  -9.030000, 0.000000,  0.000000 
 9525120.000000, -4.613362 , -11.569297, 4.486543, 1796803712.000000, 58.730000,  -28.139999,  -1.610000, 0.000000,  0.000000 
 9545856.000000, -2.402394 , -8.030313, 3.483950, 1796823680.000000, 107.730003,  -15.260000,  1.120000, 0.000000,  0.000000 
 9565440.000000, -2.938386 , -4.833502, 1.476372, 1796844544.000000, 125.580002,  -11.970000,  -5.810000, 0.000000,  0.000000 
 9585408.000000, -3.074777 , -1.325624, -1.081556, 1796864128.000000, 132.369995,  21.280001,  -29.540001, 0.000000,  0.000000 
 9605376.000000, -1.373480 , 1.586441, -1.119841, 1796884096.000000, 123.129997,  18.270000,  -31.570000, 0.000000,  0.000000 
 9625344.000000, -0.827917 , 5.666204, -2.117648, 1796904064.000000, 79.029999,  -11.060000,  -25.480000, 0.000000,  0.000000 
 9646208.000000, 0.983450 , 7.295716, -3.527020, 1796924032.000000, 62.720001,  -49.349998,  -33.459999, 0.000000,  0.000000 
 9665152.000000, 1.878366 , 7.606783, -4.441079, 1796944896.000000, 117.250000,  -45.009998,  -21.280001, 0.000000,  0.000000 
 9686400.000000, 2.761317 , 7.295716, -3.828516, 1796963712.000000, 124.040001,  -31.780001,  -28.210001, 0.000000,  0.000000 
 9706368.000000, 3.201597 , 5.333601, -3.005385, 1796985088.000000, 64.680000,  -18.900000,  -10.640000, 0.000000,  0.000000 
 9726464.000000, 2.397608 , 3.290131, -2.545963, 1797005056.000000, -11.760000,  -14.490000,  32.830002, 0.000000,  0.000000 
 9747200.000000, 0.983450 , 1.572084, -2.471786, 1797025152.000000, -72.099998,  14.980000,  69.230003, 0.000000,  0.000000 
 9766400.000000, -0.521635 , -0.090927, -1.524228, 1797045888.000000, -88.970001,  49.420002,  87.290001, 0.000000,  0.000000 
 9786368.000000, -1.593620 , -1.749153, -0.607777, 1797065088.000000, -90.860001,  59.360001,  95.340004, 0.000000,  0.000000 
 9806336.000000, -2.038685 , -2.969493, -1.366302, 1797085056.000000, -93.870003,  43.259998,  99.610001, 0.000000,  0.000000 
 9826432.000000, -1.933401 , -3.515057, -1.663012, 1797105024.000000, -98.209999,  18.059999,  91.279999, 0.000000,  0.000000 
 9847168.000000, -1.567299 , -3.984050, -1.462015, 1797125120.000000, -92.820000,  -4.480000,  76.090004, 0.000000,  0.000000 
 9866368.000000, -1.146162 , -4.307081, -0.193819, 1797145856.000000, -71.959999,  -23.940001,  60.619999, 0.000000,  0.000000 
 9886208.000000, -1.294517 , -5.407779, 0.832702, 1797165056.000000, -68.809998,  -20.790001,  53.689999, 0.000000,  0.000000 
 9906304.000000, -2.411965 , -9.803394, 4.390830, 1797184896.000000, -75.180000,  10.990000,  38.220001, 0.000000,  0.000000 
 9926400.000000, -9.899107 , -26.199015, 1.892723, 1797204992.000000, -85.190002,  38.709999,  17.290001, 0.000000,  0.000000 
 9947136.000000, -39.242294 , -34.164722, -0.038285, 1797224960.000000, -99.260002,  70.840004,  49.070000, 0.000000,  0.000000 
 9966336.000000, -14.347364 , -26.404797, 2.644069, 1797245824.000000, -112.840004,  120.680000,  43.540001, 0.000000,  0.000000 
 9986304.000000, -15.747166 , -26.065016, 5.300103, 1797264896.000000, -59.220001,  -2.380000,  58.799999, 0.000000,  0.000000 
 10006272.000000, -11.976077 , -21.722044, 8.269595, 1797284864.000000, -90.300003,  4.200000,  -104.230003, 0.000000,  0.000000 
 10026240.000000, -15.534204 , -22.815563, 6.005985, 1797304960.000000, -8.750000,  49.209999,  -38.500000, 0.000000,  0.000000 
 10047104.000000, -14.617754 , -21.894329, 4.139583, 1797324928.000000, 40.529999,  70.209999,  -43.470001, 0.000000,  0.000000 
 10066304.000000, -14.280365 , -23.751158, 5.185246, 1797345792.000000, 14.910000,  25.340000,  -32.970001, 0.000000,  0.000000 
 10086144.000000, -13.416556 , -23.215166, 2.646462, 1797364992.000000, -26.040001,  -49.910000,  -45.220001, 0.000000,  0.000000 
 10106240.000000, -11.576476 , -19.116261, 0.870987, 1797384832.000000, -31.150000,  -78.959999,  -42.420002, 0.000000,  0.000000 
 10126208.000000, -9.265009 , -14.225330, 2.033899, 1797404800.000000, -12.530000,  -81.410004,  -35.560001, 0.000000,  0.000000 
 10147072.000000, -6.429514 , -8.906086, 2.852244, 1797424896.000000, 11.480000,  -74.340004,  -38.779999, 0.000000,  0.000000 
 10166272.000000, -4.292724 , -4.208975, 1.744368, 1797445760.000000, 52.639999,  -57.540001,  -32.270000, 0.000000,  0.000000 
 10186112.000000, -3.069991 , -0.466600, 0.509671, 1797464832.000000, 104.720001,  -54.320000,  -19.040001, 0.000000,  0.000000 
 10206080.000000, -1.548156 , 2.629712, -0.832702, 1797484800.000000, 132.930008,  -55.720001,  -6.790000, 0.000000,  0.000000 
 10226176.000000, 0.430708 , 3.943372, -1.864009, 1797504768.000000, 143.500000,  -53.130001,  1.470000, 0.000000,  0.000000 
 10246912.000000, 0.803988 , 4.948357, -2.562713, 1797524864.000000, 138.039993,  -57.119999,  -15.680000, 0.000000,  0.000000 
 10265984.000000, 2.132005 , 4.022335, -3.517449, 1797545600.000000, 126.070000,  -56.980000,  -51.590000, 0.000000,  0.000000 
 10285952.000000, 2.407180 , 3.570091, -3.002992, 1797564672.000000, 105.840004,  -13.580000,  -41.650002, 0.000000,  0.000000 
 10306048.000000, 3.251846 , 3.203990, -2.974278, 1797584640.000000, 43.750000,  -17.570000,  -45.990002, 0.000000,  0.000000 
 10326016.000000, 4.130012 , 2.462214, -2.957529, 1797604608.000000, 7.490000,  -55.439999,  -29.820000, 0.000000,  0.000000 
 10346880.000000, 4.007978 , 2.172683, -2.280360, 1797624704.000000, -1.890000,  -80.989998,  -5.460000, 0.000000,  0.000000 
 10365952.000000, 2.804388 , 2.170290, -2.007578, 1797645568.000000, -10.710000,  -67.269997,  9.870000, 0.000000,  0.000000 
 10385920.000000, 1.629512 , 2.371287, -2.452643, 1797664640.000000, -20.790001,  -36.189999,  20.020000, 0.000000,  0.000000 
 10405888.000000, 0.911665 , 1.883151, -2.837888, 1797684608.000000, -34.230000,  -24.219999,  26.530001, 0.000000,  0.000000 
 10425984.000000, 0.918844 , 1.344766, -1.854438, 1797704576.000000, -44.099998,  -31.990000,  33.250000, 0.000000,  0.000000 
 10448768.000000, 0.921237 , -0.052642, -0.904487, 1797724544.000000, -69.370003,  -47.529999,  39.900002, 0.000000,  0.000000 
 10465920.000000, 0.698704 , -1.476372, 0.748954, 1797747456.000000, -83.230003,  -57.820000,  40.250000, 1798215808.000000,  1008.560852 
 10485888.000000, 0.236889 , -2.931208, 0.507278, 1797764608.000000, -88.480003,  -46.480000,  43.889999, 0.000000,  0.000000 
 10505984.000000, 0.050249 , -7.690532, 2.364109, 1797784576.000000, -93.590004,  -9.520000,  40.320000, 0.000000,  0.000000 
 10525824.000000, -2.801995 , -26.407188, 7.255038, 1797804544.000000, -130.130005,  32.970001,  18.129999, 0.000000,  0.000000 
 10546816.000000, -9.604790 , -42.312283, 8.070991, 1797824512.000000, -196.699997,  -17.150000,  28.910000, 0.000000,  0.000000 
 10565888.000000, -32.877384 , -37.028931, 2.797210, 1797845504.000000, -189.979996,  135.800003,  103.529999, 0.000000,  0.000000 
 10585856.000000, -12.533605 , -29.175686, 4.924429, 1797864576.000000, 6.160000,  204.820007,  102.970001, 0.000000,  0.000000 
 10605824.000000, -10.329816 , -27.653851, 9.889536, 1797884544.000000, -36.680000,  -37.240002,  28.559999, 0.000000,  0.000000 
 10625792.000000, -9.449257 , -20.798416, 10.171888, 1797904512.000000, -93.379997,  5.600000,  -101.010002, 0.000000,  0.000000 
 10646784.000000, -11.672189 , -19.958532, 4.984250, 1797924480.000000, 4.410000,  87.779999,  -39.060001, 0.000000,  0.000000 
 10665856.000000, -9.389436 , -17.934206, 4.450650, 1797945344.000000, 51.520000,  66.709999,  -30.240000, 0.000000,  0.000000 
 10685824.000000, -7.298109 , -20.848663, 4.024727, 1797964416.000000, -15.400000,  -44.799999,  5.390000, 0.000000,  0.000000 
 10705792.000000, -6.671190 , -19.549360, 2.349752, 1797984512.000000, -51.380001,  -108.919998,  8.470000, 0.000000,  0.000000 
 10725760.000000, -6.037091 , -14.945570, 1.548156, 1798004480.000000, -31.500000,  -94.500000,  14.700000, 0.000000,  0.000000 
 10746624.000000, -4.383651 , -9.262616, 1.292124, 1798024448.000000, 61.320000,  -56.139999,  22.330000, 0.000000,  0.000000 
 10765696.000000, -2.495714 , -3.778267, -0.052642, 1798045312.000000, 132.789993,  -26.250000,  25.760000, 0.000000,  0.000000 
 10785792.000000, -0.739382 , -0.851845, -1.411765, 1798064384.000000, 149.169998,  -10.150000,  22.260000, 0.000000,  0.000000 
 10805760.000000, -0.282353 , 3.412165, -0.681954, 1798084352.000000, 149.449997,  -12.460000,  8.050000, 0.000000,  0.000000 
 10825728.000000, 2.005185 , 6.463014, -2.201397, 1798104448.000000, 140.699997,  -14.280000,  -19.460001, 0.000000,  0.000000 
 10846592.000000, 3.299703 , 6.900900, -3.397808, 1798124416.000000, 172.690002,  9.590000,  1.120000, 0.000000,  0.000000 
 10865664.000000, 2.995814 , 5.359922, -3.730411, 1798145280.000000, 160.720001,  41.790001,  -3.010000, 0.000000,  0.000000 
 10885632.000000, 2.474179 , 3.110669, -2.445465, 1798164352.000000, 69.370003,  71.610001,  5.950000, 0.000000,  0.000000 
 10905728.000000, 2.038685 , 0.818345, -1.390230, 1798184320.000000, 19.809999,  56.840000,  38.709999, 0.000000,  0.000000 
 10925696.000000, 1.387837 , -1.191626, -0.971486, 1798204288.000000, -47.040001,  40.810001,  49.700001, 0.000000,  0.000000 
 10946560.000000, 0.468993 , -3.050849, -0.904487, 1798224384.000000, -75.809998,  19.040001,  59.990002, 0.000000,  0.000000 
 10965632.000000, -0.021535 , -3.893122, -0.306281, 1798245248.000000, -91.910004,  21.840000,  62.020000, 0.000000,  0.000000 
 10985600.000000, -1.093520 , -4.800002, 0.095713, 1798264320.000000, -105.629997,  31.290001,  47.599998, 0.000000,  0.000000 
 11005568.000000, -1.406980 , -4.979464, 0.533599, 1798284288.000000, -96.529999,  24.150000,  23.170000, 0.000000,  0.000000 
 11025664.000000, -0.969093 , -3.644269, 0.512064, 1798304256.000000, -47.110001,  -6.090000,  5.250000, 0.000000,  0.000000 
 11046656.000000, -0.095713 , -1.957329, -0.351745, 1798324224.000000, 10.640000,  -40.599998,  -10.150000, 0.000000,  0.000000 
 11065600.000000, 0.466600 , -0.679562, -0.595813, 1798345216.000000, 43.680000,  -50.680000,  -22.049999, 0.000000,  0.000000 
 11085568.000000, 0.189033 , -1.031307, 0.878166, 1798364288.000000, 34.860001,  -35.770000,  -31.430000, 0.000000,  0.000000 
 11105536.000000, -0.634098 , -2.440679, 1.292124, 1798384256.000000, 3.010000,  -17.710001,  -41.299999, 0.000000,  0.000000 
 11125504.000000, -1.464408 , -5.132604, 3.361916, 1798404224.000000, -52.990002,  4.900000,  -51.730000, 0.000000,  0.000000 
 11146496.000000, -3.857230 , -14.534004, 3.917051, 1798424192.000000, -105.910004,  28.490000,  -67.059998, 0.000000,  0.000000 
 11165568.000000, -11.330014 , -30.707092, 2.275574, 1798445056.000000, -146.089996,  12.740000,  -37.869999, 0.000000,  0.000000 
 11185536.000000, -24.811180 , -37.962132, -0.043071, 1798464256.000000, -237.229996,  100.379997,  28.280001, 0.000000,  0.000000 
 11205504.000000, -9.221939 , -29.795427, 3.984050, 1798484224.000000, -159.320007,  5.670000,  -42.910000, 0.000000,  0.000000 
 11225472.000000, -13.134203 , -26.885756, 4.737789, 1798504192.000000, -76.230003,  -30.660000,  -21.559999, 0.000000,  0.000000 
 11246336.000000, -10.817951 , -22.746174, 6.314659, 1798524160.000000, 55.160000,  48.020000,  -79.590004, 0.000000,  0.000000 
 11265536.000000, -13.227524 , -25.067209, 6.214160, 1798545024.000000, 81.059998,  92.820000,  -32.830002, 0.000000,  0.000000 
 11285504.000000, -14.787644 , -23.145771, 4.077370, 1798564096.000000, 74.550003,  94.919998,  -60.410000, 0.000000,  0.000000 
 11305472.000000, -11.617154 , -20.697916, 2.924029, 1798584192.000000, 59.779999,  42.279999,  -38.779999, 0.000000,  0.000000 
 11325440.000000, -9.552148 , -20.128426, 3.290131, 1798604160.000000, 19.180000,  -28.210001,  -11.060000, 0.000000,  0.000000 
 11346304.000000, -8.121240 , -17.678173, 2.758924, 1798624128.000000, -27.930000,  -52.290001,  -24.430000, 0.000000,  0.000000 
 11365376.000000, -8.542377 , -14.756538, 1.593620, 1798644992.000000, 19.180000,  -36.259998,  -14.070000, 0.000000,  0.000000 
 11385472.000000, -6.218946 , -9.882358, 0.524028, 1798664064.000000, 78.959999,  -8.050000,  -2.800000, 0.000000,  0.000000 
 11405440.000000, -3.122634 , -5.319244, 0.780060, 1798684032.000000, 76.230003,  -16.799999,  13.580000, 0.000000,  0.000000 
 11425408.000000, -1.378266 , -0.722632, 0.208176, 1798704128.000000, 65.029999,  -39.970001,  9.100000, 0.000000,  0.000000 
 11448192.000000, 0.722632 , 3.680161, -0.095713, 1798724096.000000, 86.379997,  -69.230003,  -3.920000, 0.000000,  0.000000 
 11465344.000000, 2.644069 , 10.351351, 0.334995, 1798746880.000000, 153.229996,  -56.980000,  -11.480000, 1799215232.000000,  1008.559265 
 11485312.000000, 6.008378 , 10.918450, -2.632105, 1798764032.000000, 189.770004,  -48.509998,  -37.310001, 0.000000,  0.000000 
 11505408.000000, 5.860023 , 9.925428, -3.314059, 1798784000.000000, 295.890015,  72.239998,  -78.680000, 0.000000,  0.000000 
 11525376.000000, 4.448257 , 6.733403, -2.196611, 1798804096.000000, 223.720001,  69.790001,  -31.150000, 0.000000,  0.000000 
 11546240.000000, 2.014757 , 2.187040, -0.401994, 1798823936.000000, 28.070000,  51.029999,  66.150002, 0.000000,  0.000000 
 11565312.000000, 0.497707 , -0.916451, -1.019342, 1798844928.000000, -91.279999,  51.939999,  70.139999, 0.000000,  0.000000 
 11585280.000000, 0.107677 , -3.002992, -2.158326, 1798864000.000000, -155.399994,  29.889999,  70.489998, 0.000000,  0.000000 
 11605248.000000, -0.241675 , -4.204189, -1.744368, 1798883968.000000, -183.820007,  3.920000,  61.599998, 0.000000,  0.000000 
 11625216.000000, -0.047856 , -4.704289, -0.083749, 1798903936.000000, -184.660004,  -28.420000,  31.850000, 0.000000,  0.000000 
 11646208.000000, 0.497707 , -4.675575, 0.133998, 1798923904.000000, -136.289993,  -55.020000,  18.059999, 0.000000,  0.000000 
 11665280.000000, 0.504886 , -2.857030, -0.792024, 1798944896.000000, -39.689999,  -57.820000,  8.400000, 0.000000,  0.000000 
 11685248.000000, 0.289532 , -1.158126, -2.108077, 1798963968.000000, 37.310001,  -33.110001,  -13.090000, 0.000000,  0.000000 
 11705216.000000, -0.074178 , -0.490529, -1.940579, 1798983936.000000, 68.599998,  -4.270000,  -25.620001, 0.000000,  0.000000 
 11725184.000000, -0.662812 , -1.311267, -0.533599, 1799003904.000000, 55.020000,  14.000000,  -26.600000, 0.000000,  0.000000 
 11746176.000000, -1.225125 , -3.924229, 0.425922, 1799023872.000000, 9.590000,  24.500000,  -24.010000, 0.000000,  0.000000 
 11765248.000000, -1.610370 , -6.819544, 2.976671, 1799044736.000000, -41.860001,  29.190001,  -26.950001, 0.000000,  0.000000 
 11785216.000000, -2.553142 , -15.237494, 5.824130, 1799063808.000000, -72.730003,  35.279999,  -32.830002, 0.000000,  0.000000 
 11805184.000000, -9.107083 , -29.249863, 4.575077, 1799083904.000000, -42.000000,  29.049999,  -32.060001, 0.000000,  0.000000 
 11825152.000000, -18.288343 , -32.405998, 3.342773, 1799103872.000000, -38.920002,  63.420002,  10.220000, 0.000000,  0.000000 
 11846016.000000, -14.572289 , -30.281170, 5.178068, 1799123840.000000, -39.830002,  167.789993,  80.220001, 0.000000,  0.000000 
 11865472.000000, -9.853643 , -27.402605, 8.731410, 1799144704.000000, -84.980003,  4.970000,  -6.370000, 0.000000,  0.000000 
 11885184.000000, -10.365707 , -21.815365, 10.001998, 1799164160.000000, -43.750000,  18.200001,  -72.099998, 0.000000,  0.000000 
 11905152.000000, -13.385449 , -22.789242, 7.427321, 1799183744.000000, 48.439999,  62.790001,  -57.610001, 0.000000,  0.000000 
 11925120.000000, -10.908878 , -21.420547, 6.532406, 1799203840.000000, 52.779999,  67.900002,  -49.910000, 0.000000,  0.000000 
 11945984.000000, -9.690931 , -23.487946, 4.264010, 1799223808.000000, -6.020000,  -8.820000,  -24.219999, 0.000000,  0.000000 
 11965056.000000, -10.681561 , -24.660431, 2.495714, 1799244672.000000, -69.720001,  -75.459999,  -15.260000, 0.000000,  0.000000 
 11985024.000000, -8.535198 , -19.537395, 1.887937, 1799263744.000000, -53.830002,  -74.830002,  -9.730000, 0.000000,  0.000000 
 12005120.000000, -5.711668 , -14.550755, 3.101098, 1799283712.000000, 26.250000,  -69.580002,  8.400000, 0.000000,  0.000000 
 12025088.000000, -3.768696 , -8.896514, 1.942972, 1799303680.000000, 72.239998,  -51.869999,  7.000000, 0.000000,  0.000000 
 12045952.000000, -2.840281 , -3.510271, 0.789631, 1799323776.000000, 104.930000,  -31.150000,  3.570000, 0.000000,  0.000000 
 12065024.000000, -1.938186 , -0.571885, -0.428315, 1799344640.000000, 115.779999,  -22.960001,  7.490000, 0.000000,  0.000000 
 12084992.000000, -1.284946 , 3.127419, 0.643669, 1799363712.000000, 107.870003,  -26.600000,  16.870001, 0.000000,  0.000000 
 12104960.000000, 0.488136 , 4.352544, -1.256232, 1799383680.000000, 90.019997,  -39.340000,  13.650000, 0.000000,  0.000000 
 12125056.000000, 2.151148 , 5.230711, -2.079363, 1799403648.000000, 126.139999,  -23.240000,  7.980000, 0.000000,  0.000000 
 12145920.000000, 3.692125 , 5.503492, -2.462214, 1799423616.000000, 127.750000,  -10.360000,  -12.040000, 0.000000,  0.000000 
 12164992.000000, 5.137390 , 5.192425, -2.675175, 1799444608.000000, 110.320000,  -4.060000,  -24.150000, 0.000000,  0.000000 
 12184960.000000, 4.764110 , 2.926422, -1.921437, 1799463680.000000, 64.610001,  5.180000,  0.700000, 0.000000,  0.000000 
 12204928.000000, 2.237289 , 0.588634, -0.131605, 1799483648.000000, 5.180000,  34.720001,  33.740002, 0.000000,  0.000000 
 12224896.000000, 0.110070 , -0.713061, 0.224925, 1799503616.000000, -59.500000,  68.389999,  51.240002, 0.000000,  0.000000 
 12245888.000000, -0.861416 , -1.686940, -0.411566, 1799523584.000000, -97.440002,  70.070000,  65.730003, 0.000000,  0.000000 
 12265088.000000, -0.820738 , -1.722832, -0.430708, 1799544448.000000, -110.739998,  43.259998,  72.449997, 0.000000,  0.000000 
 12284928.000000, -0.205783 , -2.002793, -0.358923, 1799563776.000000, -112.910004,  2.800000,  66.290001, 0.000000,  0.000000 
 12304896.000000, 0.567099 , -2.756532, 0.390030, 1799583616.000000, -85.889999,  -32.689999,  51.029999, 0.000000,  0.000000 
 12324864.000000, 1.112662 , -2.732604, 0.880559, 1799603584.000000, -31.570000,  -45.290001,  37.660000, 0.000000,  0.000000 
 12345856.000000, 1.239482 , -1.383051, 0.677169, 1799623552.000000, 27.020000,  -27.370001,  26.320000, 0.000000,  0.000000 
 12364928.000000, 0.926022 , -0.330210, -0.239282, 1799644416.000000, 65.099998,  12.600000,  14.280000, 0.000000,  0.000000 
 12384896.000000, 0.586242 , 0.540778, 0.131605, 1799663488.000000, 77.559998,  49.490002,  3.500000, 0.000000,  0.000000 
 12404864.000000, -0.009571 , -0.885344, 2.258825, 1799683456.000000, 63.139999,  69.860001,  -1.820000, 0.000000,  0.000000 
 12424832.000000, -1.263410 , -4.381258, 8.271988, 1799703552.000000, 42.139999,  66.709999,  -12.600000, 0.000000,  0.000000 
 12447744.000000, -6.355337 , -21.176479, 3.907479, 1799723520.000000, -24.430000,  47.459999,  -2.100000, 0.000000,  0.000000 
 12464768.000000, -63.993649 , -53.883972, 12.100503, 1799746304.000000, -91.489998,  79.099998,  93.870003, 1800214656.000000,  1008.557678 
 12484736.000000, -21.360727 , -30.446274, 3.869194, 1799763456.000000, -225.330002,  459.619995,  171.710007, 0.000000,  0.000000 
 12504832.000000, -20.164316 , -26.234907, 5.240282, 1799783424.000000, 49.139999,  10.430000,  136.430008, 0.000000,  0.000000 
 12524800.000000, -14.347364 , -18.491734, 12.449856, 1799803520.000000, -24.010000,  3.010000,  -105.209999, 0.000000,  0.000000 
 12545664.000000, -15.598811 , -15.840486, 8.678767, 1799823488.000000, -9.170000,  69.230003,  -88.269997, 0.000000,  0.000000 
 12564736.000000, -18.809978 , -13.739587, 5.340781, 1799844352.000000, 108.919998,  108.290001,  -51.240002, 0.000000,  0.000000 
 12584704.000000, -13.404593 , -13.320844, 4.967500, 1799863424.000000, 86.730003,  71.750000,  8.890000, 0.000000,  0.000000 
 12604800.000000, -11.016556 , -15.254245, 7.085148, 1799883392.000000, -50.189999,  -15.680000,  25.340000, 0.000000,  0.000000 
 12624768.000000, -9.142976 , -10.535598, 10.212566, 1799903360.000000, -95.690002,  -62.369999,  3.430000, 0.000000,  0.000000 
 12645632.000000, -6.587440 , -7.685746, 5.994020, 1799923328.000000, -35.770000,  -48.580002,  51.240002, 0.000000,  0.000000 
 12664704.000000, -3.704089 , -2.600998, 1.026521, 1799944320.000000, -17.219999,  -35.070000,  83.370003, 0.000000,  0.000000 
 12684672.000000, -1.505085 , 2.603391, -0.069392, 1799963392.000000, 10.430000,  -12.810000,  44.799999, 0.000000,  0.000000 
 12704640.000000, 1.237089 , 3.950550, -0.708275, 1799983360.000000, 7.980000,  -59.709999,  13.020000, 0.000000,  0.000000 
 12724608.000000, 4.862216 , 5.611169, -0.729811, 1800003328.000000, 84.419998,  -124.389999,  -9.100000, 0.000000,  0.000000 
 12745600.000000, 8.760124 , 7.422535, -4.409972, 1800023296.000000, 161.139999,  -106.959999,  -43.330002, 0.000000,  0.000000 
 12764672.000000, 5.919843 , 7.487142, -5.773881, 1800044288.000000, 179.199997,  -9.870000,  -1.750000, 0.000000,  0.000000 
 12784640.000000, 2.335395 , 3.282953, -4.950750, 1800063360.000000, 36.049999,  88.199997,  68.389999, 0.000000,  0.000000 
 12804608.000000, -0.102891 , 0.043071, -2.988636, 1800103296.000000, -103.320000,  125.370003,  89.669998, 0.000000,  0.000000 
 12824576.000000, -1.406980 , -3.285345, -0.346959, 0.000000, 0.000000,  0.000000,  0.000000, 0.000000,  0.000000 
 12845568.000000, -2.048256 , -5.448457, -0.665205, 1800123264.000000, -129.710007,  103.599998,  93.099998, 0.000000,  0.000000 
 12864640.000000, -2.352145 , -5.386244, -1.548156, 1800144128.000000, -123.480003,  58.029999,  90.300003, 0.000000,  0.000000 
 12884608.000000, -2.160719 , -4.694718, -1.684547, 1800163200.000000, -92.610001,  34.580002,  71.750000, 0.000000,  0.000000 
 12904576.000000, -1.579263 , -3.641876, -1.380659, 1800183296.000000, -59.709999,  16.799999,  52.080002, 0.000000,  0.000000 
 12924544.000000, -0.973879 , -4.012764, -0.110070, 1800203264.000000, -33.950001,  -24.010000,  28.420000, 0.000000,  0.000000 
 12945408.000000, -0.526421 , -4.498507, 0.533599, 1800223232.000000, -21.420000,  -50.119999,  3.570000, 0.000000,  0.000000 
 12964608.000000, -0.607777 , -3.708875, 0.433101, 1800244096.000000, 9.800000,  -41.299999,  -10.430000, 0.000000,  0.000000 
 12984576.000000, -1.009771 , -2.342573, 0.074178, 1800263168.000000, 49.070000,  -7.840000,  -22.540001, 0.000000,  0.000000 
 13004544.000000, -2.289931 , -2.500499, 1.378266, 1800283136.000000, 65.590004,  20.719999,  -31.920000, 0.000000,  0.000000 
 13024512.000000, -4.450650 , -5.960521, 3.751946, 1800303232.000000, 46.200001,  35.980000,  -41.930000, 0.000000,  0.000000 
 13045376.000000, -9.171689 , -9.401401, 3.328416, 1800323200.000000, -4.200000,  65.730003,  -57.119999, 0.000000,  0.000000 
 13064448.000000, -17.587246 , -18.238094, -0.239282, 1800344064.000000, -95.480003,  96.879997,  -75.110001, 0.000000,  0.000000 
 13084544.000000, -32.525639 , -31.405798, 0.045464, 1800363136.000000, -141.330002,  84.840004,  -10.570000, 0.000000,  0.000000 
 13104512.000000, -22.920851 , -26.947968, 1.057628, 1800383104.000000, -140.630005,  -92.820000,  27.230000, 0.000000,  0.000000 
 13124480.000000, -21.978077 , -22.839491, 1.816152, 1800403072.000000, -116.830002,  -44.310001,  -66.290001, 0.000000,  0.000000 
 13145344.000000, -19.831713 , -18.984655, 3.790231, 1800423168.000000, -39.689999,  -8.260000,  -102.340004, 0.000000,  0.000000 
 13164416.000000, -21.166910 , -19.886749, 2.967100, 1800444032.000000, 38.220001,  39.830002,  -107.379997, 0.000000,  0.000000 
 13184384.000000, -20.015961 , -19.235901, 1.797010, 1800463104.000000, 100.309998,  61.459999,  -92.470001, 0.000000,  0.000000 
 13204352.000000, -17.984455 , -19.099510, 0.643669, 1800483072.000000, 87.500000,  44.099998,  -75.879997, 0.000000,  0.000000 
 13224448.000000, -15.474383 , -17.503498, -0.153141, 1800503040.000000, 45.220001,  -10.290000,  -78.050003, 0.000000,  0.000000 
 13245312.000000, -12.775280 , -14.644074, -0.380459, 1800523008.000000, 3.780000,  -61.110001,  -82.599998, 0.000000,  0.000000 
 13264384.000000, -9.016156 , -11.030912, 0.899701, 1800544000.000000, -15.050000,  -87.010002,  -77.629997, 0.000000,  0.000000 
 13284352.000000, -5.891129 , -6.546762, 1.526621, 1800563072.000000, 7.350000,  -87.220001,  -65.940002, 0.000000,  0.000000 
 13304320.000000, -3.766303 , -1.622334, 0.665205, 1800583040.000000, 52.500000,  -65.870003,  -52.779999, 0.000000,  0.000000 
 13324288.000000, -2.065006 , 3.014957, -0.452243, 1800603008.000000, 94.220001,  -55.090000,  -30.799999, 0.000000,  0.000000 
 13345280.000000, 0.153141 , 5.091926, -1.777867, 1800622976.000000, 117.879997,  -47.180000,  -9.100000, 0.000000,  0.000000 
 13364352.000000, 0.612563 , 9.808180, -1.665405, 1800643840.000000, 137.270004,  -54.740002,  4.690000, 0.000000,  0.000000 
 13384320.000000, 2.476572 , 9.133404, -2.502892, 1800663040.000000, 114.940002,  -38.920002,  -28.000000, 0.000000,  0.000000 
 13404288.000000, 2.529213 , 6.113662, -1.241875, 1800683008.000000, 108.430000,  21.350000,  -16.309999, 0.000000,  0.000000 
 13424256.000000, 2.816352 , 3.881158, -0.045464, 1800702976.000000, 17.570000,  36.610001,  -4.130000, 0.000000,  0.000000 
 13447168.000000, 3.634698 , 1.864009, 0.605384, 1800722944.000000, -63.000000,  23.870001,  31.570000, 0.000000,  0.000000 
 13464320.000000, 3.706482 , -0.964308, 0.937986, 1800745856.000000, -81.760002,  -6.860000,  70.419998, 1801214080.000000,  1008.558838 
 13484288.000000, 2.299503 , -2.734996, -0.562313, 1800762880.000000, -43.820000,  6.090000,  86.449997, 0.000000,  0.000000 
 13504256.000000, 0.251246 , -3.007778, -0.339781, 1800782976.000000, -17.080000,  39.619999,  87.150002, 0.000000,  0.000000 
 13524224.000000, -0.820738 , -4.041477, -0.437887, 1800802944.000000, -39.689999,  28.280001,  86.379997, 0.000000,  0.000000 
 13545088.000000, -1.320838 , -4.515256, -0.626920, 1800822912.000000, -37.869999,  19.389999,  74.620003, 0.000000,  0.000000 
 13564160.000000, -0.818345 , -3.878766, -0.727418, 1800843776.000000, -34.299999,  -9.660000,  46.060001, 0.000000,  0.000000 
 13584256.000000, 0.198604 , -2.620141, -0.485743, 1800862848.000000, -26.180000,  -41.090000,  21.210001, 0.000000,  0.000000 
 13604224.000000, 1.095913 , -2.076970, 0.071785, 1800882816.000000, -15.540000,  -56.420002,  2.030000, 0.000000,  0.000000 
 13624192.000000, 1.440479 , -2.270789, 0.686740, 1800902912.000000, -15.190001,  -42.139999,  -10.710000, 0.000000,  0.000000 
 13645056.000000, 0.835095 , -3.450450, 0.691526, 1800922880.000000, -23.660000,  -7.140000,  -13.300000, 0.000000,  0.000000 
 13664128.000000, -1.225125 , -5.737988, 3.077170, 1800943744.000000, -23.100000,  38.430000,  -16.450001, 0.000000,  0.000000 
 13684096.000000, -4.170690 , -11.796617, 3.622734, 1800962816.000000, -40.599998,  84.699997,  -32.619999, 0.000000,  0.000000 
 13704192.000000, -13.395020 , -32.063824, -1.942972, 1800982784.000000, -71.889999,  88.480003,  -33.110001, 0.000000,  0.000000 
 13724160.000000, -38.809189 , -41.103905, -4.625326, 1801002752.000000, -115.220001,  107.309998,  15.610000, 0.000000,  0.000000 
 13745024.000000, -17.393427 , -24.232115, 0.181855, 1801022720.000000, -76.230003,  57.049999,  43.889999, 0.000000,  0.000000 
 13764096.000000, -16.110876 , -22.547567, 3.912265, 1801062784.000000, -37.869999,  6.440000,  -142.800003, 0.000000,  0.000000 
 13784064.000000, -15.574883 , -21.535404, 6.484549, 0.000000, 0.000000,  0.000000,  0.000000, 0.000000,  0.000000 
 13804032.000000, -20.336601 , -22.466211, 2.120041, 1801082752.000000, 33.810001,  62.510002,  -79.940002, 0.000000,  0.000000 
 13824128.000000, -16.488941 , -18.733408, 1.495514, 1801102720.000000, 116.270004,  93.660004,  -64.540001, 0.000000,  0.000000 
 13844992.000000, -11.559726 , -17.611174, 3.275774, 1801122688.000000, 79.309998,  26.740000,  -45.360001, 0.000000,  0.000000 
 13864064.000000, -8.977871 , -17.833706, 4.855037, 1801143680.000000, -1.470000,  -56.070000,  -64.050003, 0.000000,  0.000000 
 13884032.000000, -6.989435 , -14.227723, 4.146761, 1801162752.000000, -29.049999,  -76.860001,  -67.760002, 0.000000,  0.000000 
 13904000.000000, -5.513064 , -9.798609, 3.388237, 1801182720.000000, 21.000000,  -54.670002,  -46.759998, 0.000000,  0.000000 
 13923968.000000, -3.814159 , -6.654440, 2.725425, 1801202688.000000, 70.840004,  -39.830002,  -36.540001, 0.000000,  0.000000 
 13944960.000000, -2.658426 , -4.019942, 2.136791, 1801222656.000000, 81.480003,  -57.260002,  -26.180000, 0.000000,  0.000000 
 13964032.000000, -1.284946 , -1.904687, 1.064806, 1801243520.000000, 77.209999,  -58.240002,  -25.340000, 0.000000,  0.000000 
 13984000.000000, -0.119641 , -0.167498, -0.643669, 1801262592.000000, 92.190002,  -59.500000,  -24.150000, 0.000000,  0.000000 
 14003968.000000, 1.127020 , 1.974079, -1.598405, 1801282688.000000, 124.879997,  -48.580002,  -31.080000, 0.000000,  0.000000 
 14023936.000000, 2.703890 , 3.610770, -2.835495, 1801302656.000000, 147.070007,  -44.450001,  -41.439999, 0.000000,  0.000000 
 14044800.000000, 3.735196 , 4.874180, -3.694518, 1801322624.000000, 166.180008,  -29.610001,  -49.840000, 0.000000,  0.000000 
 14063872.000000, 4.177868 , 4.701896, -3.244668, 1801343488.000000, 149.520004,  -10.640000,  -58.170002, 0.000000,  0.000000 
 14083968.000000, 4.151547 , 3.371487, -2.780460, 1801362560.000000, 98.070000,  -0.770000,  -42.840000, 0.000000,  0.000000 
 14103936.000000, 3.175276 , 2.268396, -2.885744, 1801382528.000000, 41.369999,  -3.290000,  -4.550000, 0.000000,  0.000000 
 14123904.000000, 1.663012 , 2.065006, -2.880959, 1801402624.000000, 9.240000,  6.230000,  18.620001, 0.000000,  0.000000 
 14144768.000000, 0.468993 , 1.581656, -2.734996, 1801422592.000000, -14.140000,  21.840000,  30.799999, 0.000000,  0.000000 
 14163840.000000, -0.306281 , 1.093520, -2.400001, 1801443456.000000, -31.990000,  25.690001,  43.259998, 0.000000,  0.000000 
 14183808.000000, -0.681954 , 0.679562, -2.280360, 1801462528.000000, -54.389999,  18.900000,  48.720001, 0.000000,  0.000000 
 14203904.000000, -0.849452 , 0.535992, -1.567299, 1801482496.000000, -70.209999,  13.300000,  46.830002, 0.000000,  0.000000 
 14223872.000000, -0.612563 , 0.595813, -2.091327, 1801502464.000000, -80.989998,  13.370000,  36.959999, 0.000000,  0.000000 
 14244736.000000, -0.674776 , 0.734596, -1.679761, 1801522560.000000, -97.090004,  16.030001,  26.530001, 0.000000,  0.000000 
 14263808.000000, -1.234696 , -0.952343, 1.103091, 1801543424.000000, -136.009995,  27.020000,  18.129999, 0.000000,  0.000000 
 14283776.000000, -2.916851 , -7.159326, -0.318245, 1801562496.000000, -191.449997,  64.820000,  15.820000, 0.000000,  0.000000 
 14303744.000000, -10.492528 , -31.685759, -6.733403, 1801582464.000000, -242.550003,  69.860001,  31.850000, 0.000000,  0.000000 
 14323840.000000, -42.831524 , -49.129433, -5.544170, 1801602432.000000, -270.970001,  114.239998,  103.599998, 0.000000,  0.000000 
 14344704.000000, -17.383856 , -29.635107, 0.758525, 1801622400.000000, -195.720001,  104.650002,  76.930000, 0.000000,  0.000000 
 14363776.000000, -16.972290 , -26.811577, 3.773481, 1801643392.000000, -63.070000,  95.199997,  74.480003, 0.000000,  0.000000 
 14383744.000000, -12.435498 , -22.203001, 7.235896, 1801662464.000000, -51.939999,  107.029999,  -89.809998, 0.000000,  0.000000 
 14403712.000000, -18.661623 , -28.857441, 3.299703, 1801682432.000000, -10.850000,  95.340004,  -13.580000, 0.000000,  0.000000 
 14423680.000000, -13.476377 , -26.756540, 2.072184, 1801702400.000000, 13.440001,  44.799999,  -52.920002, 0.000000,  0.000000 
 14446592.000000, -11.844472 , -25.124638, 2.773281, 1801722368.000000, -0.560000,  -43.189999,  -45.220001, 0.000000,  0.000000 
 14463744.000000, -10.246067 , -21.877579, 3.010171, 1801745280.000000, -9.730000,  -87.430000,  -80.919998, 1802213632.000000,  1008.556763 
 14483712.000000, -9.188439 , -17.709280, 2.866602, 1801762432.000000, 1.750000,  -72.379997,  -80.639999, 0.000000,  0.000000 
 14503680.000000, -7.192825 , -11.030912, 2.464607, 1801782400.000000, 60.900002,  -52.500000,  -76.860001, 0.000000,  0.000000 
 14523648.000000, -5.276174 , -5.314459, 1.390230, 1801802368.000000, 129.289993,  -47.320000,  -57.750000, 0.000000,  0.000000 
 14544640.000000, -4.058227 , -0.531207, 0.186640, 1801822336.000000, 164.430008,  -62.230000,  -46.970001, 0.000000,  0.000000 
 14563712.000000, -2.146362 , 3.263810, -1.150948, 1801843200.000000, 175.279999,  -74.199997,  -46.970001, 0.000000,  0.000000 
 14583680.000000, -0.043071 , 4.201797, -2.208575, 1801862272.000000, 179.970001,  -89.180000,  -45.080002, 0.000000,  0.000000 
 14603648.000000, 0.074178 , 5.182854, -3.345166, 1801882368.000000, 171.360001,  -109.129997,  -70.559998, 0.000000,  0.000000 
 14623616.000000, 1.942972 , 4.840680, -4.993821, 1801902336.000000, 152.180008,  -111.090004,  -112.209999, 0.000000,  0.000000 
 14644480.000000, 2.782853 , 4.749753, -4.941179, 1801922304.000000, 140.839996,  -91.910004,  -71.400002, 0.000000,  0.000000 
 14663552.000000, 3.232704 , 4.106083, -4.268795, 1801943168.000000, 82.389999,  -101.570000,  -55.230000, 0.000000,  0.000000 
 14683648.000000, 2.976671 , 2.931208, -4.307081, 1801962240.000000, 19.809999,  -110.250000,  -40.040001, 0.000000,  0.000000 
 14703616.000000, 1.505085 , 2.048256, -4.247260, 1801982208.000000, -19.879999,  -96.879997,  -15.330000, 0.000000,  0.000000 
 14723584.000000, 0.043071 , 1.921437, -3.718446, 1802002304.000000, -29.960001,  -62.299999,  -4.760000, 0.000000,  0.000000 
 14744448.000000, -0.873380 , 1.883151, -3.491128, 1802022272.000000, -29.960001,  -35.209999,  8.260000, 0.000000,  0.000000 
 14763520.000000, -1.160519 , 1.521835, -2.672783, 1802043136.000000, -24.500000,  -32.410000,  16.309999, 0.000000,  0.000000 
 14783488.000000, -0.921237 , 1.268196, -2.062613, 1802062208.000000, -18.760000,  -44.590000,  23.940001, 0.000000,  0.000000 
 14803584.000000, -0.571885 , 0.983450, -2.306681, 1802082176.000000, -28.910000,  -60.549999,  22.540001, 0.000000,  0.000000 
 14823552.000000, -0.339781 , -0.270389, -2.043471, 1802102144.000000, -54.599998,  -63.209999,  27.160000, 0.000000,  0.000000 
 14844416.000000, -0.882952 , -3.287738, 0.945165, 1802122240.000000, -89.180000,  -42.560001,  35.139999, 0.000000,  0.000000 
 14863488.000000, -1.244268 , -5.123034, 2.158326, 1802143104.000000, -147.559998,  -6.440000,  42.209999, 0.000000,  0.000000 
 14883456.000000, -1.488336 , -13.854443, 1.689333, 1802162176.000000, -193.550003,  30.870001,  47.180000, 0.000000,  0.000000 
 14903424.000000, -5.745167 , -42.592243, -0.854238, 1802182144.000000, -214.130005,  59.570000,  30.730000, 0.000000,  0.000000 
 14923520.000000, -8.953942 , -39.390644, -2.426322, 1802202112.000000, -252.559998,  12.600000,  18.480000, 0.000000,  0.000000 
 14944384.000000, -21.238693 , -38.036308, -1.179662, 1802222080.000000, -130.130005,  80.709999,  147.559998, 0.000000,  0.000000 
 14963456.000000, -4.835894 , -33.142986, 5.297709, 1802243072.000000, -62.299999,  87.150002,  116.480003, 0.000000,  0.000000 
 14983424.000000, -1.375873 , -31.630722, 9.544970, 1802262144.000000, -101.849998,  39.549999,  30.450001, 0.000000,  0.000000 
 15003392.000000, -5.216353 , -25.887945, 6.037091, 1802282112.000000, -11.130000,  57.470001,  -3.780000, 0.000000,  0.000000 
 15023360.000000, -6.879365 , -20.884556, 0.478565, 1802302080.000000, 97.860001,  105.139999,  6.720000, 0.000000,  0.000000 
 15044352.000000, -2.519642 , -18.896120, 1.871187, 1802322048.000000, 67.620003,  46.060001,  0.070000, 0.000000,  0.000000 
 15063424.000000, -0.062213 , -18.422340, 3.594020, 1802342912.000000, -40.320000,  -117.529999,  -13.510000, 0.000000,  0.000000 
 15083392.000000, -1.012164 , -13.445271, 1.402194, 1802362112.000000, -64.190002,  -127.959999,  -56.630001, 0.000000,  0.000000 
 15103360.000000, -2.445465 , -7.858029, -0.076570, 1802382080.000000, 44.520000,  -55.580002,  -40.040001, 0.000000,  0.000000 
 15123328.000000, -2.151148 , -3.876373, -0.167498, 1802402048.000000, 120.190002,  -7.980000,  -27.510000, 0.000000,  0.000000 
 15144192.000000, -1.000200 , -1.167697, 0.165105, 1802422016.000000, 138.740005,  -18.059999,  -20.440001, 0.000000,  0.000000 
 15163392.000000, -1.162912 , 1.272982, -0.531207, 1802442880.000000, 138.529999,  -30.170000,  -18.969999, 0.000000,  0.000000 
 15183360.000000, -1.366302 , 3.826123, -1.409373, 1802461952.000000, 150.919998,  -18.059999,  -31.780001, 0.000000,  0.000000 
 15203328.000000, -1.115055 , 5.888737, -2.067399, 1802482048.000000, 172.130005,  18.200001,  -23.520000, 0.000000,  0.000000 
 15223296.000000, -1.009771 , 6.262017, -2.792424, 1802502016.000000, 180.180008,  45.639999,  -2.170000, 0.000000,  0.000000 
 15244160.000000, -0.227318 , 5.142176, -2.667997, 1802521984.000000, 142.869995,  34.160000,  4.060000, 0.000000,  0.000000 
 15263232.000000, 0.607777 , 3.742374, -2.311467, 1802542848.000000, 66.220001,  34.160000,  14.490000, 0.000000,  0.000000 
 15283200.000000, 1.418944 , 2.730211, -2.177469, 1802561920.000000, 2.030000,  -36.610001,  28.840000, 0.000000,  0.000000 
 15303296.000000, 1.639083 , 1.921437, -2.474179, 1802581888.000000, -37.869999,  -49.700001,  49.560001, 0.000000,  0.000000 
 15323264.000000, 0.954736 , 1.347159, -2.385644, 1802601856.000000, -62.439999,  -36.820000,  69.160004, 0.000000,  0.000000 
 15344128.000000, -0.076570 , 0.567099, -1.954936, 1802621952.000000, -74.550003,  -10.080000,  79.940002, 0.000000,  0.000000 
 15363200.000000, -0.693919 , -0.318245, -1.215554, 1802642816.000000, -69.720001,  8.890000,  82.250000, 0.000000,  0.000000 
 15383168.000000, -0.763310 , -1.036092, -1.337588, 1802661888.000000, -65.099998,  1.680000,  79.309998, 0.000000,  0.000000 
 15403136.000000, -0.507278 , -2.043471, -1.380659, 1802681856.000000, -60.340000,  -19.040001,  76.230003, 0.000000,  0.000000 
 15423232.000000, -0.540778 , -3.893122, 0.291924, 1802701824.000000, -53.549999,  -21.840000,  69.790001, 0.000000,  0.000000 
 15446016.000000, 0.069392 , -8.161918, 2.696711, 1802721792.000000, -64.540001,  1.120000,  55.720001, 0.000000,  0.000000 
 15463168.000000, -1.892723 , -22.289143, 0.122034, 1802744704.000000, -99.330002,  20.860001,  41.439999, 1803213056.000000,  1008.554626 
 15483136.000000, -12.363714 , -43.858044, 3.845266, 1802761856.000000, -144.199997,  -16.870001,  56.490002, 0.000000,  0.000000 
 15503232.000000, -26.347370 , -35.748768, -4.386044, 1802781824.000000, -190.259995,  190.610001,  85.120003, 0.000000,  0.000000 
 15523072.000000, -11.368300 , -28.670801, 2.895315, 1802801792.000000, 55.580002,  33.529999,  41.509998, 0.000000,  0.000000 
 15544064.000000, -9.162118 , -25.404598, 8.075776, 1802821760.000000, -86.519997,  32.130001,  -23.100000, 0.000000,  0.000000 
 15563136.000000, -10.406385 , -23.660231, 8.999406, 1802842752.000000, -79.449997,  59.290001,  -105.209999, 0.000000,  0.000000 
 15583104.000000, -13.555340 , -24.335005, 4.182654, 1802861824.000000, 21.840000,  104.440002,  -39.689999, 0.000000,  0.000000 
 15603072.000000, -11.564510 , -21.781864, 1.201197, 1802881792.000000, 65.870003,  66.849998,  -45.570000, 0.000000,  0.000000 
 15623040.000000, -9.676575 , -22.803600, 1.873580, 1802901760.000000, 21.770000,  -31.920000,  -27.719999, 0.000000,  0.000000 
 15644032.000000, -7.334002 , -20.401205, 2.136791, 1802921728.000000, -54.880001,  -99.330002,  -63.209999, 0.000000,  0.000000 
 15663104.000000, -5.788238 , -13.935800, 1.622334, 1802942592.000000, -57.119999,  -89.459999,  -74.059998, 0.000000,  0.000000 
 15683072.000000, -4.340580 , -8.384450, 2.012364, 1802961664.000000, 31.010000,  -56.700001,  -64.959999, 0.000000,  0.000000 
 15703040.000000, -2.828316 , -3.883551, 1.617548, 1802981760.000000, 96.180000,  -35.630001,  -43.540001, 0.000000,  0.000000 
 15723008.000000, -1.651048 , -0.543171, 0.356531, 1803001728.000000, 125.020004,  -28.980000,  -22.889999, 0.000000,  0.000000 
 15743872.000000, -1.002593 , 2.512464, -0.643669, 1803021696.000000, 147.979996,  -27.160000,  -12.110000, 0.000000,  0.000000 
 15762944.000000, -0.210568 , 5.764310, -0.612563, 1803042560.000000, 156.100006,  -23.730000,  -24.150000, 0.000000,  0.000000 
 15783040.000000, 1.270589 , 6.589834, -1.770689, 1803061632.000000, 182.279999,  2.030000,  -26.110001, 0.000000,  0.000000 
 15803008.000000, 1.572084 , 6.331409, -2.447858, 1803081600.000000, 208.460007,  17.360001,  -14.070000, 0.000000,  0.000000 
 15822976.000000, 2.127219 , 5.584848, -2.938386, 1803101696.000000, 145.880005,  5.040000,  -26.180000, 0.000000,  0.000000 
 15843840.000000, 2.330609 , 3.933800, -2.964707, 1803121664.000000, 49.000000,  -10.780000,  -13.650000, 0.000000,  0.000000 
 15862912.000000, 2.024328 , 2.450250, -1.926222, 1803142528.000000, -29.610001,  -41.720001,  12.320000, 0.000000,  0.000000 
 15882880.000000, 1.579263 , 1.093520, -1.392623, 1803161600.000000, -86.379997,  -59.430000,  36.259998, 0.000000,  0.000000 
 15902976.000000, 0.784846 , 0.452243, -1.892723, 1803181568.000000, -99.190002,  -58.520000,  50.119999, 0.000000,  0.000000 
 15922944.000000, 0.260818 , 0.220140, -2.287539, 1803201536.000000, -89.320000,  -54.880001,  46.410000, 0.000000,  0.000000 
 15943808.000000, 0.050249 , -0.124427, -2.009971, 1803221632.000000, -72.239998,  -53.060001,  45.920002, 0.000000,  0.000000 
 15962880.000000, 0.069392 , -0.978664, -1.347159, 1803242496.000000, -63.980000,  -59.500000,  48.650002, 0.000000,  0.000000 
 15982848.000000, 0.129212 , -2.512464, -1.445265, 1803261568.000000, -68.599998,  -67.269997,  51.590000, 0.000000,  0.000000 
 16002816.000000, 0.181855 , -4.539185, -2.029114, 1803281536.000000, -83.930000,  -55.160000,  50.820000, 0.000000,  0.000000 
 16022912.000000, 0.387637 , -8.413164, -1.899901, 1803301504.000000, -113.050003,  -12.810000,  37.799999, 0.000000,  0.000000 
 16043904.000000, 0.208176 , -20.599810, -1.849652, 1803321472.000000, -149.169998,  21.700001,  8.330000, 0.000000,  0.000000 
 16062848.000000, -5.941379 , -40.658844, 1.105484, 1803342592.000000, -186.339996,  -4.760000,  13.230000, 0.000000,  0.000000 
 16082816.000000, -19.568504 , -35.064419, -4.264010, 1803361536.000000, -200.619995,  101.709999,  66.639999, 0.000000,  0.000000 
 16102784.000000, -12.466606 , -27.302105, -4.235296, 1803381504.000000, -6.370000,  241.639999,  70.559998, 0.000000,  0.000000 
 16122752.000000, -8.819944 , -24.890142, 2.861816, 1803401472.000000, 70.349998,  62.650002,  49.490002, 0.000000,  0.000000 
 16143744.000000, -8.848659 , -25.060032, 8.508877, 1803421440.000000, -47.459999,  54.740002,  -120.610001, 0.000000,  0.000000 
 16162816.000000, -12.957134 , -25.158138, 6.587440, 1803442304.000000, -48.369999,  145.320007,  -59.080002, 0.000000,  0.000000 
 16182784.000000, -9.415757 , -20.264814, 2.282753, 1803461376.000000, 35.630001,  184.309998,  -38.849998, 0.000000,  0.000000 
 16202752.000000, -7.946564 , -19.295721, 0.653241, 1803481472.000000, 73.500000,  66.080002,  -17.850000, 0.000000,  0.000000 
 16222720.000000, -7.345965 , -22.116859, 2.273181, 1803501440.000000, 5.040000,  -57.610001,  -36.470001, 0.000000,  0.000000 
 16243584.000000, -5.312066 , -18.623339, 5.091926, 1803521408.000000, -81.970001,  -90.650002,  -35.349998, 0.000000,  0.000000 
 16262912.000000, -2.589034 , -12.406786, 2.813959, 1803542272.000000, -46.689999,  -71.610001,  -38.500000, 0.000000,  0.000000 
 16282752.000000, -2.103291 , -7.216753, 2.667997, 1803561600.000000, 73.709999,  -41.509998,  -36.610001, 0.000000,  0.000000 
 16302720.000000, -1.031307 , -3.388237, 2.165504, 1803581440.000000, 143.990005,  -18.969999,  -29.610001, 0.000000,  0.000000 
 16322688.000000, -0.507278 , -0.586242, 1.179662, 1803601408.000000, 163.240005,  -26.670000,  -17.290001, 0.000000,  0.000000 
 16343552.000000, 0.538385 , 2.033899, 0.246461, 1803621376.000000, 168.770004,  -42.910000,  -35.910000, 0.000000,  0.000000 
 16362624.000000, 1.395016 , 3.835695, -0.667598, 1803642240.000000, 164.360001,  -48.090000,  -35.700001, 0.000000,  0.000000 
 16382720.000000, 1.098306 , 4.146761, -1.909473, 1803661312.000000, 161.699997,  -12.600000,  -23.870001, 0.000000,  0.000000 
 16402688.000000, 0.471386 , 3.862016, -2.474179, 1803681280.000000, 148.050003,  20.160000,  -30.799999, 0.000000,  0.000000 
 16422656.000000, 0.464208 , 3.510271, -2.840281, 1803701376.000000, 105.349998,  24.780001,  -31.710001, 0.000000,  0.000000 
 16445440.000000, 0.918844 , 2.991028, -2.589034, 1803744128.000000, 12.530000,  -57.119999,  -24.850000, 1804212480.000000,  1008.553284 
 16462592.000000, 1.462015 , 2.163112, -2.464607, 0.000000, 0.000000,  0.000000,  0.000000, 0.000000,  0.000000 
 16482560.000000, 1.576870 , 1.435694, -2.620141, 1803761280.000000, -24.010000,  -79.730003,  -15.610000, 0.000000,  0.000000 
 16502656.000000, 1.038485 , 1.174876, -2.859423, 1803781248.000000, -42.420002,  -72.239998,  -9.520000, 0.000000,  0.000000 
 16522624.000000, 0.425922 , 0.964308, -2.909672, 1803801344.000000, -41.580002,  -52.080002,  -6.020000, 0.000000,  0.000000 
 16543488.000000, 0.174676 , 0.873380, -2.691926, 1803821312.000000, -32.900002,  -34.650002,  -1.400000, 0.000000,  0.000000 
 16562560.000000, 0.246461 , 0.007178, -2.280360, 1803842176.000000, -34.860001,  -31.010000,  4.970000, 0.000000,  0.000000 
 16582528.000000, 0.588634 , -0.964308, -2.076970, 1803861248.000000, -41.439999,  -30.799999,  12.810000, 0.000000,  0.000000 
 16602496.000000, 1.351945 , -2.340181, -2.309074, 1803881216.000000, -61.180000,  -12.320000,  17.360001, 0.000000,  0.000000 
 16622592.000000, 2.155933 , -9.073583, -0.344566, 1803901184.000000, -86.029999,  11.130000,  18.059999, 0.000000,  0.000000 
 16643456.000000, 0.129212 , -32.178677, -2.756532, 1803921152.000000, -122.290001,  3.780000,  26.389999, 0.000000,  0.000000 
 16662528.000000, -10.226924 , -44.843887, 3.893122, 1803942144.000000, -148.610001,  -18.690001,  107.660004, 0.000000,  0.000000 
 16682496.000000, -17.185251 , -36.155552, -1.718047, 1803961216.000000, -266.910004,  107.309998,  159.460007, 0.000000,  0.000000 
 16702464.000000, -6.058627 , -30.491739, 3.505485, 1803981184.000000, -127.470001,  269.920013,  98.279999, 0.000000,  0.000000 
 16722432.000000, -6.652047 , -29.690142, 8.767302, 1804001152.000000, 67.269997,  79.940002,  89.599998, 0.000000,  0.000000 
 16743424.000000, -10.078569 , -22.004396, 6.951149, 1804021120.000000, 31.639999,  71.889999,  -25.480000, 0.000000,  0.000000 
 16762496.000000, -9.549755 , -19.692930, 4.256832, 1804041984.000000, 26.460001,  186.270004,  -5.180000, 0.000000,  0.000000 
 16782464.000000, -7.458428 , -16.711473, 2.679961, 1804061184.000000, 59.150002,  136.430008,  -7.280000, 0.000000,  0.000000 
 16802432.000000, -5.747560 , -19.307686, 2.880959, 1804081152.000000, 2.100000,  15.330000,  16.940001, 0.000000,  0.000000 
 16822400.000000, -5.094319 , -20.334208, 4.488935, 1804101120.000000, -61.250000,  -43.049999,  34.020000, 0.000000,  0.000000 
 16843264.000000, -3.483950 , -16.386049, 4.634897, 1804121088.000000, -56.420002,  -26.460001,  31.010000, 0.000000,  0.000000 
 16862464.000000, -2.297110 , -9.980463, 3.254239, 1804141952.000000, 43.889999,  2.100000,  39.970001, 0.000000,  0.000000 
 16882432.000000, -0.660419 , -4.491328, 1.840081, 1804161024.000000, 92.330002,  -21.840000,  62.650002, 0.000000,  0.000000 
 16902400.000000, -0.452243 , -4.924429, 2.385644, 1804180992.000000, 91.769997,  -7.840000,  41.580002, 0.000000,  0.000000 
 16922368.000000, -1.409373 , -4.615755, 1.217947, 1804201088.000000, 105.769997,  -3.500000,  -26.530001, 0.000000,  0.000000 
 16943232.000000, -0.358923 , -0.787239, -0.961915, 1804221056.000000, 151.479996,  -5.810000,  -56.560001, 0.000000,  0.000000 
 16962304.000000, 0.751346 , 2.440679, -2.313859, 1804241920.000000, 156.940002,  0.210000,  -2.450000, 0.000000,  0.000000 
 16982400.000000, 1.033699 , 4.831109, -2.478964, 1804260992.000000, 161.839996,  8.750000,  2.380000, 0.000000,  0.000000 
 17002368.000000, 1.481157 , 5.288138, -3.101098, 1804280960.000000, 152.529999,  14.910000,  -22.469999, 0.000000,  0.000000 
 17022336.000000, 1.780260 , 4.563113, -3.022135, 1804300928.000000, 128.240005,  20.510000,  -14.210000, 0.000000,  0.000000 
 17043200.000000, 1.708475 , 3.608376, -2.311467, 1804321024.000000, 76.860001,  22.750000,  7.840000, 0.000000,  0.000000 
 17062272.000000, 1.323231 , 2.522035, -2.146362, 1804341888.000000, 15.680000,  25.340000,  18.900000, 0.000000,  0.000000 
 17082240.000000, 0.875773 , 1.490728, -2.340181, 1804360960.000000, -29.820000,  29.120001,  29.889999, 0.000000,  0.000000 
 17102208.000000, 0.411566 , 0.890130, -1.797010, 1804380928.000000, -50.610001,  24.639999,  44.799999, 0.000000,  0.000000 
 17122304.000000, 0.354138 , 0.258425, -1.356731, 1804400896.000000, -53.970001,  14.140000,  58.099998, 0.000000,  0.000000 
 17143168.000000, 0.308674 , -0.062213, -1.062413, 1804420864.000000, -38.360001,  4.900000,  66.010002, 0.000000,  0.000000 
 17162240.000000, 0.514457 , 0.064606, -1.129412, 1804441856.000000, -22.960001,  0.210000,  60.900002, 0.000000,  0.000000 
 17182208.000000, 0.215354 , -0.516850, -0.827917, 1804460928.000000, -17.150000,  3.220000,  56.560001, 0.000000,  0.000000 
 17202176.000000, -1.191626 , -3.024528, 1.543371, 1804480896.000000, -18.200001,  17.290001,  49.980000, 0.000000,  0.000000 
 17222144.000000, -2.868994 , -11.157731, 4.266403, 1804500864.000000, -40.180000,  53.830002,  44.310001, 0.000000,  0.000000 
 17243136.000000, -10.956735 , -32.142788, 1.761117, 1804520832.000000, -80.500000,  109.760002,  31.010000, 0.000000,  0.000000 
 17262208.000000, -33.753155 , -42.553955, 5.283352, 1804541824.000000, -167.300003,  129.009995,  6.510000, 0.000000,  0.000000 
 17282176.000000, -20.516060 , -33.255451, 4.132405, 1804560896.000000, -151.690002,  156.449997,  61.670002, 0.000000,  0.000000 
 17302144.000000, -16.316658 , -25.907091, 5.941379, 1804580864.000000, 6.440000,  6.230000,  59.990002, 0.000000,  0.000000 
 17322112.000000, -12.186646 , -18.118454, 9.578469, 1804600832.000000, 22.400000,  34.580002,  -105.769997, 0.000000,  0.000000 
 17343104.000000, -15.340386 , -19.951355, 7.836494, 1804620800.000000, 61.529999,  73.989998,  -89.320000, 0.000000,  0.000000 
 17362176.000000, -12.854243 , -17.661423, 3.565305, 1804641664.000000, 57.330002,  72.730003,  -82.809998, 0.000000,  0.000000 
 17382144.000000, -10.638489 , -16.476976, 2.670390, 1804660736.000000, 19.740000,  11.690000,  -37.170002, 0.000000,  0.000000 
 17402112.000000, -9.882358 , -15.909878, 3.048456, 1804680832.000000, -26.250000,  -81.830002,  -31.150000, 0.000000,  0.000000 
 17422080.000000, -8.439486 , -14.493326, 3.419343, 1804700800.000000, -59.779999,  -96.739998,  -29.190001, 0.000000,  0.000000 
 17444992.000000, -6.384050 , -11.593226, 1.902294, 1804720768.000000, -74.199997,  -70.980003,  -11.690000, 0.000000,  0.000000 
 17462016.000000, -4.457829 , -7.240681, 0.856631, 1804743552.000000, -29.540001,  -53.830002,  7.420000, 1805211904.000000,  1008.553894 
 17482112.000000, -2.598605 , -2.665605, 0.160319, 1804760704.000000, 28.559999,  -47.459999,  22.610001, 0.000000,  0.000000 
 17502080.000000, -1.823331 , 0.784846, -1.045663, 1804780672.000000, 107.309998,  -46.689999,  22.120001, 0.000000,  0.000000 
 17522048.000000, -0.294317 , 3.653840, -2.110470, 1804800768.000000, 177.309998,  -25.690001,  -13.930000, 0.000000,  0.000000 
 17542912.000000, 1.385444 , 7.513463, -2.335395, 1804820736.000000, 192.639999,  -20.930000,  -34.650002, 0.000000,  0.000000 
 17561984.000000, 3.278167 , 7.769495, -3.926622, 1804841600.000000, 180.320007,  -34.160000,  -49.349998, 0.000000,  0.000000 
 17581952.000000, 3.945765 , 6.728617, -3.945765, 1804860672.000000, 177.729996,  -28.070000,  -25.410000, 0.000000,  0.000000 
 17602048.000000, 2.991028 , 3.921836, -2.148755, 1804880640.000000, 81.970001,  -23.309999,  14.700000, 0.000000,  0.000000 
 17622016.000000, 1.574477 , 1.567299, -0.851845, 1804900608.000000, -14.770000,  -7.700000,  42.840000, 0.000000,  0.000000 
 17642880.000000, 0.323031 , -0.296710, -0.574277, 1804920576.000000, -79.940002,  4.340000,  60.410000, 0.000000,  0.000000 
 17661952.000000, -0.358923 , -1.399801, -1.227518, 1804941568.000000, -98.000000,  -1.610000,  68.669998, 0.000000,  0.000000 
 17681920.000000, -0.540778 , -1.820938, -0.686740, 1804960640.000000, -87.080002,  -13.300000,  73.430000, 0.000000,  0.000000 
 17701888.000000, -0.612563 , -2.158326, -0.055035, 1804980608.000000, -61.320000,  -28.210001,  74.129997, 0.000000,  0.000000 
 17721984.000000, -0.303888 , -1.926222, 0.796810, 1805000576.000000, -31.920000,  -47.599998,  63.560001, 0.000000,  0.000000 
 17742848.000000, 0.153141 , -1.490728, 0.775275, 1805020544.000000, -13.860000,  -55.790001,  53.830002, 0.000000,  0.000000 
 17761920.000000, 0.416351 , -0.765703, 1.050449, 1805041536.000000, 3.920000,  -49.420002,  46.340000, 0.000000,  0.000000 
 17781888.000000, -0.803988 , -1.462015, 5.656632, 1805060608.000000, 10.570000,  -31.219999,  39.060001, 0.000000,  0.000000 
 17801856.000000, -3.641876 , -6.271588, 11.710474, 1805080576.000000, 6.440000,  -12.600000,  36.820000, 0.000000,  0.000000 
 17821824.000000, -9.327222 , -17.862421, 5.467600, 1805100544.000000, -17.990000,  9.520000,  49.560001, 0.000000,  0.000000 
 17842816.000000, -64.019974 , -48.729832, -6.972685, 1805120512.000000, -106.959999,  44.170002,  81.970001, 0.000000,  0.000000 
 17861888.000000, -21.499512 , -38.689548, 5.359922, 1805141376.000000, -249.899994,  211.680008,  122.989998, 0.000000,  0.000000 
 17881856.000000, -12.406786 , -32.705097, 10.260423, 1805160448.000000, -227.850006,  -104.230003,  23.170000, 0.000000,  0.000000 
 17901824.000000, -14.325829 , -26.349762, 8.798409, 1805180544.000000, -115.080002,  -32.200001,  -115.919998, 0.000000,  0.000000 
 17921792.000000, -13.177275 , -21.131016, 6.838687, 1805200512.000000, 107.309998,  90.650002,  -151.550003, 0.000000,  0.000000 
 17942656.000000, -10.533205 , -15.175282, 4.125226, 1805220480.000000, 134.259995,  95.269997,  -140.910004, 0.000000,  0.000000 
 17961728.000000, -6.491727 , -11.803794, 4.766503, 1805241344.000000, 67.550003,  23.730000,  -137.410004, 0.000000,  0.000000 
 17981824.000000, -3.117848 , -10.602598, 3.735196, 1805260416.000000, -20.510000,  -75.040001,  -131.529999, 0.000000,  0.000000 
 18001792.000000, -1.091127 , -8.822337, 1.564906, 1805280384.000000, -55.650002,  -145.110001,  -127.610001, 0.000000,  0.000000 
 18021760.000000, -0.282353 , -6.262017, 1.378266, 1805300480.000000, -28.980000,  -141.190002,  -89.949997, 0.000000,  0.000000 
 18042624.000000, -0.981057 , -4.295116, 1.124627, 1805320448.000000, 8.610000,  -64.050003,  -38.849998, 0.000000,  0.000000 
 18061696.000000, -1.213161 , -3.101098, 1.177269, 1805341312.000000, 26.880001,  11.410000,  -19.250000, 0.000000,  0.000000 
 18081664.000000, -1.205983 , -2.086541, 0.650848, 1805360384.000000, 55.020000,  51.099998,  -6.790000, 0.000000,  0.000000 
 18101760.000000, -0.885344 , -0.184247, 0.198604, 1805380352.000000, 103.040001,  55.930000,  -3.990000, 0.000000,  0.000000 
 18121728.000000, -0.411566 , 1.646262, -0.023928, 1805400320.000000, 126.489998,  58.660000,  -11.130000, 0.000000,  0.000000 
 18142592.000000, 0.160319 , 2.986243, -0.136391, 1805420416.000000, 136.850006,  55.369999,  -21.910000, 0.000000,  0.000000 
 18161664.000000, 0.763310 , 3.639483, -0.870987, 1805441280.000000, 130.130005,  47.529999,  -33.880001, 0.000000,  0.000000 
 18181632.000000, 1.263410 , 4.218546, -1.019342, 1805460352.000000, 116.970001,  30.380001,  -42.209999, 0.000000,  0.000000 
 18201600.000000, 1.495514 , 3.933800, -0.997807, 1805480320.000000, 88.550003,  4.340000,  -37.450001, 0.000000,  0.000000 
 18221696.000000, 1.067199 , 2.991028, -1.186840, 1805500288.000000, 44.450001,  -17.780001,  -19.460001, 0.000000,  0.000000 
 18242560.000000, 0.119641 , 2.447858, -2.191825, 1805520256.000000, -6.860000,  -17.710001,  4.970000, 0.000000,  0.000000 
 18261632.000000, -0.935594 , 1.756332, -2.756532, 1805541248.000000, -48.230000,  0.910000,  22.889999, 0.000000,  0.000000 
 18281600.000000, -1.710868 , 0.770489, -1.804188, 1805560320.000000, -71.400002,  16.030001,  28.070000, 0.000000,  0.000000 
 18301568.000000, -1.710868 , -0.593420, -0.263210, 1805580288.000000, -84.349998,  11.270000,  31.710001, 0.000000,  0.000000 
 18321536.000000, -0.923629 , -1.086342, -0.260818, 1805600256.000000, -61.880001,  -13.790000,  36.820000, 0.000000,  0.000000 
 18342528.000000, -0.038285 , -0.535992, -0.145962, 1805620224.000000, -18.270000,  -33.250000,  37.029999, 0.000000,  0.000000 
 18361600.000000, -0.564706 , -2.641676, 3.050849, 1805641216.000000, 12.320000,  -17.500000,  41.369999, 0.000000,  0.000000 
 18381568.000000, -2.950350 , -12.550355, 8.341379, 1805660288.000000, 2.590000,  38.220001,  39.130001, 0.000000,  0.000000 
 18401536.000000, -11.988041 , -42.305103, 6.068198, 1805680256.000000, -70.139999,  78.470001,  36.330002, 0.000000,  0.000000 
 18421504.000000, -42.307499 , -56.499329, 5.606383, 1805700224.000000, -227.430008,  114.730003,  80.709999, 0.000000,  0.000000 
 18444416.000000, -9.174082 , -38.979080, 8.638089, 1805720192.000000, -301.559998,  202.020004,  117.110001, 0.000000,  0.000000 
 18461568.000000, -7.544570 , -25.557737, 10.382458, 1805743104.000000, -89.389999,  6.370000,  39.340000, 1806211328.000000,  1008.552551 
 18481536.000000, -7.458428 , -19.657038, 12.535997, 1805760128.000000, 52.570000,  29.960001,  -119.910004, 0.000000,  0.000000 
 18501504.000000, -8.965906 , -18.520447, 10.317852, 1805780224.000000, 80.989998,  82.320000,  -108.639999, 0.000000,  0.000000 
 18521472.000000, -6.876972 , -14.909678, 7.089933, 1805800192.000000, 75.669998,  59.990002,  -107.029999, 0.000000,  0.000000 
 18542336.000000, -4.778467 , -13.871193, 5.620740, 1805820160.000000, 52.360001,  -38.990002,  -58.660000, 0.000000,  0.000000 
 18561408.000000, -4.283153 , -15.079568, 4.917251, 1805841024.000000, -12.320000,  -123.830002,  -37.170002, 0.000000,  0.000000 
 18581504.000000, -4.632504 , -12.650853, 4.137190, 1805860096.000000, -33.670002,  -131.949997,  -27.580000, 0.000000,  0.000000 
 18601472.000000, -4.034299 , -8.348558, 2.213361, 1805880064.000000, -12.880000,  -82.949997,  -20.580000, 0.000000,  0.000000 
 18621440.000000, -2.770889 , -4.283153, -0.232104, 1805900160.000000, 89.879997,  -25.690001,  -7.980000, 0.000000,  0.000000 
 18642304.000000, -1.873580 , -1.521835, -1.871187, 1805920128.000000, 160.580002,  -6.300000,  7.000000, 0.000000,  0.000000 
 18661376.000000, -1.756332 , 0.349352, -1.818545, 1805940992.000000, 184.800003,  1.680000,  6.370000, 0.000000,  0.000000 
 18681344.000000, -1.756332 , 2.931208, -2.438286, 1805960064.000000, 184.029999,  8.260000,  -7.770000, 0.000000,  0.000000 
 18701440.000000, -0.882952 , 4.723432, -3.117848, 1805980032.000000, 158.970001,  13.440001,  -35.070000, 0.000000,  0.000000 
 18721408.000000, -0.138784 , 5.065606, -3.471986, 1806000000.000000, 125.300003,  18.830000,  -35.490002, 0.000000,  0.000000 
 18742272.000000, 0.667598 , 4.342973, -3.699304, 1806020096.000000, 72.800003,  0.420000,  -40.950001, 0.000000,  0.000000 
 18761344.000000, 1.739582 , 3.426522, -3.309274, 1806040960.000000, 22.049999,  -29.680000,  -32.270000, 0.000000,  0.000000 
 18781312.000000, 2.569891 , 2.665605, -2.758924, 1806060032.000000, -3.710000,  -61.389999,  0.420000, 0.000000,  0.000000 
