Acc_timestamp,Accx,Accy,Accz,Gyro_timestamp,Gyrox,Gyroy,Gyroz,Baro_timestamp,Pressure_Reading
225768576.000000,0.540778,4.780859,8.200203,0.000000,0.000000,0.000000,0.000000,0.000000,0.000000
19200.000000,-0.485743,5.627919,7.109076,2186926848.000000,20.580000,-14.910000,-14.910000,0.000000,0.000000
39168.000000,-0.105284,5.711668,7.424929,2186946048.000000,20.580000,-14.910000,-14.910000,0.000000,0.000000
59136.000000,-0.504886,5.414958,7.606783,2186966016.000000,-3.360000,7.000000,16.309999,0.000000,0.000000
80384.000000,-0.629312,5.575277,7.408179,2186985728.000000,-4.970000,9.100000,13.020000,0.000000,0.000000
101120.000000,-0.380459,6.015556,7.381857,2187007232.000000,8.330000,11.200000,14.700000,0.000000,0.000000
120320.000000,-0.480957,6.056234,7.467999,2187027968.000000,16.520000,7.070000,16.730000,2247196672.000000,1009.691345
140288.000000,-0.873380,6.037091,7.597212,2187047168.000000,10.920000,10.780000,19.250000,0.000000,0.000000
160256.000000,-0.916451,6.063413,7.683353,2187067136.000000,3.080000,15.050000,21.770000,0.000000,0.000000
180224.000000,-0.713061,6.135197,7.637890,2187087104.000000,-4.690000,13.440001,24.150000,0.000000,0.000000
201216.000000,-0.777667,6.120840,7.668997,2187107072.000000,-14.280000,9.310000,23.730000,0.000000,0.000000
220416.000000,-0.971486,6.228518,7.566105,2187128064.000000,-21.210001,9.940000,22.400000,0.000000,0.000000
240128.000000,-1.110270,6.321837,7.276574,2187147008.000000,-20.370001,12.880000,19.740000,0.000000,0.000000
260352.000000,-1.349552,6.149554,6.754939,2187166976.000000,-17.219999,13.230000,17.850000,0.000000,0.000000
280320.000000,-1.904687,5.886343,5.912664,2187187200.000000,-17.150000,13.440001,19.180000,0.000000,0.000000
303104.000000,-2.402394,5.587241,5.369494,2187206912.000000,-24.570000,17.780001,27.230000,0.000000,0.000000
320256.000000,-2.636890,4.926822,5.051248,2187229952.000000,-41.020000,18.690001,40.670002,0.000000,0.000000
340224.000000,-2.634498,4.139583,4.914857,2187247104.000000,-68.669998,13.020000,54.740002,0.000000,0.000000
360192.000000,-2.766103,3.704089,4.744967,2187267072.000000,-103.529999,7.770000,69.510002,0.000000,0.000000
380160.000000,-3.132205,2.962314,4.436293,2187287040.000000,-135.309998,6.160000,87.290001,0.000000,0.000000
401152.000000,-3.653840,2.093720,4.247260,2187307008.000000,-168.070007,8.680000,104.720001,0.000000,0.000000
420096.000000,-3.756732,1.593620,4.572684,2187327744.000000,-212.660004,7.000000,114.520004,0.000000,0.000000
440064.000000,-3.297310,0.677169,4.747360,2187346944.000000,-253.330002,1.470000,128.100006,0.000000,0.000000
460288.000000,-2.888137,-0.629312,4.620540,2187366912.000000,-279.089996,-10.710000,142.940002,0.000000,0.000000
480000.000000,-2.608176,-1.409373,4.797609,2187386880.000000,-302.890015,-12.320000,154.350006,0.000000,0.000000
500992.000000,-2.187040,-2.237289,5.211568,2187406848.000000,-334.600006,-2.660000,163.100006,0.000000,0.000000
520192.000000,-2.256432,-4.015156,4.900501,2187427840.000000,-376.110016,7.910000,171.990005,0.000000,0.000000
539904.000000,-2.636890,-6.597012,4.070191,2187447040.000000,-442.049988,25.969999,177.169998,0.000000,0.000000
559872.000000,-3.330809,-10.533205,4.709075,2187466752.000000,-508.480011,39.900002,185.639999,0.000000,0.000000
580096.000000,-3.732803,-14.225330,5.216353,2187486720.000000,-544.880005,39.410000,200.479996,0.000000,0.000000
600832.000000,-3.665804,-17.012968,5.558527,2187506688.000000,-514.080017,25.340000,220.710007,0.000000,0.000000
620032.000000,-3.036492,-17.938992,4.376472,2187527680.000000,-412.649994,5.320000,223.440002,0.000000,0.000000
640000.000000,-0.569492,-20.324638,6.786045,2187546880.000000,-281.750000,-36.189999,225.610001,0.000000,0.000000
659968.000000,2.342573,-19.602003,5.630312,2187566848.000000,-179.130005,-84.349998,234.220001,0.000000,0.000000
679936.000000,3.799802,-18.407984,4.235296,2187586816.000000,-68.389999,-88.269997,235.339996,0.000000,0.000000
700928.000000,5.048856,-17.371893,2.117648,2187606784.000000,-20.370001,-83.860001,199.220001,0.000000,0.000000
719872.000000,6.293124,-17.527426,2.222932,2187627520.000000,-37.730000,-64.540001,161.910004,0.000000,0.000000
739840.000000,7.776673,-17.790636,5.395815,2187646720.000000,-113.750000,-62.860001,112.910004,0.000000,0.000000
759808.000000,8.386844,-20.195423,6.898508,2187666688.000000,-183.330002,-52.500000,71.959999,0.000000,0.000000
779776.000000,7.343572,-22.600208,7.877172,2187686656.000000,-145.250000,-22.469999,21.000000,0.000000,0.000000
800768.000000,5.625526,-24.337399,9.585647,2187706624.000000,-48.439999,13.860000,-42.000000,0.000000,0.000000
819968.000000,4.235296,-26.804399,9.832108,2187727616.000000,7.420000,42.770000,-122.709999,0.000000,0.000000
839936.000000,2.270789,-28.268806,7.417750,2187746560.000000,54.110001,44.029999,-214.479996,0.000000,0.000000
859904.000000,0.734596,-32.470604,6.747760,2187766784.000000,73.150002,36.189999,-300.089996,0.000000,0.000000
879872.000000,-1.170090,-36.794434,7.738388,2187786752.000000,-8.680000,32.970001,-372.119995,0.000000,0.000000
900608.000000,-5.661418,-32.963524,6.293124,2187806720.000000,-38.500000,36.470001,-444.920013,0.000000,0.000000
919808.000000,-9.298509,-25.177280,2.510071,2187827456.000000,5.390000,44.310001,-508.269989,0.000000,0.000000
939776.000000,-10.813165,-17.070396,-0.141177,2187846656.000000,156.940002,43.189999,-525.770020,0.000000,0.000000
959744.000000,-11.164910,-9.731609,-2.069792,2187866624.000000,284.059998,19.040001,-513.799988,0.000000,0.000000
979712.000000,-10.581062,-6.594619,-2.909672,2187886592.000000,329.489990,-3.500000,-465.010010,0.000000,0.000000
1000704.000000,-8.863015,0.021535,-4.137190,2187906560.000000,310.940002,-10.430000,-389.619995,0.000000,0.000000
1019648.000000,-9.676575,1.301696,-5.898308,2187927552.000000,267.750000,-12.740000,-306.529999,0.000000,0.000000
1039616.000000,-13.397413,3.342773,-8.597411,2187946496.000000,210.910004,-10.080000,-224.490005,0.000000,0.000000
1059840.000000,-15.668202,4.582255,-7.606783,2187966464.000000,115.430000,15.960000,-121.590004,0.000000,0.000000
1079808.000000,-20.456242,4.445865,-7.018148,2187986432.000000,-33.040001,25.760000,-10.780000,0.000000,0.000000
1100544.000000,-18.250059,5.745167,-5.388636,2188027392.000000,-63.630001,25.270000,141.330002,2248196096.000000,1009.687683
1119744.000000,-15.409778,7.822137,-5.754738,0.000000,0.000000,0.000000,0.000000,0.000000,0.000000
1139712.000000,-14.431112,8.590233,-7.326823,2188046592.000000,15.120000,35.980000,262.290009,0.000000,0.000000
1159680.000000,-16.438692,7.836494,-7.594819,2188066560.000000,38.500000,60.689999,375.339996,0.000000,0.000000
1179648.000000,-18.386450,4.809574,-3.498307,2188086528.000000,-13.930000,81.199997,473.130005,0.000000,0.000000
1200640.000000,-27.326035,-14.665611,7.805387,2188106496.000000,-118.370003,91.629997,554.890015,0.000000,0.000000
1219584.000000,-33.463627,-54.022758,6.685547,2188127488.000000,-165.759995,65.099998,564.340027,0.000000,0.000000
1239552.000000,-20.085352,-74.457458,16.697117,2188146432.000000,-216.649994,97.650002,551.530029,0.000000,0.000000
1259520.000000,-14.435899,-65.178093,13.430914,2188166400.000000,-210.000000,38.150002,594.369995,0.000000,0.000000
1279488.000000,-2.986243,-43.432129,12.342178,2188186368.000000,-157.430008,-3.570000,427.559998,0.000000,0.000000
1302528.000000,3.309274,-26.668009,9.028119,2188206336.000000,-144.130005,-21.700001,286.790009,0.000000,0.000000
1319680.000000,5.871986,-18.553947,5.056034,2188229376.000000,-115.709999,-30.309999,227.430008,0.000000,0.000000
1339648.000000,7.963314,-13.674981,4.467400,2188246272.000000,-129.009995,-34.090000,199.009995,0.000000,0.000000
1359616.000000,10.985448,-9.571291,4.185047,2188266496.000000,-172.830002,-66.150002,168.070007,0.000000,0.000000
1379584.000000,15.878771,-6.037091,5.895915,2188286464.000000,-167.300003,-92.540001,149.449997,0.000000,0.000000
1400320.000000,21.671795,-3.546163,6.601797,2188306432.000000,-126.559998,-122.430000,118.650002,0.000000,0.000000
1419520.000000,21.260227,-1.373480,5.812167,2188327168.000000,-55.650002,-126.840004,70.699997,0.000000,0.000000
1439488.000000,17.680567,-2.742175,6.836295,2188346368.000000,9.100000,-89.739998,6.230000,0.000000,0.000000
1459456.000000,16.907684,-5.737988,6.513263,2188366336.000000,-2.450000,-57.750000,-31.920000,0.000000,0.000000
1479424.000000,16.331015,-9.537791,6.271588,2188386304.000000,-28.139999,-65.870003,-53.689999,0.000000,0.000000
1500416.000000,13.837693,-20.800808,7.795816,2188406272.000000,-80.849998,-52.570000,-106.610001,0.000000,0.000000
1519360.000000,6.565905,-54.424755,4.816752,2188427264.000000,-101.639999,2.940000,-143.990005,0.000000,0.000000
1539328.000000,-13.710874,-53.790653,-2.388037,2188446208.000000,-14.350000,117.389999,-310.450012,0.000000,0.000000
1559552.000000,2.464607,-60.105309,0.387637,2188466176.000000,85.540001,96.250000,-522.059998,0.000000,0.000000
1579520.000000,-15.940985,-62.091358,3.605984,2188486144.000000,-5.320000,-1.610000,-484.959991,0.000000,0.000000
1600256.000000,-13.909478,-43.451263,-2.440679,2188506368.000000,14.490000,57.889999,-673.890015,0.000000,0.000000
1619456.000000,-18.996618,-31.970503,-2.880959,2188527104.000000,200.759995,57.330002,-683.340027,0.000000,0.000000
1639424.000000,-19.652252,-21.580866,0.849452,2188546304.000000,185.570007,41.930000,-688.799988,0.000000,0.000000
1659392.000000,-18.884157,-11.944970,-0.830309,2188566272.000000,95.480003,59.570000,-595.140015,0.000000,0.000000
1679360.000000,-18.278772,-3.883551,-1.112662,2188586240.000000,71.820000,100.309998,-462.209991,0.000000,0.000000
1700352.000000,-20.757736,1.734797,-2.445465,2188606208.000000,66.709999,99.959999,-370.440002,0.000000,0.000000
1719296.000000,-21.506691,4.883751,-3.390630,2188627200.000000,78.400002,94.360001,-268.730011,0.000000,0.000000
1739264.000000,-18.010777,5.745167,-1.919044,2188646144.000000,72.379997,105.139999,-184.240005,0.000000,0.000000
1759232.000000,-17.259430,6.553941,-5.324030,2188666112.000000,63.349998,93.800003,-103.529999,0.000000,0.000000
1779200.000000,-14.335401,8.791230,-7.487142,2188686080.000000,103.110001,51.450001,-18.059999,0.000000,0.000000
1800192.000000,-11.251052,8.846266,-6.989435,2188706048.000000,68.389999,17.360001,120.959999,0.000000,0.000000
1819392.000000,-11.700903,4.972286,-5.632704,2188727040.000000,-45.920002,29.610001,237.369995,0.000000,0.000000
1839360.000000,-13.507483,0.890130,-3.708875,2188746240.000000,-157.430008,62.160000,306.320007,0.000000,0.000000
1859328.000000,-13.880764,-0.339781,-2.153540,2188766208.000000,-170.660004,60.830002,383.320007,0.000000,0.000000
1879296.000000,-15.036497,-2.840281,1.127020,2188786176.000000,-121.379997,48.020000,498.330017,0.000000,0.000000
1900288.000000,-24.323040,-17.946171,1.725225,2188806144.000000,-67.900002,45.779999,546.070007,0.000000,0.000000
1919232.000000,-34.657642,-63.610794,5.491528,2188826880.000000,-53.200001,53.760002,535.500000,0.000000,0.000000
1939200.000000,-16.063019,-75.393051,14.818751,2188846080.000000,-240.940002,27.440001,525.140015,0.000000,0.000000
1959168.000000,-6.364908,-57.908699,12.751352,2188866048.000000,-293.510010,-46.060001,548.030029,0.000000,0.000000
1979136.000000,2.495714,-33.250664,13.311273,2188886016.000000,-170.380005,-45.639999,371.420013,0.000000,0.000000
2000128.000000,5.005785,-21.511477,9.712467,2188905984.000000,-20.930000,37.310001,271.390015,0.000000,0.000000
2019072.000000,5.572884,-14.763715,6.077770,2188926976.000000,33.599998,74.970001,209.160004,0.000000,0.000000
2039296.000000,8.264810,-10.248460,7.934600,2188945920.000000,-21.350000,23.100000,154.210007,0.000000,0.000000
2059264.000000,14.093725,-8.508877,9.310472,2188965888.000000,-141.190002,-49.490002,136.779999,0.000000,0.000000
2079232.000000,13.103097,-5.424529,5.077570,2188985856.000000,-160.649994,-121.940002,125.790001,0.000000,0.000000
2099968.000000,12.878171,-2.651247,1.342373,2189006080.000000,-65.029999,-126.279999,48.860001,0.000000,0.000000
2119168.000000,13.316057,-1.617548,1.861616,2189026816.000000,-21.210001,-125.510002,21.280001,2249195520.000000,1009.679504
2139136.000000,13.148561,-1.229911,1.741975,2189046016.000000,-43.820000,-139.160004,-20.090000,0.000000,0.000000
2159104.000000,12.856635,-2.256432,1.076770,2189065984.000000,-64.120003,-126.419998,-54.250000,0.000000,0.000000
2179072.000000,11.748759,-3.091527,3.555735,2189085952.000000,-70.209999,-107.660004,-91.000000,0.000000,0.000000
2200064.000000,9.939785,-6.994221,4.685147,2189105920.000000,-55.230000,-67.760002,-124.669998,0.000000,0.000000
2219008.000000,10.523634,-16.153946,2.924029,2189126912.000000,10.780000,-22.190001,-166.460007,0.000000,0.000000
2238976.000000,9.257831,-30.049067,0.545564,2189145856.000000,88.340004,0.210000,-211.470001,0.000000,0.000000
2258944.000000,6.142376,-50.725445,5.111069,2189165824.000000,59.360001,58.520000,-281.049988,0.000000,0.000000
2279168.000000,2.148755,-61.060051,9.786645,2189185792.000000,-71.540001,109.970001,-380.170013,0.000000,0.000000
2301952.000000,-2.986243,-50.849873,5.735595,2189205760.000000,-58.450001,98.769997,-476.489990,0.000000,0.000000
2319104.000000,-6.951149,-35.081169,1.373480,2189228800.000000,114.940002,54.040001,-569.590027,0.000000,0.000000
2339072.000000,-10.392029,-26.103302,4.055835,2189245952.000000,145.600006,23.309999,-610.400024,0.000000,0.000000
2359040.000000,-10.884951,-17.673388,6.022735,2189265920.000000,69.580002,22.469999,-610.609985,0.000000,0.000000
2379008.000000,-9.418150,-9.509077,3.342773,2189285888.000000,64.470001,74.129997,-543.760010,0.000000,0.000000
2400000.000000,-9.241080,-3.132205,-0.600598,2189305856.000000,167.649994,88.480003,-429.660004,0.000000,0.000000
2418944.000000,-9.934999,2.670390,-0.205783,2189326592.000000,198.800003,78.610001,-317.589996,0.000000,0.000000
2438912.000000,-13.227524,3.792624,0.452243,2189345792.000000,93.800003,81.970001,-228.619995,0.000000,0.000000
2458880.000000,-18.809978,1.378266,-3.230310,2189365760.000000,-10.500000,78.120003,-160.930008,0.000000,0.000000
2478848.000000,-16.651653,2.833102,-4.709075,2189385728.000000,-29.680000,60.900002,-104.230003,0.000000,0.000000
2499840.000000,-17.946171,3.969693,-6.166305,2189405696.000000,-19.320000,38.009998,0.350000,0.000000,0.000000
2519040.000000,-17.316856,3.428915,-4.747360,2189426688.000000,-55.860001,25.549999,58.099998,0.000000,0.000000
2539008.000000,-13.854443,2.455036,-5.201996,2189445632.000000,-83.090004,15.750000,123.059998,0.000000,0.000000
2558976.000000,-13.282558,2.009971,-6.180661,2189465856.000000,-40.110001,9.660000,234.149994,0.000000,0.000000
2578944.000000,-15.225531,1.009771,-4.706682,2189485824.000000,-39.480000,15.540000,333.619995,0.000000,0.000000
2599680.000000,-17.343178,-3.110669,0.256032,2189505792.000000,-100.940002,24.360001,412.299988,0.000000,0.000000
2618880.000000,-24.540789,-16.108482,2.555535,2189526528.000000,-123.760002,19.740000,483.000000,0.000000,0.000000
2638848.000000,-35.892342,-51.333225,5.106283,2189545728.000000,-119.489998,23.309999,559.510010,0.000000,0.000000
2659072.000000,-21.528227,-77.347992,15.744773,2189565696.000000,-244.369995,18.900000,581.770020,0.000000,0.000000
2679552.000000,-13.933406,-65.156563,13.976478,2189585664.000000,-292.040009,26.250000,622.229980,0.000000,0.000000
2699776.000000,-2.892922,-51.996037,14.435899,2189606400.000000,-108.500000,40.670002,497.839996,0.000000,0.000000
2718976.000000,2.622534,-35.913876,8.482556,2189626624.000000,-87.220001,89.040001,379.190002,0.000000,0.000000
2738944.000000,5.721239,-25.304100,5.560920,2189645824.000000,-71.820000,39.830002,287.489990,0.000000,0.000000
2759936.000000,8.901299,-17.297714,4.426722,2189665792.000000,-140.279999,-38.849998,226.589996,0.000000,0.000000
2779904.000000,11.363515,-10.102496,1.768296,2189686784.000000,-153.720001,-101.080002,182.699997,0.000000,0.000000
2800640.000000,14.811572,-5.280960,-1.148555,2189706752.000000,-100.730003,-125.160004,144.899994,0.000000,0.000000
2819840.000000,20.068604,-1.749153,-0.129212,2189727488.000000,-77.559998,-135.029999,106.330002,0.000000,0.000000
2839808.000000,20.982662,-0.122034,1.208375,2189746688.000000,-97.720001,-144.410004,71.120003,0.000000,0.000000
2860288.000000,18.285952,-1.397408,1.287339,2189766656.000000,-109.900002,-122.010002,35.349998,0.000000,0.000000
2880256.000000,17.601604,-1.232304,2.148755,2189787136.000000,-113.190002,-94.360001,-1.540000,0.000000,0.000000
2900992.000000,14.737395,-1.560120,4.620540,2189807104.000000,-118.720001,-91.000000,-48.369999,0.000000,0.000000
2920192.000000,12.224932,-4.618148,4.768896,2189827840.000000,-92.050003,-52.990002,-96.529999,0.000000,0.000000
2940160.000000,10.796415,-9.786645,3.203990,2189847040.000000,-29.540001,-11.830000,-138.320007,0.000000,0.000000
2960640.000000,9.339187,-17.879169,3.014957,2189867008.000000,33.950001,20.860001,-177.100006,0.000000,0.000000
2980608.000000,8.599805,-42.348175,0.669990,2189887488.000000,21.770000,87.849998,-216.369995,0.000000,0.000000
3001344.000000,2.809174,-53.879185,-5.020142,2189907200.000000,-2.170000,159.949997,-306.529999,0.000000,0.000000
3020544.000000,1.265803,-59.523857,-0.385244,2189928192.000000,29.190001,165.059998,-409.149994,0.000000,0.000000
3040512.000000,-5.869594,-48.423553,-2.828316,2189947392.000000,-31.570000,141.820007,-464.799988,0.000000,0.000000
3060224.000000,-7.767102,-34.628929,-6.185446,2189967360.000000,114.239998,163.100006,-533.679993,0.000000,0.000000
3081728.000000,-12.926028,-30.996626,-1.385444,2189987072.000000,179.270004,157.009995,-549.080017,0.000000,0.000000
3102464.000000,-15.917056,-23.741587,2.280360,2190008320.000000,78.260002,165.550003,-551.880005,0.000000,0.000000
3121664.000000,-13.919049,-13.184454,-1.136591,2190029312.000000,88.269997,197.960007,-489.929993,2250198016.000000,1009.669556
3141632.000000,-12.538391,-3.859623,-2.761317,2190048512.000000,185.850006,185.570007,-375.619995,0.000000,0.000000
3161600.000000,-14.830715,2.665605,-2.445465,2190068480.000000,169.539993,132.860001,-306.250000,0.000000,0.000000
3181568.000000,-20.185850,5.359922,-2.490928,2190088448.000000,77.349998,100.449997,-244.020004,0.000000,0.000000
3202560.000000,-17.343178,5.120641,-3.182454,2190108416.000000,-7.560000,66.849998,-182.350006,0.000000,0.000000
3221504.000000,-18.293129,7.197611,-5.089533,2190129152.000000,5.950000,42.139999,-124.879997,0.000000,0.000000
3241472.000000,-16.874186,8.068598,-5.414958,2190148352.000000,13.860000,-3.640000,-46.060001,0.000000,0.000000
3261696.000000,-13.804193,6.898508,-5.111069,2190168320.000000,-30.730000,-38.779999,53.130001,0.000000,0.000000
3281408.000000,-11.662617,4.426722,-5.005785,2190188544.000000,-56.490002,-59.010002,163.520004,0.000000,0.000000
3304448.000000,-10.834702,2.567499,-3.464807,2190208256.000000,-60.970001,-62.439999,263.899994,0.000000,0.000000
3321600.000000,-14.148761,-1.344766,0.686740,2190231296.000000,-62.650002,-47.880001,364.910004,0.000000,0.000000
3341568.000000,-22.191036,-16.780865,-1.038485,2190248448.000000,-55.299999,-28.630001,462.839996,0.000000,0.000000
3361536.000000,-29.115866,-56.035122,0.763310,2190268416.000000,-62.510002,-12.390000,517.159973,0.000000,0.000000
3381504.000000,-19.676180,-71.363541,6.989435,2190288384.000000,-244.369995,-9.380000,548.030029,0.000000,0.000000
3402240.000000,-14.017156,-60.696342,5.501099,2190308352.000000,-305.269989,-58.170002,563.359985,0.000000,0.000000
3421440.000000,-3.445665,-43.688156,6.745367,2190329088.000000,-223.649994,-76.300003,456.610016,0.000000,0.000000
3441408.000000,-1.598405,-37.440498,3.828516,2190348288.000000,-141.119995,-42.840000,427.279999,0.000000,0.000000
3461376.000000,0.595813,-31.056446,5.613562,2190368256.000000,-61.740002,20.650000,381.920013,0.000000,0.000000
3481344.000000,3.747160,-26.912077,1.622334,2190388224.000000,-63.630001,42.770000,321.860016,0.000000,0.000000
3502336.000000,16.393229,-15.395420,-2.292324,2190408192.000000,-44.590000,-35.070000,274.119995,0.000000,0.000000
3521536.000000,25.849665,-12.366108,-0.703490,2190429184.000000,-6.300000,-189.070007,250.460007,0.000000,0.000000
3541504.000000,37.409389,0.514457,2.167897,2190448384.000000,-61.740002,-318.149994,218.610001,0.000000,0.000000
3561472.000000,27.297319,2.074577,2.096112,2190468096.000000,-63.560001,-219.100006,148.960007,0.000000,0.000000
3581440.000000,29.484362,1.045663,0.945165,2190488320.000000,3.570000,-101.919998,-3.780000,0.000000,0.000000
3602176.000000,20.554346,1.359123,-0.311067,2190508288.000000,-11.200000,-139.440002,-23.590000,0.000000,0.000000
3621376.000000,15.527027,-0.849452,1.026521,2190529024.000000,-31.290001,-81.410004,-145.320007,0.000000,0.000000
3641344.000000,14.026726,-9.219545,1.722832,2190548224.000000,-81.760002,-23.730000,-195.509995,0.000000,0.000000
3661312.000000,12.720245,-27.144180,-0.966700,2190568192.000000,-88.480003,15.610000,-203.350006,0.000000,0.000000
3681280.000000,6.087341,-45.360737,-4.517649,2190588160.000000,-31.010000,101.150002,-243.250000,0.000000,0.000000
3702016.000000,-2.708675,-55.901127,-1.976472,2190608128.000000,-36.610001,235.270004,-388.709991,0.000000,0.000000
3721216.000000,-1.765903,-57.020962,-1.045663,2190628864.000000,-20.090000,244.300003,-497.000000,0.000000,0.000000
3741184.000000,-2.854637,-45.166924,-3.029313,2190648064.000000,89.669998,149.240005,-521.780029,0.000000,0.000000
3761152.000000,-7.101898,-36.411583,-4.658825,2190668032.000000,195.089996,124.949997,-555.309998,0.000000,0.000000
3781120.000000,-8.047063,-30.448669,-2.210968,2190688000.000000,145.180008,128.800003,-562.659973,0.000000,0.000000
3802112.000000,-9.676575,-24.339790,3.235096,2190707968.000000,32.689999,104.790001,-550.059998,0.000000,0.000000
3821056.000000,-11.638690,-16.445869,-0.593420,2190747904.000000,104.090004,149.660004,-371.209991,0.000000,0.000000
3841280.000000,-21.276978,-4.204189,-4.941179,0.000000,0.000000,0.000000,0.000000,0.000000,0.000000
3861248.000000,-16.957933,4.096512,-3.998406,2190767872.000000,99.120003,103.739998,-310.380005,0.000000,0.000000
3881216.000000,-18.678373,10.286745,-2.813959,2190788096.000000,75.809998,88.059998,-188.509995,0.000000,0.000000
3901952.000000,-17.371893,8.415558,-2.048256,2190808064.000000,-53.340000,127.680000,-129.500000,0.000000,0.000000
3921152.000000,-14.699109,9.049655,-2.172683,2190828800.000000,-35.630001,106.959999,-53.200001,0.000000,0.000000
3941120.000000,-13.021741,10.348958,-3.869194,2190848000.000000,17.570000,54.810001,83.650002,0.000000,0.000000
3961088.000000,-12.990634,8.559127,-4.139583,2190867968.000000,1.890000,44.380001,221.690002,0.000000,0.000000
3981056.000000,-16.417156,5.371887,-5.333601,2190887936.000000,-78.470001,40.670002,309.750000,0.000000,0.000000
4002048.000000,-19.733608,1.167697,-6.120840,2190907904.000000,-162.470001,43.820000,402.640015,0.000000,0.000000
4020992.000000,-23.006990,-1.016950,-5.460421,2190928896.000000,-195.300003,-2.100000,483.279999,0.000000,0.000000
4040960.000000,-29.915068,-5.280960,-7.546963,2190947840.000000,-227.919998,-61.110001,554.190002,0.000000,0.000000
4060928.000000,-47.696129,-31.487154,-21.602402,2190967808.000000,-290.709991,-103.040001,612.289978,0.000000,0.000000
4080896.000000,-41.158939,-59.720062,-28.467411,2190987776.000000,-421.260010,-190.259995,573.510010,0.000000,0.000000
4101888.000000,-33.166912,-59.210400,-31.123444,2191007744.000000,-716.659973,-265.860016,557.900024,0.000000,0.000000
4121088.000000,-24.086153,-50.031525,-15.072391,2191028736.000000,-801.220032,-352.239990,485.589996,2251197440.000000,1009.670044
4141056.000000,-10.758131,-45.410988,-5.613562,2191047936.000000,-765.030029,-356.230011,502.809998,0.000000,0.000000
4161024.000000,-6.147161,-33.425339,-14.493326,2191067904.000000,-221.410004,-276.290009,430.920013,0.000000,0.000000
4180992.000000,0.751346,-22.968704,-16.974684,2191087872.000000,396.200012,-137.619995,314.860016,0.000000,0.000000
4201984.000000,8.092526,-15.041284,-6.812366,2191107840.000000,407.329987,-39.900002,256.619995,0.000000,0.000000
4220928.000000,23.751158,-17.761923,1.825724,2191128576.000000,113.889999,-152.389999,188.300003,0.000000,0.000000
4240896.000000,26.534012,-17.269001,0.246461,2191147776.000000,-64.680000,-266.420013,145.669998,0.000000,0.000000
4260864.000000,22.561926,-18.963120,-3.069991,2191167744.000000,26.950001,-155.399994,100.660004,0.000000,0.000000
4280832.000000,22.358536,-19.879570,-6.589834,2191187712.000000,15.750000,-133.070007,-18.410000,0.000000,0.000000
4303872.000000,14.127225,-17.259430,-8.831908,2191207680.000000,-76.790001,-150.570007,-92.750000,0.000000,0.000000
4321024.000000,9.231510,-18.850657,-8.626125,2191230464.000000,-117.180000,-75.879997,-187.880005,0.000000,0.000000
4340992.000000,4.907679,-25.284958,-11.121840,2191247616.000000,-123.199997,49.139999,-226.169998,0.000000,0.000000
4360960.000000,-2.344966,-31.015768,-14.962320,2191267584.000000,-64.330002,183.330002,-298.619995,0.000000,0.000000
4380928.000000,-11.901899,-34.064220,-16.819151,2191287808.000000,3.710000,281.820007,-413.209991,0.000000,0.000000
4401664.000000,-18.630518,-47.377888,-22.741388,2191307776.000000,23.170000,313.040009,-491.820007,0.000000,0.000000
4420864.000000,-20.736198,-49.048077,-22.490139,2191328512.000000,72.800003,277.200012,-504.980011,0.000000,0.000000
4440832.000000,-25.261028,-46.179085,-15.483955,2191347712.000000,33.110001,276.920013,-514.640015,0.000000,0.000000
4461056.000000,-22.707888,-37.354355,-17.469997,2191367680.000000,9.870000,284.899994,-521.080017,0.000000,0.000000
4480768.000000,-23.306091,-30.235706,-16.938791,2191387904.000000,117.809998,289.309998,-491.330017,0.000000,0.000000
4501760.000000,-27.816563,-24.713072,-8.441878,2191407616.000000,83.230003,281.610016,-487.059998,0.000000,0.000000
4520704.000000,-28.034311,-15.132210,0.981057,2191428608.000000,-47.599998,309.049988,-475.230011,0.000000,0.000000
4540672.000000,-22.016361,-6.953543,2.371287,2191447552.000000,-35.700001,378.769989,-388.500000,0.000000,0.000000
4560640.000000,-22.102503,0.110070,0.801596,2191467520.000000,191.240005,422.309998,-259.839996,0.000000,0.000000
4580864.000000,-26.153551,7.032506,-2.364109,2191487488.000000,389.339996,403.970001,-210.910004,0.000000,0.000000
4601600.000000,-21.090338,13.947763,-7.812566,2191507456.000000,492.309998,306.320007,-180.460007,0.000000,0.000000
4620800.000000,-13.868800,20.520845,-11.976077,2191528448.000000,527.169983,137.550003,-70.910004,0.000000,0.000000
4641024.000000,-9.655040,20.353350,-13.887943,2191547648.000000,467.250000,-44.450001,97.019997,0.000000,0.000000
4660736.000000,-10.045070,14.469398,-10.863414,2191567872.000000,259.070007,-99.120003,196.139999,0.000000,0.000000
4682240.000000,-17.020147,7.039684,-7.613962,2191587584.000000,-140.559998,16.240000,275.100006,0.000000,0.000000
4702208.000000,-21.372692,-3.153740,-0.232104,2191609088.000000,-420.769989,106.610001,351.959991,0.000000,0.000000
4721408.000000,-22.152750,-13.521841,-0.337388,2191648256.000000,-129.850006,-96.250000,555.590027,0.000000,0.000000
4741376.000000,-30.360134,-30.807590,-6.486942,2191668224.000000,-3.780000,-75.320000,662.830017,0.000000,0.000000
4761344.000000,-30.769304,-61.311295,-2.797210,0.000000,0.000000,0.000000,0.000000,0.000000,0.000000
4781824.000000,-22.004396,-78.027557,3.986443,2191688192.000000,-197.259995,-70.489998,672.070007,0.000000,0.000000
4802560.000000,-9.499505,-56.540009,5.252246,2191708672.000000,-288.190002,-65.099998,547.750000,0.000000,0.000000
4821760.000000,-0.232104,-38.919262,8.365308,2191729408.000000,-180.110001,-26.670000,420.630005,0.000000,0.000000
4841728.000000,2.610569,-25.239492,7.903493,2191748608.000000,-161.139999,48.020000,306.600006,0.000000,0.000000
4861696.000000,3.993621,-16.319050,6.084948,2191768576.000000,-86.870003,51.730000,228.339996,0.000000,0.000000
4882176.000000,6.491727,-11.052447,2.711068,2191788544.000000,-59.920002,9.870000,173.110001,0.000000,0.000000
4902912.000000,11.708081,-6.305088,2.438286,2191809024.000000,-63.700001,-77.209999,152.460007,0.000000,0.000000
4922112.000000,19.238295,-2.110470,6.637690,2191829760.000000,-124.320000,-147.910004,144.199997,0.000000,0.000000
4942080.000000,20.169102,-2.840281,6.032306,2191848960.000000,-171.430008,-174.509995,110.250000,0.000000,0.000000
4962048.000000,19.168903,-4.357330,5.891129,2191868928.000000,-86.169998,-131.389999,73.639999,0.000000,0.000000
4982016.000000,20.920448,-3.428915,3.897908,2191888896.000000,-17.990000,-123.410004,49.980000,0.000000,0.000000
5004032.000000,17.053648,-3.280560,2.711068,2191908864.000000,8.680000,-146.300003,-10.990000,0.000000,0.000000
5023232.000000,13.871193,-7.575676,2.050649,2191930880.000000,-0.560000,-101.779999,-56.770000,0.000000,0.000000
5043200.000000,13.387842,-16.756937,3.036492,2191950080.000000,-30.030001,-61.670002,-85.540001,0.000000,0.000000
5063168.000000,10.045070,-36.272797,-0.696311,2191970048.000000,-38.990002,-1.120000,-110.320000,0.000000,0.000000
5083136.000000,-1.038485,-46.554760,-4.398008,2191990016.000000,5.180000,105.419998,-226.029999,0.000000,0.000000
5104128.000000,-5.876772,-55.008598,-3.194418,2192009984.000000,37.869999,182.630005,-397.040009,0.000000,0.000000
5123072.000000,-7.228717,-59.442501,0.234497,2192030976.000000,73.080002,100.379997,-460.320007,2252199424.000000,1009.662292
5143296.000000,-12.820745,-47.265423,-3.565305,2192049920.000000,82.459999,81.129997,-509.250000,0.000000,0.000000
5163264.000000,-13.684553,-38.864223,-2.952743,2192070144.000000,167.160004,63.770000,-571.900024,0.000000,0.000000
5183232.000000,-20.417955,-32.695530,5.056034,2192089856.000000,106.889999,21.980000,-572.739990,0.000000,0.000000
5203968.000000,-26.813969,-23.282166,4.962714,2192110080.000000,-15.750000,23.799999,-575.820007,0.000000,0.000000
5223168.000000,-22.214968,-7.042077,-0.502493,2192130816.000000,25.340000,76.090004,-500.220001,0.000000,0.000000
5243136.000000,-19.523039,3.488736,-1.105484,2192150016.000000,145.880005,93.099998,-375.130005,0.000000,0.000000
5263104.000000,-24.014366,9.659825,-0.605384,2192169984.000000,98.419998,107.940002,-294.630005,0.000000,0.000000
5283072.000000,-20.602203,10.514063,-0.583849,2192189952.000000,10.220000,135.309998,-252.630005,0.000000,0.000000
5305856.000000,-17.527426,12.672389,-4.311867,2192209920.000000,32.410000,128.940002,-195.369995,0.000000,0.000000
5323008.000000,-13.938192,17.749958,-6.836295,2192232704.000000,100.379997,82.529999,-66.500000,0.000000,0.000000
5343232.000000,-12.504892,19.269400,-8.389235,2192249856.000000,76.720001,39.060001,116.199997,0.000000,0.000000
5362944.000000,-13.588840,14.435899,-7.278966,2192269824.000000,1.120000,42.910000,248.430008,0.000000,0.000000
5383168.000000,-17.065611,9.595219,-7.125826,2192289792.000000,-62.860001,65.730003,364.489990,0.000000,0.000000
5403904.000000,-20.382063,2.356930,0.040678,2192310016.000000,-112.629997,101.430000,476.000000,0.000000,0.000000
5423104.000000,-39.594036,-28.785658,4.670790,2192330752.000000,-128.309998,77.840004,521.640015,0.000000,0.000000
5443072.000000,-23.789444,-65.161346,10.238889,2192349952.000000,-59.849998,82.809998,458.850006,0.000000,0.000000
5463040.000000,-32.855846,-50.342598,9.836893,2192369920.000000,-162.050003,104.790001,485.309998,0.000000,0.000000
5483008.000000,-20.796022,-48.646080,7.044470,2192389888.000000,-167.440002,11.900000,415.799988,0.000000,0.000000
5503744.000000,-9.956534,-34.652859,8.980263,2192409856.000000,-248.080002,-7.000000,383.390015,0.000000,0.000000
5522944.000000,-1.624727,-26.309084,7.829315,2192430592.000000,-205.729996,-22.820000,323.260010,0.000000,0.000000
5542912.000000,-1.351945,-23.387447,6.314659,2192449792.000000,-93.379997,39.759998,316.470001,0.000000,0.000000
5562880.000000,1.088734,-20.977875,6.364908,2192469760.000000,-31.430000,69.650002,253.750000,0.000000,0.000000
5582848.000000,4.328616,-17.745173,4.532006,2192489728.000000,-61.389999,36.889999,224.770004,0.000000,0.000000
5603840.000000,9.415757,-14.529219,5.312066,2192509696.000000,-100.449997,-31.639999,213.009995,0.000000,0.000000
5622784.000000,15.354744,-12.650853,4.682754,2192530688.000000,-145.529999,-100.099998,206.639999,0.000000,0.000000
5643008.000000,18.855442,-10.265208,5.752346,2192549632.000000,-135.449997,-142.309998,186.479996,0.000000,0.000000
5662976.000000,23.722445,-8.968300,7.322037,2192569856.000000,-95.620003,-135.940002,124.529999,0.000000,0.000000
5682944.000000,27.385857,-7.439285,4.955536,2192589824.000000,-66.570000,-150.009995,59.220001,0.000000,0.000000
5703680.000000,22.655245,-7.915457,3.620341,2192609792.000000,-32.200001,-144.830002,-7.840000,0.000000,0.000000
5722880.000000,17.603996,-13.004992,3.534199,2192630528.000000,-32.900002,-78.820000,-108.639999,0.000000,0.000000
5742848.000000,12.457035,-23.155344,0.279960,2192649472.000000,-17.570000,-12.110000,-174.509995,0.000000,0.000000
5762816.000000,4.742575,-41.709293,-1.777867,2192669696.000000,35.070000,57.330002,-255.360001,0.000000,0.000000
5782784.000000,-12.559926,-58.325054,2.440679,2192689664.000000,15.330000,158.690002,-370.790009,0.000000,0.000000
5803520.000000,-6.994221,-55.582874,2.277967,2192709632.000000,16.799999,157.080002,-507.080017,0.000000,0.000000
5822720.000000,-18.185452,-45.846485,-0.186640,2192730368.000000,144.479996,47.880001,-511.140015,0.000000,0.000000
5842688.000000,-16.137196,-33.516266,-0.466600,2192749568.000000,169.050003,8.190000,-599.340027,0.000000,0.000000
5862656.000000,-19.908285,-32.159534,5.941379,2192769536.000000,128.240005,-17.570000,-554.539978,0.000000,0.000000
5882624.000000,-21.712473,-23.337198,5.807381,2192789504.000000,-7.980000,-12.670000,-545.720032,0.000000,0.000000
5903616.000000,-18.716660,-11.444871,-0.717847,2192809472.000000,-35.770000,30.240000,-519.470032,0.000000,0.000000
5922560.000000,-18.118454,-5.960521,-0.882952,2192830464.000000,132.160004,78.820000,-404.950012,0.000000,0.000000
5942528.000000,-14.129619,1.763510,-0.569492,2192849408.000000,143.080002,69.860001,-347.200012,0.000000,0.000000
5962752.000000,-20.415564,4.792823,-0.107677,2192869376.000000,63.700001,77.840004,-257.600006,0.000000,0.000000
5982720.000000,-19.013369,3.431308,-2.395216,2192889344.000000,26.250000,77.489998,-208.600006,0.000000,0.000000
6003456.000000,-17.149361,6.831509,-5.840880,2192909568.000000,101.919998,36.889999,-146.089996,0.000000,0.000000
6022656.000000,-16.570297,8.276773,-6.407979,2192930304.000000,90.370003,3.150000,-36.820000,0.000000,0.000000
6042624.000000,-14.328221,4.737789,-3.818945,2192949504.000000,-40.250000,-13.790000,11.060000,0.000000,0.000000
6062592.000000,-10.662418,2.684747,-2.435893,2192969472.000000,-111.160004,-25.900000,51.170002,0.000000,0.000000
6082560.000000,-10.377672,4.491328,-4.163511,2192989440.000000,-30.590000,-27.299999,145.600006,0.000000,0.000000
6103552.000000,-10.573883,5.173282,-2.656033,2193009408.000000,65.099998,-5.740000,272.649994,0.000000,0.000000
6122496.000000,-12.658032,-0.385244,-1.134198,2193030400.000000,60.340000,27.719999,385.700012,2253198848.000000,1009.661011
6142464.000000,-26.184658,-17.225931,3.505485,2193049344.000000,40.389999,66.849998,475.369995,0.000000,0.000000
6162432.000000,-41.314476,-73.493156,7.436893,2193069312.000000,-91.629997,113.959999,572.250000,0.000000,0.000000
6182400.000000,-14.622539,-68.523262,13.643874,2193089280.000000,-401.450012,89.949997,551.599976,0.000000,0.000000
6203648.000000,-5.417351,-57.690948,15.622739,2193109248.000000,-318.010010,0.280000,616.070007,0.000000,0.000000
6222592.000000,2.648855,-38.955154,11.504691,2193130240.000000,-181.369995,14.420000,433.299988,0.000000,0.000000
6242560.000000,4.350152,-25.339993,5.529813,2193149440.000000,2.100000,58.590000,354.829987,0.000000,0.000000
6262528.000000,7.678568,-16.433905,8.628519,2193169408.000000,29.960001,9.520000,265.299988,0.000000,0.000000
6282496.000000,13.708481,-12.279965,10.241282,2193189376.000000,-92.400002,-51.660000,213.919998,0.000000,0.000000
6305280.000000,24.899712,-7.989635,5.304887,2193209344.000000,-107.800003,-134.050003,182.419998,0.000000,0.000000
6322432.000000,28.759335,0.129212,-0.990629,2193232128.000000,18.059999,-215.320007,139.509995,0.000000,0.000000
6342400.000000,22.939989,0.583849,-2.557927,2193249280.000000,51.730000,-182.839996,51.029999,0.000000,0.000000
6362368.000000,24.105295,-2.275574,0.122034,2193269248.000000,-44.799999,-107.520004,-17.990000,0.000000,0.000000
6382336.000000,18.941584,-5.654240,1.024128,2193289216.000000,-165.970001,-116.900002,-36.189999,0.000000,0.000000
6403328.000000,12.918849,-8.133204,-1.847259,2193309184.000000,-90.790001,-52.570000,-105.139999,0.000000,0.000000
6422272.000000,10.112068,-14.177474,-0.772882,2193330176.000000,45.500000,7.910000,-182.139999,0.000000,0.000000
6442496.000000,8.580662,-37.505100,1.124627,2193349120.000000,22.469999,53.130001,-215.040009,0.000000,0.000000
6462464.000000,-2.392823,-49.670216,0.844666,2193369088.000000,-108.430000,122.639999,-280.839996,0.000000,0.000000
6482432.000000,-6.451050,-46.471008,-5.197211,2193389056.000000,-46.340000,195.720001,-431.830017,0.000000,0.000000
6503168.000000,-5.931807,-56.181084,-1.519442,2193409280.000000,109.410004,55.720001,-499.170013,0.000000,0.000000
6522368.000000,-11.289338,-41.651867,-0.021535,2193430016.000000,-31.219999,31.990000,-479.080017,0.000000,0.000000
6542336.000000,-9.583255,-33.688549,-3.139383,2193449216.000000,22.750000,39.200001,-555.940002,0.000000,0.000000
6562304.000000,-15.091532,-30.343384,1.409373,2193469184.000000,81.690002,54.180000,-523.880005,0.000000,0.000000
6582272.000000,-16.376478,-22.152750,4.694718,2193489152.000000,16.030001,71.260002,-514.429993,0.000000,0.000000
6603264.000000,-14.663218,-12.361321,-0.923629,2193509120.000000,35.560001,108.500000,-410.410004,0.000000,0.000000
6622208.000000,-13.919049,-2.624927,0.078963,2193549056.000000,60.970001,131.809998,-281.119995,0.000000,0.000000
6642176.000000,-13.158132,2.964707,3.972085,0.000000,0.000000,0.000000,0.000000,0.000000,0.000000
6662144.000000,-18.477375,3.146562,2.864209,2193569024.000000,-3.080000,189.910004,-215.250000,0.000000,0.000000
6682368.000000,-17.135004,4.855037,0.555135,2193588992.000000,67.410004,196.699997,-221.759995,0.000000,0.000000
6703104.000000,-13.177275,9.470792,-2.007578,2193608960.000000,175.699997,177.169998,-176.889999,0.000000,0.000000
6722304.000000,-11.485549,12.189038,-3.249453,2193629952.000000,134.259995,179.199997,-75.110001,0.000000,0.000000
6742272.000000,-10.844273,6.580262,-4.706682,2193649152.000000,17.639999,180.460007,-9.520000,0.000000,0.000000
6763008.000000,-13.275380,-0.081356,-3.680161,2193669120.000000,-49.980000,134.820007,41.509998,0.000000,0.000000
6782208.000000,-6.309873,5.364708,-2.916851,2193689856.000000,-15.610000,36.049999,123.199997,0.000000,0.000000
6803200.000000,-4.764110,2.143969,-1.416551,2193709056.000000,19.110001,-35.279999,403.410004,0.000000,0.000000
6822400.000000,-9.729217,-6.798009,1.959722,2193730048.000000,21.490000,-38.639999,448.839996,0.000000,0.000000
6842112.000000,-23.748764,-22.743780,3.113062,2193748992.000000,-80.010002,80.430000,445.830017,0.000000,0.000000
6862336.000000,-21.956541,-52.122856,-1.308874,2193768960.000000,-201.600006,108.709999,537.599976,0.000000,0.000000
6882304.000000,-14.751752,-55.281376,2.289931,2193789184.000000,-308.420013,-59.150002,522.830017,0.000000,0.000000
6903040.000000,-5.343173,-49.603214,6.415157,2193808896.000000,-489.160004,-96.389999,505.540009,0.000000,0.000000
6922240.000000,1.923829,-44.700321,11.363515,2193829888.000000,-434.769989,-90.650002,426.649994,0.000000,0.000000
6942208.000000,2.890530,-35.198421,7.590034,2193849088.000000,-329.559998,-13.370000,370.790009,0.000000,0.000000
6962176.000000,2.813959,-22.128822,6.139983,2193869056.000000,-51.310001,5.320000,297.570007,0.000000,0.000000
6982144.000000,5.778666,-14.148761,4.532006,2193889024.000000,84.980003,-39.970001,235.550003,0.000000,0.000000
7004160.000000,9.808180,-9.858429,-0.818345,2193908992.000000,53.619999,-160.649994,216.089996,0.000000,0.000000
7023104.000000,23.291733,-6.836295,-0.751346,2193931008.000000,-1.190000,-291.690002,187.949997,0.000000,0.000000
7043072.000000,20.255243,-4.335794,0.308674,2193949952.000000,-112.349998,-313.739990,195.300003,0.000000,0.000000
7063296.000000,11.712867,-4.919643,2.701497,2193969920.000000,-144.830002,-144.339996,107.169998,0.000000,0.000000
7083008.000000,14.725430,-5.070391,2.842674,2193990144.000000,-118.720001,-47.320000,-8.470000,0.000000,0.000000
7104512.000000,15.797415,-1.646262,3.644269,2194031360.000000,10.990000,-103.949997,-112.279999,2254200064.000000,1009.654480
7123456.000000,12.064612,-1.064806,5.666204,0.000000,0.000000,0.000000,0.000000,0.000000,0.000000
7143424.000000,10.011569,-3.113062,4.936393,2194050304.000000,54.599998,-35.840000,-169.119995,0.000000,0.000000
7163648.000000,9.985250,-2.486143,2.244468,2194070272.000000,99.959999,-31.010000,-185.430008,0.000000,0.000000
7183360.000000,9.437292,-4.285545,2.665605,2194090240.000000,91.980003,-35.000000,-208.740005,0.000000,0.000000
7204864.000000,12.674782,-23.377878,5.711668,2194110208.000000,-35.490002,1.260000,-207.410004,0.000000,0.000000
7223808.000000,12.081362,-72.289558,0.126820,2194131712.000000,-147.419998,21.910000,-196.490005,0.000000,0.000000
7243776.000000,4.634897,-63.479195,-6.788438,2194150656.000000,-52.990002,86.870003,-249.479996,0.000000,0.000000
7264000.000000,0.528814,-59.753563,-0.361316,2194170624.000000,27.930000,226.520004,-439.390015,0.000000,0.000000
7283712.000000,-8.690732,-49.450069,-5.091926,2194190848.000000,-76.019997,247.729996,-532.210022,0.000000,0.000000
7306496.000000,-19.513470,-37.842491,-0.390030,2194210560.000000,24.710001,299.880005,-649.739990,0.000000,0.000000
7324928.000000,-12.792030,-23.947371,2.110470,2194233344.000000,-46.759998,302.820007,-683.479980,0.000000,0.000000
7344896.000000,-15.022141,-13.837693,2.026721,2194251776.000000,-13.790000,224.070007,-622.229980,0.000000,0.000000
7365120.000000,-18.745371,-4.017549,1.799403,2194271744.000000,67.410004,194.949997,-568.190002,0.000000,0.000000
7385088.000000,-22.600208,3.790231,0.148355,2194291968.000000,150.360001,147.559998,-495.950012,0.000000,0.000000
7405824.000000,-23.291733,9.193225,-5.723632,2194311680.000000,203.770004,92.680000,-371.140015,0.000000,0.000000
7425024.000000,-18.312271,12.318252,-8.226524,2194332672.000000,201.740005,81.690002,-229.669998,0.000000,0.000000
7444992.000000,-15.668202,11.990433,-6.774081,2194351872.000000,120.260002,43.470001,-102.760002,0.000000,0.000000
7464960.000000,-15.814165,8.580662,-2.548356,2194371840.000000,10.220000,22.049999,10.220000,0.000000,0.000000
7484928.000000,-19.099510,3.950550,-5.821737,2194391808.000000,-122.639999,55.510002,103.180000,0.000000,0.000000
7505920.000000,-19.334007,-1.500300,-8.769694,2194411776.000000,-167.649994,96.529999,222.669998,0.000000,0.000000
7524864.000000,-14.641682,-2.045863,-5.144568,2194432768.000000,-103.110001,22.960001,351.890015,0.000000,0.000000
7544832.000000,-17.448462,-4.541577,-2.055435,2194451712.000000,-65.519997,-60.270000,465.989990,0.000000,0.000000
7564800.000000,-23.973688,-19.288544,-0.404387,2194471680.000000,-83.580002,-29.120001,536.409973,0.000000,0.000000
7584768.000000,-18.821943,-44.322250,1.069592,2194491648.000000,-125.650002,-16.030001,548.940002,0.000000,0.000000
7605760.000000,-16.771294,-54.264431,-2.151148,2194511616.000000,-125.580002,-52.709999,568.960022,0.000000,0.000000
7624960.000000,-17.927027,-76.512894,-2.433501,2194532608.000000,-276.920013,-40.599998,563.500000,0.000000,0.000000
7644672.000000,-0.258425,-60.605412,10.564312,2194551552.000000,-584.289978,-106.190002,458.779999,0.000000,0.000000
7664896.000000,7.130611,-39.979282,13.115060,2194571520.000000,-460.040009,-150.220001,423.779999,0.000000,0.000000
7684864.000000,6.719046,-31.082766,3.725625,2194591744.000000,-128.520004,-68.320000,376.040009,0.000000,0.000000
7705856.000000,6.460621,-18.989441,-1.450050,2194611712.000000,103.110001,-21.000000,287.350006,0.000000,0.000000
7724800.000000,9.513863,-12.629318,0.406780,2194632448.000000,67.830002,-58.590000,227.570007,0.000000,0.000000
7744768.000000,12.794422,-9.399008,4.103691,2194651648.000000,-94.150002,-158.199997,206.919998,0.000000,0.000000
7764736.000000,13.471591,-6.017949,4.584648,2194671616.000000,-152.180008,-175.839996,178.570007,0.000000,0.000000
7784704.000000,15.905092,-4.108476,2.457429,2194691584.000000,-66.080002,-149.240005,120.120003,0.000000,0.000000
7805440.000000,21.248264,-1.330409,0.315853,2194711552.000000,47.320000,-170.240005,57.119999,0.000000,0.000000
7824640.000000,21.312872,0.746561,0.701097,2194732288.000000,83.440002,-196.000000,4.270000,0.000000,0.000000
7844608.000000,17.979670,-0.540778,1.555335,2194751488.000000,57.680000,-146.649994,-52.639999,0.000000,0.000000
7864832.000000,16.309479,-4.644469,1.485943,2194771456.000000,6.230000,-87.919998,-90.019997,0.000000,0.000000
7884544.000000,15.022141,-12.165110,2.577070,2194791680.000000,-48.160000,-64.120003,-141.750000,0.000000,0.000000
7905536.000000,12.282358,-27.749563,0.031107,2194811392.000000,-49.910000,-10.290000,-180.039993,0.000000,0.000000
7924480.000000,10.102496,-48.756153,-3.527020,2194832384.000000,-20.719999,72.800003,-254.449997,0.000000,0.000000
7944704.000000,6.137590,-63.168125,-0.849452,2194851328.000000,-66.150002,136.289993,-396.130005,0.000000,0.000000
7964672.000000,-3.065206,-56.039906,0.021535,2194871296.000000,-102.129997,188.509995,-468.929993,0.000000,0.000000
7984640.000000,-8.056634,-40.857445,-4.450650,2194891264.000000,23.730000,207.899994,-588.770020,0.000000,0.000000
8005376.000000,-7.836494,-31.300510,-3.192025,2194911488.000000,137.199997,160.649994,-607.739990,0.000000,0.000000
8024576.000000,-13.318451,-25.366312,5.654240,2194932224.000000,109.340004,100.449997,-583.520020,0.000000,0.000000
8044544.000000,-16.268801,-19.286150,4.991428,2194951424.000000,15.190001,129.919998,-549.849976,0.000000,0.000000
8064512.000000,-16.201803,-6.214160,-0.665205,2194991360.000000,208.880005,124.529999,-259.559998,0.000000,0.000000
8084480.000000,-14.622539,0.911665,-2.246860,0.000000,0.000000,0.000000,0.000000,0.000000,0.000000
8105472.000000,-19.281364,7.015756,-2.148755,2195011328.000000,189.279999,87.290001,-188.369995,0.000000,0.000000
8124416.000000,-15.393027,5.587241,-0.485743,2195032320.000000,54.740002,100.660004,-134.960007,2255200768.000000,1009.652771
8144384.000000,-16.321442,3.132205,-2.469393,2195051264.000000,-5.390000,91.629997,-56.349998,0.000000,0.000000
8164352.000000,-15.079568,5.534599,-3.993621,2195071232.000000,48.580002,82.320000,4.340000,0.000000,0.000000
8184320.000000,-12.722638,5.663811,-4.218546,2195091200.000000,48.090000,79.379997,123.270004,0.000000,0.000000
8205312.000000,-11.810973,3.390630,-5.735595,2195111168.000000,7.630000,59.500000,188.229996,0.000000,0.000000
8224512.000000,-12.179466,0.660419,-6.563512,2195132160.000000,-40.810001,40.459999,257.880005,0.000000,0.000000
8244480.000000,-14.419148,-0.445065,-5.297709,2195151360.000000,-104.090004,31.500000,342.440002,0.000000,0.000000
8264448.000000,-18.415163,-3.400201,-5.855237,2195171328.000000,-175.910004,0.700000,416.010010,0.000000,0.000000
8284416.000000,-22.069006,-12.768101,-2.435893,2195191296.000000,-236.880005,-23.799999,470.750000,0.000000,0.000000
8307200.000000,-26.297121,-43.602013,2.555535,2195211264.000000,-327.739990,-87.779999,524.020020,0.000000,0.000000
8324352.000000,-19.393827,-62.754166,4.867002,2195234048.000000,-383.809998,-199.850006,568.609985,0.000000,0.000000
8344320.000000,-18.242880,-58.401619,-2.804388,2195251200.000000,-220.710007,-196.839996,631.539978,0.000000,0.000000
8364288.000000,-7.336394,-51.883572,-1.813759,2195271168.000000,6.300000,-204.190002,512.330017,0.000000,0.000000
8384256.000000,0.763310,-35.913876,4.029513,2195291136.000000,-51.869999,-64.889999,418.529999,0.000000,0.000000
8405248.000000,2.014757,-24.253651,3.455236,2195311104.000000,-180.039993,-18.620001,362.670013,0.000000,0.000000
8424192.000000,4.589434,-17.206787,4.390830,2195332096.000000,-174.369995,48.369999,267.610016,0.000000,0.000000
8444416.000000,6.120840,-14.763715,3.280560,2195351040.000000,-95.760002,48.230000,176.680008,0.000000,0.000000
8464384.000000,8.312666,-10.420743,2.368894,2195371008.000000,-42.560001,2.030000,140.490005,0.000000,0.000000
8484352.000000,11.889936,-6.226124,1.555335,2195390976.000000,-6.790000,-75.599998,107.309998,0.000000,0.000000
8505088.000000,18.206987,-3.328416,3.180061,2195411200.000000,-24.639999,-135.169998,78.680000,0.000000,0.000000
8524288.000000,20.618954,-2.285146,1.921437,2195431936.000000,-55.020000,-187.529999,43.330002,0.000000,0.000000
8544256.000000,20.965912,-5.302495,-3.680161,2195451136.000000,-48.160000,-179.970001,-26.110001,0.000000,0.000000
8564224.000000,21.396620,-8.070991,-2.309074,2195471104.000000,-21.420000,-159.389999,-55.580002,0.000000,0.000000
8584192.000000,20.595024,-13.596018,0.224925,2195491072.000000,-132.509995,-109.480003,-94.989998,0.000000,0.000000
8605184.000000,16.199409,-24.775286,-2.900101,2195532032.000000,-58.520000,81.550003,-273.420013,0.000000,0.000000
8624128.000000,8.056634,-39.656246,-6.209375,0.000000,0.000000,0.000000,0.000000,0.000000,0.000000
8644096.000000,1.715654,-48.772903,-3.491128,2195550976.000000,-56.279999,205.449997,-437.500000,0.000000,0.000000
8664064.000000,0.392423,-52.352566,-4.450650,2195570944.000000,-76.650002,219.169998,-532.070007,0.000000,0.000000
8684288.000000,-2.909672,-52.563137,-6.331409,2195590912.000000,-37.310001,189.350006,-561.400024,0.000000,0.000000
8705024.000000,-8.487342,-43.523052,-8.817552,2195610880.000000,39.480000,196.419998,-582.330017,0.000000,0.000000
8724224.000000,-14.091332,-34.463825,-4.567898,2195631872.000000,79.449997,212.660004,-586.669983,0.000000,0.000000
8744192.000000,-11.933006,-23.940191,0.964308,2195651072.000000,52.500000,237.160004,-569.729980,0.000000,0.000000
8764160.000000,-9.762716,-14.957534,-2.567499,2195671040.000000,112.489998,255.919998,-465.010010,0.000000,0.000000
8784896.000000,-12.253645,-6.958328,-3.574877,2195691008.000000,237.160004,227.149994,-366.660004,0.000000,0.000000
8805120.000000,-18.750158,-1.196411,-0.947558,2195711744.000000,213.009995,171.850006,-327.529999,0.000000,0.000000
8824320.000000,-19.989641,0.643669,-2.505285,2195731968.000000,122.220001,111.930000,-272.929993,0.000000,0.000000
8844288.000000,-20.513668,2.411965,-6.965507,2195750912.000000,95.480003,60.760002,-177.940002,0.000000,0.000000
8864256.000000,-19.453648,5.991628,-7.733603,2195771136.000000,85.820000,37.660000,-116.410004,0.000000,0.000000
8884224.000000,-16.000805,6.898508,-5.151747,2195790848.000000,-20.580000,21.420000,-48.509998,0.000000,0.000000
8904960.000000,-13.548162,5.237889,-5.393422,2195811072.000000,-109.480003,22.400000,35.630001,0.000000,0.000000
8924160.000000,-12.277573,4.625326,-6.247660,2195831808.000000,-83.580002,34.509998,130.690002,0.000000,0.000000
8944128.000000,-12.227324,4.364508,-4.436293,2195851008.000000,-42.560001,37.660000,243.389999,0.000000,0.000000
8964096.000000,-14.383257,2.909672,-0.985843,2195870976.000000,-76.230003,38.779999,357.350006,0.000000,0.000000
8984064.000000,-19.231115,-6.745367,7.104291,2195890944.000000,-123.270004,49.420002,458.500000,0.000000,0.000000
9005056.000000,-38.641693,-39.933815,-2.084148,2195910912.000000,-136.779999,39.900002,539.280029,0.000000,0.000000
9025024.000000,-30.345778,-77.505920,2.354537,2195931648.000000,-157.639999,66.709999,590.659973,0.000000,0.000000
9044992.000000,-14.950355,-71.416191,6.798009,2195951872.000000,-435.959991,18.830000,665.909973,0.000000,0.000000
9064960.000000,-2.744568,-59.234325,16.354942,2195971840.000000,-432.320007,-63.349998,564.479980,0.000000,0.000000
9085184.000000,3.644269,-37.531422,5.618347,2195991808.000000,-262.709991,-9.170000,434.350006,0.000000,0.000000
9105920.000000,2.615355,-22.157537,-0.320638,2196011776.000000,99.820000,37.520000,348.459991,0.000000,0.000000
9125376.000000,5.508278,-14.005190,2.718246,2196032768.000000,119.209999,1.540000,229.389999,2256201216.000000,1009.646729
9145344.000000,9.812965,-11.172089,4.831109,2196052224.000000,-97.090004,-93.099998,206.990005,0.000000,0.000000
9165312.000000,14.371292,-8.786445,2.096112,2196072192.000000,-208.669998,-187.389999,184.940002,0.000000,0.000000
9185280.000000,20.630917,-4.637290,0.988236,2196092160.000000,-125.370003,-208.669998,148.190002,0.000000,0.000000
9206272.000000,23.286947,-1.196411,0.229711,2196112128.000000,-52.430000,-210.699997,101.919998,0.000000,0.000000
9225728.000000,21.801006,-2.720639,0.167498,2196133120.000000,-15.400000,-182.000000,40.880001,0.000000,0.000000
9245696.000000,22.116859,-6.087341,1.521835,2196152576.000000,-37.799999,-142.660004,-8.610000,0.000000,0.000000
9265664.000000,19.159330,-9.291330,3.591627,2196172544.000000,-105.279999,-126.770004,-56.279999,0.000000,0.000000
9285632.000000,16.120445,-15.921842,2.301895,2196192512.000000,-111.580002,-65.099998,-133.770004,0.000000,0.000000
9308416.000000,12.545568,-26.938396,-2.155933,2196212480.000000,-25.340000,-9.100000,-227.919998,0.000000,0.000000
9325568.000000,9.276974,-40.869411,-3.773481,2196235264.000000,3.290000,54.180000,-349.579987,0.000000,0.000000
9346816.000000,9.178867,-54.723854,0.717847,2196252416.000000,-88.620003,114.520004,-452.899994,0.000000,0.000000
9366784.000000,-1.210768,-58.298733,-1.275374,2196273664.000000,-129.639999,132.930008,-488.950012,0.000000,0.000000
9387008.000000,-7.680960,-47.980877,-5.391029,2196293632.000000,-9.240000,164.570007,-574.489990,0.000000,0.000000
9407744.000000,-7.312466,-44.674000,-4.146761,2196313600.000000,105.629997,115.430000,-569.239990,0.000000,0.000000
9426944.000000,-13.323236,-35.492737,0.961915,2196334592.000000,27.230000,80.570000,-534.030029,0.000000,0.000000
9446656.000000,-10.971091,-21.090338,0.806381,2196353792.000000,-30.590000,118.790001,-532.489990,0.000000,0.000000
9466880.000000,-10.743774,-11.944970,-1.911865,2196373504.000000,76.230003,148.539993,-435.750000,0.000000,0.000000
9486848.000000,-14.400006,-4.553542,-1.543371,2196393472.000000,170.869995,160.860001,-360.290009,0.000000,0.000000
9507584.000000,-19.290936,-0.794417,-1.749153,2196413696.000000,146.229996,161.839996,-308.420013,0.000000,0.000000
9526784.000000,-17.986849,1.086342,-4.173083,2196434432.000000,131.039993,118.650002,-235.550003,0.000000,0.000000
9546752.000000,-19.637897,2.672783,-7.836494,2196453632.000000,132.229996,76.230003,-154.630005,0.000000,0.000000
9566720.000000,-24.263220,4.924429,-9.621540,2196473600.000000,80.570000,60.900002,-103.250000,0.000000,0.000000
9586688.000000,-21.092731,5.529813,-7.326823,2196493568.000000,-20.299999,64.680000,-73.570000,0.000000,0.000000
9607680.000000,-16.398014,4.929214,-6.790830,2196513536.000000,-54.950001,44.869999,5.530000,0.000000,0.000000
9626880.000000,-12.856635,5.405386,-6.747760,2196534272.000000,-11.550000,26.389999,111.090004,0.000000,0.000000
9646592.000000,-13.019348,4.374080,-4.357330,2196553472.000000,-21.000000,25.830000,228.759995,0.000000,0.000000
9666560.000000,-14.935998,-3.646662,2.493321,2196573440.000000,-79.730003,23.100000,339.920013,0.000000,0.000000
9686784.000000,-21.387049,-23.720051,-1.634298,2196593408.000000,-134.330002,-6.650000,443.660004,0.000000,0.000000
9707520.000000,-21.119051,-59.988064,0.464208,2196613632.000000,-162.259995,1.610000,530.880005,0.000000,0.000000
9726720.000000,-16.508083,-74.072220,6.539584,2196634368.000000,-365.890015,18.059999,641.830017,0.000000,0.000000
9746688.000000,-9.848858,-73.909500,17.252251,2196653568.000000,-410.970001,-1.260000,668.080017,0.000000,0.000000
9766656.000000,4.855037,-53.575298,23.085955,2196673536.000000,-364.700012,34.090000,532.559998,0.000000,0.000000
9786624.000000,3.917051,-33.123844,12.892529,2196693504.000000,-88.970001,37.099998,450.029999,0.000000,0.000000
9807360.000000,2.969493,-18.659231,3.333202,2196713216.000000,228.410004,-43.889999,311.290009,0.000000,0.000000
9826560.000000,5.800202,-10.870593,-0.583849,2196734208.000000,263.130005,-170.660004,260.470001,0.000000,0.000000
9846528.000000,11.258230,-9.628718,-1.655833,2196753408.000000,80.220001,-313.809998,269.500000,0.000000,0.000000
9866496.000000,20.169102,-10.482956,-3.816552,2196773376.000000,-68.529999,-404.179993,272.019989,0.000000,0.000000
9886464.000000,22.913670,-7.042077,-8.762517,2196793344.000000,-0.350000,-374.779999,257.600006,0.000000,0.000000
9907456.000000,23.705694,-3.237489,-13.476377,2196813312.000000,130.059998,-320.600006,143.570007,0.000000,0.000000
9926400.000000,23.466410,-2.778067,-12.978670,2196834304.000000,157.850006,-256.410004,29.680000,0.000000,0.000000
9946368.000000,18.728622,-4.996214,-10.040283,2196853248.000000,58.869999,-196.000000,-61.250000,0.000000,0.000000
9966336.000000,14.859427,-9.080762,-8.324631,2196873216.000000,-68.529999,-116.480003,-150.570007,0.000000,0.000000
9986304.000000,12.961920,-14.857035,-4.175476,2196893184.000000,-152.949997,-49.910000,-227.500000,0.000000,0.000000
10007296.000000,11.777473,-25.124638,6.824330,2196913152.000000,-210.419998,28.000000,-303.309998,0.000000,0.000000
10026496.000000,11.504691,-33.762730,13.337594,2196934144.000000,-258.790009,63.910000,-404.950012,0.000000,0.000000
10046464.000000,11.325230,-37.447674,12.002398,2196953088.000000,-152.809998,17.920000,-486.360016,0.000000,0.000000
10066432.000000,13.282558,-49.545788,8.561519,2196973312.000000,-117.320000,-53.480000,-488.529999,0.000000,0.000000
10086400.000000,7.970492,-49.368713,4.197011,2196993280.000000,-233.449997,-85.889999,-443.940002,0.000000,0.000000
10107136.000000,0.732204,-39.871605,0.425922,2197013248.000000,-244.089996,-39.900002,-454.580017,0.000000,0.000000
10126336.000000,-3.431308,-28.713871,0.937986,2197033984.000000,-147.419998,31.710001,-516.179993,2257202688.000000,1009.637085
10146304.000000,-5.410172,-20.944376,2.227718,2197053184.000000,-173.250000,131.389999,-480.200012,0.000000,0.000000
10166272.000000,-7.802995,-13.557733,0.926022,2197073152.000000,-137.759995,244.300003,-390.600006,0.000000,0.000000
10186240.000000,-10.363315,-7.269395,-2.500499,2197093120.000000,7.210000,271.459991,-342.790009,0.000000,0.000000
10207232.000000,-25.529026,-3.151347,-4.278367,2197113088.000000,111.650002,288.959991,-296.450012,0.000000,0.000000
10226176.000000,-20.853449,2.797210,-6.041877,2197134080.000000,173.320007,234.850006,-255.850006,0.000000,0.000000
10246400.000000,-17.888742,5.125426,-5.702096,2197153024.000000,132.440002,148.399994,-131.949997,0.000000,0.000000
10266368.000000,-23.461624,4.235296,-8.231310,2197172992.000000,-8.400000,128.169998,-74.970001,0.000000,0.000000
10286336.000000,-20.563917,3.412165,-6.386444,2197192960.000000,-116.129997,130.899994,-62.650002,0.000000,0.000000
10309120.000000,-15.263817,3.012564,-2.531606,2197213184.000000,-187.600006,86.379997,32.619999,0.000000,0.000000
10326272.000000,-12.100503,1.282553,-0.882952,2197235968.000000,-174.649994,27.370001,162.960007,0.000000,0.000000
10346240.000000,-13.447663,-0.368495,3.184847,2197253120.000000,-155.050003,16.870001,287.070007,0.000000,0.000000
10366208.000000,-18.080168,-7.881958,-0.428315,2197273088.000000,-194.740005,40.250000,410.899994,0.000000,0.000000
10386176.000000,-17.785851,-17.398212,-7.841280,2197293056.000000,-223.160004,13.720000,503.580017,0.000000,0.000000
10407168.000000,-33.650265,-60.299133,-12.746566,2197313024.000000,-395.220001,-52.849998,591.429993,0.000000,0.000000
10426112.000000,-10.557133,-78.364944,5.989235,2197334016.000000,-740.599976,-212.380005,541.869995,0.000000,0.000000
10446080.000000,-7.561320,-58.521267,-1.921437,2197352960.000000,-607.250000,-252.630005,642.950012,0.000000,0.000000
10466048.000000,-0.863809,-39.955353,-7.336394,2197372928.000000,103.669998,-64.330002,522.549988,0.000000,0.000000
10486016.000000,-0.019143,-25.466812,-1.835295,2197392896.000000,171.430008,35.560001,424.059998,0.000000,0.000000
10507008.000000,2.969493,-23.703300,1.713261,2197412864.000000,-58.869999,-66.010002,292.179993,0.000000,0.000000
10526208.000000,4.275974,-16.400406,-0.437887,2197433856.000000,-167.369995,-157.080002,250.389999,0.000000,0.000000
10546176.000000,7.343572,-10.820344,-3.321238,2197453056.000000,-102.129997,-240.169998,205.029999,0.000000,0.000000
10566144.000000,20.295921,-10.583455,-4.134798,2197473024.000000,-43.889999,-335.440002,208.669998,0.000000,0.000000
10586112.000000,35.514275,-6.216553,-3.048456,2197492992.000000,-7.770000,-406.420013,245.279999,0.000000,0.000000
10607104.000000,21.166910,-4.673182,-4.713861,2197512960.000000,13.860000,-303.170013,199.779999,0.000000,0.000000
10626048.000000,30.520452,-6.759724,-3.783052,2197533696.000000,28.770000,-87.150002,-10.850000,0.000000,0.000000
10646016.000000,19.566111,-8.662018,-1.684547,2197552896.000000,-46.060001,-149.520004,-9.870000,0.000000,0.000000
10665984.000000,16.000805,-15.672989,-1.378266,2197572864.000000,-74.340004,11.270000,-126.840004,0.000000,0.000000
10685952.000000,12.815958,-29.577681,-4.469792,2197592832.000000,-29.330000,73.849998,-181.440002,0.000000,0.000000
10706944.000000,5.517848,-37.966919,-7.941778,2197612800.000000,62.299999,130.619995,-283.429993,0.000000,0.000000
10725888.000000,1.091127,-46.085762,-7.133004,2197633792.000000,27.650000,202.229996,-428.750000,0.000000,0.000000
10746112.000000,-2.940779,-61.761150,-2.945565,2197652736.000000,-52.779999,239.119995,-524.440002,0.000000,0.000000
10766080.000000,-16.072590,-52.149174,-5.151747,2197672960.000000,-66.989998,236.880005,-558.109985,0.000000,0.000000
10786048.000000,-6.788438,-38.428734,-5.860023,2197692928.000000,102.340004,201.809998,-625.520020,0.000000,0.000000
10806784.000000,-16.022341,-36.488152,-1.069592,2197712896.000000,136.009995,130.550003,-539.070007,0.000000,0.000000
10825984.000000,-18.946369,-28.225737,4.474578,2197733632.000000,43.540001,142.240005,-566.020020,0.000000,0.000000
10845952.000000,-14.196616,-15.282957,1.859223,2197752832.000000,46.200001,167.649994,-488.809998,0.000000,0.000000
10865920.000000,-15.419350,-5.627919,-1.127020,2197772800.000000,125.370003,186.270004,-376.459991,0.000000,0.000000
10885888.000000,-18.611374,0.894916,2.935993,2197792768.000000,103.250000,166.460007,-327.459991,0.000000,0.000000
10906880.000000,-21.745970,2.490928,1.155733,2197812736.000000,55.020000,156.869995,-306.950012,0.000000,0.000000
10925824.000000,-20.102102,7.252645,-3.196811,2197833728.000000,3.850000,149.869995,-240.309998,0.000000,0.000000
10945792.000000,-16.764114,9.738789,-5.687739,2197852672.000000,91.980003,116.900002,-169.820007,0.000000,0.000000
10965760.000000,-15.450456,10.724631,-5.221139,2197872640.000000,91.419998,59.290001,-56.000000,0.000000,0.000000
10985984.000000,-14.316258,7.941778,-2.471786,2197892608.000000,-21.280001,19.740000,-2.590000,0.000000,0.000000
11006720.000000,-12.648461,4.606184,-3.797409,2197912576.000000,-112.910004,-14.070000,63.490002,0.000000,0.000000
11025920.000000,-11.861222,3.680161,-4.280759,2197933568.000000,-62.439999,-58.450001,179.410004,0.000000,0.000000
11045888.000000,-12.988241,3.074777,-2.148755,2197952768.000000,-18.690001,-80.500000,321.160004,0.000000,0.000000
11065856.000000,-15.940985,-2.251646,-1.830509,2197972736.000000,-20.510000,-62.580002,425.529999,0.000000,0.000000
11085824.000000,-24.555145,-20.283957,-5.446064,2197992704.000000,7.630000,-55.650002,503.860016,0.000000,0.000000
11106816.000000,-36.727436,-67.051674,0.526421,2198033408.000000,-381.500000,-69.650002,552.020020,2258202112.000000,1009.637756
11125760.000000,-17.371893,-69.119072,5.544170,0.000000,0.000000,0.000000,0.000000,0.000000,0.000000
11145728.000000,-9.308081,-59.071609,6.821937,2198052608.000000,-276.570007,-68.389999,649.669983,0.000000,0.000000
11165696.000000,0.382852,-42.659245,6.211767,2198072576.000000,-102.199997,-20.090000,483.279999,0.000000,0.000000
11185664.000000,3.474378,-30.996626,3.828516,2198092544.000000,-11.970000,61.599998,399.910004,0.000000,0.000000
11206656.000000,4.838287,-21.906290,4.682754,2198112512.000000,-40.810001,38.990002,292.250000,0.000000,0.000000
11225856.000000,8.267202,-17.029718,5.867201,2198133504.000000,-98.910004,-22.750000,213.289993,0.000000,0.000000
11245824.000000,11.344372,-11.490334,2.304288,2198152448.000000,-111.300003,-92.190002,183.399994,0.000000,0.000000
11265792.000000,18.336199,-5.010571,4.314260,2198192640.000000,-24.710001,-204.750000,100.730003,0.000000,0.000000
11285760.000000,23.918653,-3.639483,3.129812,0.000000,0.000000,0.000000,0.000000,0.000000,0.000000
11308544.000000,19.939390,-4.165904,2.723032,2198212608.000000,5.390000,-178.080002,70.980003,0.000000,0.000000
11325696.000000,23.210381,-2.629712,2.904887,2198235392.000000,-20.160000,-138.809998,4.900000,0.000000,0.000000
11345664.000000,20.350954,-3.117848,3.936193,2198252544.000000,-60.200001,-179.059998,-52.920002,0.000000,0.000000
11365632.000000,14.187045,-6.537192,2.801995,2198272512.000000,-73.709999,-139.229996,-138.949997,0.000000,0.000000
11385600.000000,11.497513,-11.789437,0.370888,2198292480.000000,-30.660000,-84.139999,-210.000000,0.000000,0.000000
11406592.000000,10.576276,-23.349165,-2.409572,2198312448.000000,9.450000,-45.220001,-259.070007,0.000000,0.000000
11425536.000000,9.389436,-52.089359,-0.404387,2198333440.000000,-7.700000,20.160000,-318.570007,0.000000,0.000000
11445504.000000,1.158126,-61.407009,0.421137,2198352384.000000,-87.779999,91.349998,-393.470001,0.000000,0.000000
11465728.000000,-13.763516,-53.874401,-0.306281,2198372352.000000,-6.510000,202.369995,-462.420013,0.000000,0.000000
11485696.000000,-3.704089,-33.604801,-3.275774,2198392320.000000,115.779999,132.649994,-556.359985,0.000000,0.000000
11506432.000000,-10.609775,-31.133015,0.416351,2198412288.000000,118.440002,66.989998,-477.470001,0.000000,0.000000
11525632.000000,-14.646468,-27.376284,7.384251,2198433280.000000,-28.490000,100.870003,-530.809998,0.000000,0.000000
11545600.000000,-13.062418,-16.529619,3.189633,2198452480.000000,-44.450001,172.759995,-469.980011,0.000000,0.000000
11565568.000000,-10.872985,-5.383851,1.234696,2198472448.000000,132.440002,205.800003,-372.329987,0.000000,0.000000
11585536.000000,-12.658032,0.011964,3.670590,2198492416.000000,193.619995,175.070007,-299.670013,0.000000,0.000000
11606528.000000,-17.283358,0.729811,4.137190,2198512384.000000,115.989998,154.070007,-268.239990,0.000000,0.000000
11625472.000000,-15.713666,4.816752,-1.720440,2198533376.000000,73.919998,118.510002,-226.660004,0.000000,0.000000
11645440.000000,-15.438492,9.047262,-5.127820,2198552320.000000,127.260002,79.519997,-99.050003,0.000000,0.000000
11665408.000000,-15.668202,8.769694,-5.541777,2198572288.000000,64.260002,18.480000,3.220000,0.000000,0.000000
11685376.000000,-14.955141,4.486543,-3.278167,2198592256.000000,-114.169998,-0.840000,15.540000,0.000000,0.000000
11706368.000000,-9.827322,3.270989,-4.024727,2198612224.000000,-196.350006,-18.059999,49.700001,0.000000,0.000000
11725568.000000,-8.082954,3.914658,-5.680561,2198633216.000000,-84.000000,-46.900002,172.550003,0.000000,0.000000
11745536.000000,-9.647861,1.009771,-3.218346,2198652160.000000,-84.000000,-46.410000,292.110016,0.000000,0.000000
11765504.000000,-9.990034,-1.182054,-3.175276,2198672384.000000,1.470000,-27.860001,349.299988,0.000000,0.000000
11785472.000000,-13.797016,-3.524628,-2.117648,2198692352.000000,96.180000,-15.610000,418.739990,0.000000,0.000000
11806208.000000,-23.248667,-22.937597,3.625126,2198712320.000000,129.710007,30.100000,533.750000,0.000000,0.000000
11825408.000000,-31.642685,-61.517075,12.926028,2198733056.000000,-55.299999,112.349998,563.080017,0.000000,0.000000
11845376.000000,-16.491333,-63.381088,18.424734,2198752256.000000,-285.529999,138.809998,527.590027,0.000000,0.000000
11865600.000000,-8.171489,-49.031326,18.652052,2198772224.000000,-203.139999,126.070000,506.799988,0.000000,0.000000
11885312.000000,-2.577070,-34.404003,16.835899,2198792448.000000,-166.320007,154.839996,334.809998,0.000000,0.000000
11906304.000000,0.777667,-21.628725,13.765909,2198812160.000000,-127.889999,164.430008,221.199997,0.000000,0.000000
11925248.000000,3.330809,-14.017156,9.961320,2198833152.000000,-72.800003,112.419998,163.800003,0.000000,0.000000
11945216.000000,5.271388,-6.101698,10.762917,2198852096.000000,-36.330002,12.110000,143.779999,0.000000,0.000000
11965440.000000,8.606983,-7.980063,8.580662,2198872064.000000,-136.360001,-119.070000,151.270004,0.000000,0.000000
11985408.000000,10.104890,-6.963113,7.049256,2198892032.000000,-177.380005,-169.680008,137.199997,0.000000,0.000000
12006144.000000,14.256437,-1.698904,2.117648,2198912256.000000,-83.580002,-200.899994,107.520004,0.000000,0.000000
12025344.000000,22.200609,-0.114855,-0.265603,2198932992.000000,52.290001,-234.500000,88.129997,0.000000,0.000000
12045312.000000,19.994425,-1.299303,1.320838,2198952192.000000,5.250000,-261.380005,73.430000,0.000000,0.000000
12065280.000000,17.651854,-5.577669,1.473979,2198972160.000000,-103.949997,-183.190002,14.840000,0.000000,0.000000
12085248.000000,18.953548,-10.212566,0.550349,2198992128.000000,-101.989998,-145.180008,-62.160000,0.000000,0.000000
12106240.000000,14.404793,-17.517855,3.649055,2199033088.000000,83.019997,-27.510000,-247.800003,2259201536.000000,1009.637146
12125184.000000,10.794022,-32.214569,3.503092,0.000000,0.000000,0.000000,0.000000,0.000000,0.000000
12145152.000000,8.867801,-42.620956,6.742974,2199052032.000000,175.630005,30.240000,-381.149994,0.000000,0.000000
12165120.000000,6.340980,-46.528439,12.827922,2199072000.000000,240.029999,22.190001,-468.510010,0.000000,0.000000
12185088.000000,1.306481,-44.374897,15.512670,2199091968.000000,223.860001,16.870001,-521.289978,0.000000,0.000000
12206080.000000,-5.936593,-32.664421,14.792429,2199111936.000000,250.880005,60.970001,-563.780029,0.000000,0.000000
12225280.000000,-23.207985,-24.734608,12.995420,2199132928.000000,307.720001,137.690002,-564.200012,0.000000,0.000000
12245248.000000,-10.305886,-14.148761,11.404193,2199151872.000000,319.549988,139.509995,-523.669983,0.000000,0.000000
12265216.000000,-13.983655,-8.678767,8.398808,2199172096.000000,365.329987,11.340000,-408.869995,0.000000,0.000000
12285184.000000,-12.928421,-5.005785,7.623533,2199192064.000000,345.660004,24.570000,-361.269989,0.000000,0.000000
12307968.000000,-16.197016,-2.447858,3.957729,2199212032.000000,288.399994,42.209999,-302.890015,0.000000,0.000000
12325120.000000,-15.608383,1.048056,0.117248,2199234816.000000,288.470001,30.170000,-273.279999,0.000000,0.000000
12345088.000000,-13.385449,1.773082,-4.457829,2199251968.000000,276.220001,-7.980000,-213.430008,0.000000,0.000000
12365056.000000,-12.643675,0.306281,-6.809973,2199271936.000000,220.639999,-21.629999,-144.059998,0.000000,0.000000
12385024.000000,-12.234503,-3.421736,-6.967900,2199291904.000000,83.440002,-43.189999,-88.129997,0.000000,0.000000
12406016.000000,-10.392029,-5.754738,-8.492127,2199311872.000000,-34.580002,-48.930000,-31.219999,0.000000,0.000000
12424960.000000,-8.250452,-7.058826,-10.119246,2199332864.000000,-80.150002,-39.900002,49.349998,0.000000,0.000000
12445184.000000,-6.541977,-7.281359,-7.487142,2199351808.000000,-90.440002,-39.759998,101.010002,0.000000,0.000000
12465152.000000,-7.121039,-5.551349,-3.058028,2199371776.000000,-125.510002,-16.660000,125.930000,0.000000,0.000000
12485120.000000,-8.135597,-4.055835,0.105284,2199391744.000000,-128.309998,33.740002,154.910004,0.000000,0.000000
12505856.000000,-9.745967,-4.984250,4.823930,2199411968.000000,-84.769997,71.889999,201.880005,0.000000,0.000000
12525056.000000,-12.768101,-8.738588,12.768101,2199432704.000000,-92.680000,109.059998,273.420013,0.000000,0.000000
12545024.000000,-20.633310,-19.721645,26.151159,2199451904.000000,-245.490005,188.649994,358.890015,0.000000,0.000000
12564992.000000,-17.072790,-30.427134,30.809984,2199471872.000000,-463.190002,242.410004,404.600006,0.000000,0.000000
12584960.000000,-7.054041,-27.127430,34.633713,2199491840.000000,-470.890015,233.729996,437.779999,0.000000,0.000000
12605952.000000,-8.018349,-26.703901,34.372898,2199511808.000000,-398.299988,224.419998,388.220001,0.000000,0.000000
12624896.000000,-1.670190,-21.059233,28.572695,2199532800.000000,-363.019989,226.589996,284.899994,0.000000,0.000000
12644864.000000,1.103091,-16.520048,17.388643,2199551744.000000,-175.979996,172.479996,281.540009,0.000000,0.000000
12664832.000000,5.747560,-13.610376,10.255639,2199571712.000000,-52.849998,81.480003,270.059998,0.000000,0.000000
12685056.000000,12.050256,-13.088740,9.980463,2199591680.000000,-129.009995,-4.970000,286.089996,0.000000,0.000000
12705792.000000,20.982662,-13.718053,9.925428,2199632640.000000,-182.070007,-143.850006,284.410004,0.000000,0.000000
12724992.000000,23.121843,-10.011569,4.505685,0.000000,0.000000,0.000000,0.000000,0.000000,0.000000
12744960.000000,25.103102,-7.384251,0.964308,2199651840.000000,-18.900000,-104.090004,203.070007,0.000000,0.000000
12764928.000000,26.514868,-6.946364,1.280160,2199671808.000000,7.700000,-117.040001,95.830002,0.000000,0.000000
12784896.000000,20.604595,-9.528220,3.012564,2199691776.000000,-58.660000,-133.910004,-0.700000,0.000000,0.000000
12805888.000000,16.637295,-13.418950,3.984050,2199711744.000000,-75.110001,-112.419998,-136.639999,0.000000,0.000000
12824832.000000,11.521441,-19.075583,6.405586,2199732480.000000,-46.830002,-101.919998,-243.669998,0.000000,0.000000
12844800.000000,8.537591,-29.096724,13.971692,2199751680.000000,19.320000,-92.820000,-303.170013,0.000000,0.000000
12864768.000000,5.412565,-44.788853,25.012173,2199771648.000000,25.059999,-68.110001,-399.980011,0.000000,0.000000
12884736.000000,2.847459,-44.700321,24.569504,2199791616.000000,16.309999,-77.629997,-454.790009,0.000000,0.000000
12905728.000000,-7.056434,-32.255249,22.102503,2199811584.000000,109.480003,-58.450001,-478.239990,0.000000,0.000000
12924928.000000,-14.244473,-28.907688,19.704895,2199832576.000000,235.410004,-11.130000,-477.119995,0.000000,0.000000
12944896.000000,-11.940186,-19.561325,14.641682,2199851520.000000,260.540009,-5.530000,-450.380005,0.000000,0.000000
12964864.000000,-13.296914,-10.073784,9.434900,2199871488.000000,294.559998,-151.690002,-433.510010,0.000000,0.000000
12984832.000000,-12.380465,-5.656632,5.067998,2199891712.000000,289.589996,-96.110001,-365.820007,0.000000,0.000000
13005568.000000,-13.983655,-0.799203,1.134198,2199911680.000000,262.709991,-28.910000,-334.950012,0.000000,0.000000
13024768.000000,-14.043476,2.474179,-1.701297,2199932416.000000,259.839996,17.360001,-284.130005,0.000000,0.000000
13044736.000000,-13.459626,2.821138,-4.275974,2199951616.000000,269.079987,38.849998,-219.169998,0.000000,0.000000
13064704.000000,-11.715261,2.426322,-5.044070,2199971584.000000,227.149994,36.750000,-171.430008,0.000000,0.000000
13084672.000000,-10.573883,0.179462,-4.130012,2199991552.000000,148.610001,26.389999,-115.360001,0.000000,0.000000
13105664.000000,-8.700303,-2.959922,-1.392623,2200032512.000000,30.660000,48.580002,4.410000,2260200960.000000,1009.640808
13124608.000000,-6.958328,-5.175675,1.354338,0.000000,0.000000,0.000000,0.000000,0.000000,0.000000
13144576.000000,-5.151747,-5.606383,6.051448,2200051456.000000,63.770000,59.220001,35.840000,0.000000,0.000000
13164544.000000,-3.974478,-4.754539,11.294124,2200071424.000000,114.099998,71.889999,60.689999,0.000000,0.000000
13184768.000000,-2.313859,-2.533999,10.310673,2200091392.000000,134.960007,78.680000,76.019997,0.000000,0.000000
13205504.000000,2.703890,2.421536,13.861622,2200111360.000000,115.849998,50.470001,85.889999,0.000000,0.000000
13224704.000000,7.688138,4.977071,16.426727,2200132352.000000,23.450001,-8.470000,121.379997,0.000000,0.000000
13244672.000000,5.388636,2.340181,15.397814,2200151552.000000,-101.639999,-16.100000,142.800003,0.000000,0.000000
13264640.000000,5.118248,4.321437,12.516854,2200171520.000000,-151.130005,38.500000,141.539993,0.000000,0.000000
13284608.000000,6.604190,6.515656,12.844672,2200191488.000000,-95.340004,69.650002,155.050003,0.000000,0.000000
13307392.000000,5.163712,3.921836,10.774881,2200211456.000000,-89.669998,84.980003,155.680008,0.000000,0.000000
13324544.000000,4.864608,1.909473,11.222338,2200234240.000000,-146.649994,117.250000,161.559998,0.000000,0.000000
13344512.000000,4.704289,0.885344,10.817951,2200251392.000000,-162.190002,136.710007,156.169998,0.000000,0.000000
13364480.000000,5.536992,0.751346,7.733603,2200271360.000000,-117.879997,144.410004,154.839996,0.000000,0.000000
13384448.000000,5.149354,0.334995,4.326223,2200291328.000000,-52.080002,135.589996,154.139999,0.000000,0.000000
13405440.000000,5.950950,-0.478565,4.106083,2200311296.000000,-64.120003,127.050003,156.449997,0.000000,0.000000
13424640.000000,8.104490,-0.873380,5.051248,2200332288.000000,-132.580002,92.959999,158.339996,0.000000,0.000000
13444608.000000,9.736395,-0.392423,5.450850,2200351232.000000,-153.369995,48.930000,138.039993,0.000000,0.000000
13464576.000000,10.545169,1.665405,6.891330,2200371456.000000,-93.029999,31.430000,89.879997,0.000000,0.000000
13484544.000000,10.071390,2.589034,10.478169,2200391424.000000,-30.309999,31.500000,22.400000,0.000000,0.000000
13505280.000000,9.044869,2.378466,11.411370,2200411392.000000,17.360001,16.590000,-54.459999,0.000000,0.000000
13524480.000000,10.746166,2.210968,12.552748,2200432128.000000,86.099998,-17.290001,-116.199997,0.000000,0.000000
13544448.000000,12.019149,-1.239482,25.256241,2200451328.000000,108.220001,-71.680000,-144.550003,0.000000,0.000000
13564416.000000,3.823731,-6.843473,25.320850,2200471296.000000,70.349998,-95.970001,-132.020004,0.000000,0.000000
13584384.000000,4.998606,-4.831109,21.698116,2200491264.000000,109.690002,-67.760002,-92.959999,0.000000,0.000000
13605376.000000,5.828916,-3.000600,20.985056,2200511232.000000,94.220001,-141.399994,-77.699997,0.000000,0.000000
13624320.000000,4.692325,-5.608776,20.449064,2200532224.000000,-78.470001,-213.639999,-83.650002,0.000000,0.000000
13644288.000000,2.967100,-3.682554,15.022141,2200551168.000000,-129.570007,-212.449997,-114.870003,0.000000,0.000000
13664512.000000,3.242275,-0.222532,9.796216,2200571136.000000,-6.160000,-158.339996,-123.690002,0.000000,0.000000
13684480.000000,3.105884,0.969093,8.013563,2200591104.000000,66.220001,-130.479996,-134.050003,0.000000,0.000000
13705216.000000,0.555135,0.464208,7.188039,2200611072.000000,16.309999,-109.690002,-135.100006,0.000000,0.000000
13724416.000000,-2.670390,0.586242,5.048856,2200632064.000000,-24.850000,-79.379997,-138.250000,0.000000,0.000000
13744384.000000,-6.707082,0.741775,1.947758,2200651264.000000,-15.050000,-49.770000,-128.309998,0.000000,0.000000
13764352.000000,-10.128819,0.148355,-1.198804,2200671232.000000,-11.760000,-39.970001,-119.070000,0.000000,0.000000
13784320.000000,-11.734402,-0.267996,-3.766303,2200691200.000000,-37.170002,-49.349998,-99.400002,0.000000,0.000000
13805312.000000,-10.497313,-0.509671,-3.804588,2200711168.000000,-79.449997,-53.619999,-62.930000,0.000000,0.000000
13824256.000000,-11.174481,-1.318445,-4.268795,2200732160.000000,-103.949997,-39.759998,-7.140000,0.000000,0.000000
13844224.000000,-9.683753,-1.607977,-4.620540,2200751104.000000,-99.470001,-21.700001,43.820000,0.000000,0.000000
13864192.000000,-8.736196,-0.521635,-3.615555,2200771072.000000,-78.889999,8.610000,117.040001,0.000000,0.000000
13884160.000000,-9.229117,-2.210968,0.160319,2200791040.000000,-88.340004,49.139999,181.580002,0.000000,0.000000
13905152.000000,-10.674382,-9.750752,9.528220,2200811008.000000,-134.610001,103.529999,248.639999,0.000000,0.000000
13924352.000000,-14.641682,-21.446869,15.294923,2200832000.000000,-228.899994,169.119995,329.769989,0.000000,0.000000
13944320.000000,-16.041483,-33.497124,17.893528,2200850944.000000,-331.380005,250.180008,394.450012,0.000000,0.000000
13964288.000000,-6.599405,-37.069611,22.791636,2200871168.000000,-425.179993,246.190002,386.679993,0.000000,0.000000
13984256.000000,-6.204589,-29.766714,22.827528,2200891136.000000,-428.119995,214.830002,336.769989,0.000000,0.000000
14005248.000000,-3.692125,-27.582067,23.356342,2200911104.000000,-425.880005,227.220001,276.010010,0.000000,0.000000
14024192.000000,0.251246,-21.463617,16.130018,2200931840.000000,-338.239990,181.229996,271.670013,0.000000,0.000000
14044160.000000,2.397608,-14.347364,7.893922,2200951040.000000,-67.269997,65.730003,275.730011,0.000000,0.000000
14064128.000000,5.436492,-11.497513,4.065405,2200971008.000000,12.880000,-22.610001,272.720001,0.000000,0.000000
14084096.000000,9.839286,-10.473385,1.718047,2200990976.000000,-84.840004,-106.610001,286.929993,0.000000,0.000000
14105088.000000,15.818950,-9.547362,2.684747,2201031936.000000,-240.100006,-186.899994,280.279999,2261200640.000000,1009.640137
14124032.000000,20.731415,-8.396415,2.957529,0.000000,0.000000,0.000000,0.000000,0.000000,0.000000
14144256.000000,23.502304,-7.082755,1.399801,2201050880.000000,-209.930008,-162.889999,218.330002,0.000000,0.000000
14164224.000000,26.476583,-7.642675,2.684747,2201070848.000000,-162.119995,-151.270004,107.590004,0.000000,0.000000
14184192.000000,21.059233,-11.143374,3.218346,2201090816.000000,-133.770004,-127.680000,8.190000,0.000000,0.000000
14204928.000000,16.601404,-16.998611,-1.107877,2201111040.000000,-42.840000,-56.139999,-115.290001,0.000000,0.000000
14224128.000000,14.009976,-28.704298,-3.215954,2201131776.000000,32.200001,-11.480000,-235.479996,0.000000,0.000000
14244096.000000,10.408779,-50.979088,-2.146362,2201150976.000000,17.010000,60.970001,-329.209991,0.000000,0.000000
14264064.000000,1.067199,-58.504517,1.983650,2201170944.000000,-47.599998,125.090004,-411.320007,0.000000,0.000000
14284032.000000,-11.519048,-50.593845,3.168097,2201190912.000000,-71.120003,217.000000,-519.890015,0.000000,0.000000
14306816.000000,-10.758131,-38.029129,2.359323,2201210880.000000,47.110001,228.339996,-575.400024,0.000000,0.000000
14323968.000000,-14.392829,-29.419754,3.553342,2201233664.000000,125.580002,108.220001,-552.929993,0.000000,0.000000
14343936.000000,-13.875979,-20.329422,3.594020,2201250816.000000,150.919998,122.570000,-504.420013,0.000000,0.000000
14363904.000000,-10.791630,-13.706088,1.727618,2201270784.000000,172.830002,128.940002,-450.100006,0.000000,0.000000
14383872.000000,-12.949955,-8.128418,-1.459622,2201290752.000000,214.410004,135.240005,-362.459991,0.000000,0.000000
14404864.000000,-17.364714,-2.569891,-2.361716,2201310720.000000,226.100006,109.830002,-337.399994,0.000000,0.000000
14424064.000000,-19.779072,1.832902,-1.830509,2201331712.000000,175.000000,87.709999,-286.019989,0.000000,0.000000
14444032.000000,-17.699709,1.856830,-3.567699,2201350912.000000,136.500000,67.760002,-202.860001,0.000000,0.000000
14464000.000000,-17.778673,2.366502,-8.484949,2201370880.000000,187.809998,48.720001,-114.590004,0.000000,0.000000
14483968.000000,-16.790438,5.635098,-11.511869,2201390848.000000,253.889999,12.180000,-62.160000,0.000000,0.000000
14504960.000000,-12.631711,6.269196,-11.033305,2201410816.000000,164.360001,33.599998,47.180000,0.000000,0.000000
14523904.000000,-10.102496,4.168297,-7.946564,2201431552.000000,4.410000,57.820000,138.949997,0.000000,0.000000
14543872.000000,-10.080962,0.669990,-3.605984,2201450752.000000,-130.759995,79.379997,192.850006,0.000000,0.000000
14563840.000000,-10.693524,-4.220939,2.227718,2201470720.000000,-179.410004,103.250000,238.979996,0.000000,0.000000
14583808.000000,-16.704294,-12.806387,4.756931,2201490688.000000,-136.500000,154.000000,307.019989,0.000000,0.000000
14604800.000000,-20.918056,-24.911674,11.157731,2201510656.000000,-80.779999,199.990005,387.519989,0.000000,0.000000
14624000.000000,-24.550360,-43.161732,13.368701,2201531648.000000,-166.250000,195.649994,443.029999,0.000000,0.000000
14643968.000000,-19.068403,-48.102909,11.121840,2201550592.000000,-368.619995,171.289993,423.079987,0.000000,0.000000
14663936.000000,-8.374879,-48.332623,11.363515,2201570560.000000,-588.700012,104.160004,420.209991,0.000000,0.000000
14683904.000000,-0.059821,-40.907696,16.941183,2201590784.000000,-657.859985,3.430000,350.350006,0.000000,0.000000
14704640.000000,2.758924,-31.508688,11.607583,2201610752.000000,-506.730011,-43.400002,328.019989,0.000000,0.000000
14723840.000000,3.132205,-23.229523,4.151547,2201631488.000000,-169.539993,-63.139999,285.250000,0.000000,0.000000
14743808.000000,4.857430,-15.201601,0.318245,2201650688.000000,59.849998,-101.430000,219.520004,0.000000,0.000000
14763776.000000,10.200603,-11.638690,0.253639,2201670656.000000,79.449997,-162.050003,191.240005,0.000000,0.000000
14783744.000000,26.845078,-10.470992,4.144369,2201690624.000000,6.790000,-206.850006,189.839996,0.000000,0.000000
14804736.000000,17.565710,-5.785845,4.070191,2201710592.000000,-68.250000,-296.869995,195.300003,0.000000,0.000000
14823680.000000,13.519447,-5.264209,1.627119,2201731584.000000,-80.150002,-207.130005,148.610001,0.000000,0.000000
14843648.000000,19.903500,-5.929415,1.088734,2201750528.000000,-2.800000,-61.740002,-8.890000,0.000000,0.000000
14863616.000000,22.624138,-3.723232,0.110070,2201770496.000000,8.470000,-132.580002,-19.320000,0.000000,0.000000
14883840.000000,14.165509,-2.419144,-0.143569,2201790464.000000,16.940001,-120.610001,-113.889999,0.000000,0.000000
14904576.000000,11.624333,-5.886343,0.985843,2201810432.000000,18.620001,-20.580000,-219.589996,0.000000,0.000000
14923776.000000,11.712867,-15.304493,0.351745,2201831424.000000,-16.450001,17.639999,-231.350006,0.000000,0.000000
14943744.000000,9.839286,-35.913876,-3.883551,2201850624.000000,1.890000,49.770000,-260.890015,0.000000,0.000000
14963712.000000,2.208575,-56.903717,-0.275175,2201870592.000000,28.070000,102.900002,-362.040009,0.000000,0.000000
14983680.000000,-3.278167,-56.898933,0.866202,2201890560.000000,-96.739998,150.990005,-425.670013,0.000000,0.000000
15004672.000000,-15.890735,-44.963528,0.241675,2201910528.000000,-56.560001,239.820007,-452.619995,0.000000,0.000000
15023616.000000,-8.061419,-29.443682,-1.813759,2201931264.000000,93.169998,158.199997,-524.369995,0.000000,0.000000
15043584.000000,-13.873586,-25.208385,2.562713,2201950464.000000,154.350006,31.780001,-474.670013,0.000000,0.000000
15063552.000000,-19.197617,-19.116261,3.359523,2201970432.000000,84.419998,47.810001,-450.380005,0.000000,0.000000
15083520.000000,-15.515062,-7.671390,1.172483,2202010368.000000,112.279999,104.160004,-262.709991,0.000000,0.000000
15104512.000000,-14.258829,-1.318445,1.170090,0.000000,0.000000,0.000000,0.000000,0.000000,0.000000
15123712.000000,-15.639489,4.144369,2.292324,2202031360.000000,109.129997,122.290001,-216.930008,2262200064.000000,1009.638306
15143680.000000,-16.177874,6.955935,0.239282,2202050304.000000,54.950001,133.350006,-158.199997,0.000000,0.000000
15163648.000000,-12.143576,7.250252,-1.641476,2202070272.000000,73.709999,125.580002,-83.019997,0.000000,0.000000
15183616.000000,-10.281959,7.599605,-3.823731,2202090496.000000,126.699997,85.470001,-18.969999,0.000000,0.000000
15204352.000000,-9.748360,8.023134,-6.070591,2202110464.000000,131.110001,44.799999,48.230000,0.000000,0.000000
15223552.000000,-8.748159,7.267002,-5.589634,2202131200.000000,40.250000,44.730000,111.090004,0.000000,0.000000
15243520.000000,-7.968100,3.672983,-4.287938,2202150400.000000,-101.500000,50.959999,162.330002,0.000000,0.000000
15263488.000000,-8.812766,0.390030,-3.175276,2202170368.000000,-191.800003,33.529999,217.350006,0.000000,0.000000
15283456.000000,-11.114661,-2.404787,-1.339981,2202190336.000000,-233.169998,16.309999,276.149994,0.000000,0.000000
15306240.000000,-14.431112,-11.923435,1.756332,2202210304.000000,-218.190002,-3.220000,355.390015,0.000000,0.000000
15323392.000000,-22.817955,-37.416569,-0.715454,2202233088.000000,-189.070007,-33.810001,395.570007,0.000000,0.000000
15343360.000000,-13.710874,-49.014580,-0.181855,2202250240.000000,-200.270004,-72.309998,403.619995,0.000000,0.000000
15363584.000000,-15.175282,-48.480980,-3.582055,2202270208.000000,-231.490005,-90.300003,441.140015,0.000000,0.000000
15383552.000000,-5.058427,-45.822556,-1.239482,2202290176.000000,-346.360016,-113.330002,355.459991,0.000000,0.000000
15404288.000000,2.732604,-34.092937,8.772088,2202310144.000000,-443.380005,-113.050003,274.470001,0.000000,0.000000
15423488.000000,3.369094,-24.320652,6.869793,2202331136.000000,-364.420013,-53.130001,261.029999,0.000000,0.000000
15443456.000000,2.837888,-18.683159,3.615555,2202350336.000000,-51.450001,-46.549999,188.369995,0.000000,0.000000
15463424.000000,3.402594,-12.811172,-0.260818,2202370304.000000,144.339996,-73.360001,138.880005,0.000000,0.000000
15483392.000000,6.264410,-7.968100,-2.201397,2202390272.000000,182.139999,-132.160004,119.770004,0.000000,0.000000
15504384.000000,15.079568,-5.178068,0.045464,2202410240.000000,105.209999,-221.550003,131.460007,0.000000,0.000000
15523328.000000,20.166712,-3.287738,1.667797,2202431232.000000,-33.180000,-300.299988,141.960007,0.000000,0.000000
15543296.000000,15.000606,-3.314059,0.296710,2202450176.000000,-121.099998,-220.360001,98.349998,0.000000,0.000000
15563264.000000,19.348364,-4.211368,0.177069,2202470144.000000,-130.130005,-99.820000,41.160000,0.000000,0.000000
15583232.000000,21.052052,-3.491128,1.162912,2202490112.000000,-118.650002,-135.309998,-5.390000,0.000000,0.000000
15604224.000000,16.278372,-2.723032,1.234696,2202510080.000000,-99.889999,-84.980003,-65.660004,0.000000,0.000000
15623424.000000,15.282957,-2.356930,-1.816152,2202531072.000000,-51.520000,13.230000,-118.580002,0.000000,0.000000
15643392.000000,10.317852,-5.357530,-5.682954,2202550016.000000,12.460000,45.639999,-138.110001,0.000000,0.000000
15663360.000000,6.271588,-22.829920,-18.166309,2202570240.000000,32.689999,105.489998,-157.220001,0.000000,0.000000
15683328.000000,-1.040878,-78.178299,-10.571491,2202590208.000000,-71.330002,233.729996,-138.740005,0.000000,0.000000
15704064.000000,-30.312277,-64.357353,-19.948963,2202610176.000000,-300.579987,468.160004,-170.240005,0.000000,0.000000
15723264.000000,-11.839686,-46.535618,-12.681960,2202630912.000000,134.470001,171.360001,-464.940002,0.000000,0.000000
15743232.000000,-16.244873,-31.357943,-13.251451,2202650112.000000,159.529999,198.800003,-337.329987,0.000000,0.000000
15763200.000000,-22.219751,-18.680767,-4.764110,2202670080.000000,168.419998,214.899994,-475.160004,0.000000,0.000000
15783168.000000,-15.897913,-14.756538,0.832702,2202690048.000000,92.820000,207.410004,-443.450012,0.000000,0.000000
15804160.000000,-15.029318,-10.552348,2.225325,2202710016.000000,24.710001,268.309998,-331.450012,0.000000,0.000000
15823104.000000,-15.617953,-3.742374,0.600598,2202731008.000000,108.150002,264.250000,-285.320007,0.000000,0.000000
15843072.000000,-15.239887,2.244468,-0.545564,2202749952.000000,213.919998,219.520004,-232.190002,0.000000,0.000000
15863296.000000,-16.421942,6.726225,-2.799603,2202769920.000000,248.779999,173.529999,-166.320007,0.000000,0.000000
15883264.000000,-17.788242,9.310472,-4.393222,2202790144.000000,215.529999,161.139999,-116.620003,0.000000,0.000000
15904000.000000,-16.177874,9.061620,-2.991028,2202810112.000000,119.070000,129.080002,-100.379997,0.000000,0.000000
15923200.000000,-14.490934,8.611769,-1.414158,2202830848.000000,29.820000,85.120003,-81.059998,0.000000,0.000000
15943168.000000,-11.925828,8.633304,-2.557927,2202850048.000000,-36.680000,41.090000,-23.100000,0.000000,0.000000
15963136.000000,-10.880164,8.329416,-5.060820,2202870016.000000,-67.550003,2.240000,72.239998,0.000000,0.000000
15983104.000000,-11.478370,4.551149,-6.290731,2202889984.000000,-117.809998,-33.250000,154.350006,0.000000,0.000000
16004096.000000,-12.088539,0.502493,-1.397408,2202909952.000000,-209.649994,-64.540001,218.050003,0.000000,0.000000
16023040.000000,-13.727623,-9.190832,-5.029713,2202930944.000000,-289.589996,-161.070007,292.809998,0.000000,0.000000
16043008.000000,-27.058041,-42.271603,-13.093525,2202949888.000000,-287.559998,-250.180008,362.459991,0.000000,0.000000
16062976.000000,-7.319644,-54.506111,-14.782858,2202969856.000000,-229.180008,-345.100006,392.420013,0.000000,0.000000
16082944.000000,-3.806981,-48.873405,-16.027126,2202989824.000000,-239.119995,-330.329987,485.660004,0.000000,0.000000
16103936.000000,-0.648455,-42.640099,-9.236296,2203009792.000000,-215.180008,-280.350006,423.290009,0.000000,0.000000
16123136.000000,5.032106,-35.006996,-0.088534,2203030784.000000,-253.750000,-199.220001,324.029999,2263199488.000000,1009.643311
16143104.000000,7.432107,-25.375883,0.997807,2203049984.000000,-203.839996,-130.550003,283.920013,0.000000,0.000000
16163072.000000,7.372287,-16.622938,-0.382852,2203069952.000000,-15.820000,-102.900002,207.830002,0.000000,0.000000
16183040.000000,7.913064,-10.315458,-0.459422,2203089920.000000,117.180000,-92.750000,142.520004,0.000000,0.000000
16204032.000000,11.131411,-6.692725,0.392423,2203109888.000000,132.229996,-119.070000,97.930000,0.000000,0.000000
16222976.000000,16.821545,-4.680361,4.220939,2203130880.000000,81.760002,-159.949997,81.620003,0.000000,0.000000
16242944.000000,14.321043,-5.347959,4.630112,2203149824.000000,9.870000,-176.539993,60.900002,0.000000,0.000000
16262912.000000,11.770294,-5.146961,3.486342,2203169792.000000,0.140000,-90.370003,-2.310000,0.000000,0.000000
16282880.000000,16.646868,-3.187240,1.526621,2203189760.000000,7.420000,-78.120003,-81.129997,0.000000,0.000000
16305920.000000,18.192631,-1.330409,-1.512264,2203209728.000000,24.219999,-138.949997,-119.840004,0.000000,0.000000
16322816.000000,13.445271,-4.378866,-3.962514,2203232512.000000,3.570000,-100.309998,-156.240005,0.000000,0.000000
16343040.000000,12.323036,-13.739587,-6.230910,2203249664.000000,-76.790001,11.760000,-186.479996,0.000000,0.000000
16363008.000000,13.878372,-38.931225,-9.724431,2203269632.000000,-184.029999,79.519997,-206.080002,0.000000,0.000000
16382976.000000,2.431108,-57.291355,-9.489935,2203289856.000000,-157.149994,221.759995,-260.750000,0.000000,0.000000
16403712.000000,-3.809374,-48.698727,-14.210974,2203309824.000000,-42.279999,314.579987,-376.110016,0.000000,0.000000
16422912.000000,-7.226324,-38.933617,-11.533404,2203330560.000000,172.479996,291.410004,-451.080017,0.000000,0.000000
16442880.000000,-12.320643,-26.234907,-7.214360,2203349760.000000,146.160004,235.619995,-455.209991,0.000000,0.000000
16462848.000000,-15.854843,-20.449064,-1.902294,2203369728.000000,97.860001,218.610001,-432.880005,0.000000,0.000000
16482816.000000,-14.691931,-15.462420,3.400201,2203389696.000000,39.340000,173.669998,-388.779999,0.000000,0.000000
16503808.000000,-12.629318,-8.331808,2.715853,2203409664.000000,9.590000,217.419998,-281.890015,0.000000,0.000000
16522752.000000,-9.705289,-1.622334,0.236889,2203430656.000000,96.739998,211.470001,-202.229996,0.000000,0.000000
16542720.000000,-10.992627,4.079762,0.622134,2203449600.000000,168.979996,178.220001,-124.389999,0.000000,0.000000
16562688.000000,-15.330814,7.652246,-0.366102,2203469568.000000,175.139999,148.399994,-77.419998,0.000000,0.000000
16582912.000000,-15.543776,7.207181,-3.608376,2203489536.000000,123.129997,121.309998,-40.529999,0.000000,0.000000
16603648.000000,-11.674582,6.905686,-4.666004,2203509504.000000,54.110001,62.790001,-5.810000,0.000000,0.000000
16622848.000000,-10.384850,7.523034,-5.426922,2203530496.000000,4.270000,-15.120000,50.540001,0.000000,0.000000
16642816.000000,-11.243874,5.888737,-5.108676,2203549696.000000,-69.090004,-27.090000,104.019997,0.000000,0.000000
16662784.000000,-10.152746,2.433501,-4.144369,2203569664.000000,-127.260002,-28.700001,143.500000,0.000000,0.000000
16682752.000000,-9.573684,0.375673,-2.388037,2203589632.000000,-120.540001,-80.290001,205.520004,0.000000,0.000000
16703744.000000,-10.521241,-4.168297,-0.665205,2203609600.000000,-103.739998,-96.529999,293.369995,0.000000,0.000000
16722688.000000,-26.234907,-26.009983,-6.206983,2203630336.000000,-92.959999,-86.029999,339.149994,0.000000,0.000000
16742656.000000,-16.204195,-56.049477,-5.010571,2203649536.000000,-122.849998,-79.099998,373.519989,0.000000,0.000000
16762624.000000,-8.128418,-54.092152,-6.924829,2203669504.000000,-196.630005,-158.199997,362.670013,0.000000,0.000000
16782592.000000,-11.081161,-48.753761,-3.795017,2203689472.000000,-329.769989,-87.080002,473.130005,0.000000,0.000000
16803584.000000,0.727418,-36.490543,5.257031,2203709440.000000,-328.019989,-116.059998,337.399994,0.000000,0.000000
16822528.000000,2.146362,-30.900911,4.450650,2203730432.000000,-307.510010,-66.010002,317.029999,0.000000,0.000000
16842752.000000,2.825923,-21.540190,2.251646,2203749376.000000,-110.180000,-27.860001,295.190002,0.000000,0.000000
16862720.000000,3.125026,-14.416756,1.684547,2203769344.000000,52.849998,-41.580002,230.229996,0.000000,0.000000
16882688.000000,5.111069,-10.401600,1.617548,2203789568.000000,72.519997,-75.669998,181.020004,0.000000,0.000000
16903424.000000,10.980663,-9.291330,1.191626,2203830272.000000,14.350000,-266.209991,166.529999,0.000000,0.000000
16922624.000000,28.756943,-7.771888,5.833702,2203849472.000000,-7.490000,-300.510010,151.130005,0.000000,0.000000
16942592.000000,19.470398,-5.199604,3.864408,0.000000,0.000000,0.000000,0.000000,0.000000,0.000000
16962560.000000,18.783657,-6.711867,-0.832702,2203869440.000000,55.510002,-117.459999,24.710001,0.000000,0.000000
16982528.000000,24.464220,-4.955536,-0.727418,2203889408.000000,67.620003,-92.050003,-36.259998,0.000000,0.000000
17003520.000000,15.290136,-7.972885,0.440279,2203909376.000000,-8.050000,-107.169998,-90.650002,0.000000,0.000000
17022464.000000,14.390435,-22.516460,-0.744168,2203930368.000000,-69.580002,42.910000,-150.220001,0.000000,0.000000
17042432.000000,8.410772,-40.965126,-12.358929,2203949312.000000,-27.299999,109.970001,-172.130005,0.000000,0.000000
17062400.000000,-0.981057,-45.731628,-11.576476,2203969280.000000,95.410004,186.199997,-335.369995,0.000000,0.000000
17082624.000000,-8.219346,-54.573105,-7.355537,2203989248.000000,24.010000,237.300003,-440.369995,0.000000,0.000000
17103360.000000,-11.787045,-41.537010,-8.487342,2204030208.000000,155.820007,99.820000,-514.429993,2264198912.000000,1009.640381
17122560.000000,-11.093125,-29.929426,-8.085347,0.000000,0.000000,0.000000,0.000000,0.000000,0.000000
17142528.000000,-16.919647,-24.653254,-3.349952,2204049408.000000,145.180008,92.400002,-464.519989,0.000000,0.000000
17162496.000000,-19.133011,-19.503897,0.196211,2204069376.000000,41.509998,70.769997,-461.860016,0.000000,0.000000
17182464.000000,-15.053247,-10.269995,-0.832702,2204089344.000000,5.740000,94.709999,-350.070007,0.000000,0.000000
17203456.000000,-13.464413,-4.223332,1.129412,2204109312.000000,18.969999,147.979996,-242.479996,0.000000,0.000000
17222400.000000,-14.914464,1.055235,3.479164,2204130304.000000,20.020000,165.899994,-202.580002,0.000000,0.000000
17242368.000000,-16.680367,3.617948,3.101098,2204149248.000000,26.180000,180.320007,-142.100006,0.000000,0.000000
17262336.000000,-14.333008,6.269196,-0.031107,2204169216.000000,103.320000,185.220001,-71.050003,0.000000,0.000000
17282304.000000,-12.760924,9.468399,-3.017349,2204189184.000000,184.380005,160.160004,-5.460000,0.000000,0.000000
17305344.000000,-10.937593,11.181661,-1.775474,2204209152.000000,183.889999,108.150002,46.480000,0.000000,0.000000
17322496.000000,-9.348758,7.515855,1.131805,2204232192.000000,63.840000,64.190002,88.550003,0.000000,0.000000
17342464.000000,-9.595219,3.208775,-0.035892,2204249088.000000,-46.270000,40.740002,125.230003,0.000000,0.000000
17362432.000000,-9.812965,1.978864,-1.378266,2204269312.000000,-22.540001,19.250000,176.050003,0.000000,0.000000
17382400.000000,-11.215159,-1.033699,0.385244,2204289280.000000,21.910000,7.350000,295.190002,0.000000,0.000000
17403136.000000,-14.335401,-16.443478,7.546963,2204309248.000000,38.570000,8.610000,392.350006,0.000000,0.000000
17422336.000000,-18.075382,-32.166714,7.740781,2204329984.000000,65.379997,39.270000,433.510010,0.000000,0.000000
17442304.000000,-21.056837,-29.943783,8.738588,2204349184.000000,27.230000,160.369995,544.880005,0.000000,0.000000
17462272.000000,-26.979076,-34.777287,10.861022,2204369152.000000,136.919998,125.650002,572.880005,0.000000,0.000000
17482240.000000,-13.617554,-35.504700,11.521441,2204389120.000000,16.240000,54.180000,350.140015,0.000000,0.000000
17503232.000000,-3.182454,-35.471203,15.718451,2204409088.000000,-440.580017,54.459999,281.329987,0.000000,0.000000
17522176.000000,-0.772882,-23.595625,13.746766,2204430080.000000,-512.890015,11.830000,172.059998,0.000000,0.000000
17542144.000000,0.533599,-16.646868,10.561919,2204449024.000000,-271.880005,-15.330000,164.149994,0.000000,0.000000
17562368.000000,1.663012,-11.456835,4.474578,2204468992.000000,-65.309998,-46.689999,156.380005,0.000000,0.000000
17582336.000000,3.876373,-8.015956,1.146162,2204488960.000000,40.529999,-114.239998,143.639999,0.000000,0.000000
17603072.000000,8.609376,-6.563512,2.335395,2204508928.000000,11.410000,-217.000000,135.520004,0.000000,0.000000
17622272.000000,19.367506,-7.164111,5.087141,2204529920.000000,-56.070000,-314.510010,151.270004,0.000000,0.000000
17642240.000000,17.706886,-4.520042,4.000800,2204549120.000000,-76.300003,-271.179993,204.610001,0.000000,0.000000
17662208.000000,13.986048,-3.266203,-0.404387,2204569088.000000,-48.160000,-138.460007,113.820000,0.000000,0.000000
17682176.000000,20.470596,-2.847459,0.378066,2204589056.000000,11.480000,-96.180000,-19.180000,0.000000,0.000000
17703168.000000,18.278772,-4.828716,3.287738,2204609024.000000,-30.309999,-140.839996,-41.020000,0.000000,0.000000
17722112.000000,12.985848,-11.052447,4.709075,2204630016.000000,-72.309998,-81.830002,-110.389999,0.000000,0.000000
17742080.000000,11.662617,-22.710279,2.928815,2204648960.000000,-47.110001,-39.759998,-184.589996,0.000000,0.000000
17762048.000000,5.125426,-52.311890,3.440879,2204668928.000000,-12.390000,-13.230000,-230.580002,0.000000,0.000000
17782016.000000,-1.390230,-58.045090,3.261417,2204688896.000000,-85.820000,48.790001,-351.190002,0.000000,0.000000
17803008.000000,-6.187840,-48.748978,2.790031,2204708864.000000,-165.199997,150.779999,-417.339996,0.000000,0.000000
17822208.000000,-26.761328,-37.043285,-1.081556,2204729856.000000,-65.730003,212.589996,-496.580017,0.000000,0.000000
17842176.000000,-8.776874,-22.652851,-0.320638,2204748800.000000,56.420002,132.649994,-573.580017,0.000000,0.000000
17862144.000000,-18.683159,-25.387848,2.749353,2204769024.000000,70.769997,28.559999,-480.899994,0.000000,0.000000
17882112.000000,-15.553347,-17.041683,1.911865,2204788992.000000,4.760000,68.949997,-493.429993,0.000000,0.000000
17902848.000000,-15.555739,-8.997013,1.804188,2204808960.000000,47.810001,126.910004,-367.850006,0.000000,0.000000
17922048.000000,-17.474783,-3.838088,3.127419,2204829696.000000,63.070000,162.539993,-320.529999,0.000000,0.000000
17942016.000000,-18.022739,1.057628,2.665605,2204848896.000000,49.139999,171.080002,-282.239990,0.000000,0.000000
17961984.000000,-15.177674,6.264410,0.705883,2204868864.000000,85.050003,154.979996,-206.500000,0.000000,0.000000
17981952.000000,-12.088539,8.997013,0.033500,2204888832.000000,139.300003,139.229996,-126.209999,0.000000,0.000000
18002944.000000,-11.700903,8.863015,-2.199004,2204908800.000000,136.500000,100.029999,-64.470001,0.000000,0.000000
18021888.000000,-11.152946,8.590233,-5.106283,2204929792.000000,86.940002,71.050003,-10.990000,0.000000,0.000000
18042112.000000,-8.417950,7.714460,-6.587440,2204948736.000000,31.430000,38.009998,59.150002,0.000000,0.000000
18062080.000000,-7.166504,5.096712,-4.584648,2204968704.000000,-39.130001,5.670000,145.250000,0.000000,0.000000
18082048.000000,-8.334201,3.227918,-4.723432,2204988672.000000,-133.279999,-8.190000,224.699997,0.000000,0.000000
18102784.000000,-12.528819,1.540978,-3.113062,2205008896.000000,-182.070007,25.549999,305.760010,0.000000,0.000000
18121984.000000,-16.828722,-9.573684,5.687739,2205029632.000000,-175.559998,51.029999,372.540009,2265198336.000000,1009.640747
18141952.000000,-26.897718,-37.241890,3.471986,2205048832.000000,-173.320007,14.770000,389.690002,0.000000,0.000000
18161920.000000,-18.872192,-58.593048,1.674976,2205068800.000000,-300.510010,44.799999,417.410004,0.000000,0.000000
18181888.000000,-13.289737,-46.808395,0.165105,2205088768.000000,-375.410004,37.380001,446.600006,0.000000,0.000000
18202880.000000,-2.895315,-37.380676,3.905087,2205108736.000000,-366.940002,-49.349998,317.799988,0.000000,0.000000
18221824.000000,1.191626,-30.891342,9.073583,2205129728.000000,-446.110016,-49.070000,240.869995,0.000000,0.000000
18241792.000000,1.801795,-23.952154,7.417750,2205148672.000000,-392.350006,-25.480000,217.139999,0.000000,0.000000
18261760.000000,1.548156,-16.232908,2.766103,2205168640.000000,-150.500000,-38.080002,183.820007,0.000000,0.000000
18281984.000000,2.541178,-10.521241,0.607777,2205188608.000000,34.090000,-88.900002,131.529999,0.000000,0.000000
18304768.000000,5.094319,-6.941578,-0.043071,2205208576.000000,67.129997,-165.550003,111.580002,0.000000,0.000000
18321920.000000,10.542776,-5.974878,1.359123,2205231616.000000,14.280000,-234.990005,111.020004,0.000000,0.000000
18341888.000000,21.152552,-5.907879,4.108476,2205248768.000000,-57.260002,-297.500000,110.389999,0.000000,0.000000
18361856.000000,18.204596,-5.960521,-0.162712,2205268736.000000,-87.989998,-242.410004,98.629997,0.000000,0.000000
18381824.000000,18.053846,-7.771888,-0.631705,2205288704.000000,-65.590004,-108.220001,-0.560000,0.000000,0.000000
18402816.000000,22.042683,-14.227723,3.364309,2205308672.000000,-134.399994,-66.290001,-75.040001,0.000000,0.000000
18421760.000000,17.594425,-21.513868,-4.603791,2205329408.000000,-186.550003,-27.719999,-106.750000,0.000000,0.000000
18441728.000000,13.976478,-26.869005,-9.994821,2205348608.000000,-51.590000,54.459999,-248.430008,0.000000,0.000000
18461696.000000,10.023535,-31.204802,-5.955735,2205368576.000000,-2.310000,119.000000,-406.559998,0.000000,0.000000
18481664.000000,4.393222,-38.151165,-5.630312,2205388544.000000,-55.160000,215.180008,-508.899994,0.000000,0.000000
18502656.000000,1.627119,-39.751965,-6.608976,2205408512.000000,18.620001,289.730011,-611.729980,0.000000,0.000000
18521856.000000,0.133998,-33.698120,-7.161718,2205429504.000000,130.339996,288.470001,-567.140015,0.000000,0.000000
18541824.000000,-2.579463,-30.738199,-3.098706,2205448448.000000,157.430008,235.410004,-508.690002,0.000000,0.000000
18561792.000000,-15.029318,-29.249863,0.504886,2205468416.000000,48.369999,216.509995,-453.600006,0.000000,0.000000
18581760.000000,-14.309079,-17.639889,-0.600598,2205488640.000000,1.330000,281.119995,-405.160004,0.000000,0.000000
18602496.000000,-5.919843,-8.379664,1.117448,2205508608.000000,126.489998,143.220001,-333.690002,0.000000,0.000000
18621696.000000,-11.203196,-4.711468,1.550549,2205529344.000000,155.119995,184.100006,-168.910004,0.000000,0.000000
18641664.000000,-14.029119,-0.732204,0.990629,2205548544.000000,147.279999,157.289993,-200.130005,0.000000,0.000000
18661632.000000,-14.261222,2.892922,-0.772882,2205568512.000000,137.759995,162.820007,-167.229996,0.000000,0.000000
18681600.000000,-15.811772,5.340781,-4.165904,2205588480.000000,136.639999,120.889999,-66.639999,0.000000,0.000000
18702592.000000,-14.038691,7.116255,-6.752545,2205608448.000000,139.649994,62.510002,-19.740000,0.000000,0.000000
18721536.000000,-12.093326,7.508677,-6.388836,2205629440.000000,88.550003,10.640000,30.100000,0.000000,0.000000
18741760.000000,-9.245867,5.788238,-3.921836,2205648384.000000,-47.180000,-6.860000,87.430000,0.000000,0.000000
18761472.000000,-8.554340,2.938386,-2.543570,2205668352.000000,-161.490005,-30.100000,121.379997,0.000000,0.000000
18781696.000000,-9.276974,0.799203,-2.624927,2205688320.000000,-186.550003,-41.160000,175.210007,0.000000,0.000000
18802432.000000,-8.776874,1.124627,-2.431108,2205708288.000000,-132.649994,-58.170002,276.850006,0.000000,0.000000
18821632.000000,-13.024135,-2.976671,-3.043670,2205729280.000000,-76.230003,-68.879997,392.630005,0.000000,0.000000
18841600.000000,-31.410583,-24.672394,-10.095319,2205748480.000000,-80.849998,-53.200001,469.070007,0.000000,0.000000
18861568.000000,-26.175087,-67.353172,-15.014962,2205768448.000000,-229.880005,-96.459999,487.549988,0.000000,0.000000
18881536.000000,-10.511670,-69.032936,-11.160125,2205788416.000000,-434.350006,-168.419998,556.570007,0.000000,0.000000
18902528.000000,-5.484349,-55.226345,-1.806581,2205808384.000000,-539.979980,-191.800003,494.899994,0.000000,0.000000
18921472.000000,2.617748,-39.457645,2.852244,2205829120.000000,-445.619995,-196.770004,325.779999,0.000000,0.000000
18941440.000000,4.108476,-26.411974,-2.148755,2205848320.000000,-218.680008,-118.720001,320.040009,0.000000,0.000000
18961408.000000,5.228317,-16.342978,-5.154140,2205868288.000000,5.320000,-134.190002,246.330002,0.000000,0.000000
18981376.000000,8.561519,-10.710274,-2.727818,2205888256.000000,32.480000,-184.869995,188.789993,0.000000,0.000000
19002368.000000,18.821943,-10.528419,-0.748954,2205908224.000000,-53.689999,-256.549988,160.160004,0.000000,0.000000
19021568.000000,26.679974,-7.104291,-2.725425,2205929216.000000,-81.830002,-317.380005,144.199997,0.000000,0.000000
19041536.000000,21.262623,-2.658426,-5.029713,2205948160.000000,14.980000,-257.390015,75.809998,0.000000,0.000000
19061504.000000,25.962126,-3.696911,-7.434500,2205968128.000000,76.720001,-138.110001,-16.520000,0.000000,0.000000
19081472.000000,23.961727,-4.728218,-6.037091,2205988352.000000,54.040001,-140.070007,-30.730000,0.000000,0.000000
19102208.000000,18.649660,-7.362715,-4.651647,2206008320.000000,-41.299999,-38.150002,-94.290001,0.000000,0.000000
19121408.000000,15.900306,-12.296716,-8.142776,2206029056.000000,-73.919998,72.800003,-130.899994,2266197760.000000,1009.642517
19141376.000000,10.947165,-22.535603,-13.265808,2206048256.000000,-15.610000,143.149994,-171.570007,0.000000,0.000000
19161344.000000,4.398008,-43.738407,-18.642481,2206068224.000000,28.770000,268.029999,-255.220001,0.000000,0.000000
19181312.000000,-3.110669,-55.597229,-12.346965,2206088192.000000,-76.440002,419.860016,-342.230011,0.000000,0.000000
19202304.000000,-6.037091,-57.360741,-15.823736,2206108160.000000,-80.430000,409.360016,-433.580017,0.000000,0.000000
19221248.000000,-12.660425,-51.333225,-13.782660,2206129152.000000,172.970001,306.529999,-430.570007,0.000000,0.000000
19241216.000000,-20.791235,-36.741795,-10.772489,2206148096.000000,199.220001,286.510010,-443.869995,0.000000,0.000000
19261440.000000,-25.009785,-23.038095,-5.757132,2206168064.000000,186.550003,248.570007,-444.290009,0.000000,0.000000
19281408.000000,-19.436897,-10.478169,-1.186840,2206188032.000000,145.740005,230.720001,-394.170013,0.000000,0.000000
19304192.000000,-15.254245,-3.349952,1.294517,2206208000.000000,66.989998,252.910004,-291.269989,0.000000,0.000000
19321344.000000,-15.002998,2.998207,0.480957,2206231040.000000,69.720001,235.899994,-239.119995,0.000000,0.000000
19341312.000000,-15.739986,7.970492,-1.416551,2206248192.000000,121.449997,194.180008,-170.940002,0.000000,0.000000
19361280.000000,-14.780465,11.196017,-2.876173,2206268160.000000,174.089996,171.149994,-92.750000,0.000000,0.000000
19381248.000000,-12.294323,10.817951,-3.156133,2206288128.000000,140.419998,127.260002,-34.020000,0.000000,0.000000
19402240.000000,-10.526026,8.992228,-4.395615,2206308096.000000,67.900002,66.500000,1.190000,0.000000,0.000000
19421184.000000,-10.432706,7.566105,-5.508278,2206329088.000000,-5.740000,7.630000,48.299999,0.000000,0.000000
19441152.000000,-9.200402,5.091926,-5.824130,2206348032.000000,-70.000000,-15.260000,130.339996,0.000000,0.000000
19461120.000000,-8.851050,2.328217,-5.211568,2206368000.000000,-112.349998,-41.369999,215.040009,0.000000,0.000000
19481088.000000,-10.140782,-0.930808,-4.768896,2206387968.000000,-129.360001,-75.669998,286.230011,0.000000,0.000000
19502080.000000,-13.572090,-11.133803,-2.979064,2206407936.000000,-119.349998,-91.840004,346.570007,0.000000,0.000000
19521280.000000,-20.398813,-39.148972,-7.664211,2206428928.000000,-146.229996,-111.510002,387.029999,0.000000,0.000000
19541248.000000,-13.191631,-55.843697,-5.675776,2206447872.000000,-278.250000,-133.630005,398.720001,0.000000,0.000000
19561216.000000,-16.744972,-53.647083,-5.206782,2206468096.000000,-358.260010,-152.320007,435.190002,0.000000,0.000000
19581184.000000,-2.134398,-41.532223,0.315853,2206488064.000000,-266.839996,-202.580002,336.769989,0.000000,0.000000
19601920.000000,2.766103,-29.374289,5.300103,2206508032.000000,-241.570007,-130.970001,316.750000,0.000000,0.000000
19621120.000000,3.170490,-22.789242,0.210568,2206528768.000000,-132.229996,-91.279999,262.429993,0.000000,0.000000
19641088.000000,4.345366,-16.175482,0.492921,2206547968.000000,21.770000,-108.639999,222.809998,0.000000,0.000000
19661056.000000,7.977671,-13.146168,3.653840,2206567936.000000,36.330002,-163.309998,181.369995,0.000000,0.000000
19681024.000000,12.887742,-11.332408,-0.177069,2206587904.000000,-24.500000,-231.490005,158.270004,0.000000,0.000000
19702016.000000,28.311876,-5.632704,0.476172,2206607872.000000,60.060001,-313.110016,115.360001,0.000000,0.000000
19720960.000000,17.644674,-1.390230,1.296910,2206628864.000000,97.300003,-308.070007,105.699997,0.000000,0.000000
19741184.000000,14.390435,-3.773481,1.174876,2206647808.000000,84.349998,-96.389999,-13.440001,0.000000,0.000000
19761152.000000,19.599611,-5.991628,0.145962,2206668032.000000,38.779999,-40.320000,-49.139999,0.000000,0.000000
19781120.000000,15.428921,-5.450850,0.267996,2206687744.000000,21.139999,-89.669998,-91.840004,0.000000,0.000000
19801856.000000,13.646267,-14.294723,2.517249,2206707968.000000,-32.549999,2.240000,-174.300003,0.000000,0.000000
19821056.000000,13.596018,-39.701714,-2.141576,2206728704.000000,-133.210007,80.290001,-216.089996,0.000000,0.000000
19841024.000000,4.235296,-47.665024,-7.750352,2206747904.000000,-80.779999,119.980003,-314.579987,0.000000,0.000000
19861248.000000,1.423729,-54.197430,-9.293723,2206767872.000000,51.730000,202.649994,-468.649994,0.000000,0.000000
19880960.000000,-2.967100,-48.708298,-7.709675,2206788096.000000,78.750000,223.790009,-459.549988,0.000000,0.000000
19901952.000000,-9.511470,-35.172100,-6.580262,2206807808.000000,87.779999,219.869995,-514.220032,0.000000,0.000000
19920896.000000,-22.248463,-27.644279,-3.744767,2206828800.000000,117.180000,237.160004,-505.190002,0.000000,0.000000
19940864.000000,-14.782858,-16.271194,-0.866202,2206847744.000000,140.979996,136.710007,-479.709991,0.000000,0.000000
19960832.000000,-15.799807,-8.149954,-0.993021,2206867712.000000,109.059998,145.320007,-333.480011,0.000000,0.000000
19981056.000000,-15.783059,-1.507478,-1.050449,2206887680.000000,91.349998,139.860001,-299.880005,0.000000,0.000000
20001792.000000,-18.589838,5.103891,-1.418944,2206907648.000000,122.849998,149.869995,-239.680008,0.000000,0.000000
20020992.000000,-17.560926,9.310472,-1.361516,2206928640.000000,136.919998,154.699997,-158.270004,0.000000,0.000000
20040960.000000,-16.158731,9.475577,-3.778267,2206947840.000000,144.339996,156.800003,-97.160004,0.000000,0.000000
20060928.000000,-14.632111,9.291330,-5.386244,2206967808.000000,126.419998,137.059998,-57.610001,0.000000,0.000000
20080896.000000,-13.234701,8.623734,-5.472386,2206987776.000000,87.639999,50.470001,30.870001,0.000000,0.000000
20101888.000000,-12.789637,4.211368,-5.491528,2207007744.000000,-18.200001,-16.100000,126.209999,0.000000,0.000000
20120832.000000,-10.494920,1.586441,-4.331009,2207028480.000000,-154.979996,-30.030001,209.930008,2267197184.000000,1009.643921
20140800.000000,-11.420943,-2.739782,-3.416951,2207047680.000000,-245.490005,-53.410000,285.459991,0.000000,0.000000
20160768.000000,-17.249859,-16.022341,-3.218346,2207067648.000000,-232.330002,-85.260002,322.420013,0.000000,0.000000
20180736.000000,-15.359529,-37.103107,-6.269196,2207087616.000000,-186.130005,-152.039993,354.970001,0.000000,0.000000
20201728.000000,-14.778071,-53.883972,-5.170890,2207107584.000000,-237.790009,-150.430008,467.390015,0.000000,0.000000
20220672.000000,-11.775080,-51.754364,-3.866802,2207128576.000000,-305.690002,-166.460007,460.320007,0.000000,0.000000
20240896.000000,-3.146562,-43.798225,0.363709,2207147520.000000,-286.369995,-179.270004,419.160004,0.000000,0.000000
20260864.000000,2.742175,-36.866219,4.398008,2207167488.000000,-244.229996,-138.529999,383.040009,0.000000,0.000000
20280832.000000,4.630112,-27.215965,2.921637,2207187712.000000,-161.910004,-107.590004,338.519989,0.000000,0.000000
20303616.000000,5.264209,-19.142582,2.005185,2207207680.000000,-42.910000,-118.020004,262.779999,0.000000,0.000000
20320768.000000,8.059027,-13.371094,1.246661,2207230464.000000,19.040001,-148.820007,197.610001,0.000000,0.000000
20340736.000000,11.119448,-9.418150,-0.870987,2207247616.000000,28.210001,-202.649994,177.029999,0.000000,0.000000
20360704.000000,16.800009,-5.012963,-1.734797,2207267584.000000,32.900002,-270.829987,129.570007,0.000000,0.000000
20380672.000000,16.462620,-2.294717,0.040678,2207287552.000000,20.650000,-271.950012,81.199997,0.000000,0.000000
20401664.000000,15.780666,-4.709075,-1.880759,2207307520.000000,-18.059999,-183.190002,54.250000,0.000000,0.000000
20420608.000000,21.556938,-5.041678,-5.627919,2207328512.000000,-33.040001,-144.339996,14.210000,0.000000,0.000000
20440576.000000,20.405991,-5.046463,-1.373480,2207347456.000000,-16.940001,-171.430008,-49.560001,0.000000,0.000000
20460544.000000,17.462820,-13.883157,2.502892,2207367424.000000,-56.209999,-54.110001,-122.010002,0.000000,0.000000
20480768.000000,15.084354,-29.716463,-5.008178,2207387392.000000,-70.279999,75.739998,-167.720001,0.000000,0.000000
20501504.000000,8.166703,-39.637108,-7.893922,2207407360.000000,54.670002,140.770004,-294.209991,0.000000,0.000000
20520704.000000,4.381258,-51.799820,-4.675575,2207428352.000000,76.790001,208.039993,-435.750000,0.000000,0.000000
20540672.000000,-0.222532,-53.441303,-1.416551,2207447552.000000,-46.689999,238.490005,-456.330017,0.000000,0.000000
20560640.000000,-9.037691,-41.187656,-4.709075,2207467520.000000,-4.480000,236.320007,-511.420013,0.000000,0.000000
20580608.000000,-11.722438,-31.408192,-0.023928,2207487488.000000,87.989998,217.210007,-538.580017,0.000000,0.000000
20601600.000000,-18.479769,-25.483562,4.721039,2207507456.000000,157.990005,153.020004,-547.049988,0.000000,0.000000
20620544.000000,-17.075182,-19.635502,0.574277,2207528192.000000,112.209999,104.510002,-494.339996,0.000000,0.000000
20640512.000000,-15.723237,-8.523234,-0.614955,2207547392.000000,127.820000,101.080002,-422.170013,0.000000,0.000000
20660480.000000,-16.249659,-0.169890,-1.136591,2207567360.000000,105.559998,80.360001,-318.570007,0.000000,0.000000
20680448.000000,-18.924833,5.673382,1.067199,2207587328.000000,10.640000,56.070000,-254.800003,0.000000,0.000000
20701440.000000,-17.051254,5.733203,0.354138,2207607296.000000,-77.349998,48.720001,-183.750000,0.000000,0.000000
20720640.000000,-15.129817,6.965507,-2.699104,2207628288.000000,-48.020000,31.639999,-93.169998,0.000000,0.000000
20740608.000000,-14.311473,8.949157,-3.543770,2207647232.000000,21.210001,10.920000,-16.379999,0.000000,0.000000
20760576.000000,-14.464613,7.300502,-3.996014,2207667456.000000,-5.040000,4.340000,55.720001,0.000000,0.000000
20780544.000000,-12.610175,3.795017,-3.553342,2207687424.000000,-41.509998,7.490000,122.010002,0.000000,0.000000
20801280.000000,-12.000006,1.911865,-3.000600,2207707392.000000,-46.689999,8.120000,204.330002,0.000000,0.000000
20820480.000000,-14.134403,-1.792224,-2.043471,2207728128.000000,-33.389999,28.559999,287.630005,0.000000,0.000000
20840448.000000,-15.972091,-12.598210,4.125226,2207747328.000000,-34.580002,43.189999,344.750000,0.000000,0.000000