Acc_timestamp,Accx,Accy,Accz,Gyro_timestamp,Gyrox,Gyroy,Gyroz,Baro_timestamp,Pressure_Reading
65724928.000000,-3.720839,0.100499,8.630912,0.000000,0.000000,0.000000,0.000000,0.000000,0.000000
0.000000,-3.402594,0.071785,8.800802,0.000000,63.700001,-27.930000,-41.650002,0.000000,0.000000
19968.000000,-2.845066,-0.301496,8.898908,18432.000000,63.700001,-27.930000,-41.650002,0.000000,0.000000
39936.000000,-2.490928,-0.196211,8.867801,38400.000000,9.240000,12.460000,-21.629999,0.000000,0.000000
59904.000000,-2.699104,0.354138,8.812766,58368.000000,4.900000,28.070000,15.750000,0.000000,0.000000
80896.000000,-2.347359,0.569492,8.628519,78336.000000,21.910000,25.340000,23.590000,0.000000,0.000000
99840.000000,-2.337788,0.552742,8.563912,99328.000000,5.740000,22.190001,21.420000,0.000000,0.000000
119808.000000,-2.455036,0.677169,8.523234,118272.000000,-12.180000,21.770000,21.490000,0.000000,0.000000
140032.000000,-2.572284,0.794417,8.382057,138240.000000,-15.960000,22.049999,24.920000,0.000000,0.000000
160000.000000,-2.809174,0.923629,8.288737,158464.000000,-16.240000,23.240000,27.370001,0.000000,0.000000
182784.000000,-3.235096,0.674776,8.472985,178432.000000,-17.360001,26.809999,31.920000,0.000000,0.000000
199936.000000,-3.483950,0.634098,8.642875,201216.000000,-16.520000,30.450001,34.509998,0.000000,0.000000
219904.000000,-3.474378,0.863809,8.609376,218368.000000,-12.950000,32.200001,33.389999,0.000000,0.000000
239872.000000,-3.337988,1.150948,8.461020,238336.000000,-9.310000,32.830002,30.870001,0.000000,0.000000
259840.000000,-3.136991,1.258625,8.142776,258304.000000,-14.350000,33.880001,27.299999,0.000000,0.000000
280832.000000,-2.991028,1.414158,7.534998,278272.000000,-26.600000,36.049999,25.129999,0.000000,0.000000
299776.000000,-2.940779,1.256232,7.223931,299264.000000,-40.880001,40.320000,26.950001,0.000000,0.000000
319744.000000,-3.780660,0.909273,7.460821,318208.000000,-52.990002,47.040001,32.830002,0.000000,0.000000
339712.000000,-4.357330,0.993021,6.920043,338176.000000,-62.160000,62.369999,44.939999,0.000000,0.000000
359680.000000,-4.900501,1.110270,6.027520,358144.000000,-76.090004,82.250000,57.260002,0.000000,0.000000
380672.000000,-5.340781,1.093520,5.223531,378112.000000,-100.730003,98.419998,61.670002,0.000000,0.000000
399872.000000,-6.008378,0.600598,4.536791,399104.000000,-134.259995,112.209999,60.689999,0.000000,0.000000
419840.000000,-6.632904,-0.378066,3.876373,418304.000000,-168.699997,126.209999,57.119999,0.000000,0.000000
439808.000000,-7.439285,-1.048056,2.715853,438272.000000,-209.440002,138.039993,56.279999,0.000000,0.000000
459776.000000,-7.834101,-2.024328,1.438086,458240.000000,-252.210007,147.559998,53.480000,0.000000,0.000000
480768.000000,-8.575876,-3.165704,1.512264,478208.000000,-291.760010,146.300003,43.259998,0.000000,0.000000
499712.000000,-9.664611,-4.512863,1.873580,499200.000000,-308.350006,142.029999,39.200001,0.000000,0.000000
519680.000000,-10.444671,-5.615955,1.579263,518144.000000,-298.480011,141.610001,48.230000,0.000000,0.000000
539648.000000,-10.983055,-6.400801,1.820938,538112.000000,-283.850006,139.930008,53.619999,0.000000,0.000000
559616.000000,-11.504691,-8.082954,2.002793,558080.000000,-282.869995,137.830002,53.410000,0.000000,0.000000
580608.000000,-11.655439,-9.994821,2.048256,578048.000000,-261.589996,131.250000,74.690002,0.000000,0.000000
599552.000000,-11.126624,-9.394222,2.306681,599040.000000,-183.820007,116.059998,101.080002,0.000000,0.000000
619776.000000,-10.748559,-8.104490,1.720440,617984.000000,-91.139999,105.209999,124.040001,0.000000,0.000000
639744.000000,-10.399208,-6.979864,1.088734,638208.000000,-16.309999,92.400002,141.399994,0.000000,0.000000
659712.000000,-10.341780,-5.546563,0.815953,658176.000000,43.189999,81.129997,146.649994,0.000000,0.000000
680448.000000,-10.430314,-4.398008,0.952343,678144.000000,69.230003,77.419998,149.940002,0.000000,0.000000
699648.000000,-10.985448,-3.814159,0.997807,698880.000000,64.889999,79.519997,146.860001,0.000000,0.000000
719616.000000,-11.423335,-3.436093,0.940379,718080.000000,42.070000,84.980003,133.979996,0.000000,0.000000
739584.000000,-11.564510,-3.687340,0.653241,738048.000000,-0.140000,86.590004,126.840004,0.000000,0.000000
759552.000000,-11.600404,-3.687340,0.296710,758016.000000,-50.540001,91.279999,114.660004,0.000000,0.000000
780544.000000,-11.590833,-3.596412,-0.193819,777984.000000,-94.080002,92.610001,98.209999,0.000000,0.000000
799488.000000,-11.327622,-3.761517,-0.753739,798976.000000,-128.169998,89.669998,87.570000,0.000000,0.000000
819456.000000,-10.779665,-3.842873,-1.208375,817920.000000,-153.229996,78.260002,66.989998,0.000000,0.000000
839424.000000,-10.293922,-3.524628,-2.024328,837888.000000,-157.080002,59.080002,42.209999,0.000000,0.000000
859648.000000,-9.982857,-2.510071,-3.440879,857856.000000,-127.680000,39.270000,24.710001,0.000000,0.000000
880384.000000,-9.638289,-1.598405,-4.242475,878080.000000,-86.519997,15.820000,8.750000,0.000000,0.000000
899584.000000,-8.944371,-0.715454,-6.206983,898816.000000,-63.840000,-10.850000,-13.650000,0.000000,0.000000
919552.000000,-7.451250,0.014357,-5.149354,918016.000000,-61.320000,-34.439999,-38.220001,0.000000,0.000000
939520.000000,-6.869793,-0.363709,-4.211368,937984.000000,-79.660004,-57.260002,-64.959999,0.000000,0.000000
959488.000000,-7.389036,-0.488136,-3.795017,957952.000000,-119.209999,-57.049999,-85.050003,0.000000,0.000000
980480.000000,-7.223931,-0.528814,-3.000600,977920.000000,-171.220001,-30.870001,-91.559998,0.000000,0.000000
999424.000000,-7.183254,-1.287339,-1.584049,998912.000000,-217.000000,-9.870000,-94.779999,3610241024.000000,1009.072815
1019392.000000,-8.377272,-0.933201,1.495514,1017856.000000,-264.179993,2.940000,-97.580002,0.000000,0.000000
1039360.000000,-6.163911,-0.028714,0.679562,1037824.000000,-337.959991,-26.320000,-67.970001,0.000000,0.000000
1059328.000000,-6.204589,-1.873580,0.062213,1057792.000000,-446.250000,-31.570000,-31.219999,0.000000,0.000000
1080320.000000,-6.695118,-5.020142,-0.311067,1077760.000000,-540.609985,-1.750000,-53.130001,0.000000,0.000000
1099520.000000,-6.623333,-5.546563,-0.129212,1098752.000000,-460.390015,14.910000,-45.430000,0.000000,0.000000
1119488.000000,-6.594619,-5.345565,-0.784846,1117952.000000,-321.160004,17.290001,-12.670000,0.000000,0.000000
1139456.000000,-7.453642,-4.589434,-1.938186,1137920.000000,-159.949997,17.360001,33.250000,0.000000,0.000000
1159424.000000,-8.312666,-3.771089,-3.517449,1157888.000000,-7.070000,21.840000,74.970001,0.000000,0.000000
1182208.000000,-8.537591,-3.419343,-4.742575,1177856.000000,101.080002,25.340000,106.820000,0.000000,0.000000
1199360.000000,-7.963314,-3.393023,-4.689932,1200640.000000,149.589996,25.549999,124.110001,0.000000,0.000000
1219328.000000,-7.018148,-3.151347,-3.797409,1217792.000000,143.990005,21.840000,120.330002,0.000000,0.000000
1239296.000000,-6.888937,-2.316252,-2.916851,1237760.000000,93.449997,15.470000,98.489998,0.000000,0.000000
1259264.000000,-7.109076,-2.797210,-2.409572,1257728.000000,12.950000,17.430000,71.050003,0.000000,0.000000
1280256.000000,-8.226524,-3.763910,-3.050849,1277696.000000,-49.349998,18.410000,44.029999,0.000000,0.000000
1299200.000000,-11.964113,-4.084548,-3.125026,1298688.000000,-102.970001,11.410000,-7.770000,0.000000,0.000000
1319168.000000,-19.747965,-8.611769,-3.866802,1317632.000000,-147.490005,21.139999,-35.139999,0.000000,0.000000
1339136.000000,-22.719851,-11.607583,-5.338387,1337600.000000,-165.619995,20.719999,-40.529999,0.000000,0.000000
1359360.000000,-17.154144,-7.862815,-5.386244,1357568.000000,-126.419998,2.940000,-86.519997,0.000000,0.000000
1380096.000000,-11.961720,-4.297509,-4.737789,1377792.000000,-52.920002,-3.640000,-89.599998,0.000000,0.000000
1399296.000000,-8.405986,-2.541178,-2.821138,1398528.000000,18.270000,-4.620000,-94.779999,0.000000,0.000000
1419264.000000,-7.142576,-2.591427,-1.033699,1417728.000000,25.480000,15.050000,-142.800003,0.000000,0.000000
1439232.000000,-9.425328,-3.584448,-0.674776,1437696.000000,8.680000,50.400002,-183.960007,0.000000,0.000000
1459200.000000,-11.377872,-3.608376,-1.856830,1457664.000000,10.920000,87.360001,-202.580002,0.000000,0.000000
1480192.000000,-11.097912,-2.720639,-3.859623,1477632.000000,45.849998,105.489998,-180.809998,0.000000,0.000000
1499136.000000,-11.310873,-1.974079,-6.364908,1498624.000000,108.779999,101.919998,-153.789993,0.000000,0.000000
1519104.000000,-10.210175,-0.330210,-9.817751,1517568.000000,161.279999,58.450001,-137.130005,0.000000,0.000000
1539072.000000,-8.365308,2.632105,-8.922836,1537536.000000,191.029999,1.680000,-124.879997,0.000000,0.000000
1559040.000000,-5.974878,3.335595,-6.309873,1557504.000000,185.850006,-45.920002,-120.050003,0.000000,0.000000
1580032.000000,-4.792823,1.718047,-3.235096,1577472.000000,154.770004,-83.230003,-124.180000,0.000000,0.000000
1599232.000000,-3.974478,-0.394816,-0.267996,1598464.000000,110.529999,-90.650002,-147.979996,0.000000,0.000000
1619200.000000,-4.259224,-1.421337,0.483350,1637632.000000,47.950001,8.750000,-101.500000,0.000000,0.000000
1639168.000000,-5.367101,-2.885744,0.143569,0.000000,0.000000,0.000000,0.000000,0.000000,0.000000
1659136.000000,-5.513064,-3.823731,-0.662812,1657600.000000,58.799999,66.360001,-52.920002,0.000000,0.000000
1679872.000000,-5.627919,-3.663411,-1.679761,1677568.000000,66.779999,80.709999,-18.900000,0.000000,0.000000
1699072.000000,-10.980663,-2.904887,-2.397608,1698304.000000,95.690002,72.239998,18.900000,0.000000,0.000000
1719040.000000,-20.006388,-4.103691,-4.314260,1717504.000000,152.320007,47.810001,66.220001,0.000000,0.000000
1739264.000000,-17.072790,-3.754339,-3.249453,1737472.000000,214.199997,10.710000,131.110001,0.000000,0.000000
1758976.000000,-15.828522,-4.957928,-3.019742,1757696.000000,219.100006,-24.780001,150.850006,0.000000,0.000000
1779968.000000,-16.074982,-5.273781,-2.955136,1777408.000000,159.600006,-24.430000,156.380005,0.000000,0.000000
1798912.000000,-16.043877,-3.833302,-3.400201,1798400.000000,96.669998,-3.500000,179.970001,0.000000,0.000000
1818880.000000,-14.294723,0.066999,-3.139383,1817344.000000,69.440002,35.770000,142.449997,0.000000,0.000000
1839104.000000,-12.772887,1.138984,-3.053242,1837312.000000,87.779999,64.400002,103.389999,0.000000,0.000000
1859072.000000,-12.588640,-0.758525,-2.311467,1857536.000000,153.020004,64.470001,68.389999,0.000000,0.000000
1879808.000000,-11.315658,-1.280160,-0.684347,1877504.000000,176.889999,57.470001,9.800000,0.000000,0.000000
1899008.000000,-8.360522,-0.122034,-0.217747,1898240.000000,157.360001,48.230000,-20.719999,0.000000,0.000000
1918976.000000,-6.422336,1.179662,-0.464208,1917440.000000,153.020004,47.740002,-9.870000,0.000000,0.000000
1938944.000000,-6.149554,1.091127,0.863809,1937408.000000,151.759995,50.470001,21.840000,0.000000,0.000000
1958912.000000,-5.450850,1.016950,1.500300,1957376.000000,120.889999,44.869999,40.180000,0.000000,0.000000
1979904.000000,-4.381258,0.521635,1.148555,1977344.000000,66.709999,20.860001,54.389999,0.000000,0.000000
1998848.000000,-4.132405,0.289532,0.940379,1998336.000000,34.020000,9.940000,79.519997,3611240704.000000,1009.086548
2018816.000000,-3.866802,-0.342174,0.531207,2037248.000000,-25.620001,2.170000,89.809998,0.000000,0.000000
2038784.000000,-3.586841,-1.174876,0.023928,0.000000,0.000000,0.000000,0.000000,0.000000,0.000000
2058752.000000,-4.536791,-1.127020,1.320838,2057216.000000,-80.779999,-1.120000,89.529999,0.000000,0.000000
2079744.000000,-4.764110,-1.801795,0.485743,2077184.000000,-143.570007,-2.940000,79.169998,0.000000,0.000000
2098944.000000,-6.283553,-2.672783,-0.490529,2098176.000000,-171.360001,-7.700000,79.870003,0.000000,0.000000
2118912.000000,-8.717053,-0.634098,-1.933401,2117376.000000,-131.880005,2.310000,67.199997,0.000000,0.000000
2138880.000000,-14.785251,0.473779,-3.586841,2137344.000000,-90.090004,16.799999,95.550003,0.000000,0.000000
2158848.000000,-24.715466,-0.832702,-6.063413,2157312.000000,-61.040001,39.340000,144.410004,0.000000,0.000000
2181632.000000,-19.094725,-4.208975,-1.210768,2177280.000000,-73.779999,44.450001,185.289993,0.000000,0.000000
2198784.000000,-14.423935,-13.919049,3.878766,2200064.000000,-120.400002,18.690001,166.039993,0.000000,0.000000
2218752.000000,-15.460027,-16.311872,2.775674,2217216.000000,-139.930008,6.020000,145.529999,0.000000,0.000000
2238720.000000,-11.736795,-9.454042,-0.043071,2237184.000000,34.580002,70.980003,183.820007,0.000000,0.000000
2258688.000000,-12.662818,-1.986043,-0.208176,2257152.000000,244.860001,48.790001,109.620003,0.000000,0.000000
2279680.000000,-14.665611,2.730211,-0.287139,2277120.000000,270.549988,53.549999,35.560001,0.000000,0.000000
2298624.000000,-14.153545,3.476771,-1.344766,2298112.000000,214.619995,57.750000,-8.540000,0.000000,0.000000
2318848.000000,-11.353944,1.275374,-0.870987,2317056.000000,97.370003,17.710001,-96.949997,0.000000,0.000000
2338816.000000,-8.951550,-1.423729,0.557528,2337280.000000,-42.209999,-46.270000,-186.619995,0.000000,0.000000
2358784.000000,-7.635497,-2.871387,0.928415,2357248.000000,-117.110001,-76.370003,-214.619995,0.000000,0.000000
2379520.000000,-7.470392,-2.909672,0.370888,2377216.000000,-126.770004,-57.540001,-204.259995,0.000000,0.000000
2398720.000000,-7.546963,-2.474179,0.227318,2397952.000000,-99.750000,-39.060001,-178.430008,0.000000,0.000000
2418688.000000,-7.769495,-2.368894,-0.186640,2417152.000000,-66.430000,-38.009998,-153.440002,0.000000,0.000000
2438656.000000,-7.697710,-2.246860,-0.363709,2437120.000000,-26.110001,-40.740002,-132.860001,0.000000,0.000000
2458624.000000,-7.432107,-1.856830,-0.765703,2457088.000000,11.970000,-47.250000,-110.879997,0.000000,0.000000
2479616.000000,-7.195218,-1.531406,-1.172483,2477056.000000,38.709999,-49.349998,-93.590004,0.000000,0.000000
2498560.000000,-6.750153,-1.217947,-1.119841,2498048.000000,56.840000,-50.259998,-82.180000,0.000000,0.000000
2518528.000000,-6.537192,-1.153341,-0.643669,2516992.000000,62.930000,-49.980000,-73.779999,0.000000,0.000000
2538496.000000,-6.606583,-1.272982,-0.507278,2536960.000000,61.320000,-47.250000,-71.750000,0.000000,0.000000
2558720.000000,-7.243074,-1.004985,-0.784846,2556928.000000,52.500000,-39.689999,-75.180000,0.000000,0.000000
2579456.000000,-8.157133,-0.203390,-1.753939,2577152.000000,47.110001,-28.980000,-77.139999,0.000000,0.000000
2598656.000000,-11.511869,1.450050,-2.993421,2597888.000000,38.920002,-18.830000,-72.660004,0.000000,0.000000
2618624.000000,-20.630917,1.361516,-3.766303,2617088.000000,16.660000,-7.840000,-58.869999,0.000000,0.000000
2638592.000000,-20.250458,1.129412,-4.146761,2637056.000000,-7.350000,2.240000,-4.690000,0.000000,0.000000
2658560.000000,-15.163318,-1.725225,-3.345166,2657024.000000,-65.169998,-14.630000,21.210001,0.000000,0.000000
2679552.000000,-12.655639,-2.931208,-3.249453,2676992.000000,-127.889999,-42.209999,-16.940001,0.000000,0.000000
2698496.000000,-11.557333,-2.148755,-3.165704,2697984.000000,-157.009995,-44.590000,26.880001,0.000000,0.000000
2719232.000000,-11.822936,-0.433101,-1.294517,2716928.000000,-110.320000,-26.460001,50.680000,0.000000,0.000000
2738432.000000,-11.746366,0.301496,0.272782,2737664.000000,-63.139999,-10.920000,31.639999,0.000000,0.000000
2758656.000000,-11.203196,-1.270589,1.584049,2756864.000000,-24.990000,16.170000,18.620001,0.000000,0.000000
2779392.000000,-9.681360,-2.806781,1.404587,2777088.000000,8.610000,36.189999,17.150000,0.000000,0.000000
2798592.000000,-7.412964,-2.344966,0.540778,2797824.000000,22.750000,50.049999,47.389999,0.000000,0.000000
2818560.000000,-6.223732,-1.450050,-0.311067,2817024.000000,43.610001,47.180000,100.379997,0.000000,0.000000
2838528.000000,-6.731010,-1.143769,-0.031107,2836992.000000,76.580002,34.790001,136.220001,0.000000,0.000000
2858496.000000,-6.463014,-0.969093,1.337588,2856960.000000,75.110001,32.900002,151.199997,0.000000,0.000000
2879488.000000,-5.855237,-1.526621,2.366502,2876928.000000,19.600000,38.570000,163.449997,0.000000,0.000000
2898432.000000,-6.190232,-4.319045,1.514657,2897920.000000,-62.020000,34.439999,157.149994,0.000000,0.000000
2918656.000000,-6.434300,-4.603791,1.048056,2916864.000000,-44.869999,53.760002,148.190002,0.000000,0.000000
2938368.000000,-6.226124,-4.034299,1.040878,2937088.000000,19.670000,62.580002,163.729996,0.000000,0.000000
2958592.000000,-6.041877,-3.747160,0.713061,2956800.000000,77.209999,57.470001,174.860001,0.000000,0.000000
2979328.000000,-5.458029,-3.369094,0.622134,2977024.000000,94.220001,42.770000,149.800003,0.000000,0.000000
2999296.000000,-5.376673,-2.021935,-0.720240,2997760.000000,79.730003,26.670000,128.309998,3612240128.000000,1009.104126
3019264.000000,-8.941978,0.184247,-1.818545,3017728.000000,52.920002,12.180000,109.620003,0.000000,0.000000
3039232.000000,-20.116461,-0.595813,-3.132205,3037696.000000,23.450001,19.950001,101.430000,0.000000,0.000000
3059456.000000,-29.486753,-0.461815,-7.819745,3057664.000000,23.660000,75.669998,135.589996,0.000000,0.000000
3080192.000000,-16.804794,-1.619941,-3.445665,3077888.000000,7.560000,78.190002,113.260002,0.000000,0.000000
3099648.000000,-9.559326,-4.993821,-1.208375,3098624.000000,-57.540001,-85.470001,-17.010000,0.000000,0.000000
3119616.000000,-5.388636,-4.352544,1.299303,3118080.000000,-127.610001,-138.600006,-61.459999,0.000000,0.000000
3139584.000000,-7.994420,-0.691526,3.917051,3138048.000000,-140.910004,-84.629997,-82.529999,0.000000,0.000000
3159808.000000,-12.490535,0.253639,2.533999,3158016.000000,-83.860001,11.340000,-121.239998,0.000000,0.000000
3182592.000000,-12.605389,-0.019143,0.416351,3178240.000000,6.300000,91.349998,-136.149994,0.000000,0.000000
3200000.000000,-10.846665,0.966700,-0.954736,3201024.000000,37.730000,94.290001,-171.220001,0.000000,0.000000
3219968.000000,-9.032906,1.478764,-1.730011,3218432.000000,42.070000,59.290001,-212.100006,0.000000,0.000000
3239936.000000,-7.219146,0.746561,-1.232304,3238400.000000,24.290001,17.290001,-183.750000,0.000000,0.000000
3260160.000000,-5.661418,-0.153141,0.416351,3258368.000000,-41.720001,-29.680000,-142.100006,0.000000,0.000000
3280896.000000,-4.058227,-2.268396,2.486143,3278592.000000,-109.620003,-70.910004,-121.449997,0.000000,0.000000
3299840.000000,-4.161119,-3.984050,3.550949,3299328.000000,-141.539993,-76.650002,-87.220001,0.000000,0.000000
3321088.000000,-6.443871,-3.885944,4.043870,3318272.000000,-122.150002,-19.670000,-33.250000,0.000000,0.000000
3341056.000000,-7.133004,-3.031706,3.407379,3339520.000000,-35.349998,11.690000,15.190001,0.000000,0.000000
3361024.000000,-6.625726,-2.072184,0.524028,3359488.000000,64.330002,0.700000,24.080000,0.000000,0.000000
3382016.000000,-10.293922,-2.620141,-0.849452,3379456.000000,158.130005,-13.650000,32.340000,0.000000,0.000000
3400960.000000,-23.978474,-8.159525,-1.698904,3400448.000000,209.789993,-8.400000,57.610001,0.000000,0.000000
3420928.000000,-26.928825,-7.597212,-5.271388,3419392.000000,239.330002,49.349998,107.449997,0.000000,0.000000
3440896.000000,-20.676382,-2.471786,-6.415157,3439360.000000,260.679993,63.139999,142.729996,0.000000,0.000000
3461120.000000,-16.407585,-0.327817,-8.549555,3459328.000000,249.479996,-17.920000,132.440002,0.000000,0.000000
3481856.000000,-13.299308,0.741775,-7.939385,3479552.000000,193.830002,-78.959999,98.279999,0.000000,0.000000
3501056.000000,-11.854043,2.579463,-5.010571,3500288.000000,111.860001,-155.119995,13.510000,0.000000,0.000000
3521024.000000,-10.380065,3.747160,-2.402394,3519488.000000,43.330002,-179.410004,-65.239998,0.000000,0.000000
3540992.000000,-8.508877,3.488736,-1.371087,3539456.000000,-7.490000,-153.580002,-131.529999,0.000000,0.000000
3560960.000000,-7.300502,3.517449,-1.691726,3559424.000000,-65.800003,-112.980003,-217.979996,0.000000,0.000000
3581696.000000,-5.761917,3.443272,-2.256432,3579392.000000,-129.220001,-71.680000,-273.070007,0.000000,0.000000
3600896.000000,-3.957729,2.766103,-1.160519,3600128.000000,-192.360001,-51.029999,-273.070007,0.000000,0.000000
3620864.000000,-5.008178,0.093320,-1.703690,3619328.000000,-238.350006,-47.880001,-254.380005,0.000000,0.000000
3640832.000000,-8.324631,-3.182454,-5.127820,3639296.000000,-219.520004,-46.340000,-229.949997,0.000000,0.000000
3661056.000000,-8.731410,-0.545564,-3.529413,3659264.000000,-144.550003,-43.680000,-156.800003,0.000000,0.000000
3681792.000000,-5.194818,2.682354,-2.787638,3679488.000000,-90.930000,-99.400002,-67.760002,0.000000,0.000000
3700992.000000,-3.658626,3.158526,-1.552942,3700224.000000,-52.290001,-121.239998,31.430000,0.000000,0.000000
3720704.000000,-4.247260,1.311267,0.251246,3719424.000000,-59.150002,-107.449997,92.889999,0.000000,0.000000
3740672.000000,-5.414958,-0.074178,1.629512,3739136.000000,-93.239998,-70.769997,117.180000,0.000000,0.000000
3760896.000000,-6.123233,0.488136,2.031506,3759104.000000,-101.360001,-28.280001,141.960007,0.000000,0.000000
3781632.000000,-6.958328,1.397408,0.591027,3779328.000000,-62.090000,6.860000,155.399994,0.000000,0.000000
3800832.000000,-11.330014,1.596013,-2.275574,3800064.000000,-17.219999,36.470001,155.539993,0.000000,0.000000
3820800.000000,-23.571695,-0.600598,-6.106483,3819264.000000,-4.410000,63.209999,160.369995,0.000000,0.000000
3840768.000000,-26.115267,-0.528814,-8.769694,3839232.000000,1.680000,124.599998,187.600006,0.000000,0.000000
3860736.000000,-19.539789,-3.739982,-1.682154,3859200.000000,-9.730000,181.649994,240.660004,0.000000,0.000000
3881728.000000,-10.207782,-15.728023,6.379266,3879168.000000,-19.950001,95.830002,244.229996,0.000000,0.000000
3900672.000000,-14.464613,-14.869000,4.134798,3900160.000000,16.730000,116.620003,270.899994,0.000000,0.000000
3920640.000000,-13.490734,-5.955735,0.516850,3919104.000000,170.660004,244.649994,323.610016,0.000000,0.000000
3940608.000000,-10.616954,0.021535,-3.407379,3939072.000000,388.850006,215.389999,331.380005,0.000000,0.000000
3960576.000000,-9.858429,3.077170,-7.054041,3959040.000000,497.000000,160.229996,263.410004,0.000000,0.000000
3981568.000000,-9.430114,5.424529,-3.895515,4000000.000000,222.389999,53.970001,93.590004,3613242368.000000,1009.122559
4000768.000000,-7.929814,2.591427,-2.179861,0.000000,0.000000,0.000000,0.000000,0.000000,0.000000
4020736.000000,-7.666604,-0.081356,-1.012164,4019200.000000,28.770000,-23.240000,28.490000,0.000000,0.000000
4040704.000000,-7.046863,-0.363709,1.763510,4039168.000000,-50.470001,-52.150002,-37.380001,0.000000,0.000000
4060672.000000,-7.379465,0.105284,2.383251,4059136.000000,-73.220001,-50.610001,-45.290001,0.000000,0.000000
4081664.000000,-7.391429,-0.308674,2.498107,4079104.000000,-68.669998,-31.570000,-59.500000,0.000000,0.000000
4100608.000000,-6.972685,-1.617548,3.156133,4100096.000000,-71.260002,-38.009998,-86.449997,0.000000,0.000000
4120576.000000,-5.967700,-3.390630,3.440879,4119040.000000,-82.180000,-62.230000,-112.349998,0.000000,0.000000
4140544.000000,-5.608776,-4.522435,3.247060,4139008.000000,-81.480003,-63.980000,-113.680000,0.000000,0.000000
4160512.000000,-6.403193,-4.094120,1.272982,4158976.000000,-74.620003,-50.400002,-101.570000,0.000000,0.000000
4183296.000000,-9.217153,-2.299503,0.844666,4178944.000000,-60.410000,-33.320000,-90.930000,0.000000,0.000000
4200448.000000,-17.486748,-3.670590,3.017349,4201728.000000,-46.830002,-21.350000,-68.809998,0.000000,0.000000
4220416.000000,-26.931217,-5.510671,0.169890,4218880.000000,-5.880000,13.300000,3.500000,0.000000,0.000000
4240640.000000,-27.053253,-5.149354,-7.257431,4238848.000000,49.560001,34.790001,89.809998,0.000000,0.000000
4260608.000000,-20.015961,-3.536592,-10.545169,4259072.000000,79.449997,-17.639999,98.070000,0.000000,0.000000
4281344.000000,-15.390635,-3.012564,-10.396815,4279040.000000,53.549999,-164.779999,112.349998,0.000000,0.000000
4300544.000000,-10.777272,-0.849452,-6.262017,4299776.000000,-0.210000,-265.440002,64.889999,0.000000,0.000000
4320512.000000,-9.702895,3.541377,-0.023928,4318976.000000,-76.019997,-334.250000,-21.770000,0.000000,0.000000
4340480.000000,-11.542977,5.639884,1.038485,4338944.000000,-106.190002,-268.309998,-125.440002,0.000000,0.000000
4360448.000000,-8.858230,5.156533,-0.251246,4358912.000000,-54.459999,-180.669998,-217.770004,0.000000,0.000000
4381440.000000,-7.319644,3.661019,-1.261017,4399872.000000,-18.480000,-88.269997,-329.420013,0.000000,0.000000
4400384.000000,-5.977271,0.301496,-2.289931,0.000000,0.000000,0.000000,0.000000,0.000000,0.000000
4420352.000000,-5.005785,-3.144169,-2.797210,4418816.000000,-51.099998,-48.580002,-352.380005,0.000000,0.000000
4440320.000000,-5.044070,-4.352544,-2.600998,4438784.000000,-134.259995,-27.440001,-354.480011,0.000000,0.000000
4460288.000000,-6.460621,-5.737988,-1.959722,4458752.000000,-232.680008,-10.990000,-344.049988,0.000000,0.000000
4481280.000000,-6.388836,-3.608376,-0.038285,4478720.000000,-254.380005,15.960000,-293.089996,0.000000,0.000000
4500480.000000,-6.168696,-1.706082,-0.267996,4499712.000000,-158.339996,22.610001,-196.350006,0.000000,0.000000
4520448.000000,-5.431707,1.404587,-1.416551,4518912.000000,-22.540001,-4.270000,-114.660004,0.000000,0.000000
4540416.000000,-4.082155,4.046263,-2.335395,4538880.000000,49.630001,-42.000000,-66.639999,0.000000,0.000000
4560384.000000,-3.125026,5.139783,-2.864209,4558848.000000,46.549999,-72.800003,-28.139999,0.000000,0.000000
4581120.000000,-3.471986,4.744967,-2.880959,4578816.000000,2.310000,-99.330002,-16.100000,0.000000,0.000000
4600320.000000,-5.850451,3.814159,-2.780460,4599552.000000,-66.639999,-110.809998,-17.080000,0.000000,0.000000
4620288.000000,-12.196217,3.682554,-5.910272,4618752.000000,-129.990005,-100.660004,-6.580000,0.000000,0.000000
4640256.000000,-18.967905,3.330809,-8.451449,4638720.000000,-180.039993,-77.419998,17.990000,0.000000,0.000000
4660224.000000,-15.905092,-0.540778,-3.314059,4658688.000000,-230.930008,-79.449997,60.200001,0.000000,0.000000
4681216.000000,-15.445671,-9.355937,1.512264,4678656.000000,-265.649994,-141.750000,73.290001,0.000000,0.000000
4700160.000000,-16.003199,-12.811172,6.508478,4699648.000000,-272.790009,-109.199997,149.029999,0.000000,0.000000
4720128.000000,-17.015362,-9.492328,5.996413,4718592.000000,-183.470001,4.690000,297.989990,0.000000,0.000000
4740352.000000,-17.056040,-4.443472,2.909672,4738560.000000,8.050000,69.160004,363.649994,0.000000,0.000000
4760320.000000,-17.046469,-5.041678,-1.138984,4758784.000000,159.250000,104.790001,422.309998,0.000000,0.000000
4781824.000000,-16.314266,-8.822337,-2.699104,4778752.000000,292.950012,122.010002,409.429993,0.000000,0.000000
4800256.000000,-13.502698,-10.009177,-0.784846,4800256.000000,366.239990,122.709999,381.709991,0.000000,0.000000
4820224.000000,-10.368099,-6.355337,-0.236889,4818688.000000,365.399994,105.699997,377.160004,0.000000,0.000000
4840192.000000,-8.927622,-1.552942,0.342174,4838656.000000,409.079987,107.029999,355.040009,0.000000,0.000000
4860160.000000,-9.987641,0.366102,1.462015,4858624.000000,459.760010,112.349998,291.829987,0.000000,0.000000
4881152.000000,-9.095119,0.284746,2.127219,4878592.000000,405.860016,136.430008,217.139999,0.000000,0.000000
4900096.000000,-7.367501,0.547956,2.383251,4899584.000000,263.760010,114.870003,145.740005,0.000000,0.000000
4920320.000000,-7.712067,0.646062,3.141776,4918528.000000,130.059998,80.290001,59.010002,0.000000,0.000000
4940288.000000,-8.898908,-0.933201,3.888337,4938752.000000,46.619999,57.400002,-2.380000,0.000000,0.000000
4960256.000000,-11.471190,-3.285345,5.515456,4958720.000000,-11.340000,43.400002,-42.560001,0.000000,0.000000
4981248.000000,-18.008383,-7.812566,5.766702,4999680.000000,100.449997,-0.070000,-28.350000,3614241792.000000,1009.142273
5000192.000000,-19.822144,-7.939385,2.385644,0.000000,0.000000,0.000000,0.000000,0.000000,0.000000
5020928.000000,-14.096118,-3.402594,0.368495,5018624.000000,290.290009,-29.820000,32.549999,0.000000,0.000000
5040896.000000,-10.985448,-1.174876,-2.191825,5039360.000000,361.760010,-56.279999,92.540001,0.000000,0.000000
5060864.000000,-10.506885,0.112463,-3.519842,5059328.000000,307.089996,-81.199997,139.930008,0.000000,0.000000
5081856.000000,-10.770095,1.603191,-3.845266,5079296.000000,173.740005,-100.870003,132.789993,0.000000,0.000000
5100800.000000,-12.059827,1.572084,-4.378866,5100288.000000,-0.910000,-121.309998,85.820000,0.000000,0.000000
5121280.000000,-13.828122,0.502493,-4.125226,5119232.000000,-170.800003,-142.380005,13.790000,0.000000,0.000000
5141248.000000,-13.701303,-1.117448,-2.794817,5139712.000000,-334.320007,-151.830002,-56.349998,0.000000,0.000000
5161216.000000,-10.652846,-2.656033,-2.309074,5159680.000000,-448.559998,-147.979996,-127.260002,0.000000,0.000000
5184256.000000,-8.645268,-3.263810,-2.249253,5179648.000000,-488.390015,-148.680008,-190.680008,0.000000,0.000000
5201152.000000,-9.281759,-2.926422,-1.942972,5202688.000000,-477.399994,-147.979996,-244.790009,0.000000,0.000000
5221632.000000,-10.817951,-2.883351,-1.124627,5219584.000000,-430.640015,-119.000000,-273.420013,0.000000,0.000000
5241600.000000,-10.537991,-2.928815,-1.246661,5240064.000000,-354.339996,-70.209999,-277.339996,0.000000,0.000000
5261568.000000,-10.049855,-1.914258,-1.466800,5260032.000000,-240.449997,-46.060001,-284.970001,0.000000,0.000000
5282560.000000,-8.405986,-0.720240,-1.131805,5280000.000000,-87.220001,-44.799999,-276.360016,0.000000,0.000000
5301504.000000,-6.699903,0.911665,-0.442672,5300992.000000,69.230003,-47.250000,-233.869995,0.000000,0.000000
5321472.000000,-4.742575,3.024528,0.559920,5319936.000000,169.750000,-54.529999,-204.539993,0.000000,0.000000
5342720.000000,-4.086941,4.476971,0.064606,5339904.000000,212.449997,-53.410000,-187.809998,0.000000,0.000000
5362688.000000,-5.233103,4.017549,-0.911665,5361152.000000,213.710007,-46.270000,-183.539993,0.000000,0.000000
5383680.000000,-7.111469,2.076970,-1.708475,5381120.000000,146.440002,-48.860001,-160.369995,0.000000,0.000000
5402624.000000,-10.631311,0.471386,-3.225525,5402112.000000,26.950001,-52.150002,-116.760002,0.000000,0.000000
5422848.000000,-15.984055,0.232104,-4.692325,5421056.000000,-75.040001,-49.349998,-65.660004,0.000000,0.000000
5442560.000000,-17.594425,-0.547956,-4.776074,5441280.000000,-136.639999,-28.700001,24.850000,0.000000,0.000000
5462784.000000,-14.962320,-2.938386,-2.868994,5460992.000000,-182.839996,-14.420000,103.250000,0.000000,0.000000
5483520.000000,-11.531013,-4.792823,0.600598,5481216.000000,-232.050003,-30.590000,133.139999,0.000000,0.000000
5502720.000000,-9.604790,-5.051248,4.314260,5501952.000000,-237.930008,-21.139999,191.589996,0.000000,0.000000
5522688.000000,-10.509278,-3.436093,5.429315,5521152.000000,-174.860001,16.660000,216.229996,0.000000,0.000000
5542656.000000,-12.043077,-1.440479,3.895515,5541120.000000,-76.090004,74.970001,214.619995,0.000000,0.000000
5562624.000000,-14.572289,-2.749353,0.923629,5561088.000000,25.620001,122.290001,223.089996,0.000000,0.000000
5583616.000000,-14.019548,-5.376673,-2.467000,5581056.000000,119.629997,147.210007,216.720001,0.000000,0.000000
5602560.000000,-10.990234,-7.223931,-4.094120,5602048.000000,180.949997,140.770004,232.470001,0.000000,0.000000
5622784.000000,-7.300502,-5.718846,-2.912065,5620992.000000,217.139999,89.389999,247.520004,0.000000,0.000000
5642496.000000,-5.962914,-2.502892,-0.095713,5641216.000000,224.139999,53.200001,242.410004,0.000000,0.000000
5662464.000000,-6.836295,-0.789631,2.455036,5660928.000000,227.080002,60.970001,224.139999,0.000000,0.000000
5683456.000000,-7.063612,-1.304088,3.041277,5680896.000000,201.250000,89.949997,184.589996,0.000000,0.000000
5702656.000000,-6.448657,-2.847459,2.163112,5701888.000000,130.130005,100.940002,119.840004,0.000000,0.000000
5722624.000000,-7.183254,-2.842674,0.258425,5721088.000000,65.029999,93.519997,51.939999,0.000000,0.000000
5742592.000000,-14.464613,-2.529213,4.345366,5741056.000000,35.420002,90.160004,10.710000,0.000000,0.000000
5762304.000000,-28.326233,-6.080163,3.239882,5761024.000000,13.510000,103.529999,14.560000,0.000000,0.000000
5783296.000000,-23.870798,-6.192625,-2.569891,5780736.000000,31.710001,127.820000,75.949997,0.000000,0.000000
5802496.000000,-13.584054,-4.484150,-6.482157,5801728.000000,28.910000,95.970001,109.059998,0.000000,0.000000
5822464.000000,-9.506684,-3.366701,-9.781858,5820928.000000,-14.140000,-43.119999,118.650002,0.000000,0.000000
5842432.000000,-8.422735,-1.452443,-6.391229,5840896.000000,-85.750000,-142.660004,75.320000,0.000000,0.000000
5862400.000000,-7.432107,4.800002,0.277567,5860864.000000,-175.279999,-190.820007,-12.390000,0.000000,0.000000
5883392.000000,-5.359922,7.494320,2.136791,5880832.000000,-228.130005,-170.800003,-69.300003,0.000000,0.000000
5902336.000000,-5.709275,5.879165,0.114855,5901824.000000,-148.750000,-60.830002,-135.940002,0.000000,0.000000
5922304.000000,-5.927022,2.053042,-3.412165,5920768.000000,-6.230000,45.150002,-175.350006,0.000000,0.000000
5942272.000000,-7.654640,-2.868994,-6.111269,5940736.000000,43.119999,100.730003,-132.649994,0.000000,0.000000
5962240.000000,-7.802995,-4.319045,-4.658825,5960704.000000,-34.230000,83.930000,-120.330002,0.000000,0.000000
5983232.000000,-5.003392,-0.038285,-1.182054,5980672.000000,-88.620003,24.430000,-83.440002,0.000000,0.000000
6002176.000000,-4.409972,2.340181,-0.672383,6001664.000000,-63.139999,-0.210000,19.040001,3615244032.000000,1009.166321
6022400.000000,-5.410172,1.835295,-1.299303,6020608.000000,-9.310000,23.799999,71.470001,0.000000,0.000000
6042368.000000,-5.580062,1.576870,-0.478565,6040832.000000,-3.220000,32.759998,71.540001,0.000000,0.000000
6062336.000000,-4.398008,2.536392,-0.457029,6060800.000000,-4.550000,12.600000,55.510002,0.000000,0.000000
6083072.000000,-4.230510,3.854837,-2.270789,6080768.000000,13.930000,-14.630000,42.139999,0.000000,0.000000
6102272.000000,-6.242875,4.536791,-6.534799,6101504.000000,3.710000,-16.660000,20.790001,0.000000,0.000000
6122240.000000,-14.103296,3.897908,-10.810772,6120704.000000,-50.959999,3.850000,3.430000,0.000000,0.000000
6142208.000000,-35.641094,2.490928,-16.041483,6140672.000000,-115.150002,83.580002,-2.310000,0.000000,0.000000
6162176.000000,-18.348164,1.086342,-4.594220,6160640.000000,-169.680008,104.160004,-10.150000,0.000000,0.000000
6184960.000000,-6.233303,-4.034299,6.025128,6180608.000000,-183.889999,-125.930000,-133.139999,0.000000,0.000000
6202112.000000,-3.550949,-2.723032,7.530212,6203392.000000,-128.380005,-144.479996,-113.400002,0.000000,0.000000
6222080.000000,-10.035499,1.447658,5.766702,6220544.000000,17.430000,56.209999,-18.690001,0.000000,0.000000
6242048.000000,-10.183852,3.048456,0.129212,6240512.000000,246.470001,133.139999,16.590000,0.000000,0.000000
6262272.000000,-10.669596,1.045663,-3.759124,6260480.000000,302.329987,173.740005,38.849998,0.000000,0.000000
6283008.000000,-10.884951,1.301696,-4.113262,6280704.000000,224.839996,156.729996,48.160000,0.000000,0.000000
6302208.000000,-10.057034,1.531406,-3.065206,6301440.000000,68.250000,97.790001,104.090004,0.000000,0.000000
6322176.000000,-9.159724,0.234497,-1.347159,6320640.000000,-44.939999,30.940001,123.129997,0.000000,0.000000
6342144.000000,-6.778866,-0.894916,2.285146,6340608.000000,-96.459999,-37.240002,86.309998,0.000000,0.000000
6362112.000000,-5.010571,-0.512064,4.661219,6360576.000000,-111.510002,-65.379997,71.330002,0.000000,0.000000
6383104.000000,-6.089733,0.066999,3.768696,6380544.000000,-66.010002,-42.980000,47.670002,0.000000,0.000000
6402048.000000,-6.699903,0.569492,1.600798,6401536.000000,27.370001,-3.150000,34.020000,0.000000,0.000000
6422016.000000,-7.089933,0.906880,-1.117448,6420480.000000,76.370003,7.490000,36.330002,0.000000,0.000000
6441984.000000,-10.231709,1.311267,-4.311867,6440448.000000,75.669998,3.080000,14.140000,0.000000,0.000000
6461952.000000,-23.571695,-0.440279,-5.970093,6460416.000000,41.720001,21.350000,0.980000,0.000000,0.000000
6482944.000000,-25.794628,0.488136,-8.271988,6480384.000000,-1.400000,107.730003,33.810001,0.000000,0.000000
6501888.000000,-11.370694,-1.172483,-5.927022,6501376.000000,-79.169998,-19.250000,17.780001,0.000000,0.000000
6522112.000000,-6.587440,-1.854438,-8.116454,6520320.000000,-157.360001,-253.610001,-102.269997,0.000000,0.000000
6542080.000000,-6.683154,0.215354,-8.896514,6540544.000000,-224.000000,-280.489990,-95.620003,0.000000,0.000000
6562048.000000,-10.660025,2.474179,-5.108676,6560512.000000,-264.040009,-228.339996,-104.160004,0.000000,0.000000
6582784.000000,-13.270595,3.247060,-1.643869,6580480.000000,-277.130005,-146.229996,-132.649994,0.000000,0.000000
6601984.000000,-10.908878,1.098306,1.227518,6601216.000000,-290.989990,-85.680000,-182.910004,0.000000,0.000000
6621952.000000,-10.368099,-0.500100,-0.074178,6620416.000000,-214.270004,-43.119999,-240.169998,0.000000,0.000000
6641920.000000,-10.329816,0.461815,-1.440479,6640384.000000,-84.980003,13.300000,-203.419998,0.000000,0.000000
6661888.000000,-9.573684,0.837488,-1.722832,6660352.000000,8.820000,50.049999,-139.440002,0.000000,0.000000
6682880.000000,-8.599805,0.435494,-2.139183,6680320.000000,78.540001,57.540001,-94.290001,0.000000,0.000000
6701824.000000,-7.623533,1.751546,-1.615155,6701312.000000,125.790001,59.150002,-28.139999,0.000000,0.000000
6721792.000000,-6.649654,2.701497,-0.715454,6720256.000000,142.449997,74.480003,46.759998,0.000000,0.000000
6741760.000000,-6.101698,2.531606,-0.145962,6740224.000000,138.180008,93.519997,99.610001,0.000000,0.000000
6761984.000000,-5.659025,2.103291,0.382852,6760192.000000,106.750000,99.680000,114.379997,0.000000,0.000000
6782720.000000,-5.213961,1.952543,-0.334995,6780416.000000,70.559998,91.489998,106.610001,0.000000,0.000000
6802688.000000,-5.094319,2.529213,-0.993021,6801152.000000,46.410000,82.669998,90.090004,0.000000,0.000000
6821888.000000,-5.199604,2.644069,-1.785046,6821120.000000,29.750000,71.610001,70.489998,0.000000,0.000000
6841856.000000,-6.072984,2.081756,-2.873780,6840320.000000,22.820000,66.150002,56.279999,0.000000,0.000000
6861824.000000,-7.810174,1.225125,-4.424329,6860288.000000,0.630000,54.180000,50.330002,0.000000,0.000000
6882816.000000,-11.258230,0.232104,-5.690133,6880256.000000,-31.850000,46.759998,40.459999,0.000000,0.000000
6902016.000000,-14.428720,-0.150748,-6.652047,6901248.000000,-60.480000,45.639999,36.959999,0.000000,0.000000
6921728.000000,-23.583660,-1.253839,-8.559127,6920448.000000,-81.690002,45.360001,41.160000,0.000000,0.000000
6942976.000000,-18.025133,-4.070191,-1.095913,6940160.000000,-81.760002,27.370001,52.639999,0.000000,0.000000
6962944.000000,-8.405986,-8.855836,4.529613,6961408.000000,-41.299999,-36.189999,41.580002,0.000000,0.000000
6983680.000000,-8.879765,-5.106283,3.646662,6981376.000000,11.970000,15.190001,50.750000,0.000000,0.000000
7002880.000000,-10.097712,3.244668,2.974278,7002112.000000,163.029999,126.840004,86.379997,3616244480.000000,1009.191650
7022848.000000,-7.886744,7.980063,-0.423530,7021312.000000,322.070007,162.119995,100.660004,0.000000,0.000000
7043328.000000,-6.946364,9.786645,-4.534399,7041280.000000,365.049988,161.910004,68.809998,0.000000,0.000000
7063296.000000,-9.178867,6.005985,-5.012963,7061760.000000,241.009995,129.430008,8.890000,0.000000,0.000000
7084032.000000,-9.324830,2.000400,-4.063013,7081728.000000,-47.389999,61.110001,-13.510000,0.000000,0.000000
7103232.000000,-9.781858,-1.607977,-3.847659,7102464.000000,-319.549988,-17.850000,-4.060000,0.000000,0.000000
7123200.000000,-8.135597,-4.048656,-2.175076,7121664.000000,-375.899994,-55.650002,-14.490000,0.000000,0.000000
7143680.000000,-4.266403,-5.977271,1.162912,7141632.000000,-377.579987,-120.120003,-40.040001,0.000000,0.000000
7163648.000000,-7.482357,-5.115855,2.849852,7162112.000000,-271.529999,-123.760002,-57.750000,0.000000,0.000000
7186432.000000,-10.200603,-2.715853,2.778067,7182080.000000,-198.800003,-59.779999,-49.980000,0.000000,0.000000
7203584.000000,-7.657032,-0.454636,2.605784,7204864.000000,-61.320000,-49.770000,-33.599998,0.000000,0.000000
7223552.000000,-5.479564,0.512064,1.442872,7222016.000000,42.630001,-68.599998,-23.309999,0.000000,0.000000
7243264.000000,-5.304887,0.162712,0.299103,7241984.000000,111.370003,-79.519997,-47.180000,0.000000,0.000000
7264512.000000,-7.594819,-3.172883,-4.613362,7261696.000000,109.059998,-60.410000,-45.990002,0.000000,0.000000
7285504.000000,-13.526627,-4.938786,-7.819745,7282944.000000,-63.910000,-2.940000,-61.880001,0.000000,0.000000
7304704.000000,-20.714666,-6.317052,-10.506885,7303936.000000,-218.540009,39.970001,-79.449997,0.000000,0.000000
7324672.000000,-20.283957,-6.498906,-9.592826,7323136.000000,-276.149994,25.830000,-89.040001,0.000000,0.000000
7344640.000000,-11.885150,-6.034698,-5.182854,7343104.000000,-212.940002,-52.150002,-120.959999,0.000000,0.000000
7364608.000000,-11.014162,-3.440879,-4.618148,7363072.000000,-115.570000,-123.480003,-155.610001,0.000000,0.000000
7385344.000000,-14.038691,-0.899701,-4.685147,7383040.000000,30.730000,-66.849998,-163.660004,0.000000,0.000000
7404544.000000,-16.701902,-0.461815,-4.072584,7403776.000000,101.080002,-0.560000,-129.149994,0.000000,0.000000
7424512.000000,-15.885949,-0.069392,-2.017149,7422976.000000,171.570007,24.080000,-124.459999,0.000000,0.000000
7444480.000000,-12.387643,0.923629,-0.256032,7442944.000000,174.509995,43.820000,-171.289993,0.000000,0.000000
7464448.000000,-10.399208,2.086541,-0.208176,7462912.000000,140.210007,44.730000,-206.990005,0.000000,0.000000
7485440.000000,-5.477170,3.847659,-0.119641,7482880.000000,93.379997,40.810001,-202.509995,0.000000,0.000000
7504640.000000,-5.044070,3.302095,-0.210568,7503872.000000,26.950001,48.860001,-175.630005,0.000000,0.000000
7524608.000000,-5.994020,1.088734,0.138784,7523072.000000,-59.360001,31.080000,-163.240005,0.000000,0.000000
7544576.000000,-6.740582,-0.447458,1.639083,7543040.000000,-148.960007,28.630001,-136.850006,0.000000,0.000000
7564544.000000,-7.788638,-1.165305,1.502693,7563008.000000,-195.440002,35.490002,-62.930000,0.000000,0.000000
7585280.000000,-8.291130,0.275175,0.547956,7582976.000000,-145.880005,25.549999,-10.290000,0.000000,0.000000
7604480.000000,-7.601997,1.447658,0.148355,7603712.000000,-35.279999,7.700000,38.849998,0.000000,0.000000
7624448.000000,-6.675975,1.524228,0.066999,7622912.000000,78.750000,-25.900000,76.090004,0.000000,0.000000
7644416.000000,-6.376873,2.203789,-0.892523,7642880.000000,148.050003,-61.740002,86.940002,0.000000,0.000000
7664384.000000,-6.709475,3.043670,-1.866402,7662848.000000,185.360001,-75.879997,102.970001,0.000000,0.000000
7685376.000000,-7.793423,3.328416,-3.929015,7682816.000000,201.600006,-70.699997,122.360001,0.000000,0.000000
7704320.000000,-11.784652,3.393023,-5.979663,7703808.000000,181.089996,-52.430000,126.770004,0.000000,0.000000
7724288.000000,-18.180666,3.304488,-6.958328,7722752.000000,123.059998,-38.639999,131.320007,0.000000,0.000000
7744512.000000,-21.372692,1.887937,-7.412964,7742720.000000,45.779999,-42.279999,144.199997,0.000000,0.000000
7764224.000000,-23.952154,-1.452443,-7.204789,7762944.000000,-27.860001,-54.880001,136.570007,0.000000,0.000000
7785216.000000,-22.028324,-4.051049,-4.405186,7782656.000000,-98.279999,-44.730000,141.259995,0.000000,0.000000
7804160.000000,-16.273586,-6.474977,3.026921,7803648.000000,-158.550003,-22.960001,168.210007,0.000000,0.000000
7824128.000000,-12.531212,-6.652047,3.361916,7822592.000000,-165.970001,13.510000,172.059998,0.000000,0.000000
7844352.000000,-10.348958,-3.203990,3.993621,7842560.000000,-62.299999,140.490005,175.699997,0.000000,0.000000
7864320.000000,-9.552148,-0.208176,1.021735,7862784.000000,113.120003,200.199997,184.169998,0.000000,0.000000
7885056.000000,-7.360322,0.756132,-1.074377,7882752.000000,255.990005,222.529999,170.589996,0.000000,0.000000
7904256.000000,-6.649654,1.146162,-3.565305,7903488.000000,329.630005,188.160004,125.510002,0.000000,0.000000
7924224.000000,-7.563712,1.493121,-4.098906,7922688.000000,322.980011,174.580002,54.880001,0.000000,0.000000
7944192.000000,-8.817552,1.308874,-2.775674,7942656.000000,210.210007,171.430008,49.700001,0.000000,0.000000
7964160.000000,-9.664611,-0.098106,-1.141376,7962624.000000,59.010002,124.599998,74.760002,0.000000,0.000000
7985152.000000,-8.958728,-1.598405,-0.394816,7982592.000000,-46.759998,57.540001,67.550003,0.000000,0.000000
8004096.000000,-7.963314,-2.354537,0.897308,8003584.000000,-77.349998,2.170000,60.130001,3617245952.000000,1009.218567
8024064.000000,-7.087541,-2.928815,2.727818,8022528.000000,-76.230003,-20.930000,59.990002,0.000000,0.000000
8044032.000000,-7.812566,-3.613162,4.610970,8042496.000000,-55.580002,-12.040000,60.549999,0.000000,0.000000
8064000.000000,-9.339187,-3.751946,5.517848,8062464.000000,-17.080000,15.260000,56.139999,0.000000,0.000000
8084992.000000,-10.758131,-4.180261,5.204390,8082432.000000,34.090000,36.820000,60.130001,0.000000,0.000000
8104192.000000,-12.339786,-4.421937,3.866802,8103424.000000,99.190002,54.320000,65.169998,0.000000,0.000000
8124160.000000,-13.569696,-4.122833,1.476372,8122624.000000,150.009995,60.689999,71.750000,0.000000,0.000000
8144128.000000,-15.120246,-2.423929,-1.426122,8142592.000000,176.190002,53.270000,78.610001,0.000000,0.000000
8164096.000000,-16.819151,0.653241,-4.821537,8162560.000000,172.759995,31.920000,69.580002,0.000000,0.000000
8186880.000000,-18.314665,2.675175,-5.747560,8182528.000000,127.050003,-10.430000,56.139999,0.000000,0.000000
8204032.000000,-18.561125,1.619941,-6.190232,8205312.000000,24.990000,-87.360001,24.290001,0.000000,0.000000
8224000.000000,-16.127625,0.342174,-6.214160,8222464.000000,-74.690002,-175.419998,-44.310001,0.000000,0.000000
8243968.000000,-14.778071,-0.509671,-6.455836,8242432.000000,-152.740005,-254.240005,-116.620003,0.000000,0.000000
8263936.000000,-14.191832,-1.916651,-4.524827,8262400.000000,-206.710007,-293.510010,-178.220001,0.000000,0.000000
8284928.000000,-13.548162,-1.952543,-2.478964,8282368.000000,-235.270004,-282.799988,-233.729996,0.000000,0.000000
8303872.000000,-15.074783,-1.263410,-1.426122,8303360.000000,-244.860001,-260.049988,-309.679993,0.000000,0.000000
8324096.000000,-19.204794,-1.560120,-2.751746,8322304.000000,-220.990005,-207.339996,-366.450012,0.000000,0.000000
8344064.000000,-16.149158,-1.732404,-1.945365,8342528.000000,-183.750000,-127.050003,-366.940002,0.000000,0.000000
8364032.000000,-12.760924,-2.127219,-3.225525,8362496.000000,-155.259995,-58.939999,-370.510010,0.000000,0.000000
8384768.000000,-9.956534,-2.675175,-3.000600,8382464.000000,-113.680000,-20.930000,-366.239990,0.000000,0.000000
8403968.000000,-9.611969,-2.871387,-2.758924,8403200.000000,-76.300003,-4.480000,-319.760010,0.000000,0.000000
8423936.000000,-10.485349,-1.969293,-2.656033,8422400.000000,-37.939999,19.809999,-274.890015,0.000000,0.000000
8443904.000000,-9.669396,-0.480957,-2.065006,8442368.000000,12.670000,42.420002,-233.169998,0.000000,0.000000
8463872.000000,-8.137990,0.311067,-1.493121,8462336.000000,64.470001,42.209999,-195.649994,0.000000,0.000000
8484864.000000,-6.604190,-0.169890,-0.914058,8482304.000000,101.849998,24.990000,-175.699997,0.000000,0.000000
8503808.000000,-5.812167,-1.325624,-0.545564,8503296.000000,117.389999,7.210000,-150.850006,0.000000,0.000000
8523776.000000,-6.228518,-1.612763,-1.124627,8522240.000000,117.669998,-5.950000,-119.980003,0.000000,0.000000
8543744.000000,-6.601797,-0.782453,-1.828116,8542208.000000,120.680000,-9.800000,-90.510002,0.000000,0.000000
8563968.000000,-6.702296,0.813560,-2.689533,8562176.000000,130.199997,-16.590000,-59.220001,0.000000,0.000000
8584704.000000,-7.104291,1.895115,-2.799603,8582400.000000,126.770004,-29.680000,-31.639999,0.000000,0.000000
8603904.000000,-6.903293,2.325824,-2.778067,8603136.000000,94.290001,-41.509998,-9.940000,0.000000,0.000000
8623872.000000,-5.962914,1.899901,-3.079563,8622336.000000,37.099998,-56.980000,3.360000,0.000000,0.000000
8643840.000000,-6.259624,1.311267,-3.534199,8642304.000000,-30.030001,-72.169998,7.350000,0.000000,0.000000
8663808.000000,-7.690532,0.531207,-3.582055,8662272.000000,-92.190002,-72.870003,18.620001,0.000000,0.000000
8684800.000000,-8.484949,-0.059821,-2.787638,8682240.000000,-140.839996,-57.119999,46.549999,0.000000,0.000000
8703744.000000,-9.004191,-1.064806,-2.057827,8703232.000000,-180.809998,-49.490002,73.010002,0.000000,0.000000
8723712.000000,-12.057433,-2.024328,-1.753939,8722176.000000,-204.119995,-45.430000,98.910004,0.000000,0.000000
8743680.000000,-17.190037,-3.201597,-1.694118,8742144.000000,-206.639999,-31.219999,148.610001,0.000000,0.000000
8763648.000000,-20.276779,-5.412565,-2.337788,8762112.000000,-175.210007,-15.470000,222.180008,0.000000,0.000000
8784640.000000,-20.858232,-7.030113,-2.419144,8782080.000000,-80.220001,-9.310000,303.380005,0.000000,0.000000
8803584.000000,-19.757536,-8.769694,-1.292124,8803072.000000,28.490000,6.790000,389.130005,0.000000,0.000000
8824576.000000,-18.017956,-10.482956,0.576670,8822016.000000,110.389999,48.930000,474.739990,0.000000,0.000000
8843776.000000,-16.237694,-10.088140,1.158126,8843008.000000,190.259995,120.540001,540.539978,0.000000,0.000000
8864256.000000,-15.026926,-7.534998,-0.660419,8862208.000000,306.809998,206.919998,563.150024,0.000000,0.000000
8884992.000000,-13.150953,-2.234896,-3.766303,8882688.000000,448.769989,259.140015,513.239990,0.000000,0.000000
8904192.000000,-12.612568,3.677768,-8.118847,8903424.000000,537.250000,224.419998,394.029999,0.000000,0.000000
8924160.000000,-11.308479,8.879765,-6.218946,8922624.000000,504.769989,189.000000,248.710007,0.000000,0.000000
8944128.000000,-8.803195,7.807780,-3.280560,8942592.000000,312.619995,120.540001,139.440002,0.000000,0.000000
8964608.000000,-8.441878,3.802195,-1.978864,8962560.000000,54.040001,35.139999,29.260000,0.000000,0.000000
8985344.000000,-8.219346,1.875973,-1.292124,9003776.000000,-211.259995,19.670000,-81.830002,3618246144.000000,1009.242859
9004544.000000,-7.807780,0.217747,-0.777667,0.000000,0.000000,0.000000,0.000000,0.000000,0.000000
9024512.000000,-7.611568,-1.686940,0.169890,9022976.000000,-275.940002,18.969999,-102.830002,0.000000,0.000000
9044480.000000,-7.489535,-4.335794,1.167697,9042944.000000,-328.720001,9.030000,-138.740005,0.000000,0.000000
9064704.000000,-6.352944,-6.709475,2.179861,9062912.000000,-354.410004,-12.040000,-156.309998,0.000000,0.000000
9085440.000000,-5.082355,-8.049455,3.122634,9083136.000000,-328.579987,-25.620001,-138.110001,0.000000,0.000000
9104640.000000,-5.029713,-7.989635,3.651447,9103872.000000,-243.949997,-18.059999,-93.940002,0.000000,0.000000
9124608.000000,-5.194818,-7.293324,3.503092,9123072.000000,-129.289993,-1.750000,-29.820000,0.000000,0.000000
9144576.000000,-5.046463,-6.384050,2.749353,9143040.000000,-19.040001,10.780000,28.280001,0.000000,0.000000
9164288.000000,-5.529813,-5.529813,2.380858,9163008.000000,91.209999,10.710000,67.690002,0.000000,0.000000
9188352.000000,-7.183254,-4.771288,1.696511,9182720.000000,175.070007,12.320000,94.150002,0.000000,0.000000
9205504.000000,-9.387043,-3.964907,0.988236,9206784.000000,233.800003,21.490000,118.860001,0.000000,0.000000
9225728.000000,-11.205588,-2.560320,-0.366102,9223936.000000,272.019989,25.059999,133.490005,0.000000,0.000000
9245696.000000,-12.296716,-0.418744,-2.000400,9244160.000000,287.559998,15.680000,132.860001,0.000000,0.000000
9265664.000000,-12.311072,1.428515,-2.782853,9264128.000000,273.420013,-15.260000,113.190002,0.000000,0.000000
9286400.000000,-11.475977,2.117648,-3.187240,9284096.000000,214.899994,-70.910004,76.090004,0.000000,0.000000
9305600.000000,-11.858829,2.589034,-5.204390,9304832.000000,127.400002,-138.949997,23.030001,0.000000,0.000000
9325568.000000,-18.355343,3.720839,-4.551149,9324032.000000,52.080002,-176.539993,-32.830002,0.000000,0.000000
9345536.000000,-31.573296,3.326023,-6.400801,9344000.000000,-6.580000,-157.919998,-66.290001,0.000000,0.000000
9365504.000000,-23.586052,2.220540,-7.056434,9363968.000000,-53.410000,-138.740005,-98.559998,0.000000,0.000000
9386496.000000,-17.596817,-1.887937,-6.429514,9383936.000000,-173.250000,-256.130005,-219.169998,0.000000,0.000000
9405440.000000,-16.402798,-4.957928,-6.927221,9404928.000000,-297.500000,-321.510010,-298.130005,0.000000,0.000000
9425664.000000,-14.313866,-4.383651,-5.651847,9423872.000000,-376.040009,-270.970001,-331.519989,0.000000,0.000000
9445376.000000,-13.835299,-1.998007,-2.799603,9444096.000000,-400.750000,-213.990005,-362.670013,0.000000,0.000000
9465600.000000,-13.639089,-0.495314,0.564706,9463808.000000,-387.660004,-134.050003,-380.940002,0.000000,0.000000
9486336.000000,-10.810772,-1.423729,2.208575,9484032.000000,-343.000000,-35.630001,-372.399994,0.000000,0.000000
9505536.000000,-9.236296,-0.311067,2.361716,9504768.000000,-206.990005,56.209999,-335.019989,0.000000,0.000000
9525504.000000,-5.355137,2.658426,3.172883,9523968.000000,4.620000,101.849998,-270.970001,0.000000,0.000000
9545472.000000,-2.189433,3.766303,1.342373,9543936.000000,162.680008,93.730003,-201.600006,0.000000,0.000000
9565440.000000,-3.060420,1.921437,-3.160919,9563904.000000,275.940002,63.840000,-178.779999,0.000000,0.000000
9586176.000000,-4.998606,2.344966,-4.074977,9583872.000000,319.970001,48.930000,-157.710007,0.000000,0.000000
9605376.000000,-5.259424,4.644469,-1.756332,9604608.000000,239.750000,33.529999,-59.430000,0.000000,0.000000
9625600.000000,-3.340380,4.871787,-1.818545,9623808.000000,147.350006,-4.270000,30.100000,0.000000,0.000000
9645312.000000,-4.666004,3.586841,-2.572284,9644032.000000,93.519997,0.350000,105.000000,0.000000,0.000000
9665280.000000,-6.793223,1.835295,-3.438486,9663744.000000,21.420000,22.540001,155.259995,0.000000,0.000000
9686272.000000,-7.144968,1.277767,-3.756732,9683712.000000,-55.650002,28.070000,170.589996,0.000000,0.000000
9705216.000000,-6.357729,1.452443,-3.285345,9704704.000000,-120.050003,4.340000,165.690002,0.000000,0.000000
9725440.000000,-6.599405,1.974079,-2.694318,9723648.000000,-136.779999,-14.420000,152.039993,0.000000,0.000000
9745408.000000,-8.788837,2.105684,-2.275574,9743872.000000,-151.339996,-34.369999,144.199997,0.000000,0.000000
9765376.000000,-14.361722,2.445465,-4.304688,9763840.000000,-167.580002,-21.700001,132.649994,0.000000,0.000000
9786112.000000,-26.500511,1.765903,-3.756732,9783808.000000,-199.990005,4.620000,130.619995,0.000000,0.000000
9805312.000000,-30.503702,0.421137,-2.909672,9804544.000000,-224.559998,21.280001,141.750000,0.000000,0.000000
9825280.000000,-30.384060,-9.171689,0.390030,9823744.000000,-216.020004,53.060001,182.770004,0.000000,0.000000
9845248.000000,-18.848263,-20.860628,8.257630,9843712.000000,-133.839996,87.849998,232.259995,0.000000,0.000000
9865216.000000,-16.378872,-17.216360,5.142176,9863680.000000,-35.420002,126.699997,366.589996,0.000000,0.000000
9885952.000000,-14.347364,-8.444271,5.142176,9883648.000000,166.320007,222.669998,466.970001,0.000000,0.000000
9905152.000000,-12.535997,-0.464208,-3.797409,9904384.000000,378.700012,246.540009,473.410004,0.000000,0.000000
9925120.000000,-11.540584,2.943172,-6.594619,9923584.000000,498.470001,226.800003,422.170013,0.000000,0.000000
9945088.000000,-9.695717,3.732803,-4.388437,9943552.000000,486.920013,195.789993,308.559998,0.000000,0.000000
9965056.000000,-8.006385,1.440479,-2.574677,9963520.000000,290.429993,89.599998,209.789993,0.000000,0.000000
9986048.000000,-7.573284,0.796810,-1.342373,10004480.000000,60.130001,-5.110000,48.090000,3619246848.000000,1009.269287
10004992.000000,-7.776673,2.316252,0.200997,0.000000,0.000000,0.000000,0.000000,0.000000,0.000000
10024960.000000,-7.747960,2.553142,0.981057,10023424.000000,41.650002,5.320000,26.110001,0.000000,0.000000
10045184.000000,-6.628119,1.043271,1.639083,10043392.000000,12.320000,0.560000,1.120000,0.000000,0.000000
10065152.000000,-5.955735,-1.765903,3.862016,10063616.000000,-31.360001,-26.950001,-46.130001,0.000000,0.000000
10085888.000000,-6.206983,-5.125426,5.869594,10083584.000000,-72.099998,-33.810001,-82.320000,0.000000,0.000000
10105088.000000,-7.334002,-6.403193,6.003592,10104320.000000,-78.400002,-9.240000,-76.300003,0.000000,0.000000
10125056.000000,-8.444271,-5.386244,4.429115,10123520.000000,-38.360001,13.930000,-61.110001,0.000000,0.000000
10145024.000000,-7.668997,-4.563113,3.404987,10143488.000000,24.920000,24.219999,-48.160000,0.000000,0.000000
10164992.000000,-8.975478,-3.902694,2.074577,10163456.000000,73.779999,23.170000,-18.340000,0.000000,0.000000
10187776.000000,-16.421942,-4.744967,4.089334,10183424.000000,108.220001,20.510000,7.280000,0.000000,0.000000
10204928.000000,-25.328028,-6.254838,-0.564706,10206208.000000,149.940002,43.330002,65.519997,0.000000,0.000000
10224896.000000,-25.215563,-2.038685,-4.622933,10223360.000000,218.399994,93.870003,178.289993,0.000000,0.000000
10244864.000000,-18.118454,-1.316052,-7.448857,10243328.000000,219.100006,-3.080000,185.009995,0.000000,0.000000
10264832.000000,-17.615959,-1.091127,-9.037691,10263296.000000,141.470001,-192.009995,167.720001,0.000000,0.000000
10285824.000000,-18.723837,0.959522,-9.542577,10283264.000000,60.060001,-266.700012,145.110001,0.000000,0.000000
10305024.000000,-17.594425,3.610770,-7.771888,10304256.000000,1.120000,-318.290009,95.129997,0.000000,0.000000
10324992.000000,-15.438492,5.379066,-4.204189,10323456.000000,-77.910004,-382.480011,-1.820000,0.000000,0.000000
10344960.000000,-14.115260,4.161119,-2.081756,10343424.000000,-166.320007,-377.230011,-126.770004,0.000000,0.000000
10364928.000000,-11.868401,1.440479,-2.292324,10363392.000000,-250.250000,-334.390015,-250.460007,0.000000,0.000000
10385920.000000,-10.042676,-1.603191,-2.895315,10383360.000000,-310.799988,-273.839996,-356.440002,0.000000,0.000000
10404864.000000,-9.176475,-4.264010,-3.268596,10404352.000000,-384.649994,-180.740005,-425.179993,0.000000,0.000000
10424832.000000,-9.102298,-6.434300,-2.175076,10423296.000000,-439.040009,-84.629997,-458.640015,0.000000,0.000000
10444800.000000,-9.020942,-7.865208,-1.251446,10443264.000000,-426.440002,-3.430000,-422.380005,0.000000,0.000000
10464768.000000,-9.566505,-6.544370,-0.914058,10463232.000000,-300.649994,45.639999,-340.829987,0.000000,0.000000
10485760.000000,-9.298509,-3.445665,-1.579263,10483200.000000,-90.370003,51.029999,-264.880005,0.000000,0.000000
10504704.000000,-7.503892,-1.509871,-1.986043,10504192.000000,93.379997,15.680000,-195.930008,0.000000,0.000000
10524928.000000,-6.180661,-0.777667,-1.799403,10523136.000000,208.529999,-28.770000,-150.430008,0.000000,0.000000
10544896.000000,-5.603990,0.069392,-1.840081,10543360.000000,263.480011,-64.190002,-123.480003,0.000000,0.000000
10564864.000000,-5.343173,1.038485,-2.306681,10563328.000000,275.100006,-80.570000,-98.559998,0.000000,0.000000
10585600.000000,-5.438886,2.055435,-2.615355,10583296.000000,259.000000,-87.220001,-76.510002,0.000000,0.000000
10604800.000000,-5.517848,2.933600,-2.328217,10604032.000000,215.110001,-100.590004,-63.840000,0.000000,0.000000
10624768.000000,-4.809574,3.488736,-2.670390,10623232.000000,147.210007,-120.610001,-63.209999,0.000000,0.000000
10644736.000000,-4.015156,3.476771,-3.285345,10643200.000000,63.980000,-129.009995,-71.260002,0.000000,0.000000
10664704.000000,-3.893122,3.536592,-3.347559,10663168.000000,-32.060001,-114.870003,-83.090004,0.000000,0.000000
10685696.000000,-5.587241,3.000600,-3.163311,10683136.000000,-126.070000,-80.150002,-77.840004,0.000000,0.000000
10704640.000000,-8.882158,1.304088,-3.871587,10704128.000000,-197.960007,-55.369999,-35.349998,0.000000,0.000000
10724608.000000,-11.837293,-1.447658,-4.907679,10723072.000000,-247.869995,-23.520000,35.980000,0.000000,0.000000
10745088.000000,-13.287343,-5.692525,-3.840480,10743040.000000,-290.640015,-17.570000,109.059998,0.000000,0.000000
10764800.000000,-13.804193,-8.042276,-0.430708,10763520.000000,-330.260010,-22.750000,202.930008,0.000000,0.000000
10785536.000000,-15.280564,-9.257831,3.488736,10783232.000000,-361.760010,-11.690000,328.860016,0.000000,0.000000
10804736.000000,-18.762121,-8.549555,5.754738,10803968.000000,-342.019989,28.070000,439.670013,0.000000,0.000000
10824704.000000,-23.073990,-6.010770,2.273181,10823168.000000,-256.829987,87.080002,505.190002,0.000000,0.000000
10844672.000000,-27.046076,-3.878766,3.079563,10843136.000000,-109.550003,134.050003,559.159973,0.000000,0.000000
10864640.000000,-25.459631,-6.441479,-0.495314,10863104.000000,28.210001,197.330002,613.409973,0.000000,0.000000
10885632.000000,-18.183060,-16.644474,-2.933600,10883072.000000,56.980000,32.759998,463.330017,0.000000,0.000000
10904576.000000,-10.801201,-13.282558,-3.196811,10904064.000000,6.300000,11.620000,353.709991,0.000000,0.000000
10924544.000000,-8.621340,-6.850651,-5.362316,10923008.000000,279.790009,-25.549999,401.450012,0.000000,0.000000
10944512.000000,-8.111670,-0.696311,-4.390830,10942976.000000,583.030029,-7.350000,413.420013,0.000000,0.000000
10964480.000000,-10.030712,4.302295,-1.165305,10962944.000000,653.590027,55.020000,360.640015,0.000000,0.000000
10985472.000000,-12.296716,6.635297,-0.411566,11003904.000000,363.230011,136.220001,167.089996,3620246272.000000,1009.296082
11004672.000000,-10.908878,5.190032,0.483350,0.000000,0.000000,0.000000,0.000000,0.000000,0.000000
11024640.000000,-7.791030,2.433501,2.440679,11023104.000000,148.470001,100.449997,62.930000,0.000000,0.000000
11044608.000000,-6.604190,-0.457029,4.618148,11043072.000000,-22.049999,50.540001,-8.190000,0.000000,0.000000
11064576.000000,-9.073583,-3.431308,4.517649,11063040.000000,-142.940002,52.290001,-34.580002,0.000000,0.000000
11085312.000000,-15.318851,-5.941379,5.833702,11083008.000000,-199.500000,86.660004,-23.450001,0.000000,0.000000
11104512.000000,-22.380072,-9.410972,3.089134,11103744.000000,-186.270004,121.590004,5.040000,0.000000,0.000000
11124480.000000,-20.133211,-6.230910,-0.196211,11122944.000000,-103.180000,140.910004,73.709999,0.000000,0.000000
11145216.000000,-14.230117,-4.436293,-1.852045,11142912.000000,-32.830002,9.100000,40.810001,0.000000,0.000000
11164416.000000,-13.308880,-3.337988,-2.761317,11163648.000000,23.450001,-151.619995,-4.200000,0.000000,0.000000
11187456.000000,-17.216360,-0.009571,-4.476971,11182848.000000,79.379997,-182.350006,1.540000,0.000000,0.000000
11204608.000000,-19.288544,4.070191,-5.706882,11205888.000000,130.550003,-170.869995,-11.900000,0.000000,0.000000
11224576.000000,-17.233109,4.709075,-5.027320,11223040.000000,104.160004,-223.860001,-66.779999,0.000000,0.000000
11244544.000000,-14.493326,2.335395,-3.560520,11243008.000000,10.150000,-298.059998,-158.830002,0.000000,0.000000
11264512.000000,-13.246667,0.174676,-2.337788,11262976.000000,-114.099998,-305.549988,-242.059998,0.000000,0.000000
11285504.000000,-11.729616,-1.507478,-1.385444,11282944.000000,-227.220001,-263.269989,-313.179993,0.000000,0.000000
11304448.000000,-10.609775,-3.275774,-1.600798,11303936.000000,-312.619995,-214.619995,-381.010010,0.000000,0.000000
11324416.000000,-10.308280,-4.393222,-1.830509,11322880.000000,-362.040009,-146.789993,-418.390015,0.000000,0.000000
11344384.000000,-10.296316,-4.728218,-0.878166,11342848.000000,-366.170013,-77.070000,-415.309998,0.000000,0.000000
11364352.000000,-10.722239,-4.953143,-0.174676,11362816.000000,-320.390015,-14.420000,-382.970001,0.000000,0.000000
11385344.000000,-10.822738,-4.465007,-0.258425,11382784.000000,-232.050003,34.230000,-341.179993,0.000000,0.000000
11404288.000000,-10.344172,-3.132205,-0.701097,11403776.000000,-117.599998,52.709999,-297.220001,0.000000,0.000000
11425536.000000,-9.530612,-1.249053,-1.292124,11422720.000000,5.180000,45.360001,-258.230011,0.000000,0.000000
11445248.000000,-8.750552,-0.239282,-1.651048,11443968.000000,112.070000,35.980000,-217.279999,0.000000,0.000000
11465216.000000,-8.152347,1.134198,-1.976472,11463680.000000,184.029999,16.100000,-191.660004,0.000000,0.000000
11486208.000000,-7.551748,2.945565,-2.294717,11483648.000000,215.389999,-10.990000,-172.619995,0.000000,0.000000
11505408.000000,-7.135397,4.706682,-2.227718,11504640.000000,214.759995,-35.490002,-145.949997,0.000000,0.000000
11525888.000000,-7.286145,5.278566,-2.395216,11523840.000000,172.830002,-61.459999,-117.250000,0.000000,0.000000
11545600.000000,-8.688338,4.833502,-2.780460,11544320.000000,90.790001,-78.330002,-91.629997,0.000000,0.000000
11565568.000000,-10.537991,4.211368,-3.457629,11564032.000000,-11.060000,-80.360001,-68.739998,0.000000,0.000000
11586560.000000,-12.043077,1.852045,-4.185047,11584000.000000,-102.129997,-79.029999,-21.840000,0.000000,0.000000
11605760.000000,-13.356737,-2.153540,-3.153740,11604992.000000,-172.339996,-79.029999,42.560001,0.000000,0.000000
11626240.000000,-13.519447,-4.874180,-1.840081,11624192.000000,-231.350006,-88.410004,109.340004,0.000000,0.000000
11645952.000000,-14.821144,-5.917450,-0.504886,11644672.000000,-250.040009,-86.169998,201.460007,0.000000,0.000000
11665920.000000,-17.266607,-6.661618,2.577070,11664384.000000,-214.479996,-64.610001,296.170013,0.000000,0.000000
11686912.000000,-19.235901,-8.961121,4.077370,11684352.000000,-144.690002,-32.970001,370.160004,0.000000,0.000000
11705856.000000,-18.453449,-8.063812,1.213161,11705344.000000,-28.700001,23.450001,429.660004,0.000000,0.000000
11725824.000000,-15.739986,-5.096712,-2.579463,11724288.000000,122.290001,81.480003,489.860016,0.000000,0.000000
11747072.000000,-14.088940,-3.287738,-5.594419,11744256.000000,236.669998,112.559998,514.989990,0.000000,0.000000
11767040.000000,-13.227524,-2.249253,-5.938986,11765504.000000,296.799988,132.649994,478.799988,0.000000,0.000000
11788032.000000,-11.672189,-1.799403,-4.644469,11785472.000000,279.579987,129.570007,427.140015,0.000000,0.000000
11806976.000000,-10.839487,-0.215354,-3.397808,11806464.000000,222.600006,108.500000,367.850006,0.000000,0.000000
11827200.000000,-10.468598,0.727418,-1.940579,11825408.000000,172.339996,95.900002,301.769989,0.000000,0.000000
11846912.000000,-9.822537,0.583849,-0.296710,11845632.000000,134.610001,87.919998,241.080002,0.000000,0.000000
11866880.000000,-9.446864,0.062213,0.894916,11865344.000000,83.440002,77.209999,177.940002,0.000000,0.000000
11887872.000000,-10.064213,-0.607777,1.208375,11885312.000000,33.950001,84.209999,118.440002,0.000000,0.000000
11907072.000000,-10.382458,-1.521835,1.426122,11906304.000000,-4.690000,100.519997,75.110001,0.000000,0.000000
11927040.000000,-10.497313,-2.593820,1.907080,11925504.000000,-43.959999,102.059998,43.610001,0.000000,0.000000
11947008.000000,-10.681561,-3.871587,2.313859,11945472.000000,-79.379997,99.820000,24.080000,0.000000,0.000000
11966976.000000,-10.537991,-4.539185,2.325824,11965440.000000,-103.040001,101.150002,20.160000,0.000000,0.000000
11987968.000000,-9.628718,-4.125226,1.813759,11985408.000000,-114.800003,89.809998,15.680000,0.000000,0.000000
12006912.000000,-8.810372,-2.737389,0.071785,12006400.000000,-109.059998,62.510002,6.370000,3621248768.000000,1009.326416
12026880.000000,-11.521441,-1.825724,-0.547956,12025344.000000,-94.360001,30.730000,-5.040000,0.000000,0.000000
12046848.000000,-18.350555,-3.737589,-0.287139,12045312.000000,-80.220001,26.460001,-7.980000,0.000000,0.000000
12066816.000000,-21.734007,-4.718646,-2.053042,12065280.000000,-44.799999,63.630001,19.809999,0.000000,0.000000
12087808.000000,-15.996019,-2.600998,-3.567699,12085248.000000,-10.500000,10.360000,-12.670000,0.000000,0.000000
12106752.000000,-14.321043,-0.887737,-5.326423,12106240.000000,-20.370001,-128.449997,-90.930000,0.000000,0.000000
12126720.000000,-14.648861,1.761117,-5.264209,12125184.000000,-65.239998,-156.660004,-124.459999,0.000000,0.000000
12146688.000000,-12.308680,2.663212,-4.651647,12145152.000000,-175.559998,-149.520004,-181.649994,0.000000,0.000000
12166656.000000,-10.932807,0.564706,-3.725625,12165120.000000,-312.619995,-145.320007,-283.500000,0.000000,0.000000
12189696.000000,-12.069397,-3.110669,-3.498307,12185088.000000,-429.730011,-100.730003,-383.529999,0.000000,0.000000
12206848.000000,-13.272987,-6.680761,-2.727818,12208128.000000,-469.350006,-56.490002,-416.850006,0.000000,0.000000
12226816.000000,-13.603197,-8.226524,-2.079363,12225280.000000,-490.980011,52.150002,-448.279999,0.000000,0.000000
12246784.000000,-13.672589,-7.733603,-1.658226,12245248.000000,-426.089996,147.490005,-445.410004,0.000000,0.000000
12266752.000000,-13.663017,-7.322037,-1.581656,12265216.000000,-297.709991,203.979996,-393.470001,0.000000,0.000000
12287744.000000,-14.438292,-4.060620,-0.404387,12285184.000000,-131.110001,230.790009,-318.360016,0.000000,0.000000
12306688.000000,-13.715660,-2.462214,2.031506,12306176.000000,46.340000,227.149994,-255.639999,0.000000,0.000000
12326656.000000,-12.770494,1.313660,4.443472,12325120.000000,207.059998,200.970001,-199.360001,0.000000,0.000000
12346624.000000,-6.307480,15.160924,0.698704,12345088.000000,364.350006,169.610001,-150.360001,0.000000,0.000000
12366592.000000,-5.091926,17.702101,-6.917650,12365056.000000,464.589996,85.470001,-98.000000,0.000000,0.000000
12387584.000000,-7.917850,10.423136,-2.763710,12385024.000000,430.640015,-29.680000,-114.940002,0.000000,0.000000
12406528.000000,-9.791430,4.713861,2.804388,12406016.000000,-49.070000,-109.830002,-114.590004,0.000000,0.000000
12426752.000000,-6.470192,4.046263,3.077170,12424960.000000,-237.580002,-144.059998,11.620000,0.000000,0.000000
12446720.000000,-5.338387,3.457629,3.601198,12445184.000000,-120.540001,-137.970001,131.039993,0.000000,0.000000
12466688.000000,-10.487741,2.328217,2.423929,12465152.000000,-26.809999,-107.870003,179.270004,0.000000,0.000000
12487424.000000,-12.933208,1.832902,0.179462,12485120.000000,30.799999,-64.680000,215.949997,0.000000,0.000000
12506624.000000,-19.106688,2.263610,-7.970492,12505856.000000,109.199997,-100.309998,260.959991,0.000000,0.000000
12526592.000000,-39.991245,9.597611,-10.554741,12525056.000000,184.729996,-80.150002,270.200012,0.000000,0.000000
12546560.000000,-31.645081,-10.607382,-14.813965,12545024.000000,8.260000,58.660000,264.179993,0.000000,0.000000
12566528.000000,-12.679568,-27.488747,-2.952743,12564992.000000,-433.160004,-185.710007,70.070000,0.000000,0.000000
12587520.000000,-7.771888,-11.777473,4.055835,12584960.000000,-303.799988,-278.040009,113.050003,0.000000,0.000000
12606464.000000,-6.300302,-6.474977,5.556134,12605952.000000,-96.879997,-79.730003,381.500000,0.000000,0.000000
12626688.000000,-6.144768,-4.740182,4.010371,12624896.000000,244.369995,-8.960000,320.600006,0.000000,0.000000
12646400.000000,-7.515855,-3.716053,-2.689533,12645120.000000,390.179993,108.360001,309.959991,0.000000,0.000000
12666624.000000,-9.834501,-3.105884,-5.194818,12664832.000000,505.399994,227.009995,309.470001,0.000000,0.000000
12687360.000000,-10.061819,-3.718446,-6.891330,12685056.000000,576.940002,257.600006,299.600006,0.000000,0.000000
12706560.000000,-10.411172,-2.431108,-5.711668,12705792.000000,536.690002,203.630005,211.330002,0.000000,0.000000
12726528.000000,-8.752945,0.519243,-2.486143,12724992.000000,386.119995,145.809998,150.570007,0.000000,0.000000
12746496.000000,-7.281359,0.358923,-0.674776,12744960.000000,209.930008,50.330002,117.809998,0.000000,0.000000
12766464.000000,-5.747560,-0.150748,1.186840,12764928.000000,99.400002,-6.580000,65.449997,0.000000,0.000000
12787456.000000,-5.285746,-0.698704,2.428715,12784896.000000,14.070000,-11.970000,45.150002,0.000000,0.000000
12806400.000000,-5.977271,-1.414158,4.914857,12805888.000000,-47.810001,9.660000,21.350000,0.000000,0.000000
12826368.000000,-7.645068,-2.935993,5.924629,12824832.000000,-61.040001,35.980000,5.530000,0.000000,0.000000
12846336.000000,-9.396614,-4.051049,5.029713,12844800.000000,-5.670000,65.590004,7.910000,0.000000,0.000000
12866304.000000,-9.525827,-3.802195,3.091527,12864768.000000,65.940002,55.160000,6.160000,0.000000,0.000000
12887296.000000,-10.097712,-3.460021,1.339981,12884736.000000,108.010002,18.200001,8.470000,0.000000,0.000000
12906240.000000,-13.339987,-2.900101,-0.421137,12905728.000000,123.550003,-6.020000,5.530000,0.000000,0.000000
12926464.000000,-21.291336,-3.716053,-0.172283,12924672.000000,124.879997,-6.230000,17.780001,0.000000,0.000000
12946432.000000,-27.467209,-3.610770,-3.203990,12944896.000000,137.899994,11.480000,62.090000,0.000000,0.000000
12966400.000000,-23.681765,-2.239682,-5.146961,12964864.000000,147.979996,-37.170002,79.519997,0.000000,0.000000
12987136.000000,-21.544977,-0.914058,-7.716853,12984832.000000,140.279999,-177.029999,48.720001,0.000000,0.000000
13006336.000000,-20.219351,1.045663,-8.487342,13005568.000000,130.550003,-265.510010,37.939999,3622247936.000000,1009.354553
13026560.000000,-16.948362,2.557927,-7.027720,13024768.000000,83.300003,-321.369995,8.400000,0.000000,0.000000
13046272.000000,-15.503098,3.395415,-5.268995,13064704.000000,-107.520004,-371.279999,-148.610001,0.000000,0.000000
13066240.000000,-13.651052,3.474378,-3.479164,0.000000,0.000000,0.000000,0.000000,0.000000,0.000000
13087232.000000,-11.234302,2.132005,-2.634498,13084672.000000,-206.289993,-327.950012,-247.380005,0.000000,0.000000
13106176.000000,-9.456435,0.368495,-2.053042,13105664.000000,-272.299988,-275.869995,-343.070007,0.000000,0.000000
13126144.000000,-8.743374,-1.512264,-1.569692,13124608.000000,-316.260010,-197.470001,-407.190002,0.000000,0.000000
13146368.000000,-7.913064,-3.160919,-1.316052,13144576.000000,-339.989990,-119.559998,-430.709991,0.000000,0.000000
13167104.000000,-7.463214,-4.405186,-0.504886,13164800.000000,-336.980011,-50.189999,-412.790009,0.000000,0.000000
13189120.000000,-7.716853,-5.039285,-0.569492,13185536.000000,-296.589996,12.530000,-364.000000,0.000000,0.000000
13206272.000000,-8.197811,-4.007978,-0.784846,13207552.000000,-184.309998,48.860001,-299.600006,0.000000,0.000000
13226240.000000,-7.628319,-1.866402,-0.894916,13224704.000000,-32.759998,36.189999,-228.899994,0.000000,0.000000
13247232.000000,-7.070791,-0.373280,-1.244268,13244672.000000,79.239998,-0.350000,-164.500000,0.000000,0.000000
13267200.000000,-6.434300,1.507478,-1.938186,13265664.000000,145.529999,-31.570000,-117.739998,0.000000,0.000000
13288192.000000,-5.950950,3.718446,-2.770889,13285632.000000,166.740005,-56.770000,-83.720001,0.000000,0.000000
13307392.000000,-5.946165,5.161318,-3.218346,13306624.000000,152.529999,-79.730003,-58.869999,0.000000,0.000000
13327360.000000,-6.250053,5.496314,-3.065206,13325824.000000,98.769997,-101.989998,-48.790001,0.000000,0.000000
13347584.000000,-6.687939,4.986642,-3.577270,13345792.000000,5.390000,-121.029999,-49.279999,0.000000,0.000000
13367552.000000,-7.910671,3.799802,-4.319045,13366016.000000,-100.099998,-130.270004,-52.080002,0.000000,0.000000
13388544.000000,-10.514063,3.060420,-5.276174,13385984.000000,-192.919998,-126.209999,-47.880001,0.000000,0.000000
13407744.000000,-14.828322,1.256232,-5.891129,13406976.000000,-267.119995,-125.020004,-23.100000,0.000000,0.000000
13427712.000000,-18.465412,-2.648855,-5.436492,13426176.000000,-317.100006,-125.440002,33.250000,0.000000,0.000000
13447936.000000,-19.436897,-8.731410,-3.756732,13446144.000000,-347.619995,-140.210007,112.980003,0.000000,0.000000
13467904.000000,-17.639889,-15.589240,0.660419,13466368.000000,-329.140015,-161.839996,210.559998,0.000000,0.000000
13488896.000000,-17.778673,-14.912071,0.710668,13486336.000000,-272.790009,-141.119995,344.399994,0.000000,0.000000
13508096.000000,-16.259230,-10.810772,1.205983,13507328.000000,-183.119995,-46.270000,485.799988,0.000000,0.000000
13527808.000000,-18.340984,-9.154939,-1.615155,13526528.000000,-63.910000,-15.260000,536.200012,0.000000,0.000000
13547776.000000,-18.305092,-9.439686,-5.352744,13546240.000000,77.419998,31.710001,551.250000,0.000000,0.000000
13569024.000000,-14.993427,-8.750552,-8.221739,13566208.000000,224.000000,80.360001,548.030029,0.000000,0.000000
13590016.000000,-11.198411,-5.297709,-11.140982,13608448.000000,273.630005,-26.040001,335.369995,0.000000,0.000000
13608960.000000,-8.224132,-2.199004,-10.719845,0.000000,0.000000,0.000000,0.000000,0.000000,0.000000
13628928.000000,-7.173682,-4.823930,-5.034499,13627392.000000,102.480003,-38.220001,240.940002,0.000000,0.000000
13649152.000000,-6.580262,-9.944571,-1.263410,13647360.000000,-140.770004,-65.590004,112.000000,0.000000,0.000000
13668864.000000,-6.812366,-15.376277,-2.486143,13667584.000000,-387.940002,-31.710001,2.100000,0.000000,0.000000
13689856.000000,-7.355537,-18.910479,1.095913,13687296.000000,-448.559998,57.750000,-41.720001,0.000000,0.000000
13709056.000000,-5.304887,-17.558533,2.060220,13708288.000000,-367.920013,57.889999,-66.500000,0.000000,0.000000
13729024.000000,-4.405186,-16.230515,0.442672,13727488.000000,-238.839996,46.480000,-43.889999,0.000000,0.000000
13749248.000000,-5.493921,-14.112868,-1.091127,13747456.000000,-59.570000,34.230000,-19.809999,0.000000,0.000000
13768960.000000,-7.475177,-11.631511,-2.464607,13767680.000000,85.820000,42.279999,-19.950001,0.000000,0.000000
13789696.000000,-10.648061,-8.836694,-2.490928,13787392.000000,156.169998,43.540001,-35.139999,0.000000,0.000000
13808896.000000,-14.376079,-7.544570,-3.230310,13808128.000000,139.369995,31.219999,-68.110001,0.000000,0.000000
13828864.000000,-19.207188,-9.162118,-3.019742,13827328.000000,102.059998,7.070000,-101.220001,0.000000,0.000000
13848832.000000,-23.138594,-10.368099,-2.715853,13847296.000000,92.120003,-26.250000,-129.570007,0.000000,0.000000
13868800.000000,-23.720051,-7.838887,-3.428915,13867264.000000,134.960007,-44.520000,-146.020004,0.000000,0.000000
13889792.000000,-22.779671,-4.051049,-3.538985,13887232.000000,230.720001,-60.900002,-140.350006,0.000000,0.000000
13908992.000000,-20.166712,-1.256232,-4.158726,13908224.000000,287.980011,-77.139999,-142.589996,0.000000,0.000000
13928960.000000,-18.285952,-0.050249,-4.857430,13927424.000000,289.730011,-74.199997,-164.289993,0.000000,0.000000
13948928.000000,-16.735401,0.208176,-4.893322,13947392.000000,262.640015,-73.849998,-190.399994,0.000000,0.000000
13968896.000000,-16.462620,1.117448,-3.048456,13967360.000000,200.830002,-74.760002,-218.399994,0.000000,0.000000
13989632.000000,-12.638889,4.029513,-3.146562,14008064.000000,53.970001,-43.610001,-235.479996,3623250432.000000,1009.382935
14008832.000000,-8.157133,7.534998,0.263210,0.000000,0.000000,0.000000,0.000000,0.000000,0.000000
14028800.000000,-1.880759,10.715059,0.138784,14027264.000000,10.080000,-50.119999,-230.860001,0.000000,0.000000
14048768.000000,-1.220340,7.496714,-1.878366,14047232.000000,-4.620000,-65.169998,-223.649994,0.000000,0.000000
14068736.000000,-5.632704,1.244268,-3.426522,14067200.000000,-36.750000,-66.290001,-240.240005,0.000000,0.000000
14089728.000000,-9.257831,-0.634098,-2.660819,14087168.000000,-132.020004,-36.189999,-169.190002,0.000000,0.000000
14108928.000000,-6.661618,3.127419,-1.931008,14108160.000000,-166.740005,-53.130001,-30.240000,0.000000,0.000000
14128640.000000,-6.065805,4.496114,-3.739982,14127360.000000,-88.199997,-107.309998,51.450001,0.000000,0.000000
14148864.000000,-8.729016,4.369294,-5.465207,14147072.000000,-27.020000,-112.279999,103.669998,0.000000,0.000000
14168576.000000,-7.252645,4.589434,-4.589434,14167296.000000,-62.299999,-77.070000,120.400002,0.000000,0.000000
14191616.000000,-4.840680,3.546163,-2.206182,14187008.000000,-102.269997,-92.120003,106.820000,0.000000,0.000000
14208512.000000,-6.874579,2.297110,-1.727618,14210048.000000,-97.790001,-122.290001,55.439999,0.000000,0.000000
14228736.000000,-10.231709,2.636890,-1.885544,14226944.000000,-97.090004,-75.879997,32.759998,0.000000,0.000000
14248704.000000,-12.418750,2.019542,-2.033899,14247168.000000,-123.550003,-28.420000,61.320000,0.000000,0.000000
14268672.000000,-21.798615,0.339781,-2.708675,14267136.000000,-131.740005,-6.440000,68.040001,0.000000,0.000000
14289408.000000,-31.666615,-3.976871,-6.424729,14287104.000000,-107.309998,11.830000,126.770004,0.000000,0.000000
14308608.000000,-29.788250,-11.944970,-5.855237,14307840.000000,-70.000000,63.209999,259.000000,0.000000,0.000000
14328576.000000,-17.529818,-28.407591,7.288538,14327040.000000,-71.260002,74.900002,395.920013,0.000000,0.000000
14348544.000000,-17.620745,-30.084959,8.535198,14347008.000000,-47.180000,101.919998,526.750000,0.000000,0.000000
14368512.000000,-14.758930,-14.656039,-1.373480,14366976.000000,102.410004,301.209991,691.809998,0.000000,0.000000
14389504.000000,-9.932607,0.210568,-6.601797,14386944.000000,390.179993,347.059998,728.210022,0.000000,0.000000
14408448.000000,-11.351551,1.517050,-12.320643,14407936.000000,592.270020,237.020004,602.979980,0.000000,0.000000
14428416.000000,-10.167104,6.869793,-2.689533,14426880.000000,637.140015,168.350006,357.910004,0.000000,0.000000
14448384.000000,-8.161918,3.677768,-0.272782,14446848.000000,309.959991,40.459999,188.440002,0.000000,0.000000
14468608.000000,-6.879365,2.799603,0.459422,14466816.000000,131.880005,-31.219999,44.799999,0.000000,0.000000
14489344.000000,-5.328816,2.127219,0.935594,14487040.000000,43.540001,-63.630001,-55.650002,0.000000,0.000000
14508544.000000,-4.211368,2.352145,1.978864,14507776.000000,-9.590000,-72.169998,-56.700001,0.000000,0.000000
14528512.000000,-3.538985,0.875773,3.862016,14526976.000000,-54.110001,-70.419998,-72.309998,0.000000,0.000000
14548480.000000,-4.955536,-1.825724,5.455636,14546944.000000,-89.809998,-58.799999,-102.970001,0.000000,0.000000
14568448.000000,-6.790830,-4.900501,5.747560,14566912.000000,-120.610001,-36.889999,-116.480003,0.000000,0.000000
14589440.000000,-7.037291,-8.185846,6.611369,14586880.000000,-161.699997,-40.880001,-110.529999,0.000000,0.000000
14608384.000000,-8.822337,-9.477970,5.654240,14607872.000000,-158.690002,-49.279999,-104.370003,0.000000,0.000000
14628352.000000,-9.303294,-7.030113,2.919244,14626816.000000,-86.309998,-36.330002,-86.099998,0.000000,0.000000
14648320.000000,-9.868000,-3.974478,0.727418,14646784.000000,-5.250000,-41.020000,-23.730000,0.000000,0.000000
14668288.000000,-13.450057,-1.787439,-1.679761,14666752.000000,47.320000,-50.400002,20.160000,0.000000,0.000000
14689280.000000,-20.523239,-1.682154,-3.474378,14686720.000000,62.510002,-43.680000,62.860001,0.000000,0.000000
14708224.000000,-26.160730,-0.868595,-6.654440,14707712.000000,78.959999,-32.759998,96.180000,0.000000,0.000000
14728448.000000,-21.956541,-2.215754,-7.152147,14726656.000000,85.050003,-34.020000,147.490005,0.000000,0.000000
14748416.000000,-20.714666,-3.390630,-7.331609,14746880.000000,38.570000,-138.320007,103.389999,0.000000,0.000000
14768384.000000,-18.257236,-4.522435,-6.415157,14766848.000000,38.570000,-261.519989,46.619999,0.000000,0.000000
14789120.000000,-16.529619,2.356930,-2.467000,14786816.000000,-6.650000,-298.970001,-5.110000,0.000000,0.000000
14808320.000000,-17.170895,4.331009,-2.273181,14807552.000000,-2.240000,-293.579987,-92.680000,0.000000,0.000000
14828288.000000,-16.613367,5.826523,-2.933600,14826752.000000,33.810001,-256.059998,-183.470001,0.000000,0.000000
14848256.000000,-14.952748,4.953143,-3.646662,14846720.000000,37.660000,-221.970001,-271.670013,0.000000,0.000000
14868224.000000,-12.818351,2.249253,-3.345166,14866688.000000,3.990000,-179.339996,-345.660004,0.000000,0.000000
14889216.000000,-10.676775,-1.356731,-2.050649,14886656.000000,-62.790001,-147.910004,-407.399994,0.000000,0.000000
14908160.000000,-8.511270,-4.599005,-1.478764,14907648.000000,-138.949997,-117.040001,-444.220001,0.000000,0.000000
14928128.000000,-7.664211,-6.147161,-1.038485,14926592.000000,-190.190002,-75.879997,-413.350006,0.000000,0.000000
14948096.000000,-7.838887,-5.249853,-1.055235,14946560.000000,-207.339996,-34.720001,-348.950012,0.000000,0.000000
14968320.000000,-7.846066,-2.129612,-0.279960,14966528.000000,-179.899994,3.920000,-288.890015,0.000000,0.000000
14989056.000000,-7.034898,0.519243,0.576670,14986752.000000,-131.110001,17.990000,-217.559998,0.000000,0.000000
15008256.000000,-6.029913,2.079363,0.215354,15007488.000000,-74.199997,8.470000,-158.970001,3624249856.000000,1009.411621
15028224.000000,-5.386244,3.223132,-1.122234,15026688.000000,1.190000,-23.730000,-125.440002,0.000000,0.000000
15048192.000000,-4.622933,3.938586,-2.342573,15046656.000000,63.209999,-51.590000,-101.849998,0.000000,0.000000
15068160.000000,-4.249653,4.333402,-2.598605,15066624.000000,74.340004,-69.440002,-84.629997,0.000000,0.000000
15089152.000000,-4.271189,4.242475,-2.536392,15086592.000000,47.810001,-82.320000,-76.860001,0.000000,0.000000
15108096.000000,-4.886144,3.263810,-2.318645,15107584.000000,2.100000,-88.199997,-64.190002,0.000000,0.000000
15128064.000000,-6.427122,1.931008,-1.629512,15126528.000000,-52.290001,-84.840004,-43.049999,0.000000,0.000000
15148032.000000,-8.693125,0.409173,-0.792024,15146496.000000,-101.010002,-72.800003,-12.460000,0.000000,0.000000
15168000.000000,-11.504691,-0.973879,0.078963,15166464.000000,-125.860001,-56.139999,33.670002,0.000000,0.000000
15191040.000000,-16.048662,-2.476572,-0.976272,15186432.000000,-137.759995,-38.220001,94.220001,0.000000,0.000000
15208192.000000,-20.965912,-4.673182,-2.703890,15209472.000000,-135.800003,-13.580000,181.580002,0.000000,0.000000
15228928.000000,-23.521446,-7.812566,-1.529014,15226624.000000,-112.770004,23.240000,279.579987,0.000000,0.000000
15248128.000000,-22.241287,-11.653046,3.620341,15247360.000000,-70.980003,49.770000,372.890015,0.000000,0.000000
15268864.000000,-18.209379,-12.837494,3.495914,15266560.000000,3.500000,67.199997,470.470001,0.000000,0.000000
15289600.000000,-15.890735,-9.889536,1.674976,15287296.000000,150.570007,149.940002,555.869995,0.000000,0.000000
15308800.000000,-15.132210,-6.539584,-1.856830,15308032.000000,331.940002,221.690002,589.330017,0.000000,0.000000
15328768.000000,-13.095919,-3.713661,-4.979464,15327232.000000,482.860016,241.990005,538.580017,0.000000,0.000000
15348736.000000,-11.511869,-0.545564,-7.087541,15347200.000000,564.409973,211.399994,433.369995,0.000000,0.000000
15369216.000000,-11.313265,2.371287,-6.728617,15367168.000000,567.840027,172.690002,330.260010,0.000000,0.000000
15389952.000000,-11.612368,5.247460,-5.343173,15387648.000000,510.929993,126.770004,219.800003,0.000000,0.000000
15409152.000000,-10.389636,6.874579,-2.261217,15408384.000000,396.200012,81.830002,117.949997,0.000000,0.000000
15429120.000000,-8.286345,5.319244,0.464208,15427584.000000,218.119995,33.250000,20.790001,0.000000,0.000000
15449088.000000,-8.276773,2.739782,-0.033500,15447552.000000,3.570000,31.430000,-58.939999,0.000000,0.000000
15469568.000000,-8.513663,0.404387,-0.055035,15467520.000000,-201.669998,81.269997,-98.559998,0.000000,0.000000
15490304.000000,-7.319644,-2.158326,1.088734,15488000.000000,-361.480011,96.949997,-129.149994,0.000000,0.000000
15509504.000000,-6.740582,-5.560920,3.424129,15508736.000000,-458.500000,102.760002,-146.300003,0.000000,0.000000
15529472.000000,-7.496714,-8.939585,4.067799,15527936.000000,-473.899994,112.070000,-121.169998,0.000000,0.000000
15549440.000000,-10.700702,-9.693325,3.790231,15547904.000000,-395.220001,147.910004,-52.849998,0.000000,0.000000
15569152.000000,-11.370694,-9.456435,3.172883,15567872.000000,-272.299988,159.529999,31.010000,0.000000,0.000000
15591424.000000,-10.334601,-8.434700,1.808974,15587584.000000,-136.430008,109.690002,85.540001,0.000000,0.000000
15610624.000000,-9.439686,-6.295516,0.122034,15609856.000000,19.530001,39.480000,110.809998,0.000000,0.000000
15630592.000000,-9.805787,-3.553342,-1.100698,15629056.000000,158.690002,-14.420000,127.120003,0.000000,0.000000
15650560.000000,-11.270195,-0.612563,-2.469393,15649024.000000,238.210007,-46.549999,129.919998,0.000000,0.000000
15670528.000000,-14.816358,2.153540,-4.027121,15668992.000000,251.089996,-66.849998,122.010002,0.000000,0.000000
15691264.000000,-21.489941,2.964707,-4.168297,15688960.000000,221.479996,-81.129997,103.320000,0.000000,0.000000
15710464.000000,-22.583462,2.347359,-4.170690,15709696.000000,170.380005,-96.250000,82.389999,0.000000,0.000000
15730432.000000,-17.764317,1.500300,-3.747160,15728896.000000,101.709999,-201.669998,-0.280000,0.000000,0.000000
15750400.000000,-17.721243,0.638884,-4.795217,15748864.000000,9.590000,-321.860016,-98.559998,0.000000,0.000000
15770624.000000,-18.039490,0.260818,-5.280960,15768832.000000,-81.620003,-317.940002,-144.759995,0.000000,0.000000
15791360.000000,-16.979469,-0.480957,-4.395615,15789056.000000,-190.820007,-296.170013,-210.839996,0.000000,0.000000
15810560.000000,-16.857435,-1.464408,-3.732803,15809792.000000,-292.320007,-270.480011,-294.489990,0.000000,0.000000
15830528.000000,-15.716059,-2.275574,-3.428915,15828992.000000,-364.279999,-211.889999,-353.079987,0.000000,0.000000
15850496.000000,-13.811372,-2.687140,-2.622534,15848960.000000,-393.610016,-135.800003,-386.750000,0.000000,0.000000
15870464.000000,-11.609976,-2.933600,-1.799403,15868928.000000,-370.790009,-60.549999,-397.529999,0.000000,0.000000
15891200.000000,-9.925428,-3.113062,-1.406980,15888896.000000,-300.579987,-2.170000,-383.880005,0.000000,0.000000
15910400.000000,-9.233903,-3.455236,-1.107877,15909632.000000,-198.449997,39.410000,-351.119995,0.000000,0.000000
15930368.000000,-9.353544,-3.316452,-1.194018,15928832.000000,-85.680000,63.490002,-303.239990,0.000000,0.000000
15950336.000000,-9.611969,-2.237289,-1.196411,15948800.000000,16.030001,71.610001,-248.220001,0.000000,0.000000
15970304.000000,-8.846266,-0.327817,-1.658226,15968768.000000,103.040001,62.650002,-202.649994,0.000000,0.000000
15991296.000000,-7.599605,1.337588,-1.466800,16009728.000000,212.800003,14.630000,-114.660004,3625252096.000000,1009.446106
16010240.000000,-6.319445,2.612962,-1.660619,0.000000,0.000000,0.000000,0.000000,0.000000,0.000000
16030464.000000,-5.816952,3.196811,-2.665605,16028672.000000,203.070007,-23.870001,-84.000000,0.000000,0.000000
16050176.000000,-5.824130,3.318845,-3.594020,16048896.000000,150.430008,-47.740002,-61.459999,0.000000,0.000000
16070400.000000,-5.486742,3.503092,-3.952943,16068608.000000,66.639999,-63.700001,-36.750000,0.000000,0.000000
16091136.000000,-4.957928,3.232704,-3.974478,16088832.000000,-25.340000,-84.629997,-13.860000,0.000000,0.000000
16110336.000000,-4.981857,2.151148,-3.816552,16109568.000000,-105.769997,-102.690002,-3.640000,0.000000,0.000000
16130304.000000,-5.434100,0.729811,-3.005385,16128768.000000,-172.970001,-109.970001,5.600000,0.000000,0.000000
16150272.000000,-5.469993,-0.440279,-1.667797,16148736.000000,-215.250000,-104.860001,20.510000,0.000000,0.000000
16170240.000000,-5.551349,-1.115055,-0.686740,16168704.000000,-214.830002,-99.400002,36.889999,0.000000,0.000000
16193024.000000,-7.164111,-1.237089,-0.538385,16188672.000000,-170.520004,-86.309998,60.270000,0.000000,0.000000
16210176.000000,-8.516055,-1.227518,-0.502493,16211456.000000,-98.629997,-62.510002,103.949997,0.000000,0.000000
16230144.000000,-9.882358,-1.646262,-0.873380,16228608.000000,-42.000000,-38.639999,160.789993,0.000000,0.000000
16250112.000000,-13.359130,-2.299503,-1.153341,16248576.000000,-4.480000,-14.070000,213.080002,0.000000,0.000000
16270080.000000,-18.288343,-3.299703,-2.017149,16268544.000000,19.389999,18.760000,277.829987,0.000000,0.000000
16291072.000000,-23.337198,-4.957928,-4.374080,16288512.000000,23.870001,62.580002,351.540009,0.000000,0.000000
16310016.000000,-30.367313,-6.795617,-7.499106,16309504.000000,18.969999,110.739998,420.769989,0.000000,0.000000
16329984.000000,-32.561531,-9.233903,-4.630112,16328448.000000,3.080000,130.619995,505.190002,0.000000,0.000000
16349952.000000,-27.979275,-16.910078,3.936193,16348416.000000,21.700001,106.330002,579.950012,0.000000,0.000000
16370176.000000,-14.445471,-16.716259,1.780260,16368384.000000,136.289993,106.540001,598.849976,0.000000,0.000000
16390912.000000,-12.614961,-4.541577,-4.261617,16388608.000000,299.950012,185.639999,574.909973,0.000000,0.000000
16410112.000000,-9.655040,4.424329,-5.534599,16409344.000000,521.220032,99.330002,418.529999,0.000000,0.000000
16430080.000000,-8.360522,10.365707,-4.144369,16428544.000000,571.830017,52.639999,278.739990,0.000000,0.000000
16450048.000000,-5.391029,9.509077,-1.411765,16448512.000000,417.899994,26.530001,119.279999,0.000000,0.000000
16470016.000000,-6.175875,4.577469,-1.270589,16468480.000000,109.270004,-18.270000,-9.660000,0.000000,0.000000
16491008.000000,-6.939186,2.694318,-2.017149,16488448.000000,-83.650002,5.670000,-90.510002,0.000000,0.000000
16509952.000000,-7.381857,0.753739,-1.299303,16509440.000000,-173.809998,21.210001,-98.209999,0.000000,0.000000
16529920.000000,-7.389036,-2.495714,0.124427,16528384.000000,-237.790009,6.790000,-121.449997,0.000000,0.000000
16549888.000000,-7.647461,-6.415157,2.136791,16548352.000000,-309.260010,-25.270000,-150.919998,0.000000,0.000000
16569856.000000,-7.427321,-10.514063,2.172683,16568320.000000,-393.820007,-51.590000,-161.279999,0.000000,0.000000
16590848.000000,-6.367301,-11.794223,2.201397,16588288.000000,-414.540009,-49.840000,-147.630005,0.000000,0.000000
16610048.000000,-5.201996,-9.786645,2.660819,16609280.000000,-319.059998,-43.820000,-106.190002,0.000000,0.000000
16630016.000000,-5.393422,-8.128418,3.323631,16628480.000000,-155.820007,-32.130001,-30.799999,0.000000,0.000000
16649984.000000,-6.702296,-8.286345,3.278167,16648448.000000,-9.030000,-18.900000,35.209999,0.000000,0.000000
16669952.000000,-8.456236,-8.281559,2.629712,16668416.000000,105.840004,-2.520000,85.400002,0.000000,0.000000
16690688.000000,-10.449455,-6.910471,0.401994,16688384.000000,194.600006,17.920000,129.990005,0.000000,0.000000
16709888.000000,-12.806387,-5.115855,-1.741975,16709120.000000,256.970001,26.950001,149.169998,0.000000,0.000000
16729856.000000,-19.188044,-4.759324,-4.218546,16728320.000000,285.880005,20.160000,153.789993,0.000000,0.000000
16749824.000000,-32.487354,-6.721439,-9.425328,16748288.000000,316.750000,32.410000,177.240005,0.000000,0.000000
16769792.000000,-28.711479,-1.818545,-12.277573,16768256.000000,381.220001,42.070000,212.100006,0.000000,0.000000
16790784.000000,-17.785851,1.548156,-10.896914,16788224.000000,395.429993,-146.229996,153.509995,0.000000,0.000000
16809728.000000,-14.354543,2.718246,-8.202596,16809216.000000,304.429993,-375.339996,44.939999,0.000000,0.000000
16829696.000000,-14.541183,4.797609,-3.974478,16828160.000000,177.800003,-440.019989,-20.510000,0.000000,0.000000
16849664.000000,-18.750158,5.692525,-3.304488,16848128.000000,65.099998,-403.970001,-89.739998,0.000000,0.000000
16869888.000000,-20.539989,4.859823,-4.235296,16868096.000000,-5.250000,-335.790009,-189.910004,0.000000,0.000000
16890624.000000,-19.063618,1.399801,-4.067799,16888320.000000,-92.190002,-323.890015,-289.170013,0.000000,0.000000
16909824.000000,-16.572689,-3.153740,-3.878766,16909056.000000,-215.250000,-301.350006,-390.040009,0.000000,0.000000
16929792.000000,-14.055440,-5.919843,-3.795017,16928256.000000,-305.339996,-231.279999,-447.790009,0.000000,0.000000
16949760.000000,-13.002598,-6.405586,-2.897708,16948224.000000,-330.190002,-150.430008,-452.760010,0.000000,0.000000
16969728.000000,-12.777672,-4.905287,-2.163112,16968192.000000,-298.760010,-78.190002,-407.750000,0.000000,0.000000
16990720.000000,-12.145968,-3.069991,-0.878166,17009152.000000,-115.080002,1.260000,-293.160004,3626251264.000000,1009.477295
17009664.000000,-10.868200,-1.098306,-0.356531,0.000000,0.000000,0.000000,0.000000,0.000000,0.000000
17029632.000000,-9.748360,1.076770,-0.758525,17028096.000000,-0.770000,-4.130000,-249.130005,0.000000,0.000000
17049600.000000,-8.190632,2.352145,-1.907080,17048064.000000,99.260002,-17.500000,-215.110001,0.000000,0.000000
17069568.000000,-7.018148,2.689533,-2.806781,17068032.000000,157.990005,-39.759998,-186.830002,0.000000,0.000000
17090560.000000,-6.338587,2.634498,-3.069991,17088000.000000,161.490005,-65.449997,-169.259995,0.000000,0.000000
17109760.000000,-6.326623,2.854637,-3.072384,17108992.000000,130.619995,-85.260002,-150.639999,0.000000,0.000000
17129728.000000,-6.544370,3.036492,-2.739782,17128192.000000,111.650002,-88.970001,-133.419998,0.000000,0.000000
17149696.000000,-6.419943,2.758924,-1.782653,17148160.000000,76.300003,-88.760002,-124.389999,0.000000,0.000000
17169664.000000,-7.204789,1.847259,-0.224925,17168128.000000,38.779999,-84.000000,-104.510002,0.000000,0.000000
17192448.000000,-9.016156,1.119841,0.564706,17188096.000000,3.150000,-71.050003,-81.970001,0.000000,0.000000
17209600.000000,-9.872787,0.803988,0.468993,17210880.000000,-20.370001,-38.849998,-42.000000,0.000000,0.000000
17229568.000000,-11.222338,0.430708,-1.055235,17228032.000000,-20.790001,-4.550000,20.440001,0.000000,0.000000
17250304.000000,-12.198609,-0.667598,-2.615355,17248000.000000,-13.790000,20.860001,91.629997,0.000000,0.000000
17269760.000000,-13.117454,-2.167897,-3.117848,17268736.000000,-16.660000,45.570000,177.729996,0.000000,0.000000
17290496.000000,-13.971692,-3.945765,-3.141776,17288192.000000,-40.880001,60.060001,266.980011,0.000000,0.000000
17309696.000000,-16.271194,-5.795416,-2.402394,17308928.000000,-71.050003,73.430000,349.929993,0.000000,0.000000
17329664.000000,-20.128426,-7.805387,0.282353,17328128.000000,-101.779999,93.660004,415.869995,0.000000,0.000000
17349632.000000,-21.178875,-8.032705,2.414358,17348096.000000,-120.889999,115.080002,463.750000,0.000000,0.000000
17369600.000000,-21.497118,-6.601797,1.926222,17368064.000000,-101.570000,163.100006,506.799988,0.000000,0.000000
17390592.000000,-19.532610,-6.003592,-0.306281,17388032.000000,-32.970001,224.000000,528.500000,0.000000,0.000000
17409536.000000,-16.170694,-5.513064,-1.373480,17427968.000000,173.389999,241.009995,433.230011,0.000000,0.000000
17429504.000000,-13.746766,-3.280560,-3.586841,0.000000,0.000000,0.000000,0.000000,0.000000,0.000000
17449472.000000,-11.705689,0.019143,-5.175675,17447936.000000,260.470001,200.759995,342.299988,0.000000,0.000000
17469440.000000,-10.485349,2.890530,-5.012963,17467904.000000,268.100006,164.779999,237.509995,0.000000,0.000000
17490432.000000,-10.533205,3.584448,-3.773481,17487872.000000,191.100006,133.979996,146.369995,0.000000,0.000000
17509632.000000,-11.856436,1.648655,-2.261217,17508864.000000,51.869999,114.379997,68.320000,0.000000,0.000000
17529344.000000,-13.462020,-0.787239,0.064606,17528064.000000,-87.220001,106.959999,16.590000,0.000000,0.000000
17549568.000000,-12.234503,-2.938386,2.512464,17547776.000000,-187.600006,94.919998,-17.710001,0.000000,0.000000
17569536.000000,-9.659825,-5.436492,3.361916,17568000.000000,-253.610001,72.309998,-36.610001,0.000000,0.000000
17590528.000000,-8.475377,-7.810174,2.883351,17587968.000000,-293.579987,61.529999,-49.910000,0.000000,0.000000
17609472.000000,-8.396415,-9.803394,3.225525,17608960.000000,-306.950012,71.680000,-26.670000,0.000000,0.000000
17629440.000000,-9.437292,-11.330014,3.826123,17627904.000000,-276.920013,94.360001,26.110001,0.000000,0.000000
17649408.000000,-10.301102,-11.318050,4.220939,17647872.000000,-184.940002,103.949997,68.599998,0.000000,0.000000
17669376.000000,-11.612368,-9.841680,2.816352,17667840.000000,-69.090004,92.120003,104.650002,0.000000,0.000000
17690368.000000,-13.208381,-7.326823,0.861416,17687808.000000,49.070000,69.300003,133.490005,0.000000,0.000000
17709312.000000,-14.778071,-4.716253,-1.320838,17708800.000000,140.839996,39.549999,129.850006,0.000000,0.000000
17729280.000000,-16.390835,-1.679761,-3.101098,17727744.000000,202.300003,6.160000,99.050003,0.000000,0.000000
17749504.000000,-16.843079,1.213161,-4.433900,17747712.000000,226.309998,-41.790001,48.439999,0.000000,0.000000
17769472.000000,-16.223339,2.727818,-5.044070,17767936.000000,211.960007,-112.559998,-21.280001,0.000000,0.000000
17790208.000000,-15.735202,2.689533,-4.728218,17787904.000000,157.009995,-193.970001,-104.650002,0.000000,0.000000
17809408.000000,-16.094126,2.155933,-3.553342,17808640.000000,87.709999,-261.170013,-172.550003,0.000000,0.000000
17829376.000000,-18.436699,1.064806,-2.411965,17827840.000000,6.650000,-297.920013,-236.880005,0.000000,0.000000
17849344.000000,-21.008984,-0.466600,-2.778067,17847808.000000,-73.360001,-294.279999,-301.350006,0.000000,0.000000
17869312.000000,-20.930019,-2.500499,-4.170690,17867776.000000,-143.009995,-277.130005,-358.190002,0.000000,0.000000
17890304.000000,-18.831514,-3.996014,-5.039285,17887744.000000,-209.089996,-250.110001,-405.649994,0.000000,0.000000
17909248.000000,-18.096918,-4.335794,-4.852644,17908736.000000,-260.119995,-204.820007,-421.820007,0.000000,0.000000
17929216.000000,-18.683159,-0.552742,-4.158726,17927680.000000,-274.610016,-143.710007,-408.239990,0.000000,0.000000
17949440.000000,-14.450255,3.617948,-1.823331,17947648.000000,-227.850006,-84.489998,-369.179993,0.000000,0.000000
17969152.000000,-10.791630,10.183852,-1.237089,17967872.000000,-69.720001,-68.040001,-319.410004,0.000000,0.000000
17990144.000000,-6.159126,11.712867,-2.900101,18008576.000000,212.729996,-91.419998,-269.989990,3627250944.000000,1009.505859
18009344.000000,-7.534998,7.822137,-4.476971,0.000000,0.000000,0.000000,0.000000,0.000000,0.000000
18029312.000000,-11.155338,3.474378,-5.099105,18027776.000000,199.500000,-108.010002,-299.110016,0.000000,0.000000
18049280.000000,-8.367701,3.314059,-2.677568,18047744.000000,115.709999,-128.380005,-230.160004,0.000000,0.000000
18069248.000000,-6.324231,6.623333,-1.954936,18067712.000000,73.919998,-154.979996,-110.599998,0.000000,0.000000
18090240.000000,-7.106683,7.044470,-2.069792,18087680.000000,80.989998,-82.739998,27.790001,0.000000,0.000000
18109184.000000,-7.652246,4.924429,-1.842474,18108672.000000,34.160000,-3.220000,122.080002,0.000000,0.000000
18129152.000000,-7.661818,3.684947,-1.079163,18127616.000000,-52.500000,58.450001,175.139999,0.000000,0.000000
18149120.000000,-7.580462,3.019742,-1.038485,18147584.000000,-107.379997,96.529999,217.490005,0.000000,0.000000
18169088.000000,-8.181061,2.383251,-1.524228,18167552.000000,-110.459999,118.090004,243.949997,0.000000,0.000000
18192128.000000,-10.255639,0.911665,-2.163112,18187520.000000,-86.379997,127.190002,252.279999,0.000000,0.000000
18209024.000000,-13.208381,-1.406980,-2.754139,18210560.000000,-57.189999,138.600006,265.440002,0.000000,0.000000
18228992.000000,-16.074982,-3.077170,-3.450450,18227456.000000,-19.320000,149.449997,299.880005,0.000000,0.000000
18248960.000000,-16.922041,-4.524827,-1.229911,18247424.000000,14.490000,160.300003,343.559998,0.000000,0.000000
18268928.000000,-16.414762,-7.424929,0.957129,18267392.000000,58.660000,157.080002,391.720001,0.000000,0.000000
18289920.000000,-15.067604,-9.351151,0.854238,18287360.000000,119.980003,162.680008,420.769989,0.000000,0.000000
18308864.000000,-12.748959,-4.900501,-3.605984,18308352.000000,170.380005,192.080002,441.980011,0.000000,0.000000
18329088.000000,-14.732609,0.083749,-6.089733,18327296.000000,209.930008,186.970001,405.369995,0.000000,0.000000
18349056.000000,-20.171494,1.622334,-5.608776,18347520.000000,250.529999,150.430008,330.260010,0.000000,0.000000
18369024.000000,-21.650259,3.318845,-4.074977,18367488.000000,248.149994,186.339996,302.470001,0.000000,0.000000
18389760.000000,-15.668202,3.251846,-0.789631,18387456.000000,171.430008,127.120003,168.839996,0.000000,0.000000
18408960.000000,-11.755937,2.727818,0.232104,18408192.000000,63.840000,27.370001,30.660000,0.000000,0.000000
18428928.000000,-11.435300,2.483750,0.868595,18427392.000000,-32.480000,4.690000,-67.550003,0.000000,0.000000
18448896.000000,-12.004791,1.129412,1.127020,18447360.000000,-108.709999,34.020000,-130.130005,0.000000,0.000000
18468864.000000,-11.464014,-0.648455,0.734596,18467328.000000,-175.559998,49.139999,-186.550003,0.000000,0.000000
18489856.000000,-10.657632,-2.677568,0.342174,18487296.000000,-231.559998,39.480000,-230.580002,0.000000,0.000000
18508800.000000,-9.530612,-4.677969,-0.117248,18508288.000000,-258.579987,29.330000,-241.360001,0.000000,0.000000
18528768.000000,-8.544770,-5.582455,-0.184247,18527232.000000,-242.899994,8.470000,-226.100006,0.000000,0.000000
18548736.000000,-7.704889,-5.362316,0.167498,18547200.000000,-192.779999,-21.280001,-205.029999,0.000000,0.000000
18568960.000000,-7.362715,-4.685147,0.358923,18567168.000000,-125.440002,-41.090000,-162.119995,0.000000,0.000000
18589696.000000,-7.556533,-3.871587,0.535992,18587392.000000,-50.189999,-47.950001,-113.260002,0.000000,0.000000
18608896.000000,-7.147361,-3.019742,1.210768,18608128.000000,14.070000,-51.590000,-76.019997,0.000000,0.000000
18628864.000000,-6.872187,-2.665605,1.969293,18627328.000000,54.670002,-59.639999,-51.450001,0.000000,0.000000
18648832.000000,-7.855636,-2.589034,1.907080,18647296.000000,89.459999,-55.790001,-36.889999,0.000000,0.000000
18668800.000000,-9.470792,-2.644069,1.296910,18667264.000000,131.880005,-35.420002,-20.719999,0.000000,0.000000
18689792.000000,-10.492528,-2.593820,0.650848,18687232.000000,175.000000,-17.080000,-3.850000,0.000000,0.000000
18708736.000000,-11.021341,-2.938386,1.390230,18708224.000000,204.259995,-15.610000,1.680000,0.000000,0.000000
18728704.000000,-11.767902,-2.550749,0.595813,18727168.000000,219.309998,-23.100000,-1.540000,0.000000,0.000000
18748672.000000,-12.526425,-0.873380,-1.215554,18747136.000000,224.490005,-27.370001,-4.200000,0.000000,0.000000
18768640.000000,-13.500306,1.215554,-3.203990,18767104.000000,208.740005,-43.610001,-7.490000,0.000000,0.000000
18789632.000000,-16.122839,2.426322,-4.993821,18787072.000000,159.460007,-72.870003,-20.160000,0.000000,0.000000
18808832.000000,-19.377077,1.880759,-4.852644,18808064.000000,81.690002,-102.199997,-40.459999,0.000000,0.000000
18828800.000000,-17.034504,-0.325424,-3.428915,18827264.000000,5.460000,-130.479996,-50.259998,0.000000,0.000000
18848768.000000,-13.911870,-2.773281,-2.471786,18847232.000000,-71.889999,-187.180008,-89.459999,0.000000,0.000000
18868736.000000,-14.445471,-3.871587,-3.165704,18867200.000000,-130.130005,-205.869995,-104.650002,0.000000,0.000000
18889472.000000,-13.952549,-3.287738,-2.947958,18887168.000000,-148.610001,-171.430008,-82.320000,0.000000,0.000000
18908672.000000,-13.280167,-1.856830,-2.409572,18907904.000000,-147.559998,-143.990005,-72.309998,0.000000,0.000000
18928640.000000,-11.889936,-1.040878,-2.423929,18927104.000000,-144.410004,-121.800003,-83.300003,0.000000,0.000000
18948608.000000,-10.112068,-1.170090,-2.074577,18947072.000000,-123.760002,-90.720001,-85.050003,0.000000,0.000000
18968576.000000,-8.137990,-1.732404,-0.964308,18967040.000000,-98.769997,-64.889999,-87.360001,0.000000,0.000000
18989568.000000,-7.037291,-2.050649,-0.179462,18987008.000000,-70.209999,-37.590000,-90.300003,0.000000,0.000000
19008512.000000,-6.675975,-1.500300,0.112463,19008000.000000,-32.900002,-5.390000,-89.180000,3628250368.000000,1009.531006
19028480.000000,-6.269196,-0.658026,-0.191426,19026944.000000,5.670000,21.139999,-79.169998,0.000000,0.000000
19048704.000000,-5.393422,-0.189033,-0.636491,19046912.000000,21.490000,28.980000,-64.540001,0.000000,0.000000
19068672.000000,-4.697111,-0.165105,-0.878166,19067136.000000,42.560001,38.849998,-58.240002,0.000000,0.000000
19089664.000000,-4.266403,-0.703490,-0.725025,19087104.000000,40.040001,38.849998,-47.810001,0.000000,0.000000
19108608.000000,-4.146761,-0.928415,-0.289532,19108096.000000,24.710001,33.740002,-34.509998,0.000000,0.000000
19128576.000000,-3.914658,-1.091127,-0.234497,19127040.000000,7.770000,31.500000,-17.360001,0.000000,0.000000
19148544.000000,-4.053442,-0.390030,-0.232104,19147008.000000,5.040000,27.860001,0.210000,0.000000,0.000000
19168512.000000,-4.472186,0.476172,-0.552742,19166976.000000,13.720000,24.430000,16.799999,0.000000,0.000000
19191296.000000,-4.800002,1.251446,-1.007378,19186944.000000,17.990000,23.799999,34.369999,0.000000,0.000000
19208448.000000,-5.510671,1.600798,-1.569692,19209728.000000,6.440000,15.820000,44.799999,0.000000,0.000000
19228416.000000,-6.807580,0.940379,-2.076970,19226880.000000,-20.650000,9.100000,52.849998,0.000000,0.000000
19248384.000000,-8.226524,-0.208176,-2.421536,19246848.000000,-62.369999,8.190000,67.550003,0.000000,0.000000
19268352.000000,-8.518449,-1.201197,-2.636890,19266816.000000,-112.840004,2.030000,84.070000,0.000000,0.000000
19289344.000000,-8.733803,-1.694118,-2.971886,19286784.000000,-154.419998,-13.790000,100.309998,0.000000,0.000000
19308544.000000,-10.578669,-2.096112,-3.156133,19307776.000000,-175.279999,-24.570000,121.870003,0.000000,0.000000
19328512.000000,-13.646267,-2.931208,-2.428715,19326976.000000,-182.770004,-18.129999,161.419998,0.000000,0.000000
19348480.000000,-18.994226,-4.615755,-0.277567,19346944.000000,-182.979996,-6.300000,204.610001,0.000000,0.000000
19368448.000000,-23.418556,-10.619347,4.132405,19366912.000000,-170.660004,3.780000,234.430008,0.000000,0.000000
19389184.000000,-21.879971,-19.276579,4.244867,19407616.000000,58.310001,125.580002,370.019989,0.000000,0.000000
19408384.000000,-14.002798,-19.774286,-0.019143,0.000000,0.000000,0.000000,0.000000,0.000000,0.000000
19428352.000000,-10.588240,-9.781858,-2.531606,19426816.000000,267.679993,144.619995,412.579987,0.000000,0.000000
19448320.000000,-11.607583,3.914658,-3.684947,19446784.000000,482.299988,115.220001,331.940002,0.000000,0.000000
19468288.000000,-12.124433,12.643675,-2.388037,19466752.000000,570.570007,98.279999,238.910004,0.000000,0.000000
19489280.000000,-14.974284,10.298709,-2.900101,19486720.000000,450.519989,85.050003,125.440002,0.000000,0.000000
19508224.000000,-13.237095,6.563512,-3.304488,19507712.000000,222.740005,53.410000,-78.610001,0.000000,0.000000
19528192.000000,-11.105090,2.017149,-2.756532,19526656.000000,8.050000,-46.900002,-175.910004,0.000000,0.000000
19548416.000000,-9.205189,-1.964507,-1.483550,19546624.000000,-142.449997,-133.979996,-250.740005,0.000000,0.000000
19568384.000000,-7.791030,-4.962714,0.200997,19566848.000000,-255.639999,-181.789993,-298.899994,0.000000,0.000000
19589120.000000,-7.202396,-6.637690,1.253839,19586816.000000,-338.589996,-175.699997,-315.279999,0.000000,0.000000
19608320.000000,-6.094519,-7.436893,2.005185,19607552.000000,-373.170013,-131.740005,-296.940002,0.000000,0.000000
19628288.000000,-5.491528,-6.594619,2.067399,19626752.000000,-336.489990,-81.129997,-253.399994,0.000000,0.000000
19648256.000000,-5.563312,-4.563113,1.713261,19646720.000000,-238.910004,-33.810001,-206.500000,0.000000,0.000000
19668224.000000,-5.273781,-2.921637,1.332802,19666688.000000,-119.770004,-4.760000,-158.199997,0.000000,0.000000
19689216.000000,-4.945964,-2.074577,1.136591,19686656.000000,-14.560000,6.230000,-116.270004,0.000000,0.000000
19708160.000000,-5.527420,-1.792224,0.698704,19707648.000000,75.879997,12.670000,-86.169998,0.000000,0.000000
19728128.000000,-6.386444,-1.909473,-0.224925,19726592.000000,152.320007,22.610001,-59.290001,0.000000,0.000000
19748096.000000,-7.166504,-2.400001,-0.870987,19746560.000000,204.399994,25.620001,-34.439999,0.000000,0.000000
19768064.000000,-7.692925,-2.768496,-1.232304,19766528.000000,236.809998,20.860001,-11.270000,0.000000,0.000000
19789056.000000,-7.898707,-3.005385,-0.705883,19786496.000000,250.180008,16.170000,18.270000,0.000000,0.000000
19808256.000000,-10.057034,-3.117848,-0.332602,19807488.000000,246.540009,7.280000,42.980000,0.000000,0.000000
19828224.000000,-13.287343,-1.713261,-2.194218,19826688.000000,238.839996,7.560000,61.320000,0.000000,0.000000
19848192.000000,-17.613567,0.825524,-3.857230,19846656.000000,230.160004,16.520000,85.959999,0.000000,0.000000
19868160.000000,-20.906092,1.452443,-4.579862,19866624.000000,192.919998,10.430000,109.970001,0.000000,0.000000
19889152.000000,-18.745371,-1.091127,-4.046263,19886592.000000,111.650002,-7.770000,119.070000,0.000000,0.000000
19908096.000000,-15.457633,-3.328416,-3.780660,19907584.000000,-6.440000,-39.970001,106.680000,0.000000,0.000000
19928064.000000,-13.277774,-3.165704,-4.012764,19926528.000000,-96.320000,-60.410000,95.550003,0.000000,0.000000
19948032.000000,-11.827723,-1.361516,-2.969493,19946496.000000,-144.130005,-60.549999,78.330002,0.000000,0.000000
19968000.000000,-10.650455,0.602991,-1.804188,19966464.000000,-169.119995,-59.290001,31.850000,0.000000,0.000000
19988992.000000,-10.164711,1.509871,-0.684347,19986432.000000,-168.419998,-46.970001,-27.719999,0.000000,0.000000
20007936.000000,-9.334401,0.789631,0.220140,20007424.000000,-147.699997,-13.580000,-78.400002,3629249792.000000,1009.560120
20028160.000000,-9.028119,-1.741975,1.737189,20026368.000000,-128.240005,32.060001,-103.599998,0.000000,0.000000
20048128.000000,-8.836694,-4.510471,2.500499,20046592.000000,-103.250000,69.300003,-113.540001,0.000000,0.000000
20068096.000000,-8.611769,-5.436492,1.469193,20066560.000000,-55.580002,93.379997,-92.050003,0.000000,0.000000
20088832.000000,-7.712067,-4.651647,0.093320,20086528.000000,11.060000,97.370003,-48.860001,0.000000,0.000000
20108032.000000,-6.472585,-3.531806,-0.732204,20107264.000000,63.980000,88.760002,-3.920000,0.000000,0.000000
20128000.000000,-6.144768,-2.687140,-0.878166,20126464.000000,88.340004,68.110001,47.880001,0.000000,0.000000
20147968.000000,-6.104091,-1.957329,-0.507278,20146432.000000,93.800003,41.790001,84.910004,0.000000,0.000000
20167936.000000,-6.056234,-1.375873,-0.105284,20166400.000000,84.559998,19.460001,110.459999,0.000000,0.000000
20190720.000000,-6.367301,-0.679562,0.055035,20186368.000000,65.309998,2.730000,125.790001,0.000000,0.000000
20207872.000000,-6.800402,-0.258425,0.258425,20209152.000000,35.910000,-6.510000,124.809998,0.000000,0.000000
20227840.000000,-7.264609,-0.758525,1.335195,20226304.000000,-2.170000,-9.520000,116.199997,0.000000,0.000000
20247808.000000,-7.410572,-1.696511,2.711068,20246272.000000,-50.820000,-7.000000,98.840004,0.000000,0.000000
20268032.000000,-7.422535,-2.438286,1.713261,20266240.000000,-104.300003,1.890000,72.940002,0.000000,0.000000
20288768.000000,-6.403193,-5.056034,5.515456,20286464.000000,-149.729996,4.340000,46.200001,0.000000,0.000000
20307968.000000,-10.813165,-9.032906,7.970492,20307200.000000,-168.350006,8.470000,37.730000,0.000000,0.000000
20327936.000000,-15.940985,-11.164910,6.661618,20326400.000000,-121.169998,46.689999,55.720001,0.000000,0.000000
20347904.000000,-13.423735,-10.889735,5.094319,20346368.000000,-20.510000,53.200001,112.980003,0.000000,0.000000
20367872.000000,-11.425728,-9.961320,3.445665,20366336.000000,97.370003,0.350000,132.369995,0.000000,0.000000
20388864.000000,-9.870394,-8.516055,2.373680,20386304.000000,192.289993,-41.580002,135.520004,0.000000,0.000000
20407808.000000,-10.368099,-5.862415,0.784846,20407296.000000,223.440002,-69.440002,147.630005,0.000000,0.000000
20427776.000000,-12.775280,-3.397808,-0.437887,20426240.000000,219.240005,-81.620003,123.970001,0.000000,0.000000
20447744.000000,-16.859827,-2.055435,-1.517050,20446208.000000,186.199997,-74.340004,90.720001,0.000000,0.000000
20467712.000000,-19.697716,-3.318845,-2.313859,20466176.000000,130.550003,-78.889999,41.369999,0.000000,0.000000
20488704.000000,-21.568903,-6.709475,-1.799403,20486144.000000,61.810001,-125.790001,-19.530001,0.000000,0.000000
20507904.000000,-20.365313,-7.403394,0.579063,20507136.000000,35.490002,-170.520004,-74.900002,0.000000,0.000000
20527872.000000,-16.752151,-6.020342,5.644669,20526336.000000,64.470001,-181.440002,-106.959999,0.000000,0.000000
20547840.000000,-17.994026,-5.505885,4.728218,20546304.000000,108.779999,-184.520004,-136.710007,0.000000,0.000000
20567808.000000,-18.046667,-3.646662,2.158326,20566272.000000,194.250000,-159.250000,-143.500000,0.000000,0.000000
20588544.000000,-18.013168,-2.098505,1.450050,20586240.000000,248.779999,-166.320007,-179.830002,0.000000,0.000000
20607744.000000,-17.541782,-2.921637,1.208375,20606976.000000,228.899994,-187.110001,-211.050003,0.000000,0.000000
20627712.000000,-17.010576,-3.187240,1.411765,20626176.000000,214.550003,-225.540009,-230.580002,0.000000,0.000000
20647680.000000,-16.627726,-1.885544,1.170090,20646144.000000,239.680008,-249.830002,-237.300003,0.000000,0.000000
20667648.000000,-14.285151,0.016750,1.560120,20666112.000000,256.899994,-261.239990,-221.619995,0.000000,0.000000
20688640.000000,-12.284752,0.133998,1.143769,20686080.000000,251.020004,-271.250000,-202.580002,0.000000,0.000000
20707584.000000,-10.822738,0.619741,1.392623,20707072.000000,235.059998,-262.360016,-200.270004,0.000000,0.000000
20727552.000000,-8.578269,0.870987,0.720240,20726016.000000,202.089996,-251.790009,-195.649994,0.000000,0.000000
20747776.000000,-6.642475,0.799203,0.196211,20745984.000000,160.649994,-242.830002,-183.820007,0.000000,0.000000
20767744.000000,-5.060820,0.803988,1.048056,20766208.000000,117.389999,-236.110001,-179.619995,0.000000,0.000000
20788480.000000,-4.670790,0.990629,2.447858,20786176.000000,87.779999,-216.580002,-177.309998,0.000000,0.000000
20807680.000000,-4.161119,1.143769,3.086741,20806912.000000,87.779999,-191.309998,-167.720001,0.000000,0.000000
20827648.000000,-3.507878,1.069592,3.074777,20826112.000000,108.220001,-167.160004,-156.309998,0.000000,0.000000
20847616.000000,-3.060420,1.287339,3.127419,20846080.000000,131.320007,-144.339996,-139.369995,0.000000,0.000000
20867584.000000,-2.622534,2.227718,2.938386,20866048.000000,153.789993,-122.500000,-119.279999,0.000000,0.000000
20888576.000000,-1.758725,3.572484,3.620341,20886016.000000,155.750000,-101.010002,-100.029999,0.000000,0.000000
20907520.000000,-0.660419,3.498307,3.912265,20907008.000000,139.860001,-91.489998,-81.830002,0.000000,0.000000
20927488.000000,-0.425922,3.469593,5.046463,20925952.000000,123.760002,-80.220001,-83.300003,0.000000,0.000000
20947456.000000,-0.787239,3.579663,6.455836,20945920.000000,107.239998,-66.290001,-72.800003,0.000000,0.000000
20967424.000000,-0.437887,3.177669,7.020542,20965888.000000,105.980003,-54.180000,-69.930000,0.000000,0.000000
20988416.000000,-0.351745,3.208775,7.355537,20985856.000000,105.419998,-49.840000,-70.980003,0.000000,0.000000
21007616.000000,-1.648655,3.912265,7.898707,21006848.000000,91.980003,-47.459999,-72.169998,3630249216.000000,1009.588135
21027584.000000,-1.375873,4.938786,8.013563,21026048.000000,103.250000,-34.020000,-61.740002,0.000000,0.000000
21047552.000000,-0.466600,5.927022,8.020741,21046016.000000,107.029999,-33.950001,-47.740002,0.000000,0.000000
21067520.000000,0.698704,6.058627,8.374879,21065984.000000,84.070000,-38.709999,-46.130001,0.000000,0.000000
21088256.000000,1.277767,5.273781,9.887143,21085952.000000,26.670000,-36.959999,-43.259998,0.000000,0.000000
21107456.000000,0.100499,8.487342,10.995021,21106688.000000,-30.030001,-25.480000,-47.529999,0.000000,0.000000
21127424.000000,1.095913,4.503292,9.499505,21125888.000000,-62.439999,-10.920000,-41.439999,0.000000,0.000000
21147392.000000,0.050249,2.100898,9.729217,21145856.000000,-101.779999,-18.830000,-88.059998,0.000000,0.000000
21167360.000000,-2.074577,1.201197,10.293922,21165824.000000,-132.509995,-5.460000,-20.440001,0.000000,0.000000
21190400.000000,0.323031,4.007978,9.846465,21185792.000000,-52.430000,-1.890000,-10.360000,0.000000,0.000000
21207296.000000,0.715454,4.433900,8.678767,21208832.000000,15.470000,-8.400000,25.900000,0.000000,0.000000
21227264.000000,0.133998,3.582055,8.592626,21225728.000000,30.380001,-0.350000,40.670002,0.000000,0.000000
21247488.000000,0.155533,3.156133,8.673983,21245696.000000,12.320000,14.420000,29.610001,0.000000,0.000000
21267456.000000,-0.725025,3.455236,8.736196,21265920.000000,18.059999,24.150000,7.840000,0.000000,0.000000
21288192.000000,-1.184447,3.950550,8.463413,21285888.000000,29.400000,32.410000,-12.250000,0.000000,0.000000
21307392.000000,-1.265803,3.792624,8.059027,21306624.000000,37.029999,32.759998,-20.090000,0.000000,0.000000
21327360.000000,-1.548156,3.400201,7.982457,21325824.000000,22.540001,26.110001,-20.090000,0.000000,0.000000
21347328.000000,-1.220340,3.732803,8.231310,21345792.000000,9.030000,20.020000,-16.940001,0.000000,0.000000
21368064.000000,-0.708275,4.067799,7.972885,21365760.000000,11.200000,10.640000,-5.950000,0.000000,0.000000
21388288.000000,0.246461,4.043870,7.901100,21386496.000000,12.180000,0.630000,6.370000,0.000000,0.000000
21408256.000000,0.478565,3.869194,8.166703,21406720.000000,4.480000,-8.750000,13.860000,0.000000,0.000000
21428224.000000,0.859023,4.098906,8.181061,21426688.000000,5.110000,-13.090000,3.080000,0.000000,0.000000
21448192.000000,1.572084,4.328616,7.829315,21446656.000000,10.080000,-19.250000,-11.200000,0.000000,0.000000
21468416.000000,2.490928,4.687540,7.487142,21466624.000000,14.000000,-25.340000,-17.219999,0.000000,0.000000
