time,seconds_elapsed,z,y,x
1634127044481021000,0.01302099609375,-25.71649169921875,42.03987121582031,8.596820831298828
1634127044500900000,0.032900146484375,-26.134490966796875,42.22865295410156,8.45053482055664
1634127044520779000,0.052779052734375,-25.8988037109375,42.41951370239258,8.263786315917969
1634127044540658000,0.072657958984375,-26.252685546875,42.353057861328125,7.970634460449219
1634127044560537000,0.092537109375,-26.4112548828125,42.67039489746094,7.981243133544922
1634127044580416000,0.112416015625,-25.88604736328125,42.41676712036133,7.885677337646484
1634127044600296000,0.1322958984375,-25.866424560546875,42.58835220336914,7.710700988769531
1634127044620174800,0.1521748046875,-25.88897705078125,42.69248962402344,7.065971374511719
1634127044640054000,0.172053955078125,-25.977203369140625,42.78680419921875,6.869712829589844
1634127044659933200,0.19193310546875,-25.745819091796875,43.172569274902344,6.588893890380859
1634127044679811800,0.211811767578125,-25.37042236328125,43.272911071777344,6.284809112548828
1634127044699692000,0.231692138671875,-25.366424560546875,43.26401901245117,5.937885284423828
1634127044719571000,0.251571044921875,-25.0623779296875,43.17591094970703,5.930393218994141
1634127044739449900,0.271449951171875,-25.34735107421875,43.20867919921875,5.42120361328125
1634127044759329000,0.2913291015625,-24.992034912109375,43.104164123535156,4.959449768066406
1634127044779208000,0.3112080078125,-24.866729736328125,43.551849365234375,4.444362640380859
1634127044799087000,0.331087158203125,-25.16082763671875,43.4443473815918,4.192073822021484
1634127044818967000,0.350967041015625,-25.282440185546875,43.410972595214844,3.528369903564453
1634127044838846000,0.370845947265625,-24.9161376953125,43.384613037109375,3.275909423828125
1634127044858725000,0.39072509765625,-25.050079345703125,43.31458282470703,3.0937881469726562
1634127044878604000,0.41060400390625,-25.212646484375,43.42310333251953,2.8552589416503906
1634127044898483000,0.43048291015625,-25.217010498046875,43.155181884765625,3.0147552490234375
1634127044918363100,0.450363037109375,-25.235443115234375,43.30646514892578,2.959117889404297
1634127044938242000,0.470241943359375,-25.4136962890625,42.95379638671875,2.9329490661621094
1634127044958121000,0.490120849609375,-25.776611328125,43.00666809082031,2.982501983642578
1634127044978000000,0.509999755859375,-25.63726806640625,42.88948059082031,3.0415077209472656
1634127044997879000,0.529879150390625,-25.599456787109375,43.39262390136719,2.8047752380371094
1634127045017758000,0.549758056640625,-24.92681884765625,43.336395263671875,3.0760536193847656
1634127045037638000,0.569637939453125,-25.054962158203125,43.3831787109375,3.5205650329589844
1634127045057517000,0.58951708984375,-24.901702880859375,43.509037017822266,3.717132568359375
1634127045077396000,0.60939599609375,-24.73211669921875,43.77015686035156,3.6093521118164062
1634127045097270500,0.6292705078125,-24.748992919921875,43.806068420410156,3.499176025390625
1634127045117149700,0.649149658203125,-24.48883056640625,43.63743591308594,3.6566505432128906
1634127045137028400,0.6690283203125,-24.767242431640625,43.49205780029297,3.718669891357422
1634127045156908500,0.688908447265625,-24.88946533203125,43.747703552246094,3.9659652709960938
1634127045176787700,0.70878759765625,-24.608978271484375,43.56946563720703,3.5655441284179688
1634127045196666400,0.728666259765625,-24.874542236328125,43.55463409423828,3.676544189453125
1634127045216545500,0.748545654296875,-25.1357421875,43.67750549316406,3.5893707275390625
1634127045236424400,0.768424560546875,-24.90606689453125,43.498504638671875,3.6529998779296875
1634127045256304400,0.788304443359375,-25.159881591796875,43.33655548095703,3.4267311096191406
1634127045276183600,0.80818359375,-24.96307373046875,43.66552734375,3.5461692810058594
1634127045296062500,0.8280625,-25.28973388671875,43.439697265625,3.2069129943847656
1634127045315941600,0.847941650390625,-25.530609130859375,43.18128204345703,2.7742080688476562
1634127045335820500,0.867820556640625,-26.10791015625,43.15721893310547,2.7239837646484375
1634127045355699500,0.887699462890625,-26.63916015625,42.76509094238281,2.4056129455566406
1634127045375579600,0.90757958984375,-26.612152099609375,42.767154693603516,2.2567405700683594
1634127045395458600,0.92745849609375,-26.94805908203125,42.519264221191406,1.7830238342285156
1634127045415337500,0.94733740234375,-26.507476806640625,42.39656066894531,1.1141586303710938
1634127045435216400,0.96721630859375,-27.04229736328125,42.087745666503906,0.7024040222167969
1634127045455095600,0.987095458984375,-27.686798095703125,41.725189208984375,0.503997802734375
1634127045474975500,1.0069755859375,-28.489044189453125,41.32798767089844,0.4039878845214844
1634127045494854400,1.0268544921875,-29.2257080078125,40.95555114746094,0.2964630126953125
1634127045514733600,1.046733642578125,-29.858642578125,40.59345245361328,0.09000396728515625
1634127045534612500,1.066612548828125,-30.212066650390625,40.2646484375,0.09589385986328125
1634127045554491400,1.086491455078125,-29.922607421875,40.12044906616211,-0.32598876953125
1634127045574370600,1.10637060546875,-29.9705810546875,39.99638748168945,-0.6315460205078125
1634127045594250500,1.12625048828125,-30.4013671875,39.605384826660156,-1.5095901489257812
1634127045614129700,1.146129638671875,-30.81427001953125,39.41828918457031,-1.9369316101074219
1634127045634008600,1.166008544921875,-31.184783935546875,39.21125793457031,-2.026958465576172
1634127045653887500,1.185887451171875,-31.5301513671875,38.97096252441406,-2.308635711669922
1634127045673766700,1.2057666015625,-31.45263671875,38.940032958984375,-2.3880653381347656
1634127045693645600,1.2256455078125,-31.113037109375,38.77368927001953,-2.152996063232422
1634127045713525500,1.245525390625,-30.9598388671875,39.06403350830078,-1.9970321655273438
1634127045733404700,1.26540478515625,-31.342803955078125,38.93159484863281,-1.7109909057617188
1634127045753283600,1.28528369140625,-30.864959716796875,38.95777893066406,-1.5983963012695312
1634127045773162500,1.30516259765625,-30.903717041015625,39.3740234375,-1.0715065002441406
1634127045793041400,1.32504150390625,-30.65057373046875,39.33346176147461,-1.2120780944824219
1634127045812921600,1.344921630859375,-30.272247314453125,39.34749221801758,-1.1618461608886719
1634127045832800500,1.364800537109375,-29.933837890625,39.776947021484375,-1.1080856323242188
1634127045852679400,1.384679443359375,-29.5682373046875,40.1229248046875,-1.3677406311035156
1634127045872558600,1.40455859375,-29.146026611328125,40.41521072387695,-1.455902099609375
1634127045892437500,1.4244375,-29.127471923828125,40.90109634399414,-1.6566619873046875
1634127045912316700,1.444316650390625,-29.0567626953125,40.74259948730469,-1.3583259582519531
1634127045932196600,1.464196533203125,-29.68353271484375,40.43302536010742,-0.5640487670898438
1634127045952075500,1.484075439453125,-30.717315673828125,39.679481506347656,0.8450965881347656
1634127045971954700,1.50395458984375,-31.862091064453125,38.85394287109375,2.3105239868164062
1634127045991833300,1.523833251953125,-32.8594970703125,37.97224044799805,3.5872840881347656
1634127046011712500,1.54371240234375,-33.089019775390625,37.33698272705078,5.393581390380859
1634127046031592700,1.5635927734375,-33.619781494140625,36.85307693481445,6.6735992431640625
1634127046051471400,1.583471435546875,-33.97967529296875,36.353694915771484,7.512638092041016
1634127046071350500,1.6033505859375,-34.19091796875,36.187049865722656,7.814308166503906
1634127046091229400,1.6232294921875,-34.5821533203125,35.6824836730957,8.213829040527344
1634127046111108400,1.6431083984375,-34.98541259765625,35.0947380065918,7.983196258544922
1634127046130987500,1.662987548828125,-35.35595703125,34.865753173828125,7.7878265380859375
1634127046150867500,1.682867431640625,-35.305328369140625,34.95747756958008,7.347469329833984
1634127046170746400,1.702746337890625,-34.929046630859375,35.25819778442383,7.027671813964844
1634127046190625500,1.72262548828125,-35.375091552734375,35.03477478027344,6.7366790771484375
1634127046210504200,1.742504150390625,-35.439056396484375,35.575077056884766,7.042991638183594
1634127046230383400,1.76238330078125,-35.335235595703125,35.54588317871094,7.275276184082031
1634127046250263600,1.782263671875,-35.280975341796875,35.32030487060547,7.1013946533203125
1634127046270142200,1.80214208984375,-35.606353759765625,35.234230041503906,7.5388031005859375
1634127046290021400,1.822021484375,-36.01971435546875,34.74382019042969,8.231216430664062
1634127046309900300,1.841900390625,-35.72808837890625,34.513084411621094,8.6053466796875
1634127046329779500,1.861779541015625,-35.535858154296875,34.36515808105469,9.380229949951172
1634127046349659400,1.881659423828125,-35.60791015625,33.97364044189453,9.953880310058594
1634127046369538300,1.901538330078125,-35.7645263671875,34.1772346496582,10.389739990234375
1634127046389417500,1.92141748046875,-35.560546875,33.914066314697266,10.730422973632812
1634127046409296600,1.941296630859375,-35.6556396484375,34.2318000793457,11.1549072265625
1634127046429175300,1.96117529296875,-35.230377197265625,34.0255126953125,11.261234283447266
1634127046449054500,1.981054443359375,-35.486114501953125,34.132389068603516,11.562416076660156
1634127046468934400,2.000934326171875,-35.53338623046875,33.87361145019531,11.909912109375
1634127046488813300,2.020813232421875,-35.736083984375,33.4960823059082,12.183475494384766
1634127046508692500,2.0406923828125,-36.0548095703125,33.366737365722656,12.346813201904297
1634127046528571400,2.0605712890625,-36.003509521484375,32.878662109375,12.670551300048828
1634127046548450600,2.080450439453125,-36.669036865234375,32.047664642333984,13.05038070678711
1634127046568330200,2.100330322265625,-36.63128662109375,32.1391716003418,13.372100830078125
1634127046588209400,2.12020947265625,-36.622406005859375,31.633342742919922,14.301158905029297
1634127046608088600,2.140088623046875,-36.859375,31.335756301879883,14.807186126708984
1634127046627967200,2.15996728515625,-36.6416015625,30.998931884765625,15.545661926269531
1634127046647846400,2.179846435546875,-36.898162841796875,31.069217681884766,15.621231079101562
1634127046667725300,2.199725341796875,-36.845428466796875,31.026344299316406,15.367416381835938
1634127046687605500,2.21960546875,-36.828582763671875,30.909854888916016,15.482460021972656
1634127046707484400,2.239484375,-37.29620361328125,30.9528865814209,14.919105529785156
1634127046727363300,2.25936328125,-37.494171142578125,31.109634399414062,14.610549926757812
1634127046747242500,2.279242431640625,-37.12066650390625,30.97833824157715,14.097427368164062
1634127046767121400,2.299121337890625,-37.282440185546875,31.214641571044922,13.755119323730469
1634127046787001300,2.31900146484375,-37.466064453125,30.929235458374023,13.6451416015625
1634127046806880500,2.338880615234375,-37.219390869140625,31.230751037597656,13.854454040527344
1634127046826759400,2.358759521484375,-37.335968017578125,31.103166580200195,13.793407440185547
1634127046846638300,2.378638427734375,-37.808929443359375,30.765636444091797,14.349830627441406
1634127046866517200,2.398517333984375,-37.459564208984375,30.47458267211914,14.525592803955078
1634127046886397400,2.4183974609375,-37.695648193359375,30.420913696289062,14.81087875366211
1634127046906276400,2.4382763671875,-37.65521240234375,30.314579010009766,14.924468994140625
1634127046926155300,2.4581552734375,-37.16064453125,30.220535278320312,14.780235290527344
1634127046946034400,2.478034423828125,-37.544158935546875,30.4599609375,15.290634155273438
1634127046965913300,2.497913330078125,-37.766845703125,29.855350494384766,14.954994201660156
1634127046985792500,2.51779248046875,-37.5684814453125,29.962202072143555,14.816322326660156
1634127047005672400,2.53767236328125,-37.35809326171875,29.782127380371094,14.917060852050781
1634127047025551400,2.55755126953125,-37.687774658203125,29.53449058532715,14.942035675048828
1634127047045430500,2.577430419921875,-37.9141845703125,29.738508224487305,15.206256866455078
1634127047065309200,2.59730908203125,-37.71160888671875,29.66280174255371,14.932022094726562
1634127047085188900,2.61718896484375,-38.076690673828125,29.76968765258789,14.938739776611328
1634127047105068800,2.63706884765625,-38.3480224609375,29.46352767944336,14.919574737548828
1634127047124947700,2.65694775390625,-38.132476806640625,29.51453399658203,14.807838439941406
1634127047144827000,2.676826904296875,-38.04833984375,29.498167037963867,14.676826477050781
1634127047164705800,2.696705810546875,-38.016357421875,29.425151824951172,14.847042083740234
1634127047184585000,2.7165849609375,-37.85162353515625,29.23368263244629,14.84646224975586
1634127047204464600,2.736464599609375,-38.103515625,29.188749313354492,14.832645416259766
1634127047224343800,2.75634375,-38.138763427734375,29.479764938354492,14.61785888671875
1634127047244223000,2.776222900390625,-38.457427978515625,29.285444259643555,14.955581665039062
1634127047264101600,2.7961015625,-38.61492919921875,29.14046859741211,15.05288314819336
1634127047283980800,2.815980712890625,-38.293243408203125,29.219026565551758,14.951190948486328
1634127047303859700,2.835859619140625,-38.3699951171875,29.132549285888672,14.923038482666016
1634127047323739600,2.85573974609375,-38.602081298828125,29.062026977539062,14.870330810546875
1634127047343618800,2.875618896484375,-38.79876708984375,29.076541900634766,14.783802032470703
1634127047363497700,2.895497802734375,-38.048614501953125,28.814865112304688,14.867488861083984
1634127047383377000,2.915376953125,-38.605682373046875,28.93011474609375,14.747428894042969
1634127047403255800,2.935255859375,-38.29119873046875,29.19735336303711,14.519481658935547
1634127047423135700,2.9551357421875,-38.76153564453125,29.018165588378906,14.501567840576172
1634127047443015000,2.975014892578125,-38.740142822265625,28.946495056152344,14.482452392578125
1634127047462893800,2.994893798828125,-38.82440185546875,28.72883415222168,14.39139175415039
1634127047482772700,3.014772705078125,-38.71697998046875,28.776397705078125,14.258865356445312
1634127047502651600,3.034651611328125,-38.952301025390625,28.681798934936523,14.173187255859375
1634127047522531800,3.05453173828125,-38.809051513671875,28.702207565307617,14.127555847167969
1634127047542410800,3.07441064453125,-39.009124755859375,28.64975357055664,14.058757781982422
1634127047562289700,3.09428955078125,-39.321868896484375,28.770109176635742,13.691741943359375
1634127047582168800,3.1141689453125,-39.544586181640625,28.664873123168945,13.607772827148438
1634127047602047700,3.1340478515625,-39.202423095703125,28.786334991455078,13.607673645019531
1634127047621927700,3.153927734375,-39.23968505859375,28.807239532470703,13.583721160888672
1634127047641806800,3.173806884765625,-38.99688720703125,28.444902420043945,13.332206726074219
1634127047661685800,3.193685791015625,-38.808013916015625,28.28911018371582,13.259197235107422
1634127047681565000,3.21356494140625,-39.189788818359375,28.30923080444336,13.339675903320312
1634127047701443600,3.233443603515625,-39.326507568359375,28.57015609741211,13.398426055908203
1634127047721322800,3.25332275390625,-39.217437744140625,28.88214683532715,13.684844970703125
1634127047741203000,3.273202880859375,-39.467376708984375,28.536293029785156,13.268310546875
1634127047761081600,3.29308154296875,-39.29168701171875,28.520893096923828,13.554954528808594
1634127047780960800,3.312960693359375,-38.96405029296875,28.676788330078125,13.53451156616211
1634127047800839700,3.332839599609375,-38.889556884765625,28.977767944335938,13.481769561767578
1634127047820718800,3.35271875,-38.763214111328125,28.78231430053711,13.46414566040039
1634127047840598800,3.372598876953125,-38.818572998046875,28.718849182128906,13.768600463867188
1634127047860477700,3.392477783203125,-39.4188232421875,28.5217342376709,13.765068054199219
1634127047880356900,3.41235693359375,-39.236297607421875,28.633798599243164,13.521011352539062
1634127047900235800,3.43223583984375,-39.180816650390625,28.536102294921875,13.854629516601562
1634127047920114700,3.45211474609375,-39.04730224609375,28.337787628173828,13.635013580322266
1634127047939995000,3.471994873046875,-39.204864501953125,28.471866607666016,13.79732894897461
1634127047959873800,3.491873779296875,-39.29168701171875,28.476306915283203,13.403850555419922
1634127047979752700,3.511752685546875,-39.626007080078125,28.556209564208984,13.597675323486328
1634127047999632000,3.5316318359375,-39.6473388671875,28.321474075317383,13.635154724121094
1634127048019510800,3.5515107421875,-39.90606689453125,28.361492156982422,13.738548278808594
1634127048039390700,3.571390625,-39.568695068359375,28.188400268554688,14.013862609863281
1634127048059269600,3.59126953125,-39.439666748046875,28.393314361572266,13.807975769042969
1634127048079148800,3.611148681640625,-39.6927490234375,28.543222427368164,13.87371826171875
1634127048099028700,3.63102880859375,-39.368499755859375,28.47269058227539,13.939517974853516
1634127048118907600,3.65090771484375,-39.49273681640625,28.189327239990234,13.790279388427734
1634127048138787800,3.670787841796875,-39.543426513671875,28.23350715637207,13.773181915283203
1634127048158666800,3.690666748046875,-39.12091064453125,28.259761810302734,13.759212493896484
1634127048178545700,3.710545654296875,-39.46954345703125,28.324687957763672,13.56723403930664
1634127048198424800,3.7304248046875,-39.408721923828125,28.3863468170166,13.311973571777344
1634127048218303700,3.7503037109375,-39.338043212890625,28.51533317565918,13.466567993164062
1634127048238182700,3.7701826171875,-39.524444580078125,28.496768951416016,13.404022216796875
1634127048258062800,3.790062744140625,-39.226165771484375,28.259403228759766,13.80521011352539
1634127048277941800,3.809941650390625,-39.36968994140625,28.320520401000977,13.685630798339844
1634127048297821000,3.829821044921875,-39.61181640625,28.439395904541016,13.545372009277344
1634127048317699600,3.849699462890625,-39.83074951171875,28.532272338867188,13.775459289550781
1634127048337578800,3.869578857421875,-39.490325927734375,28.57150650024414,13.995723724365234
1634127048357459000,3.889458984375,-39.13958740234375,28.576501846313477,13.69430160522461
1634127048377337600,3.909337646484375,-39.09356689453125,28.503042221069336,13.76910400390625
1634127048397216800,3.929216796875,-39.216217041015625,28.457679748535156,13.927013397216797
1634127048417095700,3.949095703125,-39.521697998046875,28.351497650146484,13.85052490234375
1634127048436974800,3.968974853515625,-39.155914306640625,28.088563919067383,13.761009216308594
1634127048456854800,3.988854736328125,-38.906402587890625,28.307546615600586,14.138374328613281
1634127048476733700,4.008733642578125,-39.21087646484375,28.309106826782227,13.98089599609375
1634127048496612900,4.02861279296875,-39.187530517578125,28.33510398864746,13.778900146484375
1634127048516491800,4.04849169921875,-39.116973876953125,28.29532814025879,13.859935760498047
1634127048536370700,4.06837060546875,-38.97210693359375,28.209415435791016,14.059558868408203
1634127048556251000,4.0882509765625,-39.32916259765625,27.984394073486328,14.25399398803711
1634127048576129800,4.1081298828125,-39.308929443359375,28.099836349487305,14.115474700927734
1634127048596008700,4.1280087890625,-39.346649169921875,28.137136459350586,14.250789642333984
1634127048615887600,4.1478876953125,-39.48291015625,28.23883056640625,14.173816680908203
1634127048635766800,4.167766845703125,-39.4783935546875,28.239816665649414,14.249763488769531
1634127048655646700,4.187646728515625,-39.592315673828125,28.31682586669922,14.431068420410156
1634127048675525600,4.207525634765625,-39.4755859375,27.984960556030273,14.70309829711914
1634127048695404800,4.22740478515625,-39.1236572265625,28.373058319091797,14.694931030273438
1634127048715283700,4.24728369140625,-39.17889404296875,28.4365234375,15.006732940673828
1634127048735162600,4.26716259765625,-39.081329345703125,28.247907638549805,15.132858276367188
1634127048755042800,4.287042724609375,-39.07763671875,28.300260543823242,14.92959213256836
1634127048774921700,4.306921630859375,-39.0870361328125,27.949697494506836,14.859542846679688
1634127048794800600,4.326800537109375,-39.32489013671875,28.205341339111328,14.87371826171875
1634127048814679600,4.346679443359375,-39.2261962890625,28.09104347229004,14.38311767578125
1634127048834558700,4.366558837890625,-39.118743896484375,27.826370239257812,14.706436157226562
1634127048854438700,4.386438720703125,-39.3121337890625,28.298603057861328,14.770462036132812
1634127048874317600,4.406317626953125,-39.440765380859375,28.304428100585938,14.6402587890625
1634127048894196700,4.42619677734375,-39.297271728515625,28.122337341308594,14.63724136352539
1634127048914076000,4.446075927734375,-39.318450927734375,28.113101959228516,14.411418914794922
1634127048933954800,4.465954833984375,-39.57098388671875,28.380512237548828,14.08121109008789
1634127048953833700,4.485833740234375,-39.462646484375,28.23554229736328,14.06594467163086
1634127048973713700,4.505713623046875,-39.079071044921875,28.537277221679688,14.347412109375
1634127048993592800,4.5255927734375,-39.196197509765625,28.69198226928711,14.08419418334961
1634127049013471700,4.5454716796875,-39.05413818359375,28.69454574584961,13.990547180175781
1634127049033350700,4.5653505859375,-38.80975341796875,28.607666015625,13.865180969238281
1634127049053229800,4.585229736328125,-39.338958740234375,28.58541488647461,13.647308349609375
1634127049073109500,4.605109619140625,-38.687408447265625,28.749927520751953,13.568782806396484
1634127049092991700,4.62499169921875,-38.8505859375,28.736743927001953,13.619384765625
1634127049112871000,4.644870849609375,-38.686370849609375,28.73248291015625,13.64767074584961
1634127049132749800,4.664749755859375,-39.050628662109375,28.631404876708984,13.451984405517578
1634127049152629000,4.68462890625,-38.7103271484375,28.47490882873535,13.4644775390625
1634127049172509000,4.704509033203125,-39.0155029296875,28.69208526611328,13.680545806884766
1634127049192387800,4.724387939453125,-38.634979248046875,28.90431022644043,13.62746810913086
1634127049212267000,4.74426708984375,-38.790191650390625,28.658550262451172,13.613395690917969
1634127049232145700,4.764145751953125,-38.85400390625,28.429967880249023,13.70346450805664
1634127049252024800,4.78402490234375,-39.022216796875,28.487083435058594,13.483306884765625
1634127049271905000,4.803905029296875,-38.7506103515625,28.479902267456055,13.35519790649414
1634127049291784000,4.823783935546875,-39.172454833984375,28.574222564697266,13.528621673583984
1634127049311662800,4.843662841796875,-39.211822509765625,28.62242889404297,13.548641204833984
1634127049331541800,4.863541748046875,-38.705322265625,28.526142120361328,13.560375213623047
1634127049351421000,4.8834208984375,-39.065338134765625,28.548046112060547,13.541252136230469
1634127049371300900,4.90330078125,-38.90509033203125,28.656192779541016,13.595684051513672
1634127049391179800,4.9231796875,-39.1641845703125,28.419414520263672,13.742450714111328
1634127049411059000,4.943058837890625,-38.9127197265625,28.71997833251953,13.496101379394531
1634127049430937900,4.962937744140625,-39.102142333984375,28.522132873535156,13.460880279541016
1634127049450816800,4.982816650390625,-38.900390625,28.42949676513672,13.592082977294922
1634127049470697000,5.002697021484375,-39.04925537109375,28.549312591552734,13.869247436523438
1634127049490576000,5.022575927734375,-39.178863525390625,28.656333923339844,13.806774139404297
1634127049510454800,5.042454833984375,-39.036956787109375,28.588905334472656,13.607574462890625
1634127049530333700,5.062333740234375,-39.386474609375,28.71761131286621,13.625316619873047
1634127049550212900,5.082212890625,-39.22369384765625,28.752864837646484,13.376434326171875
1634127049570092800,5.1020927734375,-39.134307861328125,28.453458786010742,13.080509185791016
1634127049589971700,5.1219716796875,-38.6290283203125,28.527311325073242,12.889793395996094
1634127049609851000,5.141850830078125,-38.831329345703125,28.599395751953125,12.688030242919922
1634127049629729800,5.161729736328125,-38.988128662109375,28.474029541015625,12.878005981445312
1634127049649609000,5.18160888671875,-38.78094482421875,28.4610595703125,12.988758087158203
1634127049669487900,5.20148779296875,-38.68853759765625,28.44227409362793,12.773319244384766
1634127049689367800,5.221367919921875,-38.933837890625,28.366031646728516,12.831573486328125
1634127049709247000,5.2412470703125,-38.784393310546875,28.47664451599121,12.693450927734375
1634127049729126000,5.2611259765625,-38.8720703125,28.338411331176758,12.965782165527344
1634127049749004800,5.2810048828125,-38.9246826171875,28.250112533569336,13.005725860595703
1634127049768884000,5.300884033203125,-39.062774658203125,28.237030029296875,12.786376953125
1634127049788763600,5.320763671875,-38.919097900390625,28.530384063720703,12.773338317871094
1634127049808642800,5.340642822265625,-39.22607421875,28.54262924194336,12.793724060058594
1634127049828522000,5.36052197265625,-39.180999755859375,28.587200164794922,12.89937973022461
1634127049848401000,5.38040087890625,-39.117950439453125,28.46628189086914,12.859275817871094
1634127049868279800,5.40027978515625,-38.97357177734375,28.495193481445312,12.988971710205078
1634127049888159700,5.42015966796875,-39.303009033203125,28.38052749633789,12.819664001464844
1634127049908039000,5.440038818359375,-39.218048095703125,28.452476501464844,13.091049194335938
1634127049927918000,5.45991796875,-39.391326904296875,28.284311294555664,13.132308959960938
1634127049947796700,5.479796630859375,-38.889373779296875,28.23582649230957,13.462215423583984
1634127049967676000,5.499676025390625,-38.9927978515625,28.35940170288086,13.182353973388672
1634127049987555800,5.519555908203125,-38.888580322265625,28.2731990814209,13.258880615234375
1634127050007434800,5.539434814453125,-39.042999267578125,28.48227310180664,13.055313110351562
1634127050027314000,5.55931396484375,-39.1617431640625,28.358827590942383,13.316349029541016
1634127050047192800,5.57919287109375,-38.90380859375,28.534799575805664,13.09674072265625
1634127050067072000,5.599072021484375,-38.8826904296875,28.34321403503418,12.884742736816406
1634127050086951400,5.618951416015625,-38.731292724609375,28.434640884399414,13.160011291503906
1634127050106830600,5.63883056640625,-39.04327392578125,28.50386619567871,13.347007751464844
1634127050126709500,5.65870947265625,-38.9188232421875,28.462541580200195,13.309623718261719
1634127050146588700,5.678588623046875,-38.485687255859375,28.75797462463379,13.494815826416016
1634127050166467300,5.69846728515625,-39.062774658203125,28.488122940063477,13.244277954101562
1634127050186346500,5.718346435546875,-38.949462890625,28.529199600219727,13.223785400390625
1634127050206226700,5.738226806640625,-39.0709228515625,28.611019134521484,13.283763885498047
1634127050226105300,5.758105224609375,-38.74114990234375,28.317052841186523,13.078376770019531
1634127050245984500,5.777984619140625,-38.40179443359375,28.580215454101562,13.074283599853516
1634127050265863400,5.797863525390625,-38.55902099609375,28.502212524414062,13.105480194091797
1634127050285742600,5.81774267578125,-38.6405029296875,28.718521118164062,13.133888244628906
1634127050305622500,5.83762255859375,-38.41497802734375,28.55704689025879,12.943122863769531
1634127050325501400,5.85750146484375,-38.44512939453125,28.842531204223633,12.984378814697266
1634127050345380600,5.877380615234375,-38.9564208984375,28.646114349365234,13.135818481445312
1634127050365259500,5.897259521484375,-38.53668212890625,28.714527130126953,12.938667297363281
1634127050385138400,5.917138427734375,-38.48974609375,28.582714080810547,12.700725555419922
1634127050405018600,5.9370185546875,-38.97503662109375,28.763301849365234,12.844154357910156
1634127050424897500,5.9568974609375,-38.381500244140625,28.8206844329834,12.92386245727539
1634127050444776400,5.9767763671875,-38.54937744140625,28.897777557373047,12.658092498779297
1634127050464655400,5.9966552734375,-38.412200927734375,28.881620407104492,12.564571380615234
1634127050484534500,6.016534423828125,-38.4771728515625,28.964675903320312,13.079933166503906
1634127050504414500,6.03641455078125,-38.707489013671875,29.078140258789062,13.282466888427734
1634127050524293400,6.05629345703125,-38.521392822265625,29.09970474243164,12.859439849853516
1634127050544172500,6.076172607421875,-38.483154296875,29.07903289794922,12.892436981201172
1634127050564051500,6.096051513671875,-38.3948974609375,29.143909454345703,12.65557861328125
1634127050583930400,6.115930419921875,-38.4481201171875,29.13197898864746,12.949928283691406
1634127050603810600,6.135810546875,-38.48907470703125,29.17407989501953,12.395633697509766
1634127050623689500,6.155689453125,-38.743408203125,29.377483367919922,12.323291778564453
1634127050643568600,6.175568603515625,-39.029571533203125,29.28719711303711,12.190425872802734
1634127050663447300,6.195447265625,-38.645782470703125,29.443578720092773,12.035171508789062
1634127050683326500,6.215326416015625,-38.602142333984375,29.516357421875,12.096942901611328
1634127050703206700,6.23520654296875,-38.582550048828125,29.494441986083984,12.047592163085938
1634127050723085300,6.255085205078125,-38.3587646484375,30.172239303588867,11.794605255126953
1634127050742964500,6.274964599609375,-38.315673828125,30.10354232788086,11.491077423095703
1634127050762843400,6.294843505859375,-38.13165283203125,30.100601196289062,11.18490219116211
1634127050782722600,6.31472265625,-38.3834228515625,30.349699020385742,10.912239074707031
1634127050802601500,6.3346015625,-38.277435302734375,30.396326065063477,10.406333923339844
1634127050822481400,6.3544814453125,-38.427520751953125,30.357479095458984,10.217247009277344
1634127050842360600,6.374360595703125,-38.109588623046875,30.527204513549805,9.676734924316406
1634127050862239500,6.394239501953125,-38.25946044921875,30.749866485595703,9.41231918334961
1634127050882118400,6.414118408203125,-38.44439697265625,30.93610954284668,8.72439956665039
1634127050901997600,6.43399755859375,-38.572601318359375,31.115949630737305,8.84820556640625
1634127050921877500,6.45387744140625,-38.373443603515625,30.974027633666992,8.356758117675781
1634127050941756400,6.47375634765625,-38.574310302734375,31.291675567626953,7.694133758544922
1634127050961635600,6.493635498046875,-38.111419677734375,31.206453323364258,7.611820220947266
1634127050981514500,6.513514404296875,-38.168060302734375,31.126218795776367,7.210918426513672
1634127051001393700,6.5333935546875,-38.141937255859375,31.00885581970215,6.9283447265625
1634127051021273300,6.5532734375,-38.303863525390625,31.075960159301758,6.6818389892578125
1634127051041152500,6.573152587890625,-38.228912353515625,31.264310836791992,5.976310729980469
1634127051061031700,6.59303173828125,-37.97607421875,31.25126838684082,5.756294250488281
1634127051080910300,6.612910400390625,-37.9041748046875,31.67284393310547,5.682033538818359
1634127051100785700,6.63278564453125,-37.739837646484375,31.923608779907227,5.49639892578125
1634127051120665900,6.652665771484375,-37.588165283203125,32.1903076171875,5.231235504150391
1634127051140544800,6.672544677734375,-37.342193603515625,32.05557632446289,4.8574676513671875
1634127051160423700,6.692423583984375,-37.2161865234375,32.134254455566406,4.350360870361328
1634127051180302800,6.712302734375,-37.06134033203125,32.3765983581543,4.191509246826172
1634127051200181800,6.732181640625,-37.27667236328125,32.62969207763672,3.7865829467773438
1634127051220061000,6.75206103515625,-37.389984130859375,33.03966522216797,3.7612953186035156
1634127051239940900,6.77194091796875,-37.455352783203125,32.978206634521484,3.7578468322753906
1634127051259819800,6.79181982421875,-37.287353515625,33.252830505371094,3.2761383056640625
1634127051279699000,6.811698974609375,-36.77960205078125,33.30208206176758,3.121623992919922
1634127051299577600,6.83157763671875,-36.468780517578125,33.41032028198242,2.9031753540039062
1634127051319456800,6.851456787109375,-36.958953857421875,33.29217529296875,2.8577041625976562
1634127051339337000,6.8713369140625,-37.258697509765625,33.3820686340332,2.539508819580078
1634127051359215600,6.891215576171875,-36.965545654296875,33.3206672668457,2.4954261779785156
1634127051379094800,6.9110947265625,-37.394378662109375,33.31193542480469,2.2303199768066406
1634127051398973700,6.9309736328125,-37.32464599609375,33.083072662353516,2.1788558959960938
1634127051418852900,6.950852783203125,-36.994232177734375,33.01819610595703,2.0434417724609375
1634127051438732800,6.97073291015625,-36.904754638671875,32.830379486083984,1.665069580078125
1634127051458611700,6.99061181640625,-37.557159423828125,32.83725357055664,1.3065414428710938
1634127051478491000,7.010490966796875,-37.720550537109375,32.4499626159668,0.8811111450195312
1634127051498369800,7.030369873046875,-37.687286376953125,32.744354248046875,0.478515625
1634127051518248700,7.050248779296875,-37.9481201171875,32.7704963684082,0.15784072875976562
1634127051538129000,7.07012890625,-37.0850830078125,32.56553268432617,0.07629776000976562
1634127051558007800,7.0900078125,-37.38128662109375,32.701019287109375,-0.45090484619140625
1634127051577886700,7.10988671875,-37.11041259765625,32.980323791503906,-0.9070587158203125
1634127051597765600,7.129765625,-37.615447998046875,32.482025146484375,-1.6094017028808594
1634127051617644800,7.149644775390625,-37.50390625,32.41552734375,-2.064197540283203
1634127051637524000,7.16952392578125,-37.450042724609375,32.5317497253418,-2.4449501037597656
1634127051657403600,7.189403564453125,-37.55718994140625,32.3774299621582,-3.1757240295410156
1634127051677282800,7.20928271484375,-37.044403076171875,32.65886688232422,-3.865184783935547
1634127051697161700,7.22916162109375,-37.120391845703125,32.82562255859375,-4.423213958740234
1634127051717041000,7.249041015625,-36.983245849609375,33.03855895996094,-5.281055450439453
1634127051736919800,7.268919921875,-36.810791015625,32.95154571533203,-5.921802520751953
1634127051756799700,7.2887998046875,-36.422607421875,32.96049499511719,-6.415752410888672
1634127051776679000,7.308678955078125,-36.455291748046875,33.12691116333008,-7.242786407470703
1634127051796557600,7.3285576171875,-35.95733642578125,33.241172790527344,-8.182842254638672
1634127051816436700,7.348436767578125,-35.7342529296875,33.26533508300781,-8.873676300048828
1634127051836316000,7.36831591796875,-35.255096435546875,33.22080612182617,-9.650867462158203
1634127051856195600,7.388195556640625,-34.685760498046875,33.384490966796875,-10.669269561767578
1634127051876074800,7.40807470703125,-34.7471923828125,33.306514739990234,-11.691364288330078
1634127051895954000,7.427953857421875,-34.427581787109375,33.348350524902344,-12.614665985107422
1634127051915832800,7.447832763671875,-34.15960693359375,33.094032287597656,-13.666065216064453
1634127051935711700,7.467711669921875,-33.6353759765625,33.12664794921875,-14.604290008544922
1634127051955590700,7.487590576171875,-33.647003173828125,33.124420166015625,-16.094898223876953
1634127051975470800,7.507470947265625,-32.889801025390625,32.965728759765625,-16.864368438720703
1634127051995349800,7.527349853515625,-32.1019287109375,33.123416900634766,-17.811725616455078
1634127052015228700,7.547228759765625,-31.081207275390625,33.13603591918945,-19.049274444580078
1634127052035107800,7.56710791015625,-30.192840576171875,33.15583801269531,-19.740337371826172
1634127052054986800,7.58698681640625,-29.478759765625,33.3738899230957,-20.82193374633789
1634127052074866700,7.60686669921875,-28.903411865234375,33.42625427246094,-22.065593719482422
1634127052094745300,7.626745361328125,-27.9888916015625,33.319522857666016,-23.45833969116211
1634127052114624500,7.64662451171875,-27.137115478515625,33.4193229675293,-24.596508026123047
1634127052134503400,7.66650341796875,-26.076873779296875,33.24805450439453,-25.72445297241211
1634127052154382600,7.686382568359375,-25.041595458984375,33.10025405883789,-27.115108489990234
1634127052174262300,7.70626220703125,-23.512298583984375,33.07050323486328,-27.933956146240234
1634127052194141400,7.726141357421875,-23.232208251953125,32.75924301147461,-28.707035064697266
1634127052214020600,7.7460205078125,-22.32537841796875,32.688201904296875,-29.245967864990234
1634127052233899300,7.765899169921875,-21.428466796875,32.450782775878906,-29.973018646240234
1634127052253778400,7.7857783203125,-21.07110595703125,32.333431243896484,-30.367671966552734
1634127052273657300,7.8056572265625,-19.709625244140625,32.27058792114258,-31.123615264892578
1634127052293537300,7.825537353515625,-18.738616943359375,31.8671817779541,-32.17513656616211
1634127052313416400,7.84541650390625,-17.930938720703125,31.707929611206055,-32.7303352355957
1634127052333295400,7.86529541015625,-17.010955810546875,31.390287399291992,-33.67839431762695
1634127052353174500,7.885174560546875,-16.270751953125,31.18585205078125,-34.35149002075195
1634127052373053400,7.905053466796875,-15.50128173828125,30.92323875427246,-35.03824996948242
1634127052392933400,7.924933349609375,-14.34991455078125,30.704002380371094,-35.58562088012695
1634127052412812500,7.9448125,-13.5595703125,30.473615646362305,-35.99711227416992
1634127052432691500,7.96469140625,-11.7354736328125,30.16602325439453,-36.653507232666016
1634127052452570400,7.9845703125,-11.228485107421875,30.04871368408203,-37.19918441772461
1634127052472449300,8.00444921875,-10.187957763671875,30.051557540893555,-37.611515045166016
1634127052492328400,8.024328369140624,-8.930572509765625,29.453168869018555,-38.13223648071289
1634127052512208400,8.04420849609375,-8.266876220703125,29.293949127197266,-38.1677131652832
1634127052532087300,8.06408740234375,-7.04052734375,29.136198043823242,-38.84554672241211
1634127052551966500,8.083966552734376,-5.85321044921875,28.636165618896484,-39.55178451538086
1634127052571845400,8.103845458984376,-4.783599853515625,28.042261123657227,-39.978267669677734
1634127052591724300,8.123724365234375,-3.35028076171875,27.751462936401367,-40.214542388916016
1634127052611604500,8.1436044921875,-2.6744384765625,27.023378372192383,-40.709896087646484
1634127052631483400,8.1634833984375,-1.378448486328125,26.326162338256836,-41.3701286315918
1634127052651362300,8.1833623046875,-0.0672607421875,25.882387161254883,-41.66996383666992
1634127052671241200,8.2032412109375,1.31884765625,25.276458740234375,-41.746463775634766
1634127052691120400,8.223120361328125,2.290130615234375,24.915254592895508,-41.73739242553711
1634127052711000300,8.243000244140624,4.58135986328125,24.465614318847656,-41.7092170715332
1634127052730879200,8.262879150390624,5.97412109375,24.16937255859375,-41.6484260559082
1634127052750758400,8.28275830078125,7.926544189453125,23.54415512084961,-42.2690315246582
1634127052770637600,8.302637451171876,9.651123046875,22.66510772705078,-42.237613677978516
1634127052790516500,8.3225166015625,11.30438232421875,21.81830596923828,-42.45042037963867
1634127052810395400,8.3423955078125,13.12249755859375,21.0007381439209,-42.53364181518555
1634127052830275300,8.362275390625,13.82025146484375,20.574504852294922,-42.43331527709961
1634127052850154500,8.382154541015625,14.689239501953125,19.509449005126953,-42.38261795043945
1634127052870033400,8.402033447265625,15.097259521484375,19.085546493530273,-42.762203216552734
1634127052889912300,8.421912353515625,16.43548583984375,17.775606155395508,-42.83552169799805
1634127052909791500,8.44179150390625,17.155242919921875,16.91089630126953,-42.93356704711914
1634127052929671200,8.461671142578124,18.332916259765625,16.32198715209961,-42.6465950012207
1634127052949550300,8.48155029296875,19.54876708984375,15.689148902893066,-42.39285659790039
1634127052969429500,8.501429443359376,20.507659912109375,15.278135299682617,-42.20634078979492
1634127052989308400,8.521308349609376,21.45947265625,14.774163246154785,-41.546146392822266
1634127053009187600,8.5411875,21.813629150390625,14.4943208694458,-41.367679595947266
1634127053029066200,8.561066162109375,22.549163818359375,14.177608489990234,-41.22938919067383
1634127053048946400,8.580946533203125,23.4832763671875,13.526544570922852,-40.891780853271484
1634127053068825600,8.60082568359375,24.364288330078125,13.347250938415527,-40.46688461303711
1634127053088704300,8.620704345703125,24.933868408203125,13.036683082580566,-40.20524215698242
1634127053108587500,8.64058740234375,25.990997314453125,13.127426147460938,-39.934383392333984
1634127053128466700,8.660466796875,26.8577880859375,12.862504005432129,-39.52018356323242
1634127053148346400,8.680346435546875,27.42822265625,12.89533805847168,-39.0756721496582
1634127053168225500,8.7002255859375,27.80810546875,12.797026634216309,-38.66306686401367
1634127053188104700,8.720104736328125,28.241973876953125,12.834522247314453,-38.06917953491211
1634127053207983600,8.739983642578125,29.011962890625,12.482131958007812,-37.678157806396484
1634127053227862500,8.759862548828124,29.517333984375,12.654297828674316,-37.24581527709961
1634127053247742500,8.779742431640624,30.25347900390625,12.15550422668457,-37.23983383178711
1634127053267621600,8.79962158203125,30.57525634765625,11.751216888427734,-36.71339797973633
1634127053287500500,8.81950048828125,31.121337890625,11.439848899841309,-36.285518646240234
1634127053307379500,8.83937939453125,31.2664794921875,11.18319320678711,-36.31094741821289
1634127053327258600,8.859258544921875,31.776092529296875,10.878782272338867,-35.93904495239258
1634127053347137500,8.879137451171875,32.58099365234375,10.479990005493164,-35.766170501708984
1634127053367017500,8.899017578125,32.759735107421875,10.617603302001953,-35.215457916259766
1634127053386896600,8.918896728515625,32.6915283203125,10.32913589477539,-35.247196197509766
1634127053406775600,8.938775634765625,32.923553466796875,10.166045188903809,-34.989810943603516
1634127053426654500,8.958654541015624,32.752960205078125,10.25445556640625,-35.09346389770508
1634127053446533400,8.978533447265624,32.474029541015625,10.16345500946045,-35.24882888793945
1634127053466413600,8.99841357421875,32.13653564453125,9.946145057678223,-35.648067474365234
1634127053486292500,9.01829248046875,32.094970703125,9.571004867553711,-36.05929946899414
1634127053506171400,9.03817138671875,31.686981201171875,9.087886810302734,-36.12285232543945
1634127053526050600,9.058050537109375,31.53338623046875,8.817245483398438,-36.398563385009766
1634127053545929500,9.077929443359375,31.341949462890625,8.617877960205078,-36.58879470825195
1634127053565808600,9.09780859375,31.58038330078125,8.115642547607422,-36.82114028930664
1634127053585688600,9.1176884765625,30.931854248046875,7.736907958984375,-36.82144546508789
1634127053605567500,9.1375673828125,30.91668701171875,7.487159729003906,-36.91770553588867
1634127053625446700,9.15744677734375,30.756988525390625,7.331348419189453,-37.29777145385742
1634127053645325300,9.1773251953125,30.513885498046875,7.368776321411133,-37.325626373291016
1634127053665204500,9.19720458984375,31.246551513671875,7.662847518920898,-37.18563461303711
1634127053685084700,9.217084716796874,31.487701416015625,7.484222412109375,-37.29631423950195
1634127053704963300,9.23696337890625,31.61712646484375,7.662675857543945,-37.17679214477539
1634127053724842500,9.256842529296875,31.62933349609375,7.72056770324707,-36.7687873840332
1634127053744721400,9.276721435546875,31.82257080078125,7.944858551025391,-36.722652435302734
1634127053764600600,9.2966005859375,32.08056640625,8.25831413269043,-36.4115104675293
1634127053784479700,9.316479736328125,32.336395263671875,8.212982177734375,-36.09810256958008
1634127053804359400,9.336359375,32.493316650390625,8.372114181518555,-35.9068717956543
1634127053824238600,9.356238525390625,32.65521240234375,8.917573928833008,-35.86061477661133
1634127053844117800,9.37611767578125,32.87969970703125,9.04852294921875,-35.533870697021484
1634127053863996400,9.395996337890624,32.849853515625,9.304161071777344,-35.456844329833984
1634127053883875600,9.41587548828125,32.593475341796875,9.669893264770508,-35.143062591552734
1634127053903754500,9.43575439453125,32.77215576171875,9.79022216796875,-35.35689163208008
1634127053923634400,9.455634521484376,32.676239013671875,10.10391902923584,-35.34603500366211
1634127053943513600,9.475513671875,32.601470947265625,10.114787101745605,-35.12125015258789
1634127053963392500,9.495392578125,32.7508544921875,10.032973289489746,-35.276493072509766
1634127053983271700,9.515271728515625,32.632568359375,10.4171142578125,-35.12959671020508
1634127054003150300,9.535150390625,32.94805908203125,10.150382041931152,-35.219905853271484
1634127054023030500,9.555030517578125,32.30584716796875,10.44810676574707,-35.340641021728516
1634127054042909700,9.57490966796875,32.3050537109375,10.451960563659668,-35.1198616027832
1634127054062788600,9.59478857421875,32.48358154296875,10.235995292663574,-35.26616287231445
1634127054082667500,9.61466748046875,32.516021728515625,10.411197662353516,-35.551273345947266
1634127054102542300,9.634542236328125,32.49346923828125,10.50582504272461,-35.36030960083008
1634127054122422500,9.654422607421875,32.544036865234375,10.079793930053711,-35.43976974487305
1634127054142301400,9.674301513671875,32.289276123046875,10.092691421508789,-35.8324089050293
1634127054162180400,9.694180419921874,32.3560791015625,9.878621101379395,-35.78071212768555
1634127054182059300,9.714059326171874,32.103729248046875,9.611095428466797,-36.0075798034668
1634127054201938400,9.7339384765625,32.101470947265625,9.732053756713867,-35.96726608276367
1634127054221818400,9.753818359375,31.754974365234375,9.349893569946289,-36.17472457885742
1634127054241697300,9.773697265625,31.80535888671875,9.379007339477539,-36.164920806884766
1634127054261576400,9.793576416015625,32.008575439453125,9.22457504272461,-36.13943862915039
1634127054281455400,9.813455322265625,31.822540283203125,9.433744430541992,-36.26718521118164
1634127054301334300,9.833334228515625,31.847015380859375,9.313182830810547,-36.094783782958984
1634127054321213200,9.853213134765625,31.64556884765625,9.243631362915039,-35.962162017822266
1634127054341093400,9.87309326171875,31.732025146484375,9.445955276489258,-36.23233413696289
1634127054360972300,9.89297216796875,31.96087646484375,9.438879013061523,-36.064266204833984
1634127054380851200,9.912851318359374,31.918731689453125,9.562253952026367,-35.902889251708984
1634127054400730400,9.93273046875,31.8040771484375,9.473438262939453,-35.90732955932617
1634127054420609500,9.952609619140626,32.07611083984375,9.948904991149902,-35.8347282409668
1634127054440488400,9.972488525390625,32.397552490234375,10.344353675842285,-35.607784271240234
1634127054460368400,9.992368408203125,32.48138427734375,10.438809394836426,-35.744747161865234
1634127054480247300,10.012247314453125,32.565216064453125,10.431780815124512,-35.519771575927734
1634127054500126500,10.03212646484375,32.498870849609375,10.768834114074707,-35.4052619934082
1634127054520005400,10.05200537109375,32.35406494140625,11.114158630371094,-35.45083236694336
1634127054539884300,10.07188427734375,32.551177978515625,10.779088973999023,-35.10166549682617
1634127054559764500,10.091764404296875,32.365570068359375,10.960929870605469,-35.37375259399414
1634127054579643100,10.11164306640625,32.753082275390625,10.844975471496582,-34.90152359008789
1634127054599522300,10.131522216796874,32.591705322265625,10.744729995727539,-35.10353469848633
1634127054619401500,10.1514013671875,32.75006103515625,10.517716407775879,-35.142452239990234
1634127054639280400,10.1712802734375,32.44329833984375,10.41788101196289,-35.22459030151367
1634127054659159300,10.1911591796875,32.376251220703125,10.071911811828613,-35.4857292175293
1634127054679039500,10.21103955078125,32.3095703125,9.714378356933594,-35.61562728881836
1634127054698918400,10.23091845703125,32.209930419921875,9.633903503417969,-35.573429107666016
1634127054718797600,10.250797607421875,32.249267578125,9.781211853027344,-35.37199783325195
1634127054738676200,10.27067626953125,32.49859619140625,9.645515441894531,-35.7091178894043
1634127054758555400,10.290555419921875,32.040069580078125,9.442829132080078,-35.39006423950195
1634127054778435600,10.310435546875,32.120147705078125,9.805180549621582,-35.62050247192383
1634127054798314200,10.330314208984374,32.2965087890625,9.73056411743164,-35.88838577270508
1634127054818193400,10.350193359375,32.4073486328125,9.9296875,-35.881839752197266
1634127054838072300,10.370072265625,32.428802490234375,9.929182052612305,-35.8820686340332
1634127054857951500,10.389951416015625,32.007476806640625,9.86805534362793,-35.95609664916992
1634127054877830100,10.409830078125,31.795745849609375,10.267669677734375,-35.891963958740234
1634127054897710300,10.42971044921875,31.966033935546875,10.250351905822754,-35.61845016479492
1634127054917589500,10.449589599609375,31.953826904296875,10.392433166503906,-35.97938919067383
1634127054937468400,10.469468505859375,32.289306640625,10.498698234558105,-35.70999526977539
1634127054957347300,10.489347412109375,31.981292724609375,10.850784301757812,-35.663578033447266
1634127054977226200,10.509226318359374,32.411590576171875,10.850740432739258,-35.65140914916992
1634127054997106400,10.5291064453125,32.023040771484375,11.103913307189941,-35.6749153137207
1634127055016985300,10.5489853515625,32.272430419921875,11.440110206604004,-35.3875846862793
1634127055036864300,10.5688642578125,31.70623779296875,11.530191421508789,-35.46756362915039
1634127055056743400,10.588743408203126,31.460174560546875,11.571880340576172,-35.1670036315918
1634127055076622300,10.608622314453125,31.711181640625,11.67557144165039,-35.188053131103516
1634127055096503000,10.6285029296875,31.8419189453125,12.10753345489502,-35.0600700378418
1634127055116382000,10.6483818359375,31.762725830078125,12.085580825805664,-35.17387771606445
1634127055136260900,10.6682607421875,31.480255126953125,12.185283660888672,-35.44466781616211
1634127055156139800,10.688139892578125,31.4898681640625,12.009652137756348,-35.75001907348633
1634127055176019000,10.70801904296875,31.572998046875,11.968911170959473,-35.6491584777832
1634127055195897900,10.72789794921875,31.62969970703125,12.02803897857666,-35.76212692260742
1634127055215777800,10.74777783203125,31.637603759765625,11.782729148864746,-35.511600494384766
1634127055235657000,10.767656982421874,31.565460205078125,11.895360946655273,-35.85273361206055
1634127055255535900,10.787535888671876,31.267608642578125,12.184972763061523,-35.88930892944336
1634127055275415000,10.8074150390625,31.515594482421875,12.023320198059082,-35.741268157958984
1634127055295293700,10.827293701171875,30.99200439453125,12.327527046203613,-35.761478424072266
1634127055315174000,10.847173828125,31.26953125,12.435428619384766,-35.93417739868164
1634127055335053000,10.867052978515625,31.68182373046875,12.294363975524902,-35.6830940246582
1634127055354931700,10.886931640625,31.5203857421875,12.163578033447266,-35.597721099853516
1634127055374811000,10.906810791015625,31.8314208984375,12.475357055664062,-35.46049880981445
1634127055394689800,10.926689697265624,31.62799072265625,12.516175270080566,-35.58498764038086
1634127055414569000,10.94656884765625,31.76129150390625,12.511385917663574,-35.84077072143555
1634127055434449000,10.966448974609374,31.738739013671875,12.378228187561035,-35.51443099975586
1634127055454327800,10.986327880859376,31.62744140625,12.262901306152344,-35.824954986572266
1634127055474207000,11.00620703125,32.080230712890625,12.267281532287598,-35.6466178894043
1634127055494086000,11.0260859375,31.524139404296875,12.041088104248047,-35.333003997802734
1634127055513964800,11.04596484375,32.1171875,12.388981819152832,-35.30806350708008
1634127055533845000,11.065844970703125,32.008758544921875,12.160538673400879,-35.39865493774414
1634127055553724000,11.085723876953125,31.911376953125,12.113594055175781,-34.95823287963867
1634127055573602800,11.105602783203125,31.7578125,12.020990371704102,-35.25343704223633
1634127055593482000,11.12548193359375,32.193084716796875,11.83894157409668,-35.424129486083984
1634127055613361000,11.14536083984375,32.08392333984375,11.518780708312988,-35.321895599365234
1634127055633240000,11.165239990234374,32.050994873046875,11.62143325805664,-35.74190139770508
1634127055653119700,11.18511962890625,32.09210205078125,11.424635887145996,-35.62733840942383
1634127055672999000,11.2049990234375,31.948883056640625,11.452252388000488,-35.44691848754883
1634127055692878000,11.224878173828126,31.755340576171875,11.500019073486328,-35.50546646118164
1634127055712757000,11.244757080078125,31.668426513671875,11.379462242126465,-35.60780715942383
1634127055732636000,11.264635986328125,31.50787353515625,11.444692611694336,-35.560482025146484
1634127055752515800,11.284515869140625,31.942718505859375,11.3092679977417,-35.95907974243164
1634127055772395000,11.30439501953125,31.65972900390625,11.129413604736328,-35.82609176635742
1634127055792274000,11.32427392578125,31.97064208984375,10.961221694946289,-35.822994232177734
1634127055812152800,11.34415283203125,32.044219970703125,10.975760459899902,-35.68446731567383
1634127055832032000,11.364031982421874,31.9771728515625,11.490516662597656,-35.53654861450195
1634127055851911700,11.38391162109375,32.30963134765625,10.873446464538574,-35.636043548583984
1634127055871790800,11.403790771484376,32.51446533203125,11.273324966430664,-35.51615524291992
1634127055891670000,11.423669921875,32.0535888671875,11.00561809539795,-35.711368560791016
1634127055911549000,11.443548828125,32.181427001953125,11.198850631713867,-35.45479965209961
1634127055931427800,11.463427734375,32.245849609375,11.316073417663574,-35.746524810791016
1634127055951306800,11.483306640625,32.188079833984375,11.01650619506836,-35.55763626098633
1634127055971187000,11.50318701171875,32.517791748046875,10.915992736816406,-35.45817947387695
1634127055991065900,11.52306591796875,31.962493896484375,10.98170280456543,-35.242557525634766
1634127056010944800,11.54294482421875,32.42822265625,10.863289833068848,-35.36111831665039
1634127056030824000,11.562823974609374,32.322235107421875,11.182332038879395,-35.21413803100586
1634127056050702800,11.582702880859374,32.23876953125,10.9688081741333,-35.28886032104492
1634127056070582800,11.602582763671874,32.11541748046875,10.945140838623047,-35.20883560180664
1634127056090462000,11.6224619140625,31.876373291015625,11.087300300598145,-35.36696243286133
1634127056110341000,11.642341064453126,32.486236572265625,10.975628852844238,-35.295719146728516
1634127056130220000,11.662219970703125,32.18280029296875,11.006720542907715,-35.366397857666016
1634127056150099000,11.682098876953125,32.441314697265625,10.942120552062988,-35.34358596801758
1634127056169979100,11.701979248046875,32.492034912109375,10.814581871032715,-35.59714889526367
1634127056189858000,11.721858154296875,32.198822021484375,10.93193531036377,-35.30929183959961
1634127056209737000,11.741737060546875,32.59320068359375,10.768425941467285,-35.528568267822266
1634127056229615900,11.761615966796874,32.464691162109375,10.84128189086914,-35.13364028930664
1634127056249495000,11.7814951171875,32.643035888671875,10.753302574157715,-35.12626266479492
1634127056269374200,11.801374267578124,32.58062744140625,10.57071304321289,-35.378604888916016
1634127056289254000,11.82125390625,32.526031494140625,10.694759368896484,-35.28010177612305
1634127056309133000,11.841133056640626,32.67791748046875,10.895528793334961,-35.03083419799805
1634127056329012000,11.861011962890625,32.59405517578125,10.505573272705078,-35.11740493774414
1634127056348891100,11.88089111328125,32.97259521484375,10.500802040100098,-35.03791427612305
1634127056368770000,11.90077001953125,32.994232177734375,10.874656677246094,-35.1130256652832
1634127056388650000,11.92064990234375,32.346649169921875,10.720256805419922,-34.76369857788086
1634127056408529200,11.940529052734375,32.726654052734375,10.713699340820312,-35.0725212097168
1634127056428408000,11.960407958984375,32.962493896484375,10.764718055725098,-34.97879409790039
1634127056448287000,11.980286865234374,33.499053955078125,10.722143173217773,-34.93693161010742
1634127056468166100,12.000166259765624,33.63427734375,10.627745628356934,-34.99065017700195
1634127056488045800,12.0200458984375,33.222930908203125,10.829000473022461,-34.90304183959961
1634127056507925000,12.039925048828126,33.341217041015625,10.818024635314941,-34.75997543334961
1634127056527804200,12.05980419921875,33.582275390625,10.7137451171875,-34.68650436401367
1634127056547683000,12.07968310546875,33.290374755859375,10.750377655029297,-34.94524002075195
1634127056567562000,12.09956201171875,33.866424560546875,10.673023223876953,-34.63181686401367
1634127056587441000,12.11944091796875,33.217803955078125,10.476519584655762,-35.03171920776367
1634127056607321000,12.139321044921875,33.292724609375,10.4072904586792,-34.83010482788086
1634127056627200000,12.159199951171875,33.101593017578125,10.034929275512695,-34.93809127807617
1634127056647079000,12.179078857421874,32.997039794921875,9.732507705688477,-34.930606842041016
1634127056666958000,12.1989580078125,33.02044677734375,10.1364164352417,-35.09835433959961
1634127056686837000,12.2188369140625,32.981475830078125,10.101301193237305,-35.12839126586914
1634127056706717000,12.238717041015626,33.061981201171875,10.24268627166748,-35.37040328979492
1634127056726596000,12.25859619140625,33.2408447265625,9.877751350402832,-35.39500045776367
1634127056746475000,12.27847509765625,32.995147705078125,9.620725631713867,-35.27360153198242
1634127056766354200,12.298354248046875,32.766021728515625,9.329591751098633,-35.318843841552734
1634127056786232800,12.31823291015625,32.47088623046875,9.211967468261719,-35.68339157104492
1634127056806113000,12.338113037109375,32.764373779296875,9.229204177856445,-35.85611343383789
1634127056825992200,12.3579921875,32.78387451171875,9.170541763305664,-35.96231460571289
1634127056845870800,12.377870849609375,32.807952880859375,9.164529800415039,-35.7838020324707
1634127056865750000,12.39775,32.5711669921875,8.915410995483398,-35.9367790222168
1634127056885629000,12.41762890625,32.6473388671875,9.01955795288086,-35.668941497802734
1634127056905509000,12.437509033203124,32.46099853515625,8.887775421142578,-35.91164016723633
1634127056925388000,12.457387939453126,32.499176025390625,9.19740104675293,-35.79251480102539
1634127056945267000,12.477266845703125,32.46563720703125,9.148754119873047,-36.055606842041016
1634127056965146000,12.49714599609375,32.449615478515625,9.20513916015625,-35.9021110534668
1634127056985025000,12.51702490234375,32.23077392578125,9.278890609741211,-35.866153717041016
1634127057004905000,12.536905029296875,32.35101318359375,9.508928298950195,-35.91205978393555
1634127057024784100,12.5567841796875,32.609527587890625,9.618886947631836,-35.97813034057617
1634127057044663000,12.5766630859375,32.021148681640625,9.63650894165039,-36.05636978149414
1634127057064542000,12.5965419921875,31.98516845703125,9.760990142822266,-35.794559478759766
1634127057084420900,12.6164208984375,31.893890380859375,9.93944263458252,-35.976627349853516
1634127057104304600,12.6363046875,31.885406494140625,10.003249168395996,-36.07181930541992
1634127057124183600,12.65618359375,31.49688720703125,10.026161193847656,-35.87673568725586
1634127057144062500,12.6760625,31.5601806640625,10.345418930053711,-35.99857711791992
1634127057163941600,12.695941650390624,31.911895751953125,10.554999351501465,-35.94215774536133
1634127057183820800,12.71582080078125,32.2933349609375,10.563216209411621,-35.549739837646484
1634127057203699700,12.73569970703125,32.2921142578125,10.965024948120117,-35.666439056396484
1634127057223579600,12.75557958984375,32.57757568359375,10.8394136428833,-35.65664291381836
1634127057243458600,12.77545849609375,32.4674072265625,10.77410888671875,-35.79416275024414
1634127057263337700,12.795337646484375,31.97662353515625,10.971919059753418,-35.8087043762207
1634127057283216600,12.815216552734375,32.350982666015625,11.116933822631836,-35.53432846069336
1634127057303095600,12.835095458984375,32.380889892578125,10.973278045654297,-35.60322952270508
1634127057322975700,12.854975830078125,32.5587158203125,10.846379280090332,-35.47311019897461
1634127057342854400,12.8748544921875,32.50946044921875,10.992019653320312,-35.37631607055664
1634127057362733600,12.894733642578124,32.579376220703125,10.624444961547852,-35.283382415771484
1634127057382612700,12.91461279296875,32.974609375,10.411532402038574,-35.31052780151367
1634127057402491600,12.93449169921875,32.800079345703125,10.40222454071045,-35.391963958740234
1634127057422371600,12.95437158203125,32.812774658203125,10.508556365966797,-35.29391860961914
1634127057442250800,12.974250732421876,32.599884033203125,10.415567398071289,-35.382572174072266
1634127057462129700,12.994129638671875,33.062591552734375,9.938973426818848,-35.44564437866211
1634127057482008600,13.014008544921875,32.968780517578125,10.13796615600586,-35.25246047973633
1634127057501887500,13.033887451171875,32.774261474609375,10.184662818908691,-35.26328659057617
1634127057521767700,13.053767578125,33.0589599609375,10.070392608642578,-35.493404388427734
1634127057541646600,13.073646484375,32.823638916015625,9.793939590454102,-35.35274887084961
1634127057561525500,13.093525390625,32.961761474609375,9.825102806091309,-35.31132125854492
1634127057581404700,13.11340478515625,33.179656982421875,9.89353084564209,-35.386905670166016
1634127057601283600,13.13328369140625,33.001556396484375,9.937549591064453,-35.33212661743164
1634127057621163500,13.15316357421875,33.054046630859375,9.691078186035156,-35.15659713745117
1634127057641042700,13.173042724609376,33.175689697265625,9.79571533203125,-35.56428146362305
1634127057660921600,13.192921630859376,32.88018798828125,9.894754409790039,-35.30988693237305
1634127057680800800,13.21280078125,32.86968994140625,9.845605850219727,-35.486637115478516
1634127057700679400,13.232679443359375,32.95355224609375,10.065329551696777,-35.595821380615234
1634127057720559600,13.2525595703125,32.81182861328125,10.049939155578613,-35.72682571411133
1634127057740438800,13.272438720703125,32.8260498046875,10.218413352966309,-35.40571212768555
1634127057760317400,13.2923173828125,32.503875732421875,10.105321884155273,-35.34652328491211
1634127057780196600,13.312196533203124,32.447265625,10.217470169067383,-35.250064849853516
1634127057800075500,13.332075439453124,32.772613525390625,10.344230651855469,-35.110233306884766
1634127057819955700,13.351955810546874,32.375457763671875,10.595232009887695,-35.40554428100586
1634127057839834600,13.371834716796876,33.04779052734375,10.542704582214355,-35.05967330932617
1634127057859713500,13.391713623046876,32.6011962890625,10.594560623168945,-35.22837448120117
1634127057879592700,13.4115927734375,33.040374755859375,10.551087379455566,-35.44918441772461
1634127057899471600,13.4314716796875,32.5347900390625,10.545658111572266,-35.29610824584961
1634127057919351600,13.4513515625,33.068328857421875,10.796457290649414,-35.521427154541016
1634127057939230700,13.471230712890625,33.0831298828125,10.82179069519043,-35.44594955444336
1634127057959109600,13.491109619140625,32.688079833984375,10.543282508850098,-35.33501052856445
1634127057978988500,13.510988525390625,32.7503662109375,10.575319290161133,-35.475765228271484
1634127057998867500,13.530867431640624,32.647064208984375,10.752276420593262,-35.4576301574707
1634127058018746600,13.55074658203125,32.4095458984375,10.347166061401367,-35.2523307800293
1634127058038626600,13.57062646484375,32.85809326171875,10.49177074432373,-35.468563079833984
1634127058058505500,13.59050537109375,32.838653564453125,10.360384941101074,-35.53170394897461
1634127058078384600,13.610384521484375,32.622344970703125,10.492828369140625,-35.37875747680664
1634127058098260200,13.63026025390625,32.831207275390625,10.40450382232666,-35.73726272583008
1634127058118139400,13.650139404296874,32.350189208984375,10.26867961883545,-35.79977035522461
1634127058138019000,13.67001904296875,32.628173828125,10.472872734069824,-35.5488166809082
1634127058157898200,13.689898193359374,32.741058349609375,10.523597717285156,-35.5468635559082
1634127058177777200,13.709777099609376,32.31060791015625,10.495026588439941,-35.44400405883789
1634127058197656000,13.729656005859376,32.37396240234375,10.656431198120117,-35.668087005615234
1634127058217535200,13.74953515625,32.412750244140625,10.711873054504395,-35.23245620727539
1634127058237415200,13.769415283203125,32.135894775390625,10.505695343017578,-35.29984664916992
1634127058257294000,13.789294189453125,32.193206787109375,10.39889144897461,-35.39333724975586
1634127058277173000,13.809173095703125,32.741058349609375,10.791847229003906,-35.4191780090332
1634127058297052200,13.82905224609375,32.18829345703125,10.865870475769043,-35.47243118286133
1634127058316931300,13.848931396484375,32.571258544921875,11.040069580078125,-35.51071548461914
1634127058336811000,13.86881103515625,32.325836181640625,11.062653541564941,-35.33375930786133
1634127058356690200,13.888690185546874,32.3128662109375,11.07645320892334,-35.4022102355957
1634127058376569300,13.9085693359375,32.188079833984375,10.856401443481445,-35.41727066040039
1634127058396448300,13.9284482421875,32.465087890625,11.131038665771484,-35.38663101196289
1634127058416327200,13.9483271484375,32.280975341796875,11.12881088256836,-35.33512496948242
1634127058436207000,13.96820703125,32.229339599609375,10.971203804016113,-35.17177200317383
1634127058456086300,13.988086181640625,32.65087890625,10.959651947021484,-35.38066482543945
1634127058475965200,14.007965087890625,32.59405517578125,10.975907325744629,-35.3455696105957
1634127058495844000,14.027843994140625,32.79248046875,11.25517749786377,-35.082027435302734
1634127058515723300,14.04772314453125,32.5614013671875,11.347688674926758,-35.01101303100586
1634127058535603000,14.06760302734375,32.653594970703125,11.51216983795166,-34.79844284057617
1634127058555482000,14.087482177734374,32.8382568359375,11.288493156433105,-35.170223236083984
1634127058575361300,14.107361328125,32.79473876953125,11.324163436889648,-35.28322219848633
1634127058595240200,14.127240234375,32.915130615234375,11.234711647033691,-35.18252944946289
1634127058615119000,14.147119140625,32.9727783203125,10.85021686553955,-35.03017044067383
1634127058634999000,14.1669990234375,33.2386474609375,10.851153373718262,-34.88619613647461
1634127058654878200,14.186878173828125,33.02471923828125,10.555785179138184,-35.07084274291992
1634127058674757000,14.206757080078125,33.07879638671875,10.69343376159668,-34.911685943603516
1634127058694636000,14.226635986328125,33.180145263671875,10.72849178314209,-34.8253059387207
1634127058714515200,14.24651513671875,33.049652099609375,10.618640899658203,-34.6684684753418
1634127058734394000,14.26639404296875,32.934295654296875,10.388507843017578,-34.842708587646484
1634127058754274000,14.286274169921874,33.043426513671875,10.444982528686523,-34.971378326416016
1634127058774153200,14.3061533203125,33.1004638671875,10.429190635681152,-34.77945327758789
1634127058794032000,14.3260322265625,32.97711181640625,10.74756145477295,-34.80527877807617
1634127058813911300,14.345911376953126,33.08941650390625,10.185635566711426,-34.46462631225586
1634127058833790000,14.3657900390625,33.456512451171875,10.091766357421875,-34.575679779052734
1634127058853670100,14.385670166015625,33.29541015625,10.099088668823242,-34.56007766723633
1634127058873549300,14.40554931640625,33.65911865234375,9.773983001708984,-34.43269729614258
1634127058893428000,14.425427978515625,33.38201904296875,9.766036987304688,-34.225521087646484
1634127058913307100,14.44530712890625,33.53466796875,9.944513320922852,-34.4411506652832
1634127058933186000,14.46518603515625,33.769744873046875,9.728281021118164,-34.68659591674805
1634127058953066000,14.48506591796875,33.425201416015625,9.628459930419922,-34.60627365112305
1634127058972945200,14.504945068359374,33.436187744140625,9.807976722717285,-34.839786529541016
1634127058992824000,14.524823974609374,33.515533447265625,9.669466018676758,-34.8647575378418
1634127059012703200,14.544703125,33.366302490234375,9.786954879760742,-35.107295989990234
1634127059032582100,14.56458203125,33.299102783203125,9.60113525390625,-34.87630081176758
1634127059052462000,14.584462158203126,33.216796875,9.8989839553833,-34.78996658325195
1634127059072341200,14.60434130859375,33.1029052734375,10.005030632019043,-34.76676559448242
1634127059092220200,14.62422021484375,33.218048095703125,9.950054168701172,-34.645442962646484
1634127059112102400,14.644102294921876,33.462371826171875,10.014765739440918,-34.89619064331055
1634127059131981600,14.663981689453125,33.477081298828125,10.239636421203613,-34.87250900268555
1634127059151861800,14.68386181640625,33.374542236328125,10.367799758911133,-34.923763275146484
1634127059171740400,14.703740478515625,33.152252197265625,10.388876914978027,-34.6285285949707
1634127059191619600,14.72361962890625,33.31103515625,10.222229957580566,-34.6362190246582
1634127059211498500,14.74349853515625,32.75665283203125,10.360050201416016,-34.845211029052734
1634127059231377700,14.763377685546875,32.80657958984375,10.341240882873535,-35.068416595458984
1634127059251257600,14.783257568359375,32.836761474609375,9.879807472229004,-35.01559829711914
1634127059271136500,14.803136474609374,32.566070556640625,10.130504608154297,-35.45205307006836
1634127059291015700,14.823015625,32.57373046875,10.415718078613281,-35.42435836791992
1634127059310894800,14.842894775390626,32.00445556640625,10.481451034545898,-35.2549934387207
1634127059330773500,14.8627734375,32.44464111328125,10.625110626220703,-35.276859283447266
1634127059350653700,14.88265380859375,32.293243408203125,10.730524063110352,-35.1918830871582
1634127059370532600,14.90253271484375,31.9906005859375,10.682679176330566,-35.267940521240234
1634127059390411500,14.92241162109375,32.24420166015625,10.84298324584961,-35.4393424987793
1634127059410290700,14.942290771484375,31.940948486328125,10.783562660217285,-35.15952682495117
1634127059430169600,14.962169677734375,32.259368896484375,11.007997512817383,-35.30295181274414
1634127059450048800,14.982048828125,32.1929931640625,11.39409351348877,-35.55057907104492
1634127059469928400,15.001928466796874,32.284820556640625,11.294408798217773,-35.47394943237305
1634127059489807600,15.0218076171875,32.315887451171875,11.088478088378906,-35.52602005004883
1634127059509686800,15.041686767578126,31.87188720703125,11.091740608215332,-35.52010726928711
1634127059529565700,15.061565673828126,31.88836669921875,10.883504867553711,-35.552181243896484
1634127059549444600,15.081444580078125,32.053558349609375,10.710251808166504,-35.719051361083984
1634127059569324500,15.101324462890625,31.7330322265625,10.874423027038574,-35.44773483276367
1634127059589203700,15.12120361328125,32.2530517578125,10.666984558105469,-35.56352615356445
1634127059609082600,15.14108251953125,32.21380615234375,10.636126518249512,-35.754573822021484
1634127059628961500,15.16096142578125,32.119476318359375,10.516114234924316,-35.514469146728516
1634127059648840700,15.1808408203125,32.46356201171875,10.515225410461426,-35.6478385925293
1634127059668720600,15.200720703125,32.1368408203125,10.733877182006836,-35.78385543823242
1634127059688599600,15.220599609375,32.349365234375,10.47899055480957,-35.72263717651367
1634127059708478700,15.240478759765624,32.250152587890625,10.658082962036133,-35.655635833740234
1634127059728357600,15.260357666015626,32.220703125,10.388330459594727,-35.412715911865234
1634127059748236500,15.280236572265625,32.06988525390625,10.548012733459473,-35.753482818603516
1634127059768116700,15.30011669921875,32.39263916015625,10.179519653320312,-35.68672561645508
1634127059787995600,15.31999560546875,32.269744873046875,10.1100435256958,-35.785030364990234
1634127059807874600,15.33987451171875,32.370819091796875,10.08761215209961,-35.658748626708984
1634127059827753500,15.35975341796875,32.156646728515625,9.99677562713623,-35.77140426635742
1634127059847632600,15.379632568359375,32.75384521484375,9.917679786682129,-35.67991256713867
1634127059867512600,15.3995126953125,32.664215087890625,9.91418170928955,-35.49069595336914
1634127059887391500,15.4193916015625,32.682098388671875,9.845069885253906,-35.610469818115234
1634127059907270700,15.439270751953124,32.469390869140625,10.000022888183594,-35.702754974365234
1634127059927149600,15.459149658203126,32.031219482421875,9.949007987976074,-35.40042495727539
1634127059947028700,15.47902880859375,32.2608642578125,10.112875938415527,-35.48044204711914
1634127059966907400,15.498907470703125,32.38360595703125,9.698270797729492,-35.44118118286133
1634127059986787600,15.51878759765625,32.082855224609375,9.722297668457031,-35.25331497192383
1634127060006666800,15.538666748046875,32.0943603515625,9.865893363952637,-35.30805587768555
1634127060026545400,15.55854541015625,32.645782470703125,9.769857406616211,-35.216732025146484
1634127060046424600,15.578424560546875,32.730682373046875,9.874178886413574,-35.27901840209961
1634127060066303500,15.598303466796875,32.55029296875,10.224213600158691,-35.2541618347168
1634127060086183400,15.618183349609374,32.792449951171875,10.223326683044434,-35.24063491821289
1634127060106059500,15.6380595703125,32.608184814453125,10.431724548339844,-35.2509880065918
1634127060125938700,15.657938720703125,32.9263916015625,10.275638580322266,-35.01381301879883
1634127060145817600,15.677817626953125,32.582672119140625,10.251311302185059,-35.10429000854492
1634127060165696500,15.697696533203125,32.65631103515625,10.51828384399414,-35.19289779663086
1634127060185576700,15.71757666015625,32.459259033203125,10.42929744720459,-35.39394760131836
1634127060205455600,15.73745556640625,32.001007080078125,10.224191665649414,-35.29301834106445
1634127060225334500,15.75733447265625,32.128631591796875,10.362789154052734,-34.97554397583008
1634127060245213400,15.77721337890625,32.446258544921875,10.281312942504883,-35.12850570678711
1634127060265092600,15.797092529296876,31.925079345703125,10.126709938049316,-35.33694839477539
1634127060284972500,15.81697265625,32.26690673828125,10.155463218688965,-35.4577751159668
1634127060304851500,15.8368515625,32.1707763671875,10.216187477111816,-35.30842971801758
1634127060324730600,15.856730712890625,31.844573974609375,10.288537979125977,-35.2971076965332
1634127060344609500,15.876609619140625,32.292877197265625,10.148357391357422,-35.452823638916016
1634127060364488700,15.89648876953125,32.083984375,10.035070419311523,-35.5272102355957
1634127060384367600,15.91636767578125,32.070587158203125,9.991552352905273,-35.357723236083984
1634127060404247600,15.93624755859375,32.12615966796875,9.940275192260742,-35.46660232543945
1634127060424126700,15.956126708984375,32.431610107421875,10.353715896606445,-35.146793365478516
1634127060444005600,15.976005615234374,32.629638671875,10.247051239013672,-35.100826263427734
1634127060463884500,15.995884521484374,32.3177490234375,10.038223266601562,-35.05594253540039
1634127060483763700,16.015763671875,32.25506591796875,10.183876037597656,-35.23833084106445
1634127060503643400,16.035643310546874,32.340087890625,10.19428539276123,-35.34927749633789
1634127060523522600,16.0555224609375,32.34490966796875,10.0043363571167,-35.25211715698242
1634127060543401700,16.075401611328125,32.04742431640625,9.832175254821777,-35.10219955444336
1634127060563280600,16.09528076171875,31.90228271484375,10.030655860900879,-35.0623664855957
1634127060583159800,16.115159912109377,31.71063232421875,9.901823043823242,-35.798343658447266
1634127060603039500,16.13503955078125,31.963653564453125,9.76040267944336,-35.884883880615234
1634127060622918700,16.154918701171876,32.00006103515625,9.896785736083984,-36.008670806884766
1634127060642797800,16.1747978515625,31.8604736328125,9.605430603027344,-36.04323196411133
1634127060662676500,16.194676513671876,31.761444091796875,9.459760665893555,-36.25162124633789
1634127060682555600,16.2145556640625,31.921478271484375,9.581260681152344,-36.33809280395508
1634127060702435600,16.234435546875,31.7391357421875,9.372556686401367,-36.45698928833008
1634127060722314500,16.254314453125,31.4580078125,9.44654655456543,-36.649837493896484
1634127060742193700,16.274193603515624,31.21807861328125,9.15608024597168,-36.9771842956543
1634127060762072600,16.294072509765623,30.848297119140625,9.57691764831543,-37.060794830322266
1634127060781951700,16.31395166015625,31.027740478515625,9.640289306640625,-37.44370651245117
1634127060801831700,16.333831787109375,30.54876708984375,9.640462875366211,-37.48191452026367
1634127060821710600,16.353710693359375,30.331390380859375,9.623945236206055,-37.39033889770508
1634127060841589800,16.37358984375,30.86968994140625,9.851123809814453,-37.36245346069336
1634127060861468700,16.39346875,30.790283203125,9.897700309753418,-37.419734954833984
1634127060881347600,16.41334765625,30.72869873046875,9.68769645690918,-37.52907180786133
1634127060901226500,16.4332265625,30.428466796875,9.75204849243164,-37.30220413208008
1634127060921106700,16.453106689453126,30.6900634765625,9.611305236816406,-37.646358489990234
1634127060940985600,16.472985595703125,30.4110107421875,9.788778305053711,-37.33439254760742
1634127060960864500,16.492864501953125,30.316375732421875,9.722055435180664,-37.56377029418945
1634127060980743700,16.51274365234375,30.401275634765625,9.566993713378906,-37.83810806274414
1634127061000622600,16.53262255859375,30.573974609375,9.614448547363281,-37.828792572021484
1634127061020502500,16.55250244140625,30.56591796875,9.420722961425781,-37.7183723449707
1634127061040381700,16.572381591796876,30.23516845703125,9.371469497680664,-37.89896774291992
1634127061060260600,16.592260498046876,30.21630859375,9.382991790771484,-37.79574203491211
1634127061080139500,16.612139404296876,30.225311279296875,9.523664474487305,-37.710269927978516
1634127061100017700,16.632017578125,30.3450927734375,9.54301643371582,-38.18228530883789
1634127061119896600,16.651896484375,30.082305908203125,9.274526596069336,-38.02395248413086
1634127061139776800,16.67177685546875,29.6319580078125,9.581735610961914,-38.1074104309082
1634127061159656000,16.691656005859375,29.847900390625,9.31686782836914,-38.23533248901367
1634127061179534600,16.71153466796875,29.6844482421875,9.364931106567383,-38.1107063293457
1634127061199413800,16.731413818359375,30.014495849609375,9.738859176635742,-38.09901809692383
1634127061219292700,16.751292724609375,30.27099609375,9.665815353393555,-38.00188064575195
1634127061239172600,16.771172607421875,30.031829833984375,9.44033432006836,-37.85665512084961
1634127061259051800,16.7910517578125,30.086029052734375,9.370576858520508,-38.14778518676758
1634127061278930700,16.8109306640625,29.930328369140625,9.379074096679688,-38.19064712524414
1634127061298809900,16.830809814453126,30.1376953125,9.281867980957031,-38.003047943115234
1634127061318688500,16.8506884765625,30.3248291015625,9.245798110961914,-38.0828742980957
1634127061338568700,16.870568603515625,30.10491943359375,9.33309555053711,-38.00767135620117
1634127061358447900,16.89044775390625,30.364013671875,9.446449279785156,-38.17897415161133
1634127061378326500,16.910326416015625,29.98492431640625,9.20809555053711,-38.02556228637695
1634127061398205700,16.930205810546877,30.019561767578125,9.2515869140625,-38.21721267700195
1634127061418084600,16.950084716796876,30.270751953125,9.126241683959961,-37.7714729309082
1634127061437963800,16.9699638671875,30.1412353515625,9.284809112548828,-37.91909408569336
1634127061457843700,16.98984375,29.845794677734375,9.40608024597168,-38.21915817260742
1634127061477722600,17.00972265625,30.009185791015625,9.281843185424805,-37.9874382019043
1634127061497601800,17.029601806640624,29.9598388671875,9.52811050415039,-38.20791244506836
1634127061517481000,17.04948095703125,30.192901611328125,9.57254409790039,-38.1864128112793
1634127061537359600,17.069359619140624,30.234954833984375,9.48228645324707,-38.02193832397461
1634127061557239800,17.08923974609375,30.2294921875,9.431259155273438,-37.9944953918457
1634127061577118700,17.10911865234375,30.312164306640625,9.585992813110352,-38.02333450317383
1634127061596997600,17.12899755859375,30.035125732421875,9.410621643066406,-37.791316986083984
1634127061616876800,17.148876708984375,30.422393798828125,9.182413101196289,-37.6729621887207
1634127061636755700,17.168755615234375,30.644500732421875,9.024698257446289,-37.974491119384766
1634127061656635000,17.188634765625,30.226287841796875,9.060710906982422,-37.899845123291016
1634127061676514600,17.2085146484375,30.48333740234375,8.962722778320312,-37.75458908081055
1634127061696393700,17.228393798828126,30.105712890625,8.933565139770508,-37.78348922729492
1634127061716273000,17.24827294921875,30.0357666015625,8.781824111938477,-37.604366302490234
1634127061736151800,17.26815185546875,30.191619873046875,8.688741683959961,-37.50107192993164
1634127061756030700,17.28803076171875,30.40069580078125,8.649620056152344,-37.52585220336914
1634127061775911000,17.307910888671874,30.624603271484375,8.80038070678711,-37.63113021850586
1634127061795789800,17.327789794921873,30.969818115234375,8.596792221069336,-37.750370025634766
1634127061815668700,17.347668701171877,31.116668701171875,8.491817474365234,-37.71992874145508
1634127061835547600,17.367547607421876,31.0283203125,8.506721496582031,-37.70332717895508
1634127061855426800,17.3874267578125,30.901519775390625,8.698028564453125,-37.56291580200195
1634127061875306800,17.407306640625,31.071014404296875,8.800016403198242,-37.652408599853516
1634127061895185700,17.427185546875,30.7716064453125,8.740928649902344,-37.60073471069336
1634127061915064800,17.44706494140625,30.78790283203125,8.551719665527344,-37.65928268432617
1634127061934943700,17.46694384765625,30.61175537109375,8.275177001953125,-37.42911911010742
1634127061954822700,17.48682275390625,30.2742919921875,8.42502212524414,-37.52853775024414
1634127061974701600,17.50670166015625,30.442901611328125,8.2064208984375,-37.81260299682617
1634127061994581800,17.526581787109375,30.45196533203125,8.368934631347656,-37.84894943237305
1634127062014461000,17.5464609375,30.159454345703125,8.305295944213867,-37.82425308227539
1634127062034339600,17.566339599609375,30.461090087890625,8.108346939086914,-38.14578628540039
1634127062054218800,17.58621875,30.447418212890625,8.005252838134766,-37.932376861572266
1634127062074097700,17.60609765625,30.403106689453125,8.154397964477539,-37.96854782104492
1634127062093977600,17.6259775390625,30.66766357421875,7.846595764160156,-37.96311569213867
1634127062113857300,17.645857177734374,30.415924072265625,7.799655914306641,-37.989139556884766
1634127062133736200,17.665736083984374,30.181610107421875,8.116287231445312,-37.87900161743164
1634127062153615400,17.685615478515626,30.66351318359375,7.971281051635742,-38.08639144897461
1634127062173494300,17.705494384765625,30.72662353515625,8.04496955871582,-37.8314094543457
1634127062193373200,17.725373291015625,30.498504638671875,8.106588363647461,-37.90109634399414
1634127062213253400,17.74525341796875,30.614959716796875,7.86292839050293,-38.01762771606445
1634127062233132000,17.765132080078125,30.547882080078125,7.998979568481445,-37.95085525512695
1634127062253011200,17.78501123046875,30.4554443359375,7.969079971313477,-37.89767074584961
1634127062272890400,17.804890380859376,30.619415283203125,8.145788192749023,-37.993106842041016
1634127062292769300,17.824769287109376,29.95562744140625,8.166934967041016,-38.11501693725586
1634127062312649200,17.844649169921876,30.54046630859375,8.38595962524414,-37.92329788208008
1634127062332528400,17.8645283203125,30.301666259765625,8.463485717773438,-37.96696853637695
1634127062352407300,17.8844072265625,30.46942138671875,8.707645416259766,-38.030208587646484
1634127062372286200,17.9042861328125,30.818450927734375,8.543521881103516,-37.9874382019043
1634127062392165000,17.9241650390625,30.60028076171875,8.740865707397461,-37.81203079223633
1634127062412044300,17.944044189453123,30.60137939453125,8.68476676940918,-37.76301193237305
1634127062431924200,17.96392431640625,30.575408935546875,8.7662353515625,-37.72199630737305
1634127062451803100,17.98380322265625,30.5059814453125,8.987960815429688,-38.02373123168945
1634127062471682300,18.003682373046875,30.401885986328125,8.963376998901367,-37.82588577270508
1634127062491561200,18.023561279296874,30.6351318359375,9.193979263305664,-37.77633285522461
1634127062511440400,18.0434404296875,30.703887939453125,9.102302551269531,-37.79481887817383
1634127062531320300,18.0633203125,30.3519287109375,9.398853302001953,-37.687862396240234
1634127062551199200,18.08319921875,30.4525146484375,9.576372146606445,-37.79021072387695
1634127062571078400,18.103078369140626,30.49853515625,9.559986114501953,-37.619205474853516
1634127062590957000,18.12295703125,30.5947265625,9.383026123046875,-37.871395111083984
1634127062610836200,18.142836181640625,30.367095947265625,9.33397102355957,-37.671939849853516
1634127062630715100,18.162715087890625,30.5628662109375,9.423015594482422,-37.91946792602539
1634127062650595000,18.182594970703125,30.556121826171875,9.434989929199219,-38.04495620727539
1634127062670474200,18.20247412109375,30.509613037109375,9.382156372070312,-37.92514419555664
1634127062690353200,18.222353271484376,30.09161376953125,9.33637809753418,-37.682437896728516
1634127062710232300,18.242232421875,30.139251708984375,9.082712173461914,-37.87360763549805
1634127062730111200,18.262111328125,30.2659912109375,9.39326286315918,-37.695491790771484
1634127062749991200,18.2819912109375,30.24176025390625,9.881757736206055,-37.84371566772461
1634127062769870300,18.301870361328124,29.74822998046875,9.892560958862305,-37.73128890991211
1634127062789749200,18.321749267578124,29.900787353515625,9.854461669921875,-37.7485466003418
1634127062809628200,18.341628173828123,30.09783935546875,10.149944305419922,-37.920101165771484
1634127062829507300,18.36150732421875,30.105804443359375,10.144287109375,-37.67287063598633
1634127062849386200,18.38138623046875,30.286468505859375,10.239052772521973,-37.56485366821289
1634127062869266200,18.40126611328125,30.0230712890625,10.27847671508789,-37.43278884887695
1634127062889145000,18.42114501953125,30.202667236328125,10.576982498168945,-37.235347747802734
1634127062909024300,18.441024169921874,30.1658935546875,10.724444389343262,-37.10087966918945
1634127062928903400,18.4609033203125,30.23089599609375,10.660319328308105,-37.03982162475586
1634127062948782000,18.480781982421874,30.283203125,10.865313529968262,-36.91947555541992
1634127062968662300,18.500662353515626,30.562896728515625,10.404449462890625,-36.87836837768555
1634127062988541200,18.520541259765626,30.81109619140625,10.309739112854004,-37.134708404541016
1634127063008420400,18.54042041015625,30.421783447265625,10.541160583496094,-37.1782112121582
1634127063028299300,18.56029931640625,30.704742431640625,10.323226928710938,-37.225032806396484
1634127063048178200,18.58017822265625,31.0594482421875,10.599166870117188,-37.4135856628418
1634127063068057300,18.600057373046877,31.405120849609375,10.266461372375488,-37.10183334350586
1634127063087937000,18.61993701171875,31.156219482421875,10.268205642700195,-37.2170524597168
1634127063107816700,18.639816650390625,31.1851806640625,10.15692138671875,-37.040470123291016
1634127063127696000,18.65969580078125,31.535430908203125,10.179530143737793,-36.96538162231445
1634127063147574800,18.67957470703125,31.233642578125,10.049090385437012,-37.12631607055664
1634127063167453700,18.69945361328125,31.43701171875,10.153754234313965,-36.7216911315918
1634127063187334000,18.719333984375,31.03045654296875,10.135282516479492,-36.954830169677734
1634127063207212800,18.739212890625,31.11932373046875,10.086910247802734,-36.92393112182617
1634127063227091700,18.759091796875,30.98028564453125,10.048165321350098,-36.9514045715332
1634127063246970600,18.778970703125,31.18817138671875,10.084710121154785,-36.85480880737305
1634127063266849800,18.798849853515627,31.196380615234375,9.955894470214844,-36.90336227416992
1634127063286728700,18.818728759765627,31.0343017578125,9.961885452270508,-36.87211990356445
1634127063306608600,18.838608642578127,31.429656982421875,9.783527374267578,-36.922725677490234
1634127063326487800,18.85848779296875,31.515899658203125,9.659263610839844,-36.948001861572266
1634127063346366700,18.87836669921875,31.347900390625,10.04572582244873,-37.03898239135742
1634127063366245600,18.89824560546875,31.05487060546875,10.10861587524414,-37.161746978759766
1634127063386124800,18.918124755859374,31.161865234375,10.095820426940918,-37.35056686401367
1634127063406003700,18.938003662109374,31.009918212890625,9.993596076965332,-37.56552505493164
1634127063425883600,18.957883544921874,30.806182861328125,10.288680076599121,-37.41421890258789
1634127063445762600,18.977762451171873,30.730804443359375,10.400827407836914,-37.32792282104492
1634127063465641700,18.997641845703125,30.424652099609375,10.361672401428223,-37.424800872802734
1634127063485521000,19.01752099609375,30.597015380859375,10.386007308959961,-37.457584381103516
1634127063505399800,19.03739990234375,30.668853759765625,10.361649513244629,-37.31974411010742
1634127063525279700,19.05727978515625,30.450408935546875,10.53354263305664,-37.162357330322266
1634127063545158700,19.07715869140625,30.393829345703125,10.733299255371094,-37.16341781616211
1634127063565037800,19.097037841796876,30.4124755859375,10.57654094696045,-37.011653900146484
1634127063584916700,19.116916748046876,30.545074462890625,10.543472290039062,-37.3900032043457
1634127063604795600,19.136795654296876,30.257110595703125,10.712003707885742,-37.496707916259766
1634127063624674800,19.1566748046875,29.93695068359375,10.394844055175781,-37.367679595947266
1634127063644554800,19.1765546875,30.1202392578125,10.678476333618164,-37.420291900634766
1634127063664433700,19.19643359375,30.272979736328125,10.701589584350586,-37.58994674682617
1634127063684312800,19.216312744140627,30.574737548828125,10.656335830688477,-37.407291412353516
1634127063704191700,19.236191650390627,30.743743896484375,11.252278327941895,-37.388912200927734
1634127063724071000,19.25607080078125,30.2601318359375,11.120615005493164,-37.37617874145508
1634127063743949600,19.275949462890626,30.2305908203125,10.987119674682617,-37.62419509887695
1634127063763829800,19.295829833984374,29.87823486328125,11.11012077331543,-37.52022171020508
1634127063783709000,19.315708984375,30.270172119140625,10.992544174194336,-37.358646392822266
1634127063803587600,19.335587646484374,30.077178955078125,11.053507804870605,-37.20915603637695
1634127063823466800,19.355466796875,30.31170654296875,11.136990547180176,-37.0303840637207
1634127063843345700,19.375345703125,30.113128662109375,11.136312484741211,-37.11040115356445
1634127063863225600,19.3952255859375,30.147979736328125,10.96902847290039,-37.35203170776367
1634127063883104800,19.415104736328125,30.236572265625,10.978198051452637,-37.1827278137207
1634127063902983700,19.434983642578125,30.251312255859375,11.0824613571167,-37.076419830322266
1634127063922862800,19.45486279296875,30.207061767578125,10.809080123901367,-37.11509323120117
1634127063942741800,19.47474169921875,30.322784423828125,10.92731761932373,-37.13724899291992
1634127063962620700,19.49462060546875,30.232391357421875,10.807028770446777,-36.88473129272461
1634127063982500900,19.5145009765625,30.718536376953125,10.940252304077148,-36.94431686401367
1634127064002379800,19.5343798828125,30.707611083984375,10.872467994689941,-36.94620132446289
1634127064022258700,19.5542587890625,30.759307861328125,10.726256370544434,-37.09060287475586
1634127064042137600,19.5741376953125,30.816986083984375,10.74416446685791,-36.9782829284668
1634127064062016800,19.594016845703123,30.884674072265625,10.848734855651855,-36.7852668762207
1634127064081896700,19.613896728515623,31.12872314453125,10.798945426940918,-36.79336929321289
1634127064101779000,19.633779052734376,30.6866455078125,10.998023986816406,-36.56936264038086
1634127064121658000,19.653658203125,30.58197021484375,10.807129859924316,-36.6930046081543
1634127064141537000,19.673537109375,30.68634033203125,11.037799835205078,-36.76234817504883
1634127064161416000,19.693416015625,30.658416748046875,10.82207202911377,-36.7454719543457
1634127064181294800,19.713294921875,30.397064208984375,10.783187866210938,-36.8050651550293
1634127064201175000,19.733175048828127,31.00299072265625,10.862744331359863,-36.74064254760742
1634127064221054000,19.753053955078126,30.785797119140625,10.738848686218262,-36.76308059692383
1634127064240932900,19.772932861328126,30.35491943359375,10.746968269348145,-36.742366790771484
1634127064260812000,19.79281201171875,30.368438720703125,10.579215049743652,-36.87617111206055
1634127064280691000,19.81269091796875,30.53277587890625,10.57323169708252,-36.74374771118164
1634127064300570000,19.832570068359374,30.807647705078125,10.870551109313965,-36.682376861572266
1634127064320450000,19.852449951171874,30.71044921875,10.510673522949219,-36.61539840698242
1634127064340329000,19.872328857421873,30.63140869140625,10.306889533996582,-36.677486419677734
1634127064360208100,19.8922080078125,30.635467529296875,10.26550579071045,-36.70053482055664
1634127064380086800,19.912086669921877,30.736297607421875,10.150022506713867,-36.651371002197266
1634127064399966000,19.931966064453125,31.17657470703125,10.174833297729492,-36.88003921508789
1634127064419845000,19.95184521484375,30.83135986328125,10.051058769226074,-36.681095123291016
1634127064439724800,19.971724853515624,30.741973876953125,10.514701843261719,-37.00693130493164
1634127064459604000,19.99160400390625,30.9171142578125,10.486639022827148,-36.96470260620117
1634127064479483000,20.01148291015625,30.939727783203125,10.479917526245117,-36.963565826416016
1634127064499362000,20.031362060546876,31.047698974609375,10.396112442016602,-37.036922454833984
1634127064519241200,20.0512412109375,30.682281494140625,10.393651008605957,-37.1931266784668
1634127064539121000,20.071120849609375,30.322235107421875,10.904292106628418,-37.314876556396484
1634127064559000000,20.091,30.563812255859375,10.881701469421387,-37.11482620239258
1634127064578879000,20.11087890625,30.432952880859375,10.783708572387695,-37.41694259643555
1634127064598758000,20.1307578125,30.21539306640625,10.87541389465332,-37.0109748840332
1634127064618637000,20.150636962890626,30.56329345703125,11.001605033874512,-37.35445022583008
1634127064638516000,20.170515869140626,30.5294189453125,11.017759323120117,-37.167057037353516
1634127064658396000,20.19039599609375,30.52862548828125,10.91585636138916,-37.37118911743164
1634127064678274800,20.21027490234375,30.85894775390625,10.950139999389648,-37.039920806884766
1634127064698154000,20.230154052734374,30.5654296875,10.759449005126953,-37.166133880615234
1634127064718033200,20.250033203125,30.1790771484375,10.795283317565918,-37.265865325927734
1634127064737912000,20.269912109375,30.17864990234375,11.10422420501709,-37.455928802490234
1634127064757791000,20.289791015625,29.84912109375,11.114763259887695,-37.22056198120117
1634127064777671200,20.309671142578125,29.651123046875,11.317896842956543,-37.23354721069336
1634127064797550000,20.329550048828125,30.03717041015625,11.191539764404297,-37.32441329956055
1634127064817429000,20.349428955078125,29.895904541015625,10.950247764587402,-37.56887435913086
1634127064837308000,20.369307861328124,29.9698486328125,11.1675386428833,-37.44460678100586
1634127064857187000,20.38918701171875,30.087493896484375,11.049047470092773,-37.623470306396484
1634127064877067000,20.40906689453125,30.14813232421875,11.14732837677002,-37.39606857299805
1634127064896946000,20.42894580078125,29.87274169921875,11.248459815979004,-37.499210357666016
1634127064916825000,20.4488251953125,30.142303466796875,11.073661804199219,-37.60719680786133
1634127064936704000,20.4687041015625,29.5709228515625,10.92428207397461,-37.60544967651367
1634127064956583000,20.4885830078125,29.760772705078125,11.22093391418457,-37.164913177490234
1634127064976461800,20.5084619140625,29.7952880859375,11.174813270568848,-37.13900375366211
1634127064996342000,20.528342041015627,29.998779296875,11.151228904724121,-37.40237045288086
1634127065016221000,20.548220947265627,30.124420166015625,11.326155662536621,-37.235599517822266
1634127065036099800,20.568099853515626,30.260345458984375,11.385089874267578,-37.445247650146484
1634127065055979000,20.58797900390625,30.2239990234375,10.89552116394043,-37.39828109741211
1634127065075858000,20.60785791015625,30.38336181640625,10.972437858581543,-37.39484786987305
1634127065095737000,20.627737060546874,30.35113525390625,10.897789001464844,-37.400516510009766
1634127065115613400,20.647613525390625,30.391143798828125,10.755878448486328,-37.754817962646484
1634127065135492600,20.66749267578125,30.45794677734375,10.77692699432373,-37.418941497802734
1634127065155371500,20.68737158203125,30.750732421875,10.705639839172363,-37.565067291259766
1634127065175250400,20.70725048828125,30.522613525390625,10.820259094238281,-37.549137115478516
1634127065195129300,20.72712939453125,30.282012939453125,10.657862663269043,-37.6318244934082
1634127065215008500,20.747008544921876,30.566802978515625,10.51839542388916,-37.31464767456055
1634127065234888400,20.766888427734376,30.7489013671875,10.833230018615723,-37.420772552490234
1634127065254767400,20.786767333984375,30.686859130859375,10.499916076660156,-37.23672103881836
1634127065274646500,20.806646484375,30.446746826171875,10.338150978088379,-37.4013557434082
1634127065294525400,20.826525390625,30.630615234375,10.397415161132812,-37.27103805541992
1634127065314404600,20.846404541015627,30.69439697265625,10.34130573272705,-37.49738693237305
1634127065334284500,20.866284423828127,30.66534423828125,10.225095748901367,-37.05385208129883
1634127065354163500,20.88616357421875,30.499267578125,10.250131607055664,-37.314144134521484
1634127065374042600,20.906042724609375,30.48126220703125,10.023327827453613,-37.430484771728516
1634127065393921300,20.92592138671875,30.335113525390625,9.883427619934082,-37.194095611572266
1634127065413800400,20.945800537109374,30.542633056640625,9.867398262023926,-37.453731536865234
1634127065433679600,20.9656796875,30.322479248046875,9.973756790161133,-37.5473518371582
1634127065453559300,20.985559326171874,30.619415283203125,9.50440788269043,-37.25880813598633
1634127065473438500,21.0054384765625,30.634796142578125,9.295492172241211,-37.47353744506836
1634127065493317600,21.025317626953125,30.0843505859375,9.344667434692383,-37.68093490600586
1634127065513196500,21.045196533203125,30.296356201171875,9.106355667114258,-37.639461517333984
1634127065533075500,21.065075439453125,30.5050048828125,9.047229766845703,-37.4798698425293
1634127065552954400,21.084954345703125,30.324859619140625,9.024490356445312,-37.480533599853516
1634127065572834600,21.10483447265625,30.818878173828125,8.91241455078125,-37.3541145324707
1634127065592713500,21.12471337890625,30.26416015625,8.595975875854492,-37.59272384643555
1634127065612592400,21.14459228515625,29.90625,8.732662200927734,-37.56466293334961
1634127065632471600,21.164471435546876,30.080810546875,8.567537307739258,-37.57479476928711
1634127065652350500,21.1843505859375,30.357086181640625,8.640670776367188,-37.839839935302734
1634127065672229600,21.204229736328124,30.186309814453125,8.455114364624023,-37.69697952270508
1634127065692109600,21.224109619140624,30.622406005859375,8.443851470947266,-37.82778549194336
1634127065711988500,21.243988525390623,30.288482666015625,8.496265411376953,-37.86442947387695
1634127065731867600,21.26386767578125,30.047515869140625,8.717561721801758,-37.84431838989258
1634127065751746300,21.283746337890626,30.109161376953125,8.662315368652344,-37.76260757446289
1634127065771625500,21.30362548828125,30.47869873046875,8.90134048461914,-37.67375564575195
1634127065791504400,21.32350439453125,30.179595947265625,8.874540328979492,-37.72909164428711
1634127065811384300,21.34338427734375,30.24224853515625,8.553407669067383,-37.8000373840332
1634127065831263500,21.363263427734374,30.29827880859375,8.731645584106445,-37.89259719848633
1634127065851142400,21.383142333984374,30.22454833984375,8.79875373840332,-37.747859954833984
1634127065871021600,21.403021484375,30.0556640625,8.612543106079102,-37.99644088745117
1634127065890900500,21.422900390625,30.038604736328125,8.68710708618164,-38.01131820678711
1634127065910779400,21.442779296875,29.71905517578125,8.577169418334961,-38.00978469848633
1634127065930659600,21.46265966796875,29.89068603515625,8.65467643737793,-38.01908493041992
1634127065950538500,21.48253857421875,30.147064208984375,8.619573593139648,-37.73298263549805
1634127065970417400,21.50241748046875,29.886627197265625,8.769716262817383,-37.97664260864258
1634127065990296600,21.522296630859376,29.905487060546875,8.725959777832031,-38.0765266418457
1634127066010175500,21.542175537109376,29.889373779296875,8.971565246582031,-37.8942756652832
1634127066030055400,21.562055419921876,30.0677490234375,9.17546272277832,-37.69358444213867
1634127066049934300,21.581934326171876,30.10302734375,9.110029220581055,-37.98624801635742
1634127066069813500,21.6018134765625,30.40582275390625,9.146539688110352,-37.67074966430664
1634127066089692700,21.621692626953124,30.27142333984375,9.336141586303711,-37.85738754272461
1634127066109574400,21.641574462890624,29.98956298828125,9.362113952636719,-38.01620864868164
1634127066129453300,21.661453369140624,29.646575927734375,9.295160293579102,-37.84829330444336
1634127066149333500,21.68133349609375,30.19622802734375,9.436378479003906,-37.890377044677734
1634127066169212400,21.70121240234375,30.393829345703125,9.50467300415039,-37.58823776245117
1634127066189091300,21.72109130859375,30.30145263671875,9.554656982421875,-37.44997787475586
1634127066208970200,21.74097021484375,30.062469482421875,9.47490119934082,-37.6059455871582
1634127066228849400,21.760849365234375,30.1912841796875,9.585708618164062,-37.52983474731445
1634127066248728300,21.780728271484374,30.420928955078125,9.570140838623047,-37.44399642944336
1634127066268608300,21.800608154296874,30.1463623046875,9.494129180908203,-37.34431076049805
1634127066288487400,21.8204873046875,30.365447998046875,9.773828506469727,-37.366878509521484
1634127066308366300,21.840366455078126,30.221771240234375,9.850972175598145,-37.4426383972168
1634127066328245500,21.86024560546875,30.139617919921875,9.691162109375,-37.197628021240234
1634127066348124200,21.880124267578125,30.483734130859375,9.794801712036133,-37.46658706665039
1634127066368003300,21.90000341796875,30.391693115234375,9.683996200561523,-37.40813064575195
1634127066387883500,21.919883544921873,30.43695068359375,9.821296691894531,-37.402713775634766
1634127066407762200,21.93976220703125,30.506011962890625,9.810578346252441,-37.46098709106445
1634127066427641300,21.959641357421877,30.344818115234375,9.517932891845703,-37.41475296020508
1634127066447520300,21.979520263671876,30.572357177734375,9.629034042358398,-37.41737747192383
1634127066467399400,21.9993994140625,30.169281005859375,9.64993667602539,-37.43270492553711
1634127066487278300,22.0192783203125,30.26751708984375,9.634000778198242,-37.46982192993164
1634127066507158300,22.039158203125,30.45751953125,9.633016586303711,-37.36713790893555
1634127066527037400,22.059037353515624,30.535064697265625,9.713394165039062,-37.54853439331055
1634127066546916400,22.078916259765624,30.72943115234375,9.390464782714844,-37.45114517211914
1634127066566795300,22.098795166015623,30.506378173828125,9.443424224853516,-37.53984451293945
1634127066586674400,22.11867431640625,30.368255615234375,9.331144332885742,-37.79167556762695
1634127066606554400,22.138554443359375,30.50396728515625,9.592092514038086,-37.65858840942383
1634127066626433300,22.158433349609375,30.2884521484375,9.600736618041992,-37.40396499633789
1634127066646312400,22.1783125,30.3555908203125,9.779396057128906,-37.59523391723633
1634127066666191400,22.19819140625,30.561065673828125,9.56561279296875,-37.493228912353516
1634127066686070500,22.218070556640626,30.3126220703125,9.692255020141602,-37.439266204833984
1634127066705949200,22.23794921875,30.353271484375,9.643157958984375,-37.524105072021484
1634127066725829400,22.257829345703126,30.008514404296875,9.55411148071289,-37.519535064697266
1634127066745708500,22.27770849609375,30.111297607421875,9.528301239013672,-37.650516510009766
1634127066765587500,22.29758740234375,29.718963623046875,9.573736190795898,-37.61992263793945
1634127066785466400,22.31746630859375,30.144012451171875,9.535491943359375,-37.24824905395508
1634127066805345300,22.33734521484375,30.499664306640625,9.489704132080078,-37.32999801635742
1634127066825225500,22.3572255859375,30.549713134765625,9.695764541625977,-37.39059829711914
1634127066845104400,22.3771044921875,30.33648681640625,9.796218872070312,-37.351444244384766
1634127066864983300,22.3969833984375,30.161712646484375,9.727836608886719,-37.22988510131836
1634127066884862500,22.416862548828124,30.278717041015625,9.680545806884766,-37.11702346801758
1634127066904741400,22.436741455078124,30.66241455078125,9.539072036743164,-37.18912124633789
1634127066924620300,22.456620361328124,30.269195556640625,9.68931770324707,-36.67051315307617
1634127066944500500,22.47650048828125,30.266326904296875,9.800790786743164,-36.89113235473633
1634127066964379400,22.49637939453125,30.570098876953125,9.728984832763672,-36.94095230102539
1634127066984258300,22.51625830078125,30.78741455078125,9.759838104248047,-36.76618576049805
1634127067004137200,22.53613720703125,30.6976318359375,9.824383735656738,-36.762454986572266
1634127067024016400,22.556016357421875,30.808624267578125,10.0161714553833,-36.771724700927734
1634127067043895300,22.575895263671875,31.0284423828125,9.852206230163574,-37.05265426635742
1634127067063775200,22.595775146484375,30.961181640625,9.905740737915039,-36.8295783996582
1634127067083654400,22.615654296875,30.948089599609375,9.814180374145508,-36.887386322021484
1634127067103530800,22.63553076171875,30.76556396484375,9.763221740722656,-36.99094009399414
1634127067123409400,22.655409423828125,31.018829345703125,9.814769744873047,-36.746891021728516
1634127067143288600,22.67528857421875,30.57574462890625,9.428802490234375,-36.64840316772461
1634127067163167500,22.69516748046875,30.9168701171875,9.396987915039062,-36.959781646728516
1634127067183047400,22.71504736328125,30.771728515625,9.33687973022461,-37.05561447143555
1634127067202926600,22.734926513671876,30.660125732421875,9.294496536254883,-37.20335006713867
1634127067222805500,22.754805419921876,30.8936767578125,9.008846282958984,-37.30576705932617
1634127067242684700,22.7746845703125,30.781707763671875,8.939149856567383,-36.941898345947266
1634127067262563600,22.7945634765625,30.4481201171875,8.929317474365234,-37.0308723449707
1634127067282443500,22.814443603515624,30.543182373046875,8.994462966918945,-37.116031646728516
1634127067302322700,22.83432275390625,30.418365478515625,9.055526733398438,-37.26608657836914
1634127067322201600,22.85420166015625,30.61590576171875,9.086557388305664,-37.472835540771484
1634127067342080500,22.87408056640625,30.607208251953125,9.169208526611328,-37.18622970581055
1634127067361959400,22.89395947265625,30.862335205078125,9.407745361328125,-37.12124252319336
1634127067381838600,22.913838623046875,30.497772216796875,9.575529098510742,-37.29282760620117
1634127067401718500,22.933718505859375,30.475677490234375,9.78445053100586,-37.248111724853516
1634127067421597400,22.953597412109374,30.3900146484375,9.497329711914062,-37.73421096801758
1634127067441476600,22.9734765625,30.084716796875,9.565929412841797,-37.5916862487793
1634127067461355500,22.99335546875,30.2091064453125,9.929478645324707,-37.29961013793945
1634127067481234400,23.013234375,29.85211181640625,9.926949501037598,-37.38394546508789
1634127067501113300,23.03311328125,30.63616943359375,9.791418075561523,-37.41231155395508
1634127067520993500,23.05299365234375,30.240142822265625,9.615983963012695,-37.2591667175293
1634127067540872400,23.07287255859375,30.244232177734375,9.645244598388672,-37.34504318237305
1634127067560751400,23.09275146484375,30.436767578125,9.538640975952148,-37.50505447387695
1634127067580630500,23.112630615234377,30.0694580078125,9.387266159057617,-37.38883590698242
1634127067600509700,23.132509765625,30.32843017578125,9.366716384887695,-37.70326614379883
1634127067620389400,23.152389404296876,30.493560791015625,9.152900695800781,-37.52743911743164
1634127067640268500,23.1722685546875,30.544342041015625,8.997344970703125,-37.6575813293457
1634127067660147500,23.1921474609375,30.1593017578125,9.170143127441406,-37.61100387573242
1634127067680026600,23.212026611328124,30.228424072265625,9.10096549987793,-37.791316986083984
1634127067699905500,23.231905517578124,30.14239501953125,9.0574951171875,-37.6108283996582
1634127067719784400,23.251784423828123,30.46990966796875,9.114553451538086,-37.58283615112305
1634127067739664600,23.27166455078125,30.472015380859375,8.963699340820312,-37.75986099243164
1634127067759543300,23.291543212890623,30.217041015625,9.04116439819336,-37.79472732543945
1634127067779422500,23.31142236328125,30.78814697265625,9.04010009765625,-37.47832107543945
1634127067799301600,23.331301513671875,31.045013427734375,9.444072723388672,-37.3095817565918
1634127067819180500,23.3511806640625,30.44061279296875,9.405681610107422,-37.33481979370117
1634127067839060500,23.371060546875,30.831207275390625,9.318574905395508,-37.08511734008789
1634127067858939400,23.390939453125,30.619476318359375,9.346931457519531,-37.15468215942383
1634127067878818600,23.410818603515626,30.8897705078125,9.333534240722656,-37.02700424194336
1634127067898697700,23.43069775390625,30.406707763671875,9.581293106079102,-37.168277740478516
1634127067918576400,23.450576416015625,30.235687255859375,9.328802108764648,-37.28359603881836
1634127067938455600,23.47045556640625,30.5826416015625,9.242849349975586,-36.769168853759766
1634127067958335700,23.490335693359373,30.403106689453125,9.335399627685547,-36.9738883972168
1634127067978214400,23.51021435546875,30.755950927734375,9.269466400146484,-37.25082778930664
1634127067998093600,23.530093505859377,30.935333251953125,9.241415023803711,-37.43598556518555
1634127068017972500,23.549972412109376,30.849029541015625,9.380453109741211,-37.32765579223633
1634127068037851600,23.5698515625,30.531036376953125,9.223579406738281,-37.3896598815918
1634127068057730600,23.58973046875,30.482574462890625,9.248250961303711,-37.38656997680664
1634127068077610500,23.609610595703124,30.72076416015625,9.362768173217773,-37.23061752319336
1634127068097489700,23.62948974609375,30.596405029296875,9.120851516723633,-37.32253646850586
1634127068117368000,23.6493681640625,30.64202880859375,9.490242004394531,-37.43146896362305
1634127068137247000,23.6692470703125,30.660186767578125,9.606588363647461,-37.29934310913086
1634127068157126000,23.6891259765625,30.77874755859375,9.594423294067383,-37.28274154663086
1634127068177006000,23.709006103515627,30.63177490234375,9.446231842041016,-37.28408432006836
1634127068196885000,23.728885009765627,30.7010498046875,9.798595428466797,-37.07492446899414
1634127068216764000,23.748763916015626,30.764312744140625,9.744693756103516,-36.97890090942383
1634127068236643000,23.76864306640625,30.459228515625,9.9092435836792,-36.97811508178711
1634127068256522000,23.78852197265625,30.7706298828125,10.157135009765625,-37.13106155395508
1634127068276401200,23.808401123046874,30.651580810546875,9.999468803405762,-37.358699798583984
1634127068296281000,23.828281005859374,30.564422607421875,9.90156078338623,-37.43253707885742
1634127068316160000,23.848159912109374,30.382781982421875,10.215703964233398,-37.54891586303711
1634127068336039200,23.8680390625,30.391265869140625,10.010798454284668,-37.140933990478516
1634127068355917800,23.887917724609373,30.35650634765625,10.00519847869873,-37.28107833862305
1634127068375797000,23.907796875,30.21173095703125,9.861152648925781,-37.1838264465332
1634127068395677200,23.92767724609375,30.38592529296875,9.8780517578125,-37.16647720336914
1634127068415555800,23.947555908203125,30.311279296875,10.061816215515137,-37.1617317199707
1634127068435435000,23.96743505859375,30.48333740234375,9.930352210998535,-37.01594161987305
1634127068455314000,23.98731396484375,30.747100830078125,9.886271476745605,-37.02956008911133
1634127068475193000,24.007193115234376,30.623748779296875,10.027891159057617,-37.366214752197266
1634127068495072000,24.027072021484376,30.526458740234375,9.963513374328613,-37.29014205932617
1634127068514952000,24.046951904296876,30.66253662109375,9.954103469848633,-36.94356155395508
1634127068534831000,24.0668310546875,30.56298828125,10.020397186279297,-37.01260757446289
1634127068554710000,24.0867099609375,30.290863037109375,10.042083740234375,-37.281551361083984
1634127068574589000,24.1065888671875,30.377288818359375,9.981552124023438,-37.31624221801758
1634127068594467800,24.1264677734375,30.720550537109375,10.117834091186523,-37.146785736083984
1634127068614348000,24.14634814453125,30.890838623046875,10.028221130371094,-37.18893814086914
1634127068634227000,24.16622705078125,30.59271240234375,9.868328094482422,-37.439701080322266
1634127068654105900,24.18610595703125,30.559783935546875,10.082345008850098,-37.5285530090332
1634127068673985000,24.205985107421874,30.2861328125,9.902865409851074,-37.45077133178711
1634127068693864000,24.225864013671874,30.314544677734375,9.903179168701172,-37.3801155090332
1634127068713744000,24.245743896484374,30.379180908203125,9.840658187866211,-37.59995651245117
1634127068733623000,24.265623046875,30.695465087890625,10.065650939941406,-37.4814338684082
1634127068753502000,24.285501953125,30.555145263671875,10.078228950500488,-37.41775894165039
1634127068773381000,24.305381103515625,30.35052490234375,9.919544219970703,-37.41653060913086
1634127068793260000,24.325260009765625,29.96685791015625,10.090288162231445,-37.5368537902832
1634127068813139000,24.345138916015625,30.3094482421875,9.899309158325195,-37.50300979614258
1634127068833019100,24.36501904296875,30.467254638671875,9.838804244995117,-37.45234298706055
1634127068852897800,24.384897705078124,29.81396484375,10.163556098937988,-37.51847457885742
1634127068872777000,24.40477685546875,30.4022216796875,10.090744972229004,-37.260318756103516
1634127068892656000,24.42465625,30.78509521484375,9.835729598999023,-37.15024948120117
1634127068912535000,24.44453515625,30.98223876953125,9.818120002746582,-37.29499435424805
1634127068932415000,24.4644150390625,30.82806396484375,9.872754096984863,-37.41774368286133
1634127068952294000,24.4842939453125,30.67181396484375,9.874364852905273,-37.36055374145508
1634127068972173000,24.504173095703123,30.40277099609375,9.835014343261719,-37.18697738647461
1634127068992052000,24.524052001953127,30.380279541015625,9.637327194213867,-37.499454498291016
1634127069011931000,24.543930908203127,30.6964111328125,9.764507293701172,-37.16018295288086
1634127069031810000,24.56381005859375,30.551605224609375,9.678352355957031,-37.31315994262695
1634127069051690000,24.58368994140625,31.0123291015625,9.679079055786133,-37.5683708190918
1634127069071569000,24.60356884765625,30.614227294921875,9.515401840209961,-37.23689651489258
1634127069091448000,24.623447998046874,30.70831298828125,9.611730575561523,-37.19247817993164
1634127069111331300,24.643331298828127,30.400665283203125,9.488996505737305,-37.474666595458984
1634127069131210000,24.6632099609375,30.0018310546875,9.47964096069336,-37.37836837768555
1634127069151090200,24.683090087890626,30.27325439453125,9.590648651123047,-37.419742584228516
1634127069170969000,24.702968994140626,30.364776611328125,9.782150268554688,-37.43807601928711
1634127069190848000,24.722847900390626,29.894622802734375,9.870898246765137,-37.4339485168457
1634127069210727200,24.74272705078125,29.869598388671875,9.707918167114258,-37.45058059692383
1634127069230606000,24.762606201171874,30.3074951171875,9.966792106628418,-37.34746170043945
1634127069250485200,24.7824853515625,30.08135986328125,9.836832046508789,-37.26079177856445
1634127069270365000,24.802364990234373,30.46612548828125,9.779809951782227,-37.37759017944336
1634127069290244000,24.822244140625,30.5870361328125,9.87185001373291,-37.363956451416016
1634127069310123300,24.842123291015625,30.656646728515625,9.934602737426758,-37.131229400634766
1634127069330002200,24.862002197265625,30.675140380859375,9.978602409362793,-37.067813873291016
1634127069349881000,24.881881103515624,30.7059326171875,9.912882804870605,-37.41779708862305
1634127069369761300,24.90176123046875,30.67236328125,10.086191177368164,-37.435672760009766
1634127069389640200,24.92164013671875,30.724700927734375,10.058597564697266,-37.35136032104492
1634127069409519000,24.94151904296875,30.680389404296875,10.110879898071289,-37.38112258911133
1634127069429398000,24.96139794921875,30.87176513671875,9.95061206817627,-37.399784088134766
1634127069449277200,24.981277099609375,30.504180908203125,10.096531867980957,-37.303104400634766
1634127069469156000,25.001156005859375,30.33367919921875,10.125186920166016,-37.24855422973633
1634127069489036000,25.0210361328125,30.309112548828125,10.069204330444336,-37.367740631103516
1634127069508915200,25.040915283203127,30.55908203125,10.155754089355469,-37.141841888427734
1634127069528794000,25.060794189453127,30.530059814453125,10.169188499450684,-37.23349380493164
1634127069548673300,25.08067333984375,30.630462646484375,10.171629905700684,-37.24650955200195
1634127069568552000,25.100552001953126,30.34832763671875,10.221713066101074,-37.24104690551758
1634127069588432100,25.12043212890625,30.314117431640625,10.036591529846191,-37.2619514465332
1634127069608311300,25.140311279296874,31.09423828125,10.037795066833496,-37.29531478881836
1634127069628190000,25.16018994140625,30.61688232421875,9.874492645263672,-37.22182083129883
1634127069648069000,25.180069091796874,30.5758056640625,9.844710350036621,-37.20243453979492
1634127069667948000,25.199947998046873,30.445098876953125,10.04357624053955,-37.184932708740234
1634127069687828000,25.219827880859373,30.256317138671875,10.156026840209961,-37.37788772583008
1634127069707707100,25.23970703125,30.64886474609375,10.556824684143066,-37.23897171020508
1634127069727586000,25.2595859375,30.571136474609375,10.573360443115234,-37.05753707885742
1634127069747465200,25.27946533203125,30.4185791015625,10.658190727233887,-37.2097053527832
1634127069767343900,25.29934375,30.38812255859375,10.69951057434082,-37.06881332397461
1634127069787223000,25.31922314453125,30.11474609375,10.535496711730957,-37.43302536010742
1634127069807103200,25.339103271484376,30.329803466796875,10.486342430114746,-37.5222282409668
1634127069826982100,25.358982177734376,30.3822021484375,10.893717765808105,-37.22124099731445
1634127069846861000,25.378861083984376,30.56396484375,10.977721214294434,-37.35226821899414
1634127069866740200,25.398740234375,30.3193359375,10.721644401550293,-37.75553512573242
1634127069886619100,25.418619140625,30.261199951171875,10.878664016723633,-37.44254684448242
1634127069906498300,25.438498291015627,30.284820556640625,10.669657707214355,-37.4022102355957
1634127069926378000,25.4583779296875,30.070526123046875,10.82388973236084,-37.3116569519043
1634127069946257200,25.478257080078127,30.218353271484375,10.7932710647583,-37.37214279174805
1634127069966136300,25.49813623046875,30.086273193359375,10.470751762390137,-37.31400680541992
1634127069986015000,25.518014892578126,30.476470947265625,10.522024154663086,-37.232547760009766
1634127070005894100,25.53789404296875,30.690155029296875,10.563758850097656,-37.256839752197266
1634127070025774000,25.557774169921874,30.271240234375,10.315218925476074,-37.37630081176758
