time,seconds_elapsed,z,y,x
1633780199038156800,0.02215673828125,0.03798690856695175,-0.03031973493993282,0.09929960153326392
1633780199058036700,0.04203662109375,0.06920680721700191,0.009157119923830032,0.052428654362820085
1633780199077916000,0.061916015625,0.12691489982008933,0.03572363981008529,0.011315759262442588
1633780199097794800,0.081794921875,0.18376900594234466,0.028700609305500984,0.026567688930034635
1633780199117674800,0.1016748046875,0.1610147378206253,0.009385667982697486,0.04503974968791008
1633780199137554000,0.121553955078125,0.04228314445614814,-0.005416179829835891,0.009941548299789427
1633780199157432800,0.141432861328125,0.01213175182044506,0.02730944720804691,-0.027839352833665905
1633780199177312800,0.161312744140625,0.005747603741288185,0.037135844695568083,-0.0010493994550779462
1633780199197192000,0.18119189453125,-0.02639233236312866,0.015473463463783263,0.005138531932234764
1633780199217070800,0.20107080078125,-0.0434440049290657,0.016821955463290215,0.021476028346829115
1633780199236950000,0.220949951171875,-0.005126841494441032,0.004067687830328941,0.016122684620134532
1633780199256830000,0.240829833984375,0.01974748752117157,0.0180903679639101,-0.011175474008917809
1633780199276708900,0.260708984375,0.031958734318614006,0.002585340318083763,-0.0017350070990622042
1633780199296588000,0.280588134765625,0.07092120991945267,0.012768880680203437,-0.00843611217290163
1633780199316467700,0.3004677734375,-0.010376432585716248,0.017983400458097456,0.013653992951661347
1633780199336347000,0.320346923828125,-0.011537293058633803,0.04587795407772064,0.028243659318238495
1633780199356226000,0.34022607421875,0.05078735342919826,0.04261398384571075,0.030935492218099533
1633780199376105700,0.360105712890625,0.018507716593146324,0.03717383861839771,0.02743438876196742
1633780199395985000,0.37998486328125,-0.00822656107544899,0.029239538487792014,0.014529899003356694
1633780199415863800,0.39986376953125,0.026762919241189956,0.032139936104416844,-0.02353372806161642
1633780199435743000,0.419742919921875,0.035945758128166194,0.08392331483364104,-0.04999941792190075
1633780199455623000,0.439622802734375,0.06331774917840957,-0.0013397241711616515,-0.026392916885018346
1633780199475501800,0.459501708984375,0.06556289775669574,-0.007258592826128006,0.02490118048992008
1633780199495381000,0.479381103515625,0.06915887642204761,-0.026588147196173667,-0.00863930659480393
1633780199515261000,0.499260986328125,0.05753215151429176,-0.014016834914684294,-0.014536036483198404
1633780199535139800,0.519139892578125,0.040678047347068785,-0.022912673553824422,0.01807151713296771
1633780199555019000,0.53901904296875,0.050321489483118056,-0.03621522271931171,0.015168489167839288
1633780199574897700,0.558897705078125,0.01672492482960224,-0.024465748214721677,0.018929120342992246
1633780199594777900,0.57877783203125,0.001028174003958702,-0.01743336535990238,0.044415334179252385
1633780199614657000,0.598656982421875,-0.04551671954989433,-0.03152852620780468,0.09236863322630524
1633780199634535700,0.61853564453125,-0.08473813834786414,-0.022640286353230475,0.08489084469154477
1633780199654416000,0.638415771484375,-0.0380891998976469,-0.040269466546177864,-0.0278784792676568
1633780199674295000,0.658294921875,-0.024254151290655133,-0.02229892556965351,-0.07561846435759216
1633780199694173700,0.678173583984375,-0.07670680758357047,-0.006669394761323929,-0.016746259878575802
1633780199714054000,0.698053955078125,-0.09112228642702103,0.046800914141535754,0.061555379148386415
1633780199733933000,0.71793310546875,0.02995674684643745,0.0928659152239561,0.1073532902598381
1633780199753811700,0.737811767578125,0.10970774443149565,0.10726385841071605,0.14709084188640117
1633780199773690600,0.757690673828125,0.06865092689990997,0.08551964411437511,0.11924831071496009
1633780199793570800,0.77757080078125,0.07476385682225227,0.062391866505146026,0.10400178787484765
1633780199813449700,0.79744970703125,0.10822773500680923,0.06580956599414348,0.028122809417545795
1633780199833328600,0.81732861328125,0.11014905845820903,0.0536743070423603,-0.06654040101934224
1633780199853208600,0.83720849609375,0.09204816910028457,0.03215162654221058,-0.11685498583763837
1633780199873087700,0.857087646484375,0.0752893420010805,0.02420680501759052,-0.10327277948055416
1633780199892966700,0.876966552734375,0.0024690204620361326,0.00036941783428192136,-0.057568245740979906
1633780199912845600,0.896845458984375,-0.051726680105924606,0.027725042271614073,-0.034259850867837664
1633780199932725800,0.916725830078125,-0.010529577320814132,0.04567746306955814,-0.035027620369941
1633780199952604700,0.936604736328125,0.055984337550401685,0.05988192951083183,-0.05882642910853028
1633780199972483600,0.956483642578125,0.014777882415056228,0.039727614754438395,-0.054530923871695995
1633780199992363800,0.97636376953125,-0.00852583628296852,0.042399464312195774,-0.05540449183583259
1633780200012242400,0.996242431640625,0.07816226708889007,0.03294073109328747,-0.06026800621896982
1633780200032121600,1.01612158203125,0.18624387162327766,0.06076105043292045,-0.01900353728607297
1633780200052001800,1.036001708984375,0.15829437294602394,0.05711304931938648,-0.017929660976864395
1633780200071880700,1.055880615234375,0.04906769002974033,0.10684241812825203,-0.0024449454667046667
1633780200091759600,1.075759521484375,0.04720598781108856,0.07976736419796943,0.07158551904708146
1633780200111638500,1.095638427734375,0.1766127044469118,0.06754501148462295,0.12677395697943866
1633780200131518700,1.115518798828125,0.21871815424859523,0.04058335480093956,0.10676277702078223
1633780200151397600,1.135397705078125,0.12311024684011936,-0.026677579045295715,0.15328867361322043
1633780200171276500,1.155276611328125,0.030844635596871374,-0.07084054589867592,0.13532774071525783
1633780200191156700,1.17515673828125,-0.044292730712890624,-0.013303133687376975,0.05475567253828048
1633780200211035600,1.19503564453125,-0.12097031220197677,0.038975335082411765,-0.004498042071610689
1633780200230914600,1.21491455078125,-0.13613339454233644,0.08322422665357589,-0.09466492746993899
1633780200250794800,1.234794677734375,-0.15303835211396216,0.12188508895933628,-0.12375906613767146
1633780200270673700,1.254673583984375,-0.1719599102050066,0.12890168972313404,-0.13383253372143952
1633780200290552600,1.274552490234375,-0.11352934854626655,0.17268530187010764,-0.1454696704253554
1633780200310431700,1.294431640625,-0.0800824214965105,0.1730973898023367,-0.10252751407120377
1633780200330311400,1.3143115234375,0.0404243648469448,0.1965326259255409,-0.08750643401741981
1633780200350190600,1.334190673828125,0.11682371391654015,0.15532733983397484,-0.05218319170176983
1633780200370069800,1.35406982421875,0.217390705037117,0.12735972097814083,-0.024615678079426287
1633780200389949400,1.373949462890625,0.20903554914593694,0.048266310518980025,-0.014954846417158841
1633780200409828600,1.39382861328125,0.14341829085350036,-0.030616672059893605,0.005442191053926944
1633780200429707800,1.413707763671875,0.08696984292268753,-0.08592647134959697,0.0035560850463807582
1633780200449586700,1.433586669921875,0.046454292660951614,-0.09340016823112963,-0.004257803574949503
1633780200469466600,1.453466552734375,0.002057517051696777,-0.11231705014705658,0.002584463535249233
1633780200489345500,1.473345458984375,-0.04125146332085133,-0.09049334087371826,-0.029585758109576997
1633780200509224700,1.493224609375,-0.08507248486876487,-0.0892541544675827,-0.020595044261217117
1633780200529104600,1.513104736328125,-0.12657879973351954,-0.04396422941088676,0.010160999736748635
1633780200548983600,1.532983642578125,-0.12924129694104194,-0.014213234269618987,0.02207096203267574
1633780200568862700,1.55286279296875,-0.08463818510472775,0.018806991800665855,0.02015314571261406
1633780200588741600,1.57274169921875,-0.08744330565333366,0.026599837633967397,0.023848346968740223
1633780200608621600,1.59262158203125,-0.03299509162902832,0.0704535924077034,0.0019781682051718233
1633780200628500700,1.612500732421875,0.0903957257181406,0.05423837066590786,-0.02717387466225773
1633780200648379600,1.632379638671875,0.11483575496971607,0.07072013438940047,-0.03283990106731653
1633780200668259600,1.652259521484375,0.12938275123834608,0.06314473069906235,-0.040227819361537694
1633780200688138800,1.672138671875,0.1428448748797178,0.09205693692862987,-0.041474604552239176
1633780200708017700,1.692017578125,0.12494915270507335,0.07420330033004284,-0.06946545815318822
1633780200727896600,1.711896484375,0.107252752494812,0.014795418071746825,-0.01850917789787054
1633780200747776800,1.73177685546875,0.1266588792324066,0.0386731372654438,0.0034460488006472587
1633780200767656400,1.751656494140625,0.03306815686523914,0.0531605123013258,0.0020240166408941147
1633780200787535000,1.77153515625,-0.09265957899689674,0.019754501783847807,0.013168839783221482
1633780200807415300,1.791415283203125,-0.0846744254618883,0.001228080490231514,0.07494370690118521
1633780200827294500,1.81129443359375,-0.053713470008969304,-0.030890812826156615,0.06624342736676335
1633780200847173000,1.831173095703125,-0.10025602547526359,0.06459960568249225,0.07138575869128108
1633780200867053300,1.85105322265625,-0.07744038255512714,0.045723640298843383,0.08297123827319591
1633780200886932200,1.87093212890625,-0.00021159692406654356,0.029081717577576636,0.08637406898662447
1633780200906811100,1.89081103515625,0.11119535264074802,0.010356558841466903,0.026056926396302877
1633780200926690300,1.910690185546875,0.0618961919426918,-0.01285889705121517,-0.006532214780338108
1633780200946570200,1.9305703125,0.04404021725654602,-0.020519640937447545,-0.025875322751700878
1633780200966449200,1.95044921875,0.06451835713982582,-0.015447744500637054,-0.03768124015126377
1633780200986328000,1.970328125,0.07462006443738937,-0.03269230929017067,-0.04097060055285692
1633780201006208300,1.990208251953125,0.0021942951738834378,-0.014988894817233084,-0.07015022554695606
1633780201026087200,2.010087158203125,0.0034942718565464017,-0.015792027893662453,-0.10293269733861088
1633780201045966000,2.029966064453125,-0.021012392890453337,-0.02816168012320995,-0.10946984402239322
1633780201065845200,2.04984521484375,-0.037114801907539366,0.001782207241654396,-0.06791033766567707
1633780201085725200,2.06972509765625,-0.10793372049629688,0.04017068234682083,-0.006804857709258794
1633780201105604000,2.08960400390625,-0.12459551696181297,0.043481414330005644,0.017274229275435208
1633780201125483300,2.109483154296875,-0.07670563853979111,0.08096095789670944,0.017748861049860714
1633780201145363500,2.129363525390625,-0.049503743359446524,0.10158230564296244,0.004552366074733436
1633780201165242000,2.1492421875,-0.024543489626049995,0.09834171628654002,0.015072335316985845
1633780201185121300,2.169121337890625,0.020792028138041495,0.09438801022469998,0.018138992878608404
1633780201205000200,2.189000244140625,0.13336334530711172,0.07370528768002986,0.015579261925816535
1633780201224880000,2.208880126953125,0.15178396813869474,0.04608136769533157,0.04576934260409325
1633780201244759300,2.22875927734375,0.11520926445722579,0.020294015488028526,0.06906959070339798
1633780201264638200,2.24863818359375,0.1192173310548067,0.026150340300798415,0.07176978957280516
1633780201284518100,2.26851806640625,0.1277741469979286,0.02028290957212448,0.055284372587502
1633780201304397300,2.288397216796875,0.042240474358201024,-0.01804828238785267,0.036169045490026475
1633780201324276200,2.308276123046875,-0.028480829074978828,-0.01356909114718437,-0.006523556549847126
1633780201344155400,2.3281552734375,-0.07237082420587539,0.0203168118417263,-0.010908785896748303
1633780201364035000,2.34803515625,-0.07538345002532004,-0.03723053724169731,0.044701311513781546
1633780201383914200,2.367914306640625,-0.06522796671390534,-0.01602174499630928,0.050882922758162016
1633780201403793400,2.38779345703125,-0.013376198923587799,0.003129530197381973,0.024699703101068733
1633780201423673000,2.407673095703125,0.004393851044774055,0.02100187149643898,0.025662995175272225
1633780201443552300,2.42755224609375,0.04728782087564468,0.02237958959043026,0.03929346112087369
1633780201463431200,2.44743115234375,0.08886953906416893,0.052340428090095516,-0.005441022010147571
1633780201483310300,2.467310302734375,0.13222469666600226,0.09161211577057837,-0.019726006341725586
1633780201503190300,2.487190185546875,0.13662497745156288,0.07442132699489593,-0.02202902258709073
1633780201523069200,2.507069091796875,0.16159692162275313,0.07011866136491299,-0.010814239481091498
1633780201542948400,2.5269482421875,0.17064122882187366,0.06276362242698669,-0.013381021229177713
1633780201562828300,2.546828369140625,0.18827391614615915,0.014110358417034148,-0.04539765974748879
1633780201582707200,2.566707275390625,0.20909867751002312,-0.010462357303500175,-0.06287804258689283
1633780201602586400,2.58658642578125,0.145569331407547,-0.01582826825082302,-0.059032911466062064
1633780201622465000,2.606465087890625,0.07078560084104538,-0.016920739662647247,-0.039086101980507375
1633780201642345200,2.62634521484375,0.03612929800152778,-0.05446633420288562,-0.01962941409945488
1633780201662224400,2.646224365234375,0.05942600243687629,-0.05261223076879978,-0.01193111468181014
1633780201682103000,2.66610302734375,0.07204232290387153,-0.06771802996397018,0.01490238557755947
1633780201701983200,2.685983154296875,0.05850830307006836,-0.02795534389615059,0.07995791833400726
1633780201721862400,2.7058623046875,-0.003471475502848625,-0.04903028062880039,0.09860475113689898
1633780201741741000,2.725740966796875,-0.012348609441518783,0.00019464578926563263,0.06025587738975882
1633780201761620500,2.745620361328125,0.10912322254180908,0.022723872983455656,0.007920709996670484
1633780201781499600,2.765499755859375,0.20428397070467472,0.03828852186203003,0.0015909224532544611
1633780201801378800,2.78537890625,0.18521277500987052,0.005960954231023788,-0.051271483684331175
1633780201821257500,2.805257568359375,0.28814181908667086,-0.027492987081408498,-0.04105480823758989
1633780201841137700,2.8251376953125,0.28176176266074177,-0.03167407215833664,-0.07606675611436367
1633780201861016600,2.8450166015625,0.14296645543277262,-0.00009469254612922667,-0.03896934373304248
1633780201880895500,2.8648955078125,0.03255319308042526,0.02179214509129524,-0.05548574037849903
1633780201900775700,2.884775634765625,0.1004646997898817,0.022748422902822495,-0.025796193100884556
1633780201920654600,2.904654541015625,0.013047113099694252,0.12807634481489658,-0.0146015029348433
1633780201940533800,2.92453369140625,-0.05818038628995418,0.08297346676290035,0.03264843361582607
1633780201960412400,2.944412353515625,0.013429974937438964,0.10204115532636641,0.03860591724812984
1633780201980292600,2.964292724609375,0.1382014329880476,0.09017886809706688,0.06842424200456589
1633780202000171800,2.984171875,0.05245967055559158,-0.03551087384223938,0.16279855249747632
1633780202020050400,3.004050537109375,-0.04212766163349151,-0.11443009677827358,0.14859868916608393
1633780202039930600,3.0239306640625,-0.06345102016925812,-0.05944879879057407,0.06126278940998017
1633780202059809800,3.043809814453125,-0.17345628624260426,0.028285598763823507,0.08481113051883876
1633780202079688400,3.0636884765625,-0.3437795351564884,0.1684083552032709,0.16227825495041906
1633780202099567600,3.083567626953125,-0.41572833455801006,0.2648480372607708,0.17441007983610032
1633780202119447800,3.10344775390625,-0.4019289417862892,0.15210136352479456,0.09100443220101297
1633780202139326500,3.123326416015625,-0.23841478836536406,0.21829320683479309,0.031957273013889786
1633780202159205600,3.14320556640625,-0.1014665703088045,0.16965280230641364,-0.018667437199503183
1633780202179085800,3.1630859375,-0.07816343613266945,0.10749474455714225,0.0560066955126822
1633780202198964500,3.182964599609375,-0.0948743324369192,0.07379822666049003,0.1159249384459108
1633780202218843600,3.20284375,-0.10034195019304752,0.0804132608860731,0.06083031627684831
1633780202238722600,3.22272265625,-0.039271687680482864,0.10938859547972679,-0.027904709687456487
1633780202258602500,3.2426025390625,0.04344049779772758,0.15496201365292073,-0.05049575007148087
1633780202278481700,3.262481689453125,0.10286007049381732,0.15615034665465355,-0.08595540518313646
1633780202298360600,3.282360595703125,0.11794248881340026,0.11604629980325698,-0.08689166311994194
1633780202318240800,3.30224072265625,0.15300503436625004,0.09284487243592739,-0.09906732714734971
1633780202338119400,3.322119384765625,0.17484101859927176,0.06764905638098716,-0.10974347333200275
1633780202357998600,3.34199853515625,0.17561784819066523,0.01329027420580387,-0.08842939408123493
1633780202377877800,3.361877685546875,0.17696692471206188,0.03722586106657982,-0.09231851047426462
1633780202397757400,3.38175732421875,0.0005097030878067016,0.014441197806596756,-0.027357743329182265
1633780202417636600,3.40163671875,-0.08361468727588653,-0.036837738531827924,0.08125263431966304
1633780202437515500,3.421515625,-0.1598643987417221,-0.01592763697206974,0.14701733825877308
1633780202457395500,3.4413955078125,-0.26054011093378066,-0.08999299013614653,0.18227357975281774
1633780202477274600,3.461274658203125,-0.41377369335889813,-0.06987491573691368,0.2257867774605751
1633780202497153500,3.481153564453125,-0.4656295528024435,-0.05053425545096397,0.21564108489081263
1633780202517032700,3.50103271484375,-0.5146335299462079,0.06359364351034164,0.16613376133479177
1633780202536912600,3.52091259765625,-0.47311610916554925,0.11534253544807434,0.04384337951019406
1633780202556791600,3.54079150390625,-0.28705402384996415,0.01992518217563629,-0.03984415380619466
1633780202576670700,3.560670654296875,0.02224924120903015,0.04219955782592296,-0.1805403992846608
1633780202596550700,3.580550537109375,0.19187866263985634,0.04025309993326664,-0.2917844133727252
1633780202616429600,3.6004296875,0.22192308776974676,-0.07783376578688621,-0.23539120276048778
1633780202636308700,3.620308837890625,0.24878537573218343,-0.04884615623354911,-0.1525368323326111
1633780202656187600,3.640187744140625,0.26634324425458905,-0.032797523230314256,-0.1975957251124084
1633780202676067600,3.660067626953125,0.17544658327698706,-0.0005769231051206588,-0.14337372105941176
1633780202695946800,3.67994677734375,0.01252864218354225,0.03204524355828762,-0.04035897146053612
1633780202715825700,3.69982568359375,-0.01979191118478775,0.12666940062642096,0.12020583063550293
1633780202735705600,3.71970556640625,-0.04346913937032223,0.3042395519286394,0.1840509646888822
1633780202755584800,3.739584716796875,-0.05726502501070499,0.33204467369914054,0.15993563734702765
1633780202775463400,3.75946337890625,0.15288637642264366,0.2623369312226772,0.15431911263950168
1633780202795342000,3.779342041015625,0.3967822265475988,0.09641337857246399,0.04855133800543844
1633780202815222300,3.79922216796875,0.5417933395504951,-0.12994564581811427,-0.04316211924776435
1633780202835101200,3.81910107421875,0.5178939930468798,-0.36282501188814636,-0.1621752329673618
1633780202854980400,3.83898046875,0.4237397915780544,-0.40833588621914385,-0.24991613332778215
1633780202874860300,3.8588603515625,0.24320377620756625,-0.39356910971999165,-0.2249894896030426
1633780202894739200,3.8787392578125,0.08965747457146644,-0.25396190158724785,-0.1401120158497244
1633780202914618400,3.898618408203125,-0.07976911776363849,-0.06733984430134296,-0.03170475955754518
1633780202934497300,3.918497314453125,-0.2263485029965639,0.10317454327046871,0.06842405934147536
1633780202954377200,3.938377197265625,-0.13759294570088385,0.1490764627456665,0.17373634529300033
1633780202974256400,3.95825634765625,-0.07437924141883849,0.19433891527354716,0.2565148740056902
1633780202994135000,3.978135009765625,-0.055746437141299246,0.13996844266057012,0.21286467898003755
1633780203014015200,3.99801513671875,0.02215513318479061,0.08870996458828449,0.18992292546220121
1633780203033894400,4.017894287109375,0.010481646525859832,0.009425999993085861,0.10070311165563761
1633780203053773000,4.03777294921875,-0.030638299369812008,0.019599018961191175,0.010900091133639215
1633780203073652200,4.05765234375,-0.0014718261182308195,-0.0006686930418014526,-0.10209515053592622
1633780203093532400,4.077532470703125,0.03710077338218689,0.016977438285946844,-0.1566435369990766
1633780203113411000,4.0974111328125,0.04047112659811973,-0.0030208091259002682,-0.146218808292225
1633780203133290200,4.117290283203125,0.07860065850615501,-0.101236268684268,-0.10174421820640564
1633780203153170400,4.13717041015625,0.06037058981060981,-0.08427870414257049,-0.04112900598496198
1633780203173049000,4.157049072265625,-0.049555765807628625,-0.05322305614352226,0.04188676554970443
1633780203192928300,4.17692822265625,-0.1264326692610979,0.008063479468226432,0.12824702520668507
1633780203212807200,4.19680712890625,-0.1747270368307829,0.06951426573097705,0.17215609036423266
1633780203232687400,4.216687255859375,-0.206737793597579,0.16657354099154473,0.13270436994172632
1633780203252566300,4.236566162109375,-0.15813129133880138,0.1865992609322071,0.13606215593703092
1633780203272445200,4.256445068359375,-0.1082376718789339,0.21411679793298244,0.1442529881119728
1633780203292325400,4.276325439453125,0.07119125903248787,0.18844401201605795,0.1131105386123061
1633780203312204000,4.2962041015625,0.19027707266211508,0.1047825629889965,0.06274740194454789
1633780203332083200,4.316083251953125,0.27734394621849057,0.05322188709974288,0.0005175210680812597
1633780203351962400,4.33596240234375,0.3122013245880604,0.05069909062385559,-0.057969227757304904
1633780203371842000,4.355842041015625,0.27960663045346734,0.009363456150889396,-0.10524521206468343
1633780203391721200,4.37572119140625,0.3338935164362192,-0.014969021072983741,-0.027650588795915244
1633780203411600400,4.395600341796875,0.3192880679786205,-0.02647416542768478,0.06861461347751319
1633780203431479300,4.415479248046875,0.27007015582323074,-0.05928337909579277,0.14062537219934165
1633780203451359200,4.435359130859375,0.1984334911108017,-0.1100023434638977,0.22329291481822727
1633780203471238100,4.455238037109375,0.12992168042063712,-0.14921967060863972,0.23464155343696474
1633780203491117300,4.475117431640625,0.10732289512157439,-0.17375614597201347,0.21372378002740441
1633780203510997200,4.494997314453125,0.0769493841677904,-0.18533318651914596,0.10467515709176659
1633780203530876200,4.514876220703125,0.010484569135308265,-0.13585399307906626,-0.008805749202892184
1633780203550755300,4.53475537109375,-0.07505611776709556,-0.05565642077028751,-0.11131832143329083
1633780203570634200,4.55463427734375,-0.11169979503154753,0.030426702445745465,-0.15112053579390047
1633780203590514200,4.57451416015625,-0.07085691251158714,0.0979115081757307,-0.11298333203606307
1633780203610393300,4.594393310546875,-0.03933949221968651,0.13790274230241775,-0.03985467520020902
1633780203630272300,4.614272216796875,-0.009033785805106163,0.15010814388096333,0.014936433977633714
1633780203650152200,4.634152099609375,-0.016389993786811826,0.1637514693081379,0.0349108621224761
1633780203670031400,4.65403125,0.04474281256794929,0.15435118827819824,0.062475233939662575
1633780203689910300,4.67391015625,0.10664017355442046,0.17136369787752628,0.07717216007299721
1633780203709789200,4.6937890625,0.04984919579625129,0.19275427643060683,0.08336290447190403
1633780203729669400,4.71366943359375,0.04022971905767917,0.11530571056902408,0.07910524702742695
1633780203749548300,4.73354833984375,0.038137715214490886,-0.00022387188374996183,0.030058015263825653
1633780203769427000,4.753427001953125,0.027805706292390823,-0.08168108886480331,-0.044240781329944724
1633780203789307000,4.773306884765625,-0.033743864169716836,-0.18682254829406736,-0.0691683018375188
1633780203809185800,4.793185791015625,-0.09857494052052497,-0.19301146606206893,-0.08979534867219627
1633780203829065000,4.81306494140625,-0.0760953976869583,-0.1659118622124195,-0.09915741658359765
1633780203848943600,4.832943603515625,-0.06550444556772708,-0.1327893448114395,-0.06462196364477277
1633780203868823800,4.85282373046875,-0.10148761309683323,-0.017599954098463058,-0.02542377959191799
1633780203888703000,4.872702880859375,-0.10849193890094756,0.06191957281827926,0.0331070275709033
1633780203908581600,4.89258154296875,0.0008194996893405913,0.05486965430676937,0.11719824631735681
1633780203928461800,4.9124619140625,0.0732242261648178,0.11287000785470008,0.1529864757962525
1633780203948341000,4.932341064453125,0.0382113649725914,0.08979133008420467,0.07479498261287808
1633780203968219600,4.9522197265625,0.028097967237234112,0.06664017159938812,0.016201777738332746
1633780203988098800,4.972098876953125,0.05914426288604736,0.051525604575872415,-0.05415419951379299
1633780204007978800,4.991978759765625,0.10735270573794842,0.027438626545667647,-0.07106361406482756
1633780204027857700,5.011857666015625,0.041758243799209595,0.06419628557860851,-0.062083750404044985
1633780204047736800,5.03173681640625,-0.04556114321351051,0.07723638441562652,0.005025207750871777
1633780204067616800,5.05161669921875,-0.034956747090816497,0.0271487036883831,0.04011924442052841
1633780204087495700,5.07149560546875,0.020665771409869194,0.019229601126909256,0.025078107959404586
1633780204107374600,5.09137451171875,0.0007107786178588867,0.019975451058149338,-0.015690394150093198
1633780204127253800,5.111253662109375,-0.0332575419574976,0.03554302254617214,-0.030965412432327866
1633780204147134000,5.131134033203125,-0.026490532040596006,0.008620528829097748,-0.03787226921133697
1633780204167012600,5.1510126953125,-0.016631401327252385,0.00010053776502609253,-0.07575147962011397
1633780204186891800,5.170891845703125,0.027553192836046216,0.006284779357910156,-0.12110767484605311
1633780204206771000,5.19077099609375,0.023957798692584038,-0.010786182430386542,-0.11441424162201583
1633780204226650600,5.210650634765625,0.027539748832583425,-0.00719955611526966,-0.07788651888743042
1633780204246529800,5.23052978515625,0.01563479150533676,0.006225742647051811,-0.0781421741489321
1633780204266408700,5.25040869140625,0.049202130064368244,0.024048984107375142,-0.08929010256379842
1633780204286288600,5.27028857421875,0.04930734400451183,0.04559738357067108,-0.08063106835521758
1633780204306167800,5.290167724609375,0.08390636369884014,0.06082476331889629,-0.07950491386950015
1633780204326046700,5.310046630859375,0.08504676590561866,0.07269991002976894,-0.09450959077775478
1633780204345926000,5.32992578125,0.09238076205551624,0.07082184119820595,-0.06739931940361857
1633780204365805800,5.349805908203125,0.08366437163650989,0.0700000034213066,-0.070407707439363
1633780204385684700,5.369684814453125,0.04635609298348427,0.06106675538122654,-0.03226443926692009
1633780204405564000,5.38956396484375,0.004111526972055435,0.09289104966521262,0.006193155551701784
1633780204425443800,5.40944384765625,-0.03689852880835533,0.14071136998236178,-0.03450798041000962
1633780204445322800,5.42932275390625,-0.06986673243045806,0.16989245628118513,-0.018398922456428407
1633780204465202000,5.449201904296875,-0.05076338803172111,0.13527590093016623,0.03594670797623694
1633780204485080800,5.469080810546875,-0.0246259072124958,0.16903788527846336,-0.011332125875353812
1633780204504960800,5.488960693359375,-0.00912321765422821,0.2006423993319273,-0.02393675590455532
1633780204524840000,5.50883984375,0.008136544704437256,0.12288812852203845,0.010338000271469354
1633780204544718800,5.52871875,0.09119184453189373,0.09013970513045787,0.009021583910658954
1633780204564598800,5.548598876953125,0.1602519367545843,0.05483575203716755,-0.04231507396437228
1633780204584477700,5.568477783203125,0.1465840614080429,-0.000709025052189827,-0.039029695618152616
1633780204604356900,5.58835693359375,0.06402735875248909,-0.0146352590739727,0.007717515574768185
1633780204624235800,5.60823583984375,-0.012830255478620529,-0.03580079669952392,0.0023973434653133154
1633780204644115700,5.62811572265625,-0.035301030483841894,-0.03542319555878639,-0.03185315505228936
1633780204663995000,5.647994873046875,-0.07710194438099861,0.01578033745586872,-0.03859853765927255
1633780204683873800,5.667873779296875,-0.1535679289460182,0.0081476506203413,-0.00893054462634027
1633780204703753700,5.687753662109375,-0.15583879648745058,0.03417641036808491,-0.020930852086842058
1633780204723633000,5.7076328125,-0.05254442622959613,0.0614081161648035,-0.06900945801399648
1633780204743511600,5.727511474609375,0.01628010367155075,0.09917232189178467,-0.09220555161908268
1633780204763395000,5.74739501953125,0.016503391033411027,0.06032499710321426,-0.0723628600951284
1633780204783275000,5.76727490234375,0.08109422888755798,0.03800736683309078,0.008201353568956255
1633780204803154000,5.78715380859375,0.17816110293269155,0.08840601320564746,0.05605177676342427
1633780204823033000,5.807033203125,0.22160978403687476,0.05176993472576141,0.09172945853993296
1633780204842913000,5.8269130859375,0.26072832698225973,-0.0461976875513792,0.0752494483821094
1633780204862792000,5.8467919921875,0.2456453241407871,-0.10886018769145012,0.01369410576634109
1633780204882670800,5.8666708984375,0.23201953437030315,-0.12527999209463594,0.015960004871711134
1633780204902550000,5.886550048828125,0.1112351001292467,-0.16785773558318615,0.051430108312144875
1633780204922430000,5.906429931640625,-0.030972645890712736,-0.1655202325463295,0.0804010589916259
1633780204942308900,5.926308837890625,-0.06936287456154823,-0.12588614129424094,0.12609496173933146
1633780204962188000,5.94618798828125,-0.12197393628656863,-0.08068973973989486,0.1340153064098209
1633780204982068000,5.96606787109375,-0.17199205890893934,-0.006700958943367004,0.13547536902502177
1633780205001947000,5.98594677734375,-0.13959201056361198,-0.0014975450813770293,0.14230068500041962
1633780205021826000,6.005825927734375,-0.13504092313051222,-0.022640286353230475,0.09428652261160314
1633780205041705000,6.025705078125,-0.14016367297172547,0.0003524666994810104,0.02259703173339367
1633780205061585000,6.0455849609375,-0.09186696731448173,0.03389116368591785,-0.004589081355929375
1633780205081464000,6.065464111328125,-0.07257306877970696,0.06403729562461376,-0.027174934108182787
1633780205101343000,6.085343017578125,0.03868599674701691,0.13751169715821743,-0.03496785300672054
1633780205121222100,6.10522216796875,0.061061494684219356,0.17324644288420676,-0.02925787786208093
1633780205141102000,6.12510205078125,0.1266366674005985,0.17039806771576405,-0.010594532315805554
1633780205160981000,6.14498095703125,0.2071113030850887,0.10364040721654891,0.0487090127851814
1633780205180860200,6.164860107421875,0.24694822343289852,0.05052548762261867,0.02045066735446453
1633780205200740000,6.184739990234375,0.2505658294081688,-0.009759177470207214,-0.04034823087081313
1633780205220619000,6.204618896484375,0.08447159636616706,-0.07262567574977874,-0.01875504241771996
1633780205240498200,6.224498291015625,-0.02103226663470268,-0.08824936133921146,-0.010811901393532752
1633780205260376800,6.244376953125,-0.07943067958950996,-0.06216098035871982,-0.05851802074648439
1633780205280257000,6.264257080078125,-0.1500210501194,-0.03161094379425049,-0.06960252853631974
1633780205300136200,6.28413623046875,-0.2376075636357069,0.008733926075696945,-0.0444349887277931
1633780205320014800,6.304014892578125,-0.24809505538046359,0.032574820390343665,-0.040867140178382395
1633780205339895000,6.32389501953125,-0.1305979722470045,0.03693243107795715,-0.023571356658264993
1633780205359774000,6.34377392578125,-0.06456628793478011,0.030282910060882566,-0.03210851805284619
1633780205379652900,6.36365283203125,-0.021899112597107886,0.038273324292898175,-0.024402692915871736
1633780205399532000,6.383531982421875,0.07767243774533271,0.0319762699753046,-0.03531235559545457
1633780205419412000,6.403411865234375,0.19372984346449373,0.057058688783645624,-0.05503806967623531
1633780205439291000,6.423290771484375,0.2322738013923168,0.11838029570877551,-0.06587481325007975
1633780205459170000,6.443170166015625,0.30570553282797336,0.126328039842844,-0.02472776015177369
1633780205479050000,6.463050048828125,0.3359598013162613,0.12263093889057636,0.057868763057515024
1633780205498929000,6.482928955078125,0.2751999199271202,0.06617372313141823,0.018188567641377447
1633780205518807800,6.502807861328125,0.23300562279820441,0.027722704184055327,0.0510150977704674
1633780205538687000,6.52268701171875,0.16316753194034098,-0.03047229515314102,0.06700564391091465
1633780205558567200,6.542567138671875,0.08043956437110901,-0.05341127219200134,0.05526311060376465
1633780205578445800,6.56244580078125,-0.025682722789049147,-0.060841129931807514,0.01870462740473449
1633780205598325000,6.582324951171875,-0.12734276984333992,-0.0970925930082798,0.006544818533584475
1633780205618205200,6.602205078125,-0.17477555214762686,-0.08594926770329475,-0.013496098976209759
1633780205638083800,6.622083740234375,-0.19442542451322078,-0.05100947174727916,-0.0008260755605995655
1633780205657963000,6.641962890625,-0.1838368104815483,0.004090484184026718,0.05028291103839874
1633780205677842000,6.661842041015625,-0.15392214921116829,0.01251169104874134,0.05909764726534485
1633780205697721900,6.681721923828125,-0.07388707398772239,0.044350598379969595,0.028574133381620046
1633780205717601000,6.70160107421875,0.04913315648138523,0.05999883388876914,0.02298939205184579
1633780205737480000,6.72147998046875,0.1007043537646532,0.06857318548858166,-0.003959551280736923
1633780205757359900,6.74135986328125,0.12800211053490637,0.11948562660217285,-0.04401844381615519
1633780205777235000,6.76123486328125,0.09997194783687591,0.058200260034203526,-0.02619184135496616
1633780205797114000,6.781114013671875,0.14724866279661655,0.023297288957238194,-0.023395927026122806
1633780205816993000,6.800992919921875,0.16546528748869896,0.019994155758619306,-0.06802578073889017
1633780205836873000,6.820873046875,0.02674129193127155,-0.04784837736785411,-0.0900717544607818
1633780205856751900,6.840751953125,-0.12529752775132655,-0.0007756605476140976,-0.15214308377467095
1633780205876631000,6.860631103515625,-0.1162415301144123,0.01776537379324436,-0.09764745041206478
1633780205896511000,6.880510986328125,-0.06357084715664386,0.11218670176565647,-0.039781317703053355
1633780205916390000,6.900389892578125,0.05183481665551662,0.14875906735956668,0.07202602935619652
1633780205936269000,6.92026904296875,0.11827391272485256,0.05495148737132549,0.06917685047015547
1633780205956148200,6.940148193359375,0.0925391674876213,0.07705927428305148,0.05307027673460543
1633780205976028000,6.96002783203125,0.01585223364830017,-0.026648352950811385,0.01571092548146844
1633780205995907000,6.979906982421875,-0.0488379729270935,-0.05002572140693664,0.03991495402008295
1633780206015786000,6.999785888671875,-0.04365677089691162,-0.06001169337034225,0.12622852499112486
1633780206035666000,7.019666015625,0.006589899784326553,-0.02292494851350784,0.12412307714447378
1633780206055545000,7.039545166015625,0.12173194422423839,-0.018324761241674422,0.05508095896989107
1633780206075424000,7.059424072265625,0.18633681060373783,-0.028720483049750327,0.020841712498664854
1633780206095303200,7.07930322265625,0.1623036085873842,0.0007797522008419036,0.04551014367863536
1633780206115183000,7.09918310546875,0.05476093323528766,0.01852349868416786,0.05220430755503475
1633780206135062000,7.11906201171875,-0.011813187390565872,0.06071195059418678,0.06666976302005351
1633780206154941200,7.138941162109375,-0.009502572360634804,0.07097323236763477,0.0954616308055818
1633780206174821000,7.158821044921875,0.037113048341870306,0.07587094128131866,0.09490743098892271
1633780206194700000,7.178699951171875,0.0921171426832676,0.02849778020977974,0.07114793134741484
1633780206214579200,7.1985791015625,0.10134382071197032,-0.02025543704330921,0.05406747107841074
1633780206234457900,7.218457763671875,0.003623451194167137,-0.024594927552342414,0.001384074769541621
1633780206254338000,7.238338134765625,-0.058246437263488764,-0.025996611043810843,-0.08661562265753746
1633780206274217200,7.25821728515625,0.0014472761988639832,-0.023420623075962065,-0.05909706274345517
1633780206294096000,7.278095947265625,-0.048773675519227976,-0.0692728581905365,-0.007563713252544403
1633780206313976000,7.29797607421875,-0.16220891604125498,-0.03647358139455318,-0.0033664076931774613
1633780206333855000,7.31785498046875,-0.18408523228466508,0.02686813318133354,-0.03371566098853945
1633780206353734100,7.337734130859375,-0.09784779528975486,0.05075052855014801,-0.002963891306892037
1633780206373613000,7.357613037109375,0.0004717091649770736,0.08081132029294967,0.0009490443531423807
1633780206393493000,7.377492919921875,0.027169746476411818,0.06130582483410835,-0.04580591175481677
1633780206413372200,7.3973720703125,0.11378653817772864,0.04004617918431758,0.011103870077431202
1633780206433251000,7.4172509765625,0.1779723023623228,0.07515782457590103,0.01202960662022233
1633780206453131000,7.437131103515625,0.18598551294803617,0.04649228658378124,-0.02420768180042505
1633780206473010200,7.45701025390625,0.11902619239687919,0.04879354926347732,-0.008601604932919144
1633780206492888800,7.476888916015625,0.12123334705233574,0.05235679470300674,-0.013901537971943616
1633780206512768000,7.49676806640625,0.0798906983166933,0.09775076465606689,-0.045550183428078886
1633780206532648200,7.516648193359375,-0.015738836401700974,0.10876374157965182,-0.0680002809714526
1633780206552526800,7.53652685546875,-0.10181494535505771,0.10396481686532497,-0.04919197399653494
1633780206572406000,7.556406005859375,-0.07786649901270866,0.06462883177697658,-0.0675601359885186
1633780206592286200,7.5762861328125,0.010438391906023026,0.06786416043639183,-0.06907587431371212
1633780206612164900,7.596164794921875,-0.033737434428930284,0.037869419667124746,-0.003217500741779804
1633780206632044000,7.6160439453125,-0.04301204325258732,0.023158172747492788,0.0767002317123115
1633780206651924200,7.63592431640625,0.02580021168887615,0.03837269301414489,0.02108531199619174
1633780206671803000,7.655802978515625,0.044341830551624294,0.043406011006236075,-0.016600202471390366
1633780206691682000,7.67568212890625,0.07366612471342086,0.034871406894922255,-0.03907689576074481
1633780206711561000,7.69556103515625,0.11776596320271492,0.03750350896418094,-0.056079468487948175
1633780206731441000,7.71544091796875,0.1088689555197954,0.05999181962609291,-0.0208298759303987
1633780206751320000,7.735320068359375,0.040187048959732054,0.07992167797684668,0.04322035224102437
1633780206771200000,7.755199951171875,-0.0012239888370037077,0.10192892712354659,0.04248283174671232
1633780206791080000,7.775079833984375,0.0008580781340599059,0.07229717444777488,0.05652304753698408
1633780206810958800,7.794958740234375,0.011084873116016388,0.06123918933868408,0.0894365252971649
1633780206830838000,7.814838134765625,0.03922843306064606,0.05851531733274459,0.050689153751730914
1633780206850717000,7.834717041015625,0.04230827889740467,0.023702362626791,-0.017293445432558653
1633780206870596900,7.854596923828125,0.04295943628251552,0.008743862947821616,-0.05693477014303207
1633780206890476000,7.87447607421875,0.0336450799703598,-0.014037877702713012,-0.039950975181534884
1633780206910355000,7.89435498046875,-0.004025017732381821,-0.009059504768252373,-0.02254303652383387
1633780206930235000,7.91423486328125,-0.028448095849156377,-0.000969137293100357,0.0008612199392169713
1633780206950114000,7.934114013671875,0.04948211604952812,0.006847673937678336,-0.0017038813084363936
1633780206969993000,7.953992919921875,0.05377952098250389,0.007283727267384529,0.004420300660282373
1633780206989871900,7.973871826171875,0.003005611556768417,0.030159575942158696,0.00833754716925323
1633780207009751800,7.993751708984375,0.011865794360637665,-0.024642858347296712,0.018812106367200612
1633780207029631000,8.013630859375,0.03782441148161888,0.004665653723478317,-0.002371039980277419
1633780207049510000,8.033510009765624,0.02625730780661106,-0.006909633257985114,-0.014169760454073548
1633780207069389800,8.053389892578124,0.06682078886330127,-0.015928221493959425,-0.0175442053232342
1633780207089269000,8.07326904296875,0.06431961969733238,-0.011384732845425604,-0.027326763669028878
1633780207109148000,8.09314794921875,-0.007855389675498009,0.017003157249093053,-0.00998955215997994
1633780207129027800,8.11302783203125,-0.042674774122238156,0.035165421405434605,-0.025917043001577256
1633780207148907000,8.132906982421876,-0.009449380868673325,0.035464696612954136,-0.020778876395523546
1633780207168786000,8.152785888671875,-0.02735094826221466,0.05544073219299316,-0.007025222461670637
1633780207188664800,8.172664794921875,0.013575520887970923,0.06636077013611794,-0.03800071789659559
1633780207208545000,8.192544921875,0.04789923077225685,0.016716741523146627,-0.0674615709848702
1633780207228424000,8.212423828125,0.12698504244685171,0.0372439812451601,-0.06576499620005488
1633780207248302800,8.232302734375,0.1066600472986698,0.026689269483089445,-0.09561061082221567
1633780207268183000,8.25218310546875,0.1194920563429594,0.01710194144845009,-0.11759126422293484
1633780207288062000,8.27206201171875,0.15166355662941933,0.00757774177789688,-0.1363829123239964
1633780207307940900,8.29194091796875,0.11546294695734977,-0.01440963362455368,-0.12380093251802027
1633780207327819800,8.31181982421875,0.08005904062092303,0.03944762876927852,-0.14299034776501357
1633780207347700000,8.331699951171874,0.030316227808594703,0.006519172635674476,-0.1537911432426423
1633780207367579000,8.351578857421876,0.014438859719038008,-0.021351415586471557,-0.13899835551939904
1633780207387457800,8.371457763671875,-0.011057985109090805,-0.007001403194665908,-0.1077576332770288
1633780207407338000,8.391337890625,-0.005085340440273285,-0.010483984613418578,-0.04399345550537109
1633780207427217000,8.411216796875,0.024164719441533086,0.02084288154244423,0.05641695681400597
1633780207447095800,8.431095703125,-0.002939560583233833,0.024644611912965773,0.13246749244593084
1633780207466975000,8.45097509765625,-0.03390343864560127,0.027075638452172278,0.21111220928952096
1633780207486855000,8.47085498046875,-0.053126610031723975,0.03207154704332352,0.276842937893793
1633780207506733800,8.49073388671875,-0.013557985231280326,0.027618659287691114,0.3180358028952032
1633780207526613000,8.510613037109374,0.033038930770754815,0.01379179398715496,0.3287332841288298
1633780207546493000,8.530492919921874,0.05426408962905407,0.03194879744648933,0.29446846482492983
1633780207566371800,8.550371826171874,-0.011912556111812592,-0.0035989012748003004,0.24647439537607133
1633780207586251000,8.5702509765625,0.03082008567750454,-0.019109774139523503,0.19572905445769428
1633780207606130000,8.5901298828125,0.06406944432854653,0.03991699984669685,0.14097257820181547
1633780207626009900,8.610009765625,0.038321255087852474,0.007235211950540542,0.09769238553233445
1633780207645888800,8.629888671875,0.008509469670057297,-0.023930910685658453,0.14442257252521812
1633780207665768000,8.649767822265625,0.018776012140512464,0.00851063871383667,0.10147475361526012
1633780207685648000,8.66964794921875,0.028234745359420773,0.018329437416791914,0.06296703604459762
1633780207705526800,8.68952685546875,-0.025793197426199913,0.012024199792742728,0.077948405142501
1633780207725406000,8.709406005859375,-0.03260112387537956,0.018909283131361008,-0.008537672851234674
1633780207745286000,8.729285888671875,0.03788520175814628,0.03676642686128616,-0.08359525192305445
1633780207765163800,8.749163818359374,0.05126373876929283,0.0545195256948471,-0.1270024319730699
1633780207785043000,8.76904296875,0.02140752968788147,0.09935177011191844,-0.1474186125360429
1633780207804922000,8.788922119140626,-0.016381810480356217,0.10197451983094215,-0.13858107995539903
1633780207824802000,8.808802001953126,0.021714988201856612,0.09633505263924598,-0.12546148614138364
1633780207844681000,8.828680908203125,0.06300970614254474,0.0803922180980444,-0.10661511217840015
1633780207864559900,8.848559814453125,0.10079027848243713,0.07584346875250339,-0.08701105171591043
1633780207884440000,8.868440185546875,0.06173018772602081,0.06823766992390155,-0.06057743749432266
1633780207904319000,8.888319091796875,0.06838555396199227,0.05283434908688068,-0.018921850351989268
1633780207924198000,8.908197998046875,0.06837327900230884,0.050987259915471074,-0.001251972822472453
1633780207944077000,8.9280771484375,0.06892857479751109,0.01817278555035591,0.03305953516736627
1633780207963957000,8.94795703125,0.05537643478512764,0.0026017069309949873,0.05820844334065914
1633780207983836000,8.9678359375,-0.004411971223354339,0.021107669958472252,0.09681735626347363
1633780208003715000,8.987715087890624,-0.05942600243687629,0.03777472712099552,0.18780403361208736
1633780208023595000,9.007594970703124,-0.15852818170189856,-0.006220481950044631,0.17961648937277494
1633780208043474000,9.027473876953126,-0.10034078114926814,0.02460018824934959,0.1081735206015408
1633780208063353000,9.04735302734375,-0.02676759541630745,-0.051560675889253615,-0.05555244893915951
1633780208083232000,9.06723193359375,-0.03712766138911247,-0.05982523088753223,-0.1296515582423657
1633780208103112000,9.08711181640625,-0.023854922839999196,-0.07458090147078036,-0.06967150211930274
1633780208122991000,9.1069912109375,0.04300502898991108,-0.07804653175473213,-0.05100099617987871
1633780208142870000,9.1268701171875,0.05527823510766029,-0.021083120039105414,-0.09456453583538532
1633780208162750000,9.14675,0.03877250598669052,0.002267360410094261,-0.011845189964026212
1633780208182628900,9.16662890625,0.06174070912003517,-0.01168166996538639,0.01884469346255064
1633780208202508000,9.186508056640625,0.02590484110713005,-0.030342531293630598,0.053243660540133714
1633780208222387200,9.20638720703125,-0.005299275451898574,-0.057147536110877986,0.07432013164274394
1633780208242267000,9.226266845703124,0.0073632222443819045,0.006181903505325317,0.01404036192074418
1633780208262146000,9.24614599609375,0.01832359219789505,0.04555529799461364,0.05945756661891937
1633780208282025200,9.266025146484376,0.0752899265229702,0.08507248486876487,0.13415953718610107
1633780208301905000,9.28590478515625,0.08231471059322357,0.11616612679064273,0.2236325951013714
1633780208321784000,9.3057841796875,0.030370588344335554,0.07925649206638335,0.18911285118833182
1633780208341663000,9.3256630859375,0.019258242699503898,0.0872065742880106,0.055528994998335836
1633780208361543000,9.34554296875,0.0016185411125421523,0.05467734660506248,-0.09910196006931364
1633780208381422000,9.365422119140625,-0.05243395159244537,0.03976560867726803,-0.19258198860362172
1633780208401301000,9.385301025390625,-0.074775547260046,0.053448681592941284,-0.2031057937707752
1633780208421180000,9.405179931640625,-0.024283377385139464,0.009573884031176566,-0.14304624267071483
1633780208441060000,9.42506005859375,0.041566520619392394,0.02184533658325672,-0.13365399881675838
1633780208460939000,9.44493896484375,0.07335340550243855,0.0017874679386615752,-0.1349982530325651
1633780208480818000,9.46481787109375,0.07614858917891978,-0.006225158125162124,-0.14246486258618532
1633780208500698000,9.484697998046874,0.057223523956537244,-0.02247545118033886,-0.10818864510543644
1633780208520577000,9.504576904296876,0.010349544578790663,0.002542085698246956,-0.11363390489928424
1633780208540456000,9.5244560546875,0.010727730241417884,0.020800795966386794,-0.12830489287376404
1633780208560334800,9.5443349609375,0.03761456812322139,0.026619126856327054,-0.11198591849654913
1633780208580215000,9.564215087890625,0.06077683252394199,0.04037409596443176,-0.0457028167065233
1633780208600094000,9.584093994140625,0.11836217553019523,0.022024784803390502,-0.10661869237497448
1633780208619972900,9.603972900390625,0.087267364564538,0.020348376023769377,-0.05880377888530493
1633780208639853000,9.62385302734375,0.035301030483841894,0.022029460978507994,-0.008021393892168998
1633780208659732200,9.643732177734375,0.012190788531303405,0.020003508108854293,0.03320749227069318
1633780208679611000,9.66361083984375,0.053390229403972624,-0.02096446209549904,0.02414258067496121
1633780208699490000,9.683489990234374,0.059009822851419445,0.002809212201833725,0.0036814649917185304
1633780208719370000,9.703369873046874,-0.09588204817473887,0.03520750698149204,-0.008426248366013168
1633780208739249000,9.723248779296876,-0.17877543543875216,0.042999183771014214,-0.00937448900155723
1633780208759128000,9.743128173828126,-0.09898644393086432,0.06723872201442718,0.031174671268835663
1633780208779008500,9.763008544921876,-0.03196808666884899,0.07757599163353443,0.03754961312822997
1633780208798887700,9.7828876953125,0.009220248287916183,0.07073065578341484,0.038119083579257126
1633780208818766600,9.8027666015625,0.026781623941659925,0.05780804584622383,0.044801776213571426
1633780208838645800,9.822645751953125,0.07901859165728092,0.07387713711559772,0.01588759722262621
1633780208858525400,9.842525390625,0.1031482397854328,0.15196283183693884,-0.056486076527461404
1633780208878404600,9.862404541015625,0.04778407995998859,0.1571411112576723,0.0016232538202777503
1633780208898283800,9.88228369140625,0.13315759360194204,0.1094447095811367,0.01486146904528141
1633780208918163500,9.90216357421875,0.23466449592113495,0.14667758491039276,-0.02814735933691263
1633780208938042600,9.922042724609375,0.12999942183196544,0.1150344924122095,-0.04700630052052438
1633780208957921500,9.941921630859374,0.028964813199639318,0.08695639891922473,-0.03653999769426882
1633780208977800700,9.96180078125,0.04001286143660545,0.07384031223654747,-0.06023198505751788
1633780208997680600,9.9816806640625,0.03202887694537639,0.09864683671295642,-0.08265102987550199
1633780209017559600,10.0015595703125,-0.0608633417636156,0.0846183113604784,-0.0623208470955491
1633780209037438700,10.021438720703125,-0.003867196822166443,0.05815174471735954,-0.01735335892625153
1633780209057318700,10.041318603515625,0.006514496460556984,0.024399697241187093,-0.007752440757676959
1633780209077197600,10.061197509765625,-0.04873334350883961,0.00580488688647747,-0.03281761617027223
1633780209097076700,10.08107666015625,-0.060009939804673194,-0.020442484048008917,-0.02625109726153314
1633780209116955400,10.100955322265625,-0.04007657432258129,-0.03793196350932121,-0.003666925009712577
1633780209136835600,10.120835693359375,-0.018638064974546432,-0.051991468521952626,-0.022482100116834044
1633780209156714800,10.14071484375,-0.00811199478507042,-0.03726210142374038,-0.020985943274945018
1633780209176593700,10.16059375,-0.06747136172652245,-0.038646249258518214,-0.025673589634522796
1633780209196473600,10.1804736328125,-0.05345277324616909,-0.030571663874387738,-0.037101284838840363
1633780209216352800,10.200352783203124,-0.006825462105870247,-0.0248918646723032,-0.016647037287801505
1633780209236231700,10.220231689453126,-0.024337737920880315,0.0023860183537006375,0.029246041293814775
1633780209256111600,10.240111572265626,0.00471475356221199,0.01327507663667202,0.05931954638771712
1633780209275990800,10.25999072265625,0.03469137415289879,0.003547463348507881,0.037610914861410855
1633780209295869700,10.27986962890625,0.03917933322191238,0.03611877660751343,0.00018587796092033385
1633780209315748600,10.29974853515625,-0.008648001357913018,-0.03069499799311161,0.0072655340235680335
1633780209335628500,10.319628662109375,0.06074877547323703,-0.008477320966124535,0.02004420544542372
1633780209355507700,10.3395078125,0.03207096252143383,0.005908931782841682,0.07186689327172935
1633780209375386600,10.35938671875,-0.043672552987933155,0.010794365736842155,0.09482216385826468
1633780209395266600,10.3792666015625,-0.0639922874391079,0.045883799296617504,0.11219356989786028
1633780209415145700,10.399145751953125,-0.015281740283966063,0.02794482250213623,0.0769040837213397
1633780209435024400,10.4190244140625,0.039188685572147365,0.01300268943607807,0.08039864783883094
1633780209454903600,10.438903564453126,0.059169397327303884,0.015362404304742812,0.045760611308366055
1633780209474783700,10.45878369140625,0.015531331130862235,0.02872515922486782,0.038319355391710996
1633780209494662400,10.478662353515626,0.030878537866473196,0.03898001125752926,0.03299626067280769
1633780209514541600,10.49854150390625,0.009772036951780319,0.016496376770734785,0.06437726816870272
1633780209534420700,10.518420654296875,0.04190437427163124,0.05403203443884849,0.08228497304208576
1633780209554300700,10.53830078125,0.2168202116727829,-0.005529577076435089,-0.0384206238090992
1633780209574179600,10.5581796875,0.15369418567419052,-0.01978840405344963,-0.031179712770134208
1633780209594058500,10.57805859375,0.1042728599011898,-0.019644027146697045,-0.023423911011591553
1633780209613938700,10.597938720703125,0.09972703316509723,0.004768529576063156,-0.06239676187597215
1633780209633817600,10.617817626953125,0.0779518392086029,0.02747077524960041,-0.07389284614138304
1633780209653696500,10.637696533203124,0.09325871393382548,0.045267128702998156,-0.03455364618264138
1633780209673576700,10.65757666015625,0.05955459725260734,0.0675514412254095,-0.007444616917520761
1633780209693455600,10.67745556640625,0.08257949900925159,0.0383680168390274,-0.036241964595764876
1633780209713334500,10.69733447265625,0.06425941394269466,0.0174935711145401,0.007188157938420772
1633780209733213700,10.717213623046876,0.05178104064166546,0.005725391909480094,0.035468276809528465
1633780209753093600,10.73709375,-0.021967501658201216,0.022525720062851903,0.03910495281144977
1633780209772972500,10.75697265625,0.03504676346182823,-0.004874328038096428,0.0387784242708236
1633780209792851500,10.7768515625,0.07397475227117538,-0.010749357551336288,0.0675230919137597
1633780209812730600,10.796730712890625,0.07468728445470332,-0.01047697035074234,0.050863122079148886
1633780209832610600,10.816610595703125,0.024998832178115844,-0.018713468298316,0.04697356729470193
1633780209852489500,10.836489501953125,-0.03026712796986103,-0.011669979527592658,0.05045256851688027
1633780209872368600,10.85636865234375,-0.06876198605895043,-0.009757423904538154,0.06488675206080079
1633780209892248300,10.876248291015624,-0.021025252372026442,0.016609774017333982,0.04644625548496842
1633780209912127500,10.89612744140625,-0.0345382294178009,0.01102291379570961,0.028710546177625654
1633780209932006700,10.916006591796876,-0.021160276928544042,0.02181611048877239,0.02799450686275959
1633780209951886300,10.93588623046875,-0.0159597856760025,0.04304126934707164,-0.010932897424697875
1633780209971765500,10.955765625,0.037059856849908826,0.032952421531081195,-0.030481355242431164
1633780209991644400,10.97564453125,0.042027708390355106,0.029371055912971494,-0.03739244980514049
1633780210011523600,10.995523681640625,0.07788929536640643,0.03184299898445606,-0.07153210835941136
1633780210031403500,11.015403564453125,0.05011106160283088,0.05445230567753315,-0.07214885201826692
1633780210051282400,11.035282470703125,0.050638300347328184,0.054237201622128486,-0.0598472965888679
1633780210071161600,11.05516162109375,0.04189385287761688,0.07357084764540195,-0.04230893648453057
1633780210091040300,11.075040283203125,0.0545978516280651,0.09307809666991233,-0.0769325060982257
1633780210110920400,11.09492041015625,0.012923194459080696,0.09640168813467025,-0.07783873422294854
1633780210130799600,11.114799560546874,0.0379325480312109,0.00827273830473423,-0.008910524751618505
1633780210150678300,11.13467822265625,0.08251929325461387,0.01617547425329685,0.011235460567846894
1633780210170558500,11.154558349609376,0.07562427304387093,0.004561608827114105,-0.017825360352173445
1633780210190437600,11.174437744140626,0.07949497699737548,-0.015799626678228377,-0.01847965954244137
1633780210210316500,11.194316650390626,0.0578004470616579,-0.03082008567750454,0.03280548734106123
1633780210230195500,11.214195556640625,0.012427519896626472,-0.0113327103972435,0.0033903000254184006
1633780210250075600,11.23407568359375,-0.01975099465250969,0.018014964640140532,0.006502221500873566
1633780210269954600,11.25395458984375,-0.005776245313882827,0.022498832055926322,0.024583456310257313
1633780210289833500,11.27383349609375,-0.029548750567436218,-0.01147299565076828,0.013638356991112231
1633780210309713700,11.293713623046875,-0.012694061878323554,-0.016985621592402456,-0.02029167740046978
1633780210329592600,11.313592529296875,0.0016126958936452864,-0.02272153489589691,-0.04660531850419938
1633780210349471500,11.333471435546874,0.01793839227259159,-0.04230301820039749,-0.017105156318843365
1633780210369350400,11.353350341796874,0.010466448956727981,-0.03307107947468758,0.010503273835778235
1633780210389230600,11.373230712890624,0.05254734883904457,-0.023537527453899382,0.007986834035441278
1633780210409109500,11.393109619140626,0.08100070538520812,-0.018572598522901534,0.008132672246918082
1633780210428988400,11.412988525390626,0.07799743191599845,-0.021577625557780266,0.017196707059815526
1633780210448868600,11.43286865234375,0.04606032490730285,0.008036006939411163,0.005193403924629092
1633780210468747300,11.452747314453125,0.012585925328731536,0.026177812829613685,0.014110431482270359
1633780210488626400,11.47262646484375,0.011956979775428771,0.055611412584781646,0.021612258479744195
1633780210508505600,11.492505615234375,0.027437457501888272,0.032739071041345595,0.003710179629549384
1633780210528385300,11.51238525390625,0.024013328272104263,0.031017654076218603,0.016348784993588925
1633780210548264400,11.532264404296875,-0.004238368222117424,0.0011176058530807495,0.025906229346618053
1633780210568143600,11.5521435546875,-0.0874853912293911,0.013997545692324637,0.035288901654630896
1633780210588023600,11.5720234375,-0.10094809939265251,0.031157354807853695,-0.00704239279218018
1633780210607902500,11.59190234375,-0.07867898443937302,0.06090951899290085,-0.03439370638057589
1633780210627781400,11.611781494140626,-0.008076923471689224,0.0362245750695467,-0.05430792877078056
1633780210647660500,11.63166064453125,0.050047348716855046,0.07007716031074523,-0.060066930688917636
1633780210667540500,11.65154052734375,0.10915946289896965,0.061355509194731706,-0.056780017972737545
1633780210687419400,11.67141943359375,0.12429974888563156,0.02266191366314888,0.0025020459488034248
1633780210707298600,11.691298583984375,0.17489304104745387,0.004959668233990669,-0.03440802716687322
1633780210727178500,11.711178466796875,0.15630758304297923,0.04549801484942436,-0.034727833705767985
1633780210747057400,11.731057373046875,0.1308241822183132,-0.017760113096237182,-0.003586772445589304
1633780210766939600,11.750939697265625,0.08313421028256415,0.016333879685401915,-0.003986220091953874
1633780210786818800,11.77081884765625,-0.02945756515264511,0.0016389993786811827,-0.04041917721517384
1633780210806698800,11.79069873046875,-0.09866437236964702,-0.005724807387590408,0.0022998744402080774
1633780210826577700,11.81057763671875,-0.033310733449459076,0.013359832310676573,0.015847192147001622
1633780210846456800,11.830456787109375,-0.024971359649300574,0.04147708877027034,0.0076700231712311506
1633780210866335700,11.850335693359375,-0.0315057298541069,0.05261982955336571,0.031642946367710825
1633780210886215700,11.870215576171875,0.051856443965435026,0.0662532181084156,0.0678471362363547
1633780210906094800,11.8900947265625,0.11882862399816513,0.045180034941434855,0.052878991946205496
1633780210925973800,11.909973876953124,0.10397767634689807,0.028342297387123107,0.034653782088868317
1633780210945853700,11.929853759765624,0.03502104449868202,0.006021159985661506,0.018721067082881928
1633780210965732900,11.94973291015625,0.013777765461802483,0.06049626201689243,0.042410058771446345
1633780210985611800,11.96961181640625,0.008265139520168304,0.046406946387887,0.01726115059815347
1633780211005490700,11.98949072265625,0.02833352955877781,0.04932663322687149,0.007853343848884106
1633780211025371000,12.009370849609375,0.012503507742285728,0.06579846007823943,-0.01733385050818324
1633780211045249800,12.029249755859375,0.014777882415056228,0.0742354490339756,0.01626227575391531
1633780211065128700,12.049128662109375,0.03468552893400192,0.060953942656517025,0.020155337669700384
1633780211085008600,12.069008544921875,0.07541150707602501,0.08726035030186176,0.0025319296304136514
1633780211104887800,12.0888876953125,0.09443184936642646,0.09838964708149432,-0.035343554451316594
1633780211124766700,12.1087666015625,0.06617606121897697,0.10282266109287738,-0.05797675347663462
1633780211144645600,12.128645751953124,0.06995733332335949,0.0866699831932783,-0.07437398072183132
1633780211164525800,12.14852587890625,0.07138941195309162,0.08077040376067161,-0.07082206039391457
1633780211184404700,12.16840478515625,0.0016980360895395277,0.11532090813815593,-0.05503427028395235
1633780211204283600,12.18828369140625,-0.027597616499662397,0.1481517491161823,-0.045262963984534145
1633780211224163800,12.208163818359376,-0.021889760246872902,0.1355085406422615,-0.022879867262765762
1633780211244042800,12.228042724609375,0.08418927229344844,0.07088730764985084,0.00623005349598825
1633780211263921700,12.247921630859375,0.10782909107804298,0.05089548997879028,0.03533339838348329
1633780211283800800,12.26780078125,0.14560206463336944,-0.00981295348405838,0.019086904720589517
1633780211303680800,12.2876806640625,0.14191957672834396,-0.03720598732233047,-0.016926219555363057
1633780211323559700,12.3075595703125,0.048233577293157574,-0.036731355547904965,-0.059447995072975754
1633780211343438600,12.3274384765625,-0.06184884566962719,-0.08292728953361511,-0.035576924815773965
1633780211363318800,12.34731884765625,-0.02745733124613762,-0.0304296250551939,-0.025522856052219867
1633780211383197700,12.36719775390625,-0.05325111319422721,-0.00922083280980587,-0.0015581892274320124
1633780211403076600,12.38707666015625,-0.14389350714981555,0.009213234025239945,0.04139554796665907
1633780211422955800,12.406955810546876,-0.16282558663487434,0.03397533483803272,0.055039457915723324
1633780211442835700,12.426835693359376,-0.09704290864765644,0.0628635756701231,0.02321677106693387
1633780211462714600,12.446714599609376,-0.0010234978288412094,0.06286474471390247,-0.016992635855078698
1633780211482593800,12.46659375,0.09321604383587836,0.05102583836019039,0.031627602668106554
1633780211502472700,12.48647265625,0.12522796964645386,0.020567571732401847,0.059992258017510174
1633780211522352600,12.5063525390625,0.11362521013617514,0.052669513913989066,0.07216741058826447
1633780211542231800,12.526231689453125,0.08972294102311133,0.00858078134059906,0.03865735517442226
1633780211562110700,12.54611083984375,0.04838321489691734,-0.03195756527483463,0.007813450229912996
1633780211581990700,12.56599072265625,0.030028643038868902,-0.060819502621889114,-0.040386736250296235
1633780211601869800,12.585869873046875,-0.03232113789021969,-0.045993104889988895,-0.073039224986732
1633780211621748700,12.605748779296874,-0.09127718472778797,-0.027272622328996656,-0.02455481473766267
1633780211641628000,12.6256279296875,-0.10057985060214995,-0.055008770516514774,-0.047838513560965655
1633780211661507800,12.6455078125,-0.06542553511261939,-0.040705519875884055,-0.03367496365197003
1633780211681386800,12.66538671875,-0.03746493051946163,-0.013980594557523726,0.03415449079722166
1633780211701266000,12.685265869140625,-0.056012394601106644,0.021771102303266524,0.023558497176691888
1633780211721145600,12.7051455078125,-0.040865094351768494,0.07789455606341361,-0.035730654072761533
1633780211741024800,12.725024658203125,0.016279519149661064,0.10086685084998608,-0.055648675855249165
1633780211760904000,12.744904052734375,0.07766893061399459,0.09986731841862201,-0.07164221767038106
1633780211780782600,12.764782470703125,0.1121025306135416,0.07227379357218743,-0.045894393755868075
1633780211800662500,12.78466259765625,0.12625322104096412,0.051341480180621145,0.0019718115296214816
1633780211820541700,12.804541748046875,0.14499357734620572,0.02704991948902607,0.029773206973075866
1633780211840420600,12.824420654296874,0.1652887618780136,-0.008553893333673476,0.041515082693099975
1633780211860300500,12.844300537109374,0.10579261681437492,-0.019479191973805425,0.04721314820423722
1633780211880179700,12.8641796875,0.028535774132609364,-0.019404373171925542,0.04063245463967323
1633780211900058600,12.88405859375,0.0023421792119741438,-0.0269178175419569,0.017328005289286373
1633780211919937500,12.9039375,-0.028060557836294173,0.01911386579275131,0.020581746388226747
1633780211939817700,12.923817626953126,-0.08321253621578216,0.022742577683925628,0.05208879141658544
1633780211959696600,12.943696533203125,-0.08981763356924057,0.007052256599068641,0.09635558397062122
1633780211979575600,12.963575439453125,-0.006752396869659423,0.03225391787290573,0.08376710135862231
1633780211999454500,12.983454345703125,0.06128478204607963,-0.005612579184770584,0.039146161604672665
1633780212019334700,13.003334716796875,0.04241115474998951,-0.010033318236470221,0.08453713588304818
1633780212039213600,13.023213623046875,0.029085224708914757,0.004269932404160499,0.07586531525813042
1633780212059092500,13.043092529296874,0.07022153721749783,0.020610826352238654,0.01620287371687591
1633780212078972700,13.06297265625,0.04803133271932602,0.060166591671109194,0.0544256368663162
1633780212098851600,13.0828515625,0.02516249830722809,0.06574176145493983,0.07873875180259346
1633780212118730500,13.10273046875,0.05335165095925331,0.038327684828639026,0.04331109926439822
1633780212138609700,13.122609619140626,0.04843582186698913,0.03890577697753906,0.00015760171450674533
1633780212158489600,13.142489501953126,0.029310850158333776,0.02683715352118015,-0.0013563099797815083
1633780212178368500,13.162368408203125,0.03274140912890434,0.008598316997289657,0.0341385625757277
1633780212198247700,13.18224755859375,0.0453045381039381,0.004525368469953537,0.0415834717541933
1633780212218127600,13.202127685546875,0.05454933631122112,0.011553075149655341,0.04236380847692489
1633780212238006500,13.222006591796875,0.09420154774188995,-0.0224082311630249,0.02773030296862125
1633780212257885700,13.2418857421875,0.1276841306269169,-0.017045827347040174,0.02303768817298114
1633780212277764600,13.2617646484375,0.09215104495286941,-0.025157237610220907,0.02639306301549077
1633780212297644500,13.28164453125,-0.02372983515560627,0.012913257586956023,0.03140665339380502
1633780212317523700,13.301523681640624,-0.07245616440176963,0.059281625530123706,0.01834405046403408
1633780212337402600,13.321402587890624,-0.05591302587985992,0.05437631783187389,0.012435849333554506
1633780212357281800,13.34128173828125,-0.028474399334192275,0.07592530181705952,0.0018920973569154739
1633780212377161500,13.361161376953126,0.0015840543210506439,0.05470131200253963,0.005081467982754111
1633780212397040600,13.38104052734375,0.022594109123945234,0.06714578303396701,0.01096964923851192
1633780212416919800,13.400919921875,0.022279051825404166,0.04841185646951198,0.005291676667332649
1633780212436799500,13.420799560546875,0.026636662513017655,0.05066226574480533,0.006324965237826109
1633780212456678700,13.4406787109375,0.08279927923977375,0.05510170949697494,-0.024389614238590002
1633780212476557800,13.460557861328125,0.10404840349555015,0.030750527572631834,-0.03194156398810446
1633780212496436500,13.4804365234375,0.0644926381766796,0.015515549039840697,-0.007304696990177035
1633780212516316700,13.500316650390625,0.06167173553705215,-0.004652794241905212,-0.062423796013370156
1633780212536195600,13.520195556640624,0.044748657786846155,0.019739304214715956,-0.06999160091914236
1633780212556074500,13.540074462890624,0.05121054727733135,-0.06779284876585007,0.019999197259917854
1633780212575954700,13.55995458984375,0.11379998218119143,-0.06823416279256343,0.052737756844609976
1633780212595833600,13.57983349609375,0.11435001727938651,-0.07569383114874363,0.044476782042905685
1633780212615712800,13.599712646484376,0.021069676035642623,-0.047838440495729447,0.07615998735576868
1633780212635591400,13.61959130859375,-0.06493921290040015,-0.026900281885266303,0.09471453876532614
1633780212655471600,13.6394716796875,-0.0577525162667036,-0.016742460486292837,0.05057027661241591
1633780212675350800,13.659350830078125,-0.06388122828006744,0.015216858354210853,0.013761179653182624
1633780212695229400,13.6792294921875,-0.10002572385072707,0.04683949258625507,0.02454232058227062
1633780212715108600,13.699108642578125,-0.06209376034140587,-0.003798807761073112,0.02005991447120905
1633780212734988800,13.71898876953125,-0.029817630636692044,0.00023497779965400695,-0.00273600083515048
1633780212754867500,13.738867431640625,0.0076245035290718076,0.003112579062581062,-0.05679528860710561
1633780212774743600,13.75874365234375,0.013082184413075446,0.008660276317596435,-0.016184461277350782
1633780212794623500,13.77862353515625,0.06900865429639816,0.020489245799183844,0.011081439049914479
1633780212814502700,13.798502685546875,0.08172609705030917,0.05014321030676364,-0.0008995791882276535
1633780212834381600,13.818381591796875,0.062763037905097,0.03791618141829967,0.0269070038869977
1633780212854260700,13.8382607421875,0.03210954096615314,0.04265373133420944,0.043652752308920025
1633780212874140400,13.858140380859375,0.006786299139261246,0.015056114834547041,0.0727293553199619
1633780212894019600,13.87801953125,-0.026506314131617543,0.03948386912643909,0.12747194918096064
1633780212913898800,13.897898681640624,-0.07250175710916519,0.034247722038626666,0.08434855450838803
1633780212933778400,13.9177783203125,-0.04115034103393554,0.050748190462589264,0.04835369654148817
1633780212953657600,13.93765771484375,-0.02646598212122917,0.04873860420584678,0.04904292091466486
1633780212973536800,13.957536865234376,-0.003908113354444504,0.039622985336184496,-0.03584010579660535
1633780212993415700,13.977415771484376,0.05916647471785545,0.018182137900590895,-0.08903327825851738
1633780213013295600,13.997295654296876,0.04441957196295261,0.03690554307103157,-0.10985877027474343
1633780213033174500,14.017174560546875,0.031983868759870526,0.046747722649574275,-0.12177885210588574
1633780213053053700,14.0370537109375,0.048074587339162825,0.027088497933745383,-0.12835201995112
1633780213072932600,14.0569326171875,0.08355857317447662,0.052743163672089574,-0.10380626530274749
1633780213092812500,14.0768125,0.09658990418314933,0.05839373677968979,-0.09498349189981818
1633780213112691700,14.096691650390625,0.08213818498253822,0.04822890111804008,-0.08099011092595755
1633780213132570600,14.116570556640625,0.07794774755537509,0.08561901283562183,-0.03628748423792422
1633780213152450600,14.136450439453125,0.07630816365480422,0.012721534407138824,0.029104586996510622
1633780213172329700,14.156329833984374,0.13234627721905706,0.026755904978513715,0.06319098099358379
1633780213192208600,14.176208740234374,0.10539163479804992,0.04327332453727722,0.03349120458289981
1633780213212087600,14.196087646484376,-0.05767652842104434,0.04129004176557064,0.04926021692715585
1633780213231967700,14.2159677734375,-0.06840951935946941,0.04444879805743694,0.052572117954120035
1633780213251846700,14.2358466796875,-0.005575169783830642,0.05711304931938648,-0.0017605799317359924
1633780213271725600,14.2557255859375,0.000030979660153388974,0.09428922602534294,-0.0011895020455121993
1633780213291604500,14.2756044921875,-0.028438158977031707,0.08322539569735526,0.034114158786833285
1633780213311484700,14.295484619140625,0.03129705553948879,0.09327274245917797,0.02450863750837743
1633780213331363600,14.315363525390625,0.1302361531972885,0.06363689813017845,-0.002737681335583329
1633780213351242500,14.335242431640625,0.13305705583691596,0.052720951840281485,-0.03875942730940878
1633780213371122700,14.355122802734375,0.16759177812337875,0.05089958163201808,-0.053416167562827466
1633780213391001600,14.375001708984374,0.11894962002933025,0.06313245573937892,-0.05377586772069334
1633780213410880500,14.394880615234374,0.06559855359196662,0.055735915747284884,-0.02381700198240578
1633780213430759700,14.414759765625,0.026979192340373992,0.05224924267530441,-0.0043321109201759096
1633780213450639600,14.4346396484375,0.023187983363866804,0.014842179822921752,0.012073811088129877
1633780213470518500,14.4545185546875,0.023143559700250626,0.012585925328731536,0.010473097893223166
1633780213490397700,14.474397705078125,-0.04312953215241432,0.006768763482570648,-0.0028670068036764857
1633780213510276600,14.494276611328125,-0.08229425232708454,0.0005278232663869858,-0.008234305990487337
1633780213530156500,14.514156494140625,-0.04649287110567093,0.003076338705420494,-0.003134206372499466
1633780213550035700,14.53403564453125,-0.013621698117256163,-0.010748188507556915,-0.026660043388605115
1633780213569914600,14.55391455078125,-0.0036240357160568235,-0.004453472277522087,-0.011658289089798927
1633780213589794600,14.573794677734375,0.021195932763814925,0.007471358793973922,0.000035290509089827534
1633780213609673500,14.593673583984375,0.01115969191789627,0.012550854015350341,0.015692659172415732
1633780213629552600,14.613552734375,0.07375321847498416,0.013761398848891257,0.017016308991611002
1633780213649431800,14.633431884765624,0.03534311605989933,0.010753449204564093,0.06422894573919474
1633780213669311500,14.6533115234375,0.02313888352513313,-0.036276597517728805,0.08961787321344017
1633780213689190700,14.673190673828126,-0.037319969090819353,-0.12363397845327853,0.18757190535664559
1633780213709069800,14.69306982421875,-0.021249124255776405,-0.20541502056121824,0.2503373544145375
1633780213728949500,14.712949462890625,0.07391571556031704,-0.17614333336949348,0.28617928684204813
1633780213748828700,14.73282861328125,0.15552140110135076,-0.23940730653405187,0.27034531950280066
1633780213768707000,14.75270703125,0.16200491790175436,-0.26263737547397614,0.23823358657956123
1633780213788586000,14.7725859375,0.10035305610895157,-0.251395265969634,0.22644334167316554
1633780213808466000,14.7924658203125,0.04411386701464653,-0.1371726744621992,0.34557423655353486
1633780213828345000,14.812344970703125,-0.2956692919820547,0.04031447473168373,0.1798921645089984
1633780213848224000,14.83222412109375,-0.06638122840225696,0.13209025663137436,0.13251235450096427
1633780213868103000,14.85210302734375,0.16684125201702116,0.07270517072677612,0.09225414000116289
1633780213887983000,14.871983154296874,0.1495300517320633,0.22155717706680297,-0.11036598914451896
1633780213907862000,14.891862060546876,0.017783493971824646,0.16300678842067717,-0.18099829911999404
1633780213927741000,14.911740966796875,-0.26924714900255203,0.1699509084701538,-0.15918350380547344
1633780213947621000,14.93162109375,-0.24220132116675375,0.16066753181815147,-0.2933010284807533
1633780213967500000,14.9515,-0.1981055743306875,0.23315876753330228,-0.33495734627544876
1633780213987379200,14.971379150390625,-0.12001228082478045,0.18436580279171466,-0.27627361357323826
1633780214007257900,14.9912578125,0.01858019730746746,0.13080956917107103,-0.25439996421094985
1633780214027138000,15.011137939453125,0.13639175321757793,0.03864566473662853,-0.16170819997750221
1633780214047017200,15.031017333984375,0.15202245306968687,-0.005235562565922737,-0.01632467346563935
1633780214066896000,15.050895751953124,0.07746200986504555,0.054609542065858836,0.052460912664607166
1633780214086776000,15.070776123046874,0.1428460439234972,-0.13023030797839164,-0.061523924564197655
1633780214106655000,15.090655029296874,0.11169453433454037,-0.08535305537581443,-0.1345228175405413
1633780214126534000,15.110533935546876,0.1732452738404274,0.01916764180660248,-0.18878405762538314
1633780214146413000,15.1304130859375,0.16942659233510493,0.1209212123632431,-0.13873166740722953
1633780214166293000,15.15029296875,0.08556757490932941,0.14877718753814698,-0.04896777331922203
1633780214186172000,15.170171875,0.013251695761084556,0.23409809421002864,0.03600234715361148
1633780214206050800,15.19005078125,0.07290507721304892,0.25515841789543625,0.04794562719725072
1633780214225930000,15.209929931640625,0.20555530581474302,0.18745383193492887,0.03773213008828461
1633780214245810000,15.229809814453125,0.2908282816916704,0.14408347676396369,0.020743695484288036
1633780214265688800,15.249688720703125,0.25059271741509437,0.12919570423364637,0.00785546274073422
1633780214285568000,15.269568115234375,0.12725742964744566,0.14793839862644673,-0.021914054437913
1633780214305448000,15.289447998046874,0.07439151637852191,0.08570026137828826,-0.03070175652746111
1633780214325326800,15.309326904296874,0.19031039040982722,-0.11515373487770557,-0.10576832262333481
1633780214345206000,15.3292060546875,0.2568085231900215,-0.21293898632526395,-0.23117044326029718
1633780214365085000,15.3490849609375,0.11389350568354129,-0.21651509124636648,-0.24322584190890192
1633780214384964900,15.36896484375,-0.05538403356969356,-0.12230419115424156,-0.19980244137644768
1633780214404844000,15.388843994140625,-0.29286884760856624,-0.0448690692961216,-0.13984686210751532
1633780214424723000,15.408722900390625,-0.4183803103715181,0.1335468851804733,-0.06365801398344338
1633780214444602000,15.42860205078125,-0.3542524138540029,0.19719255113899706,-0.009247136294841765
1633780214464482000,15.44848193359375,-0.2508995914071798,0.25232348673045635,0.03635119712390005
1633780214484361000,15.46836083984375,-0.2381862403064966,0.2937351090490818,0.05812222636193037
1633780214504240000,15.488240234375,-0.21238135244250297,0.2513648708313703,0.052897623581439256
1633780214524118800,15.508118896484374,-0.1963771431028843,0.15683131465613842,0.06230265385173261
1633780214543999000,15.5279990234375,-0.16183189942240714,0.08418868777155876,0.02347257245890796
1633780214563878100,15.547878173828124,-0.05756605378389358,0.03977320746183395,-0.04838489539735019
1633780214583756800,15.5677568359375,0.016880407652258872,0.0070423197269439694,-0.04518113091997802
1633780214603637000,15.587636962890626,0.018233575826883314,-0.026848259437084198,0.019015739180520175
1633780214623516200,15.60751611328125,-0.0002443301498889923,-0.02003273420333862,0.0445930288337171
1633780214643395000,15.62739501953125,0.04400923759639263,-0.03177987062036991,0.09062712332122028
1633780214663274000,15.64727392578125,0.045046763950586315,-0.06280921513438224,0.10572378936186433
1633780214683154200,15.667154296875,0.01794365296959877,-0.04692307921648025,0.11810805463865398
1633780214703033000,15.687033203125,0.012231705063581465,-0.011782207730412483,0.08575747145824134
1633780214722912000,15.706912109375,-0.03787877201735973,0.0107183778911829,0.07167071311250328
1633780214742792000,15.7267919921875,-0.015544775134325027,0.020443068569898606,0.071794339492172
1633780214762671000,15.746671142578125,-0.035952772390842436,0.0473784217685461,0.0713548520963639
1633780214782551000,15.766551025390624,-0.07420271580815314,0.052498249000310894,0.06504216181822121
1633780214802430200,15.78643017578125,-0.02860182510614395,0.042775896409153934,0.04611088605076075
1633780214822310100,15.80631005859375,0.08465221363008021,0.0195674547791481,0.04054521474763751
1633780214842189000,15.82618896484375,0.14252514140605926,0.011501637223362922,-0.00886493204422295
1633780214862068200,15.846068115234376,0.09861994870603084,-0.01598725820481777,-0.01946604023128748
1633780214881947100,15.865947021484375,0.05909867017865181,0.018516484421491623,-0.02597527599483728
1633780214901827000,15.8858271484375,0.09242226310968399,0.008875380373001097,-0.028077582036331296
1633780214921706200,15.905706298828125,0.08966799596548079,0.011362521013617516,-0.04533814811259508
1633780214941585200,15.925585205078125,-0.006075520521402359,0.008251110994815826,-0.04828121582716703
1633780214961465000,15.945465087890625,-0.014931027150154113,0.02893324901759624,-0.0557940756753087
1633780214981344300,15.96534423828125,-0.00006546645164489745,0.03631634500622749,-0.058666562371701
1633780215001223200,15.98522314453125,0.036003625795245166,-0.01877367405295372,-0.057769540466740724
1633780215021102000,16.00510205078125,0.0629027386367321,-0.021004209583997725,-0.008440788348019123
1633780215040982000,16.02498193359375,0.12174188109636307,-0.02444996612370014,-0.02720109146274626
1633780215060861200,16.044861083984376,0.06297405030727386,-0.028017303216457366,-0.03437880107238889
1633780215080740000,16.064739990234376,0.002391279050707817,-0.0008732757031917572,-0.021047025812417266
1633780215100619000,16.084618896484375,0.007815057665109634,0.022359715846180916,0.013959990160912275
1633780215120499200,16.104499267578124,-0.006485854887962341,0.0031318682849407193,-0.03408865901939571
1633780215140378000,16.124378173828124,0.02251461414694786,0.05105681802034378,-0.04156352494470775
1633780215160257000,16.144257080078123,0.04458732974529266,0.0169663323700428,-0.011979264672473072
1633780215180137200,16.16413720703125,0.10225625938177108,0.04281798198521137,-0.0357337958779186
1633780215200016100,16.18401611328125,0.12971066801846026,0.08336042025387287,-0.06308211379162967
1633780215219895000,16.20389501953125,0.1616074430167675,0.07405190916061401,0.002560936529189348
1633780215239774200,16.223774169921874,0.22867665368318557,0.05828676927387714,0.07176708615906537
1633780215259654100,16.243654052734374,0.1930126351058483,0.08781096992194652,0.07559840795025229
1633780215279533000,16.263532958984374,0.11440145520567893,0.06744856537282466,0.07487111658900976
1633780215299412000,16.283411865234374,0.06599310586750506,0.05418751726150512,0.113952323198691
1633780215319291100,16.303291015625,0.05300444495677948,0.017648469415307046,0.06692512602061033
1633780215339171000,16.323171142578126,0.05253682744503021,0.013213117316365241,0.03900412278547883
1633780215359050000,16.343050048828125,-0.024242460852861403,0.006296469795703887,0.028587431254610416
1633780215378929200,16.36292919921875,0.05581307263672351,-0.009703063368797301,0.03380655414238572
1633780215398809000,16.38280908203125,-0.14921440991163254,-0.017744331005215642,0.0016000556077808141
1633780215418688000,16.40268798828125,-0.09730418993234634,0.0008165770798921585,-0.007675137737765908
1633780215438567200,16.422567138671877,-0.034545828202366825,-0.033915129083395,-0.016247808837145567
1633780215458446000,16.442446044921876,-0.05070025966763496,-0.022023615759611127,-0.0014629121594130993
1633780215478326000,16.462325927734376,-0.02856266213953495,0.02888590274453163,-0.007613543743640184
1633780215498205200,16.482205078125,0.02717266908586025,0.032383097210526464,-0.012276201792433857
1633780215518084000,16.502083984375,0.00009819967746734619,0.0376402870863676,-0.025440292335301637
1633780215537963300,16.52196337890625,-0.035737083813548086,0.0780997232466936,0.012947817443683743
