time,seconds_elapsed,z,y,x
1634126128895458600,0.01245849609375,17.387939453125,-4.445695877075195,86.00321960449219
1634126128915337200,0.032337158203125,17.76129150390625,-4.370048522949219,85.92120361328125
1634126128935216400,0.05221630859375,18.426177978515625,-3.501466751098633,85.52213287353516
1634126128955095600,0.072095458984375,19.28173828125,-3.198596954345703,85.45008850097656
1634126128974974500,0.091974365234375,19.38543701171875,-2.871427536010742,85.5672607421875
1634126128994854400,0.1118544921875,19.625762939453125,-2.5060977935791016,85.38338470458984
1634126129014733300,0.1317333984375,19.540191650390625,-2.3748779296875,85.28407287597656
1634126129034612500,0.151612548828125,19.027435302734375,-1.7962379455566406,85.19454956054688
1634126129054491400,0.171491455078125,18.24273681640625,-1.672027587890625,85.46031188964844
1634126129074370300,0.191370361328125,18.394317626953125,-1.8350086212158203,85.63421630859375
1634126129094250500,0.21125048828125,18.15496826171875,-1.7166919708251953,85.61283874511719
1634126129114129400,0.23112939453125,18.3392333984375,-1.9983806610107422,85.31615447998047
1634126129134008300,0.25100830078125,18.44659423828125,-2.2505359649658203,85.60596466064453
1634126129153887500,0.270887451171875,18.414398193359375,-2.2267513275146484,85.3230972290039
1634126129173766400,0.290766357421875,18.763153076171875,-2.5905017852783203,85.6153793334961
1634126129193646300,0.310646240234375,17.8773193359375,-2.720083236694336,85.82107543945312
1634126129213525200,0.330525146484375,17.845794677734375,-2.767019271850586,85.81265258789062
1634126129233404400,0.350404296875,17.876220703125,-2.6780128479003906,85.94731140136719
1634126129253283300,0.370283447265625,17.988250732421875,-2.585977554321289,86.28054809570312
1634126129273162200,0.390162353515625,18.51409912109375,-2.8420467376708984,86.33673858642578
1634126129293042400,0.41004248046875,17.95526123046875,-2.5418033599853516,86.05471801757812
1634126129312921300,0.42992138671875,18.031097412109375,-2.7675094604492188,86.28900146484375
1634126129332800500,0.449800537109375,18.56011962890625,-2.559814453125,86.4826431274414
1634126129352679200,0.46967919921875,17.8736572265625,-2.6445999145507812,86.43898010253906
1634126129372558300,0.489558349609375,17.767974853515625,-2.5896453857421875,86.49520111083984
1634126129392438500,0.5094384765625,18.021484375,-2.4122371673583984,86.54764556884766
1634126129412317200,0.529317138671875,17.9114990234375,-2.4272403717041016,86.50477600097656
1634126129432196400,0.5491962890625,17.727020263671875,-2.3895320892333984,86.50688934326172
1634126129452075300,0.5690751953125,17.5704345703125,-2.025876998901367,86.77457427978516
1634126129471954400,0.588954345703125,17.249481201171875,-1.6938514709472656,86.58480072021484
1634126129491834400,0.60883447265625,17.04730224609375,-1.3956031799316406,86.8138198852539
1634126129511713300,0.62871337890625,16.9803466796875,-0.8462028503417969,87.04226684570312
1634126129531592400,0.648592529296875,17.140472412109375,-0.34449195861816406,86.952392578125
1634126129551471400,0.668471435546875,16.653228759765625,0.4362773895263672,86.90605163574219
1634126129571350300,0.688350341796875,16.17315673828125,0.8853588104248047,87.12440490722656
1634126129591230500,0.70823046875,15.764404296875,1.7549419403076172,87.46595764160156
1634126129611109400,0.728109375,15.357421875,2.160066604614258,87.41704559326172
1634126129630988300,0.74798828125,14.578521728515625,2.8400115966796875,87.63726806640625
1634126129650867200,0.7678671875,14.025482177734375,3.5782508850097656,87.58720397949219
1634126129670746400,0.787746337890625,13.235198974609375,4.47064208984375,87.54837036132812
1634126129690626300,0.807626220703125,12.356292724609375,5.279394149780273,87.6495361328125
1634126129710505200,0.827505126953125,11.176910400390625,5.514032363891602,87.91682434082031
1634126129730384400,0.84738427734375,10.256683349609375,6.2878265380859375,87.95428466796875
1634126129750263600,0.867263671875,9.880401611328125,6.560052871704102,88.03752899169922
1634126129770143200,0.887143310546875,9.039031982421875,7.5966339111328125,88.246337890625
1634126129790022400,0.9070224609375,8.80743408203125,7.943548202514648,87.9849624633789
1634126129809901300,0.9269013671875,8.451171875,8.255496978759766,88.23419189453125
1634126129829780200,0.9467802734375,7.72796630859375,8.950752258300781,88.09701538085938
1634126129849659400,0.966659423828125,7.36627197265625,9.773893356323242,87.94603729248047
1634126129869538300,0.986538330078125,6.410003662109375,10.553454399108887,88.04107666015625
1634126129889418200,1.006418212890625,5.529266357421875,11.299234390258789,88.09247589111328
1634126129909297200,1.026297119140625,4.813751220703125,11.771602630615234,88.19223022460938
1634126129929176300,1.04617626953125,4.1456298828125,12.498377799987793,87.90349578857422
1634126129949055500,1.066055419921875,3.724945068359375,13.159807205200195,88.05354309082031
1634126129968934400,1.085934326171875,2.7764892578125,13.814489364624023,87.95455932617188
1634126129988814300,1.105814453125,2.562255859375,14.781475067138672,87.83145141601562
1634126130008693500,1.125693603515625,1.752685546875,15.587735176086426,87.89466094970703
1634126130028572400,1.145572509765625,1.029510498046875,15.73458194732666,87.89920806884766
1634126130048451300,1.165451416015625,0.227447509765625,16.238428115844727,87.97264099121094
1634126130068330200,1.185330322265625,-1.05645751953125,16.81874656677246,87.8315200805664
1634126130088210400,1.20521044921875,-2.197265625,17.428056716918945,87.63237762451172
1634126130108089300,1.22508935546875,-3.05694580078125,18.368762969970703,87.58187866210938
1634126130127968300,1.24496826171875,-2.753662109375,19.310897827148438,87.39344787597656
1634126130147847400,1.264847412109375,-2.100860595703125,20.300708770751953,86.99116516113281
1634126130167727000,1.28472705078125,-1.34375,21.33234214782715,86.51879119873047
1634126130187606300,1.304606201171875,-0.52911376953125,22.61859893798828,86.39193725585938
1634126130207484700,1.324484619140625,-0.791351318359375,23.374250411987305,85.98986053466797
1634126130227363600,1.344363525390625,-1.098876953125,24.249353408813477,85.56558227539062
1634126130247242800,1.36424267578125,-2.196380615234375,25.321680068969727,85.17062377929688
1634126130267122700,1.384122802734375,-3.73199462890625,26.116884231567383,84.94575500488281
1634126130287001600,1.404001708984375,-4.67083740234375,27.08018684387207,84.88226318359375
1634126130306880800,1.423880859375,-5.97125244140625,27.760921478271484,84.11316680908203
1634126130326759700,1.443759765625,-6.679901123046875,28.480175018310547,83.48248291015625
1634126130346638600,1.463638671875,-7.524505615234375,29.287822723388672,83.1097412109375
1634126130366518800,1.483518798828125,-8.162384033203125,29.876102447509766,82.56478881835938
1634126130386397700,1.503397705078125,-8.6790771484375,30.72799301147461,82.08090209960938
1634126130406276600,1.523276611328125,-10.011993408203125,31.485950469970703,81.40258026123047
1634126130426155500,1.543155517578125,-10.42999267578125,32.37149429321289,80.77731323242188
1634126130446034700,1.56303466796875,-10.941314697265625,33.096038818359375,80.15033721923828
1634126130465914600,1.58291455078125,-11.650299072265625,33.75611877441406,79.57270812988281
1634126130485793500,1.60279345703125,-12.4095458984375,34.7242317199707,78.98793029785156
1634126130505672700,1.622672607421875,-13.779541015625,35.49197769165039,78.40167999267578
1634126130525551600,1.642551513671875,-14.83587646484375,36.01817321777344,77.57117462158203
1634126130545430800,1.6624306640625,-16.129974365234375,37.296058654785156,76.73241424560547
1634126130565310700,1.682310791015625,-17.573974609375,38.49083709716797,75.55221557617188
1634126130585189600,1.702189697265625,-19.07623291015625,39.67111587524414,74.7099609375
1634126130605068800,1.72206884765625,-19.735076904296875,41.091552734375,73.70821380615234
1634126130624947700,1.74194775390625,-20.009368896484375,41.84526062011719,72.55264282226562
1634126130644826600,1.76182666015625,-20.341888427734375,42.81439971923828,71.28570556640625
1634126130664706800,1.781706787109375,-20.007720947265625,43.92206573486328,70.60075378417969
1634126130684585500,1.80158544921875,-19.407958984375,45.00282287597656,69.93511962890625
1634126130704464600,1.821464599609375,-17.85430908203125,45.94554138183594,69.21508026123047
1634126130724343800,1.84134375,-17.3067626953125,46.54039764404297,68.28766632080078
1634126130744222700,1.86122265625,-17.51092529296875,47.46604537963867,67.48506164550781
1634126130764102700,1.8811025390625,-18.49652099609375,48.76576614379883,65.89557647705078
1634126130783981600,1.900981689453125,-18.46099853515625,50.09253692626953,64.68170166015625
1634126130803860700,1.92086083984375,-19.097686767578125,51.19023132324219,63.32316589355469
1634126130823739600,1.94073974609375,-19.029052734375,52.490291595458984,62.23440170288086
1634126130843618600,1.96061865234375,-18.180511474609375,53.12111282348633,61.06929016113281
1634126130863498800,1.980498779296875,-17.4736328125,53.786590576171875,60.258487701416016
1634126130883377700,2.000377685546875,-16.97015380859375,54.20105743408203,60.079376220703125
1634126130903256600,2.020256591796875,-15.716522216796875,54.768550872802734,59.543853759765625
1634126130923135700,2.0401357421875,-15.79278564453125,55.47581481933594,58.659690856933594
1634126130943014700,2.0600146484375,-15.87188720703125,56.21502685546875,57.48541259765625
1634126130962894600,2.07989453125,-16.56658935546875,56.816898345947266,56.63670349121094
1634126130982773800,2.099773681640625,-17.027923583984375,57.73176956176758,55.484375
1634126131002652700,2.119652587890625,-17.5548095703125,58.665557861328125,53.83765411376953
1634126131022531800,2.13953173828125,-17.782470703125,59.53789520263672,52.67093276977539
1634126131042410500,2.159410400390625,-16.8741455078125,60.41857147216797,51.26019287109375
1634126131062290700,2.179290771484375,-16.295623779296875,60.83349609375,50.225746154785156
1634126131082169900,2.199169921875,-16.2635498046875,61.48094177246094,49.18050003051758
1634126131102048500,2.219048583984375,-15.985626220703125,62.35027313232422,47.67554473876953
1634126131121927700,2.238927734375,-16.063568115234375,63.22196960449219,46.247764587402344
1634126131141806600,2.258806640625,-16.8367919921875,64.0818862915039,44.643043518066406
1634126131161686800,2.278686767578125,-17.576629638671875,64.88204193115234,42.7589111328125
1634126131181565700,2.298565673828125,-18.56329345703125,65.45829010009766,41.36883544921875
1634126131201444600,2.318444580078125,-19.389678955078125,66.36406707763672,39.392642974853516
1634126131221323800,2.33832373046875,-19.555511474609375,66.99854278564453,37.652320861816406
1634126131241203000,2.358202880859375,-19.93499755859375,67.14358520507812,36.65630340576172
1634126131261083000,2.378082763671875,-20.64044189453125,67.84130859375,35.15015411376953
1634126131280961800,2.3979619140625,-20.784088134765625,68.1469955444336,33.746910095214844
1634126131300841000,2.417841064453125,-20.807220458984375,68.51956176757812,32.72725296020508
1634126131320719600,2.4377197265625,-20.554595947265625,68.51836395263672,31.801958084106445
1634126131340598800,2.457598876953125,-20.75042724609375,69.0430908203125,30.96261978149414
1634126131360479000,2.47747900390625,-21.49969482421875,69.44769287109375,29.938575744628906
1634126131380357600,2.497357666015625,-22.36614990234375,69.52374267578125,28.679710388183594
1634126131400236800,2.51723681640625,-23.332366943359375,69.59332275390625,27.272441864013672
1634126131420115700,2.53711572265625,-24.09600830078125,69.72499084472656,25.977420806884766
1634126131439995000,2.556994873046875,-24.441436767578125,69.85579681396484,24.70581817626953
1634126131459874800,2.576874755859375,-24.427459716796875,70.06975555419922,24.027362823486328
1634126131479753700,2.596753662109375,-24.491058349609375,70.45098876953125,23.557937622070312
1634126131499633000,2.6166328125,-23.692169189453125,70.7016830444336,23.166725158691406
1634126131519511800,2.63651171875,-23.229156494140625,70.94309997558594,23.315689086914062
1634126131539390700,2.656390625,-22.997650146484375,71.2299575805664,23.152873992919922
1634126131559271000,2.67627099609375,-22.7493896484375,70.9846420288086,22.680099487304688
1634126131579149800,2.69614990234375,-22.868560791015625,71.277099609375,22.180946350097656
1634126131599028700,2.71602880859375,-23.164276123046875,71.46381378173828,21.698871612548828
1634126131618907600,2.73590771484375,-22.78118896484375,71.5169448852539,21.38534927368164
1634126131638786800,2.755786865234375,-23.280609130859375,71.59282684326172,21.359886169433594
1634126131658666000,2.775666015625,-23.617767333984375,71.55464172363281,21.356830596923828
1634126131678545700,2.795545654296875,-24.047119140625,71.62724304199219,21.03692626953125
1634126131698424800,2.8154248046875,-23.972625732421875,71.67793273925781,21.110549926757812
1634126131718303700,2.8353037109375,-24.040557861328125,71.66490173339844,21.491741180419922
1634126131738182700,2.8551826171875,-23.759490966796875,71.55265808105469,22.152725219726562
1634126131758062800,2.875062744140625,-22.71600341796875,71.42411804199219,23.101696014404297
1634126131777941800,2.894941650390625,-22.029693603515625,71.52450561523438,23.91595458984375
1634126131797821000,2.914821044921875,-20.962310791015625,71.49488830566406,24.81011199951172
1634126131817699800,2.934699951171875,-20.195556640625,71.7515869140625,25.153331756591797
1634126131837578800,2.954578857421875,-19.98553466796875,72.23542785644531,25.421802520751953
1634126131857458000,2.9744580078125,-19.586334228515625,72.09768676757812,24.976665496826172
1634126131877337600,2.994337646484375,-19.76092529296875,72.12969970703125,24.685070037841797
1634126131897216800,3.014216796875,-20.551239013671875,72.02857971191406,24.350738525390625
1634126131917096000,3.034095947265625,-20.949127197265625,71.92789459228516,24.34539794921875
1634126131936974800,3.053974853515625,-21.589508056640625,72.26283264160156,24.249008178710938
1634126131956853800,3.073853759765625,-20.863006591796875,72.18709564208984,24.52505874633789
1634126131976733700,3.093733642578125,-21.29888916015625,71.73120880126953,24.86827850341797
1634126131996612900,3.11361279296875,-21.437255859375,71.5831069946289,25.41469955444336
1634126132016491800,3.13349169921875,-21.461151123046875,71.16934967041016,26.176227569580078
1634126132036370700,3.15337060546875,-21.2625732421875,71.05736541748047,26.85252571105957
1634126132056249900,3.173249755859375,-21.3758544921875,71.13327026367188,27.501426696777344
1634126132076129800,3.1931298828125,-21.3509521484375,70.71442413330078,28.30812644958496
1634126132096008700,3.2130087890625,-21.076568603515625,70.68473815917969,28.796247482299805
1634126132115887900,3.232887939453125,-21.227630615234375,70.54901123046875,28.797624588012695
1634126132135766800,3.252766845703125,-21.657867431640625,70.53031158447266,28.722681045532227
1634126132155646000,3.27264599609375,-22.033050537109375,70.65887451171875,28.14967155456543
1634126132175526000,3.29252587890625,-22.144775390625,70.77488708496094,27.986074447631836
1634126132195404800,3.31240478515625,-21.597259521484375,71.08434295654297,27.51376724243164
1634126132215283500,3.332283447265625,-21.5797119140625,71.1700210571289,27.48288345336914
1634126132235162600,3.35216259765625,-21.742523193359375,71.42074584960938,27.358806610107422
1634126132255042600,3.37204248046875,-21.6182861328125,71.25642395019531,27.27548599243164
1634126132274921500,3.39192138671875,-21.5098876953125,71.34059143066406,27.23121452331543
1634126132294800600,3.411800537109375,-22.600067138671875,71.20226287841797,26.83476448059082
1634126132314679300,3.43167919921875,-23.129669189453125,70.9770736694336,26.518516540527344
1634126132334558500,3.451558349609375,-23.389129638671875,71.36711120605469,26.3248233795166
1634126132354437400,3.471437255859375,-23.276275634765625,71.2905044555664,26.25040054321289
1634126132374317300,3.4913173828125,-23.8284912109375,71.00271606445312,26.508142471313477
1634126132394196500,3.511196533203125,-23.81817626953125,70.76296997070312,27.174274444580078
1634126132414075400,3.531075439453125,-24.35205078125,70.35060119628906,28.266586303710938
1634126132433954600,3.55095458984375,-24.2723388671875,69.90959167480469,29.234167098999023
1634126132453834500,3.57083447265625,-24.453887939453125,69.49303436279297,30.471744537353516
1634126132473713400,3.59071337890625,-24.50830078125,69.20487976074219,30.919408798217773
1634126132493592600,3.610592529296875,-24.53192138671875,68.88866424560547,31.680004119873047
1634126132513471500,3.630471435546875,-24.90966796875,68.6592788696289,32.07042694091797
1634126132533350400,3.650350341796875,-24.527252197265625,68.75595092773438,32.11967468261719
1634126132553230600,3.670230712890625,-24.642913818359375,69.03612518310547,32.44110107421875
1634126132573109500,3.690109619140625,-24.159637451171875,68.92417907714844,32.59191131591797
1634126132592988400,3.709988525390625,-23.1309814453125,68.92253112792969,33.03285217285156
1634126132612867300,3.729867431640625,-22.336944580078125,69.08808898925781,33.022010803222656
1634126132632746500,3.74974658203125,-22.035064697265625,69.19682312011719,33.19256591796875
1634126132652626400,3.76962646484375,-21.74273681640625,69.38672637939453,32.630531311035156
1634126132672505300,3.78950537109375,-22.208831787109375,69.55547332763672,32.042850494384766
1634126132692384500,3.809384521484375,-21.72119140625,70.00900268554688,31.424448013305664
1634126132712263400,3.829263427734375,-22.298309326171875,70.28884887695312,30.542686462402344
1634126132732142300,3.849142333984375,-22.6282958984375,70.87274932861328,29.39834976196289
1634126132752022500,3.8690224609375,-23.01922607421875,71.07514190673828,28.417869567871094
1634126132771901400,3.8889013671875,-23.549896240234375,71.32788848876953,27.100404739379883
1634126132791780400,3.9087802734375,-23.291412353515625,71.76429748535156,26.081085205078125
1634126132811659500,3.928659423828125,-23.102203369140625,72.0394058227539,25.09424591064453
1634126132831538400,3.948538330078125,-23.074493408203125,72.28401947021484,25.11276626586914
1634126132851418400,3.96841845703125,-22.28021240234375,72.18314361572266,25.380512237548828
1634126132871297300,3.98829736328125,-22.69403076171875,72.1203842163086,25.936447143554688
1634126132891176400,4.008176513671875,-24.046051025390625,71.50310516357422,26.001461029052734
1634126132911055600,4.0280556640625,-25.59356689453125,71.45390319824219,25.41213607788086
1634126132930934500,4.0479345703125,-26.636810302734375,71.29119110107422,24.561424255371094
1634126132950814500,4.067814453125,-27.618896484375,71.13014221191406,23.815872192382812
1634126132970693400,4.087693359375,-27.187744140625,71.64048767089844,23.45003890991211
1634126132990572500,4.107572509765625,-27.5399169921875,71.50958251953125,23.372703552246094
1634126133010451500,4.127451416015625,-26.971893310546875,71.39178466796875,23.55432891845703
1634126133030330400,4.147330322265625,-26.979461669921875,71.77924346923828,23.761188507080078
1634126133050210600,4.16721044921875,-26.29205322265625,72.10506439208984,23.534992218017578
1634126133070089500,4.18708935546875,-26.216552734375,72.31863403320312,23.19628143310547
1634126133089968400,4.206968505859375,-25.846588134765625,72.80181121826172,22.140426635742188
1634126133109847600,4.22684765625,-25.866546630859375,73.17891693115234,21.49120330810547
1634126133129726500,4.2467265625,-26.187774658203125,73.38414764404297,20.59177017211914
1634126133149606400,4.2666064453125,-26.305755615234375,73.36083984375,19.97170639038086
1634126133169485600,4.286485595703125,-26.64288330078125,73.58089447021484,18.813819885253906
1634126133189364500,4.306364501953125,-27.3302001953125,73.65216064453125,17.86343765258789
1634126133209244700,4.32624462890625,-27.606201171875,73.72265625,16.80811309814453
1634126133229123800,4.346123779296875,-27.48974609375,73.93594360351562,15.896835327148438
1634126133249003800,4.366003662109375,-26.96075439453125,74.36863708496094,14.847766876220703
1634126133268882700,4.385882568359375,-26.34063720703125,74.66556549072266,14.012916564941406
1634126133288761900,4.405761962890625,-26.202545166015625,74.81690216064453,13.294898986816406
1634126133308641000,4.42564111328125,-26.532073974609375,74.78096008300781,12.897598266601562
1634126133328520000,4.44552001953125,-26.66278076171875,74.84114837646484,11.869327545166016
1634126133348399900,4.46539990234375,-27.303192138671875,74.80453491210938,10.634971618652344
1634126133368278800,4.48527880859375,-27.761810302734375,74.65304565429688,9.446422576904297
1634126133388158000,4.505157958984375,-27.79931640625,74.6034927368164,8.189517974853516
1634126133408036900,4.525036865234375,-29.348175048828125,74.42582702636719,7.257076263427734
1634126133427916800,4.544916748046875,-29.375701904296875,74.32382202148438,6.769126892089844
1634126133447796000,4.5647958984375,-30.13201904296875,74.11712646484375,6.456653594970703
1634126133467674600,4.584674560546875,-30.090362548828125,74.05943298339844,6.692665100097656
1634126133487553800,4.6045537109375,-29.87255859375,73.94407653808594,7.008148193359375
1634126133507433000,4.624432861328125,-29.990997314453125,73.63975524902344,7.008052825927734
1634126133527312600,4.644312744140625,-30.069244384765625,73.52877044677734,7.446094512939453
1634126133547191800,4.66419189453125,-30.410736083984375,73.429931640625,7.930198669433594
1634126133567070700,4.68407080078125,-29.695404052734375,73.43795776367188,8.351211547851562
1634126133586950000,4.703949951171875,-28.78900146484375,73.7275619506836,9.258487701416016
1634126133606828800,4.723828857421875,-28.1256103515625,73.52536010742188,10.341102600097656
1634126133626708700,4.743708740234375,-27.246490478515625,73.4242172241211,11.475883483886719
1634126133646588000,4.763587890625,-27.76171875,73.43107604980469,12.383087158203125
1634126133666467000,4.783467041015625,-28.248443603515625,73.28446197509766,12.288589477539062
1634126133686345700,4.803345703125,-28.61248779296875,73.1392822265625,11.42559814453125
1634126133706226000,4.823225830078125,-27.837432861328125,73.50108337402344,10.107131958007812
1634126133726104800,4.843104736328125,-26.6693115234375,73.53234100341797,9.103919982910156
1634126133745983700,4.862983642578125,-26.05865478515625,74.19672393798828,7.920978546142578
1634126133765863000,4.88286279296875,-25.21466064453125,74.46397399902344,6.917808532714844
1634126133785741800,4.902741943359375,-24.820709228515625,74.29017639160156,6.083866119384766
1634126133805621800,4.922621826171875,-24.259002685546875,74.49751281738281,6.203845977783203
1634126133825500700,4.942500732421875,-24.107574462890625,74.2321548461914,6.458854675292969
1634126133845379800,4.9623798828125,-23.608123779296875,74.29462432861328,7.915447235107422
1634126133865259000,4.982259033203125,-23.04766845703125,74.33906555175781,9.190185546875
1634126133885138000,5.002137939453125,-22.61248779296875,74.05996704101562,10.314311981201172
1634126133905017900,5.022017822265625,-21.914459228515625,74.19644927978516,11.820419311523438
1634126133924897000,5.04189697265625,-21.471405029296875,73.88668060302734,13.513694763183594
1634126133944776000,5.06177587890625,-21.47100830078125,73.71135711669922,15.126899719238281
1634126133964654800,5.08165478515625,-21.126068115234375,73.1465072631836,17.256450653076172
1634126133984533800,5.10153369140625,-21.858795166015625,72.73857879638672,19.19710922241211
1634126134004414000,5.1214140625,-21.658782958984375,72.18132019042969,20.955448150634766
1634126134024292900,5.14129296875,-21.1573486328125,72.02640533447266,22.379066467285156
1634126134044171800,5.161171875,-20.83660888671875,71.92890930175781,23.308406829833984
1634126134064051000,5.181051025390625,-20.135894775390625,71.88676452636719,24.191112518310547
1634126134083930600,5.2009306640625,-20.08544921875,71.93803405761719,23.897415161132812
1634126134103809800,5.220809814453125,-21.006805419921875,71.90242004394531,23.649658203125
1634126134123689000,5.24068896484375,-22.200836181640625,71.41793823242188,23.98676300048828
1634126134143568000,5.26056787109375,-22.99505615234375,70.9688720703125,24.136005401611328
1634126134163446800,5.28044677734375,-23.116058349609375,70.86580657958984,24.02405548095703
1634126134183326700,5.30032666015625,-23.41571044921875,70.92924499511719,23.876243591308594
1634126134203206000,5.320205810546875,-24.1427001953125,70.68231201171875,23.887710571289062
1634126134223083300,5.340083251953125,-23.91204833984375,70.77094268798828,23.87976837158203
1634126134242962400,5.35996240234375,-23.704254150390625,70.7180404663086,24.3114013671875
1634126134262841300,5.37984130859375,-23.619476318359375,70.48188018798828,24.65057373046875
1634126134282721300,5.39972119140625,-23.487548828125,70.5062255859375,24.79050064086914
1634126134302600400,5.419600341796875,-23.26611328125,70.6532211303711,24.690155029296875
1634126134322479400,5.439479248046875,-23.07012939453125,70.39138793945312,24.41278839111328
1634126134342358300,5.459358154296875,-23.679168701171875,70.18340301513672,24.14806365966797
1634126134362238500,5.479238525390625,-24.382904052734375,70.50702667236328,23.685993194580078
1634126134382117400,5.499117431640625,-24.7647705078125,70.48143005371094,22.865375518798828
1634126134401996300,5.518996337890625,-25.64007568359375,70.46817779541016,22.575416564941406
1634126134421875200,5.538875244140625,-26.04290771484375,70.69932556152344,22.166812896728516
1634126134441754400,5.55875439453125,-26.064910888671875,70.62576293945312,22.019119262695312
1634126134461634300,5.57863427734375,-26.227081298828125,70.59896850585938,21.93990707397461
1634126134481513200,5.59851318359375,-26.026519775390625,70.58116912841797,21.783554077148438
1634126134501392400,5.618392333984375,-26.0517578125,70.54592895507812,22.002513885498047
1634126134521271300,5.638271240234375,-26.09039306640625,70.684326171875,22.689037322998047
1634126134541150200,5.658150146484375,-26.14825439453125,70.19501495361328,23.175334930419922
1634126134561030400,5.678030517578125,-26.22467041015625,70.26187896728516,23.299346923828125
1634126134580909300,5.697909423828125,-26.077880859375,70.32333374023438,23.183265686035156
1634126134600788500,5.71778857421875,-26.137420654296875,70.45182800292969,23.456180572509766
1634126134620667400,5.73766748046875,-26.099578857421875,70.45414733886719,23.29303741455078
1634126134640547300,5.75754736328125,-26.205291748046875,70.41465759277344,23.301300048828125
1634126134660426500,5.777426513671875,-26.05096435546875,70.52520751953125,23.601383209228516
1634126134680305200,5.79730517578125,-25.5521240234375,70.7071533203125,23.814228057861328
1634126134700184300,5.817184326171875,-25.36932373046875,70.56436920166016,23.791397094726562
1634126134720063500,5.8370634765625,-25.42608642578125,70.46822357177734,23.887550354003906
1634126134739943200,5.856943115234375,-25.1578369140625,70.4455337524414,23.809158325195312
1634126134759822300,5.876822265625,-25.256927490234375,70.56016540527344,23.52520751953125
1634126134779701200,5.896701171875,-25.44464111328125,70.74446868896484,23.554149627685547
1634126134799580400,5.916580322265625,-25.646270751953125,70.51248931884766,23.80478286743164
1634126134819459300,5.936459228515625,-25.181060791015625,70.26399993896484,24.06024169921875
1634126134839339300,5.95633935546875,-25.632354736328125,70.37047576904297,23.974777221679688
1634126134859218400,5.976218505859375,-25.453857421875,70.35836791992188,23.866008758544922
1634126134879097300,5.996097412109375,-25.0711669921875,70.54405212402344,23.989212036132812
1634126134898976300,6.015976318359375,-25.076080322265625,70.87592315673828,24.073623657226562
1634126134918856400,6.0358564453125,-24.90509033203125,70.556640625,24.134376525878906
1634126134938735400,6.0557353515625,-25.115142822265625,70.86188507080078,24.064517974853516
1634126134958614300,6.0756142578125,-25.06915283203125,70.75325012207031,24.19045639038086
1634126134978493400,6.095493408203125,-25.0675048828125,70.419677734375,24.174278259277344
1634126134998372400,6.115372314453125,-24.614501953125,70.57478332519531,23.98711395263672
1634126135018252300,6.135252197265625,-24.747314453125,70.98050689697266,23.763378143310547
1634126135038131200,6.155131103515625,-24.919036865234375,70.92672729492188,24.127323150634766
1634126135058010400,6.17501025390625,-24.712799072265625,71.2977523803711,24.0679931640625
1634126135077889500,6.1948896484375,-24.307098388671875,71.25518798828125,24.01195526123047
1634126135097769200,6.214769287109375,-23.5753173828125,71.35334777832031,23.817424774169922
1634126135117648400,6.2346484375,-23.982147216796875,71.28311920166016,23.744407653808594
1634126135137527300,6.25452734375,-24.062469482421875,71.47550964355469,23.393779754638672
1634126135157406200,6.27440625,-24.26763916015625,71.43877410888672,23.723926544189453
1634126135177285400,6.294285400390625,-24.01507568359375,71.58535766601562,23.667133331298828
1634126135197165300,6.314165283203125,-24.208465576171875,71.16573333740234,23.499759674072266
1634126135217048000,6.334048095703125,-24.229339599609375,71.02244567871094,23.417667388916016
1634126135236927000,6.353927001953125,-23.989349365234375,71.00448608398438,23.238609313964844
1634126135256806100,6.37380615234375,-24.777587890625,71.08853912353516,23.455890655517578
1634126135276685000,6.39368505859375,-24.44488525390625,71.37464141845703,23.421035766601562
1634126135296565000,6.41356494140625,-24.47454833984375,71.42086791992188,22.932353973388672
1634126135316444200,6.433444091796875,-24.4957275390625,71.43516540527344,22.79741668701172
1634126135336323000,6.453322998046875,-24.1990966796875,71.54411315917969,22.49349594116211
1634126135356202200,6.4732021484375,-24.434295654296875,71.74956512451172,22.239200592041016
1634126135376082200,6.493082275390625,-24.1793212890625,71.82037353515625,22.32938003540039
1634126135395961000,6.512961181640625,-23.576019287109375,71.96165466308594,22.1055908203125
1634126135415840300,6.53284033203125,-23.6724853515625,71.81611633300781,21.968292236328125
1634126135435719000,6.552718994140625,-23.48016357421875,72.00302124023438,21.732097625732422
1634126135455598000,6.57259814453125,-23.70855712890625,71.81940460205078,21.519004821777344
1634126135475478300,6.592478271484375,-23.75445556640625,72.0770492553711,21.613876342773438
1634126135495357000,6.61235693359375,-23.8175048828125,71.96501159667969,21.350204467773438
1634126135515236000,6.632236083984375,-23.841278076171875,71.79722595214844,21.248111724853516
1634126135535115000,6.652114990234375,-24.10791015625,71.76997375488281,21.05597686767578
1634126135554994200,6.671994140625,-24.492340087890625,71.83268737792969,20.87213134765625
1634126135574874000,6.6918740234375,-24.4932861328125,72.10121154785156,20.719974517822266
1634126135594753000,6.7117529296875,-23.958526611328125,71.81282806396484,20.45587158203125
1634126135614632200,6.731632080078125,-24.087982177734375,71.94847106933594,20.36859893798828
1634126135634511000,6.751510986328125,-24.402862548828125,71.86009216308594,20.422161102294922
1634126135654391000,6.77139111328125,-24.4970703125,71.91351318359375,20.24602508544922
1634126135674270200,6.791270263671875,-24.134735107421875,71.7132568359375,20.35064697265625
1634126135694149000,6.811149169921875,-23.995330810546875,71.75712585449219,19.873153686523438
1634126135714028000,6.831028076171875,-24.102325439453125,71.87720489501953,19.87530517578125
1634126135733908200,6.850908203125,-24.5426025390625,72.04352569580078,19.492382049560547
1634126135753787100,6.870787109375,-24.640869140625,72.1808090209961,19.5797119140625
1634126135773666000,6.890666015625,-24.15631103515625,72.05726623535156,19.178749084472656
1634126135793545000,6.910544921875,-24.336578369140625,72.07768249511719,19.166221618652344
1634126135813424000,6.930424072265625,-24.089385986328125,72.25568389892578,19.116363525390625
1634126135833304000,6.950303955078125,-23.90850830078125,72.29035186767578,18.835838317871094
1634126135853183000,6.970182861328125,-23.809173583984375,72.44010162353516,18.64264678955078
1634126135873062100,6.990062255859375,-23.87939453125,72.61719512939453,18.490676879882812
1634126135892941000,7.009941162109375,-23.95379638671875,72.48302459716797,18.206756591796875
1634126135912820200,7.0298203125,-23.96136474609375,72.38130187988281,18.402408599853516
1634126135932700200,7.0497001953125,-23.790557861328125,72.37764739990234,18.190895080566406
1634126135952579000,7.0695791015625,-23.573883056640625,72.5962905883789,18.062660217285156
1634126135972458200,7.089458251953125,-23.946868896484375,72.61469268798828,18.215686798095703
1634126135992337000,7.1093369140625,-23.8447265625,72.59967041015625,17.917316436767578
1634126136012217000,7.129217041015625,-24.243988037109375,72.48414611816406,17.940006256103516
1634126136032096300,7.14909619140625,-23.997833251953125,72.48719787597656,17.658557891845703
1634126136051975000,7.168974853515625,-24.257537841796875,72.44540405273438,17.795299530029297
1634126136071854000,7.18885400390625,-24.0799560546875,72.53739929199219,17.67794418334961
1634126136091733000,7.20873291015625,-24.029266357421875,72.44857788085938,17.797164916992188
1634126136111613000,7.228613037109375,-24.414642333984375,72.60863494873047,17.70028305053711
1634126136131492000,7.2484921875,-24.436614990234375,72.38683319091797,17.55008316040039
1634126136151371000,7.26837109375,-24.681396484375,72.47441864013672,17.56359100341797
1634126136171250200,7.288250244140625,-24.483062744140625,72.63899230957031,17.65640640258789
1634126136191130000,7.308130126953125,-24.565765380859375,72.38720703125,17.35634994506836
1634126136211006500,7.32800634765625,-24.83154296875,72.37686920166016,17.54519271850586
1634126136230885400,7.347885498046875,-24.780120849609375,72.38790893554688,17.54110336303711
1634126136250764300,7.367764404296875,-24.97955322265625,72.50960540771484,17.628379821777344
1634126136270643200,7.387643310546875,-24.99957275390625,72.69058227539062,17.386070251464844
1634126136290523400,7.4075234375,-25.030548095703125,72.59162902832031,17.304134368896484
1634126136310402300,7.42740234375,-24.822479248046875,72.63477325439453,17.362564086914062
1634126136330281200,7.44728125,-25.087677001953125,72.48346710205078,17.31598663330078
1634126136350160400,7.467160400390625,-24.570281982421875,72.49593353271484,17.308303833007812
1634126136370040300,7.487040283203125,-24.509796142578125,72.7828369140625,17.130714416503906
1634126136389919200,7.506919189453125,-24.7530517578125,73.03416442871094,16.9481201171875
1634126136409798400,7.52679833984375,-24.3292236328125,72.61327362060547,16.858455657958984
1634126136429677300,7.54667724609375,-24.7344970703125,72.9182357788086,17.00179672241211
1634126136449556200,7.56655615234375,-24.30755615234375,73.0905990600586,17.027713775634766
1634126136469436400,7.5864365234375,-24.263916015625,73.1124496459961,17.35454559326172
1634126136489315300,7.6063154296875,-24.054443359375,73.14576721191406,17.075904846191406
1634126136509194500,7.626194580078125,-23.839447021484375,73.06450653076172,17.060741424560547
1634126136529073200,7.6460732421875,-23.8968505859375,73.21882629394531,17.32537841796875
1634126136548953300,7.665953369140625,-23.550323486328125,73.02452850341797,17.282291412353516
1634126136568832500,7.68583251953125,-23.720001220703125,72.79370880126953,17.10220718383789
1634126136588711200,7.705711181640625,-23.311920166015625,72.84073638916016,17.31273651123047
1634126136608590300,7.72559033203125,-23.47808837890625,72.98312377929688,17.48012924194336
1634126136628469200,7.74546923828125,-23.478973388671875,73.06575775146484,17.536293029785156
1634126136648349200,7.76534912109375,-23.55206298828125,73.02799224853516,17.56897735595703
1634126136668228400,7.785228271484375,-23.979034423828125,72.78419494628906,17.521652221679688
1634126136688107300,7.805107177734375,-24.178314208984375,72.80200958251953,17.48611831665039
1634126136707986400,7.824986328125,-23.65228271484375,72.6407699584961,17.476158142089844
1634126136727865300,7.844865234375,-23.724212646484375,72.87579345703125,17.528343200683594
1634126136747745300,7.864745361328125,-23.79034423828125,72.82227325439453,17.24469757080078
1634126136767624400,7.88462451171875,-23.731842041015625,73.01002502441406,17.35848617553711
1634126136787503400,7.90450341796875,-23.590576171875,73.07808685302734,16.969131469726562
1634126136807382300,7.92438232421875,-23.866668701171875,73.16632843017578,16.841785430908203
1634126136827262500,7.944262451171875,-23.67584228515625,72.99140167236328,16.743244171142578
1634126136847141400,7.964141357421875,-23.539520263671875,73.21713256835938,16.66823959350586
1634126136867020300,7.984020263671875,-23.274200439453125,72.94193267822266,16.612247467041016
1634126136886899200,8.003899169921874,-22.9393310546875,73.2285385131836,16.65262222290039
1634126136906778400,8.0237783203125,-22.65478515625,73.61984252929688,16.34593963623047
1634126136926658300,8.043658203125,-22.43914794921875,73.59922790527344,16.31192398071289
1634126136946537200,8.063537109375,-22.43017578125,73.68057250976562,16.340862274169922
1634126136966416400,8.08341650390625,-22.300262451171875,73.55316925048828,16.59960174560547
1634126136986295300,8.10329541015625,-22.188873291015625,73.74816131591797,16.409534454345703
1634126137006175200,8.12317529296875,-22.276031494140625,73.62213897705078,16.137088775634766
1634126137026054400,8.143054443359375,-22.037384033203125,73.74093627929688,16.299755096435547
1634126137045933300,8.162933349609375,-21.849334716796875,73.73286437988281,16.491432189941406
1634126137065812200,8.182812255859375,-21.8345947265625,73.59344482421875,16.35912322998047
1634126137085691100,8.202691162109375,-21.802490234375,73.64424133300781,16.682559967041016
1634126137105571300,8.2225712890625,-21.582122802734375,73.68281555175781,16.635887145996094
1634126137125450500,8.242450439453124,-21.2603759765625,73.96572875976562,17.006385803222656
1634126137145329200,8.2623291015625,-20.958465576171875,73.92781066894531,16.989086151123047
1634126137165208300,8.282208251953126,-20.9810791015625,74.00851440429688,16.930526733398438
1634126137185088500,8.302088623046876,-20.68634033203125,74.29674530029297,16.730297088623047
1634126137204967200,8.32196728515625,-20.421417236328125,74.07621002197266,16.74315643310547
1634126137224846000,8.34184619140625,-20.156402587890625,74.47100830078125,16.537166595458984
1634126137244725200,8.361725341796875,-19.883148193359375,74.37256622314453,16.510330200195312
1634126137264604200,8.381604248046875,-19.506378173828125,74.71199798583984,16.393386840820312
1634126137284484000,8.401484130859375,-19.145233154296875,74.66248321533203,16.113887786865234
1634126137304363300,8.42136328125,-19.525726318359375,74.6801528930664,15.968578338623047
1634126137324242200,8.4412421875,-19.2679443359375,74.77198028564453,15.800758361816406
1634126137344121300,8.461121337890624,-19.33984375,75.00252532958984,15.431320190429688
1634126137364001300,8.481001220703124,-18.95458984375,74.51337432861328,15.423141479492188
1634126137383880200,8.500880126953126,-19.415618896484375,74.67301177978516,15.237838745117188
1634126137403759400,8.52075927734375,-19.595855712890625,74.79139709472656,15.082740783691406
1634126137423638000,8.540637939453125,-20.10418701171875,74.50311279296875,15.078369140625
1634126137443517200,8.56051708984375,-20.083892822265625,74.51739501953125,14.875080108642578
1634126137463397400,8.5803974609375,-20.414276123046875,74.2583999633789,15.027774810791016
1634126137483276000,8.600276123046875,-20.84588623046875,74.27227783203125,14.70444107055664
1634126137503155200,8.6201552734375,-20.771392822265625,74.20145416259766,14.795974731445312
1634126137523034000,8.6400341796875,-21.113311767578125,74.18184661865234,14.788215637207031
1634126137542914000,8.6599140625,-21.268707275390625,74.34065246582031,14.539649963378906
1634126137562793200,8.679793212890624,-21.165252685546875,73.69071197509766,14.33504867553711
1634126137582672100,8.699672119140626,-21.256988525390625,73.62210845947266,14.320335388183594
1634126137602551300,8.71955126953125,-21.63458251953125,73.92548370361328,14.313167572021484
1634126137622430200,8.73943017578125,-21.368408203125,73.68489837646484,13.992870330810547
1634126137642310100,8.75931005859375,-21.462799072265625,73.95191955566406,13.999626159667969
1634126137662189300,8.779189208984375,-21.104949951171875,74.16189575195312,13.985218048095703
1634126137682068200,8.799068115234375,-21.42633056640625,74.33415985107422,13.975379943847656
1634126137701947100,8.818947021484375,-21.110992431640625,74.09150695800781,14.314151763916016
1634126137721827300,8.838827392578125,-20.67999267578125,74.4460220336914,14.380531311035156
1634126137741706200,8.858706298828125,-20.529876708984375,74.18529510498047,14.506553649902344
1634126137761585200,8.878585205078124,-20.490081787109375,74.4505615234375,14.48305892944336
1634126137781464000,8.898464111328124,-20.54400634765625,74.34410095214844,14.754653930664062
1634126137801343200,8.91834326171875,-19.807403564453125,74.48341369628906,14.65887451171875
1634126137821223200,8.93822314453125,-19.41217041015625,74.33679962158203,14.697776794433594
1634126137841102000,8.95810205078125,-19.851165771484375,74.52534484863281,14.513473510742188
1634126137860981200,8.977981201171875,-19.513092041015625,74.77430725097656,14.225074768066406
1634126137880860200,8.997860107421875,-19.8214111328125,74.84996032714844,14.007343292236328
1634126137900740000,9.017739990234375,-19.829071044921875,74.58779907226562,13.983268737792969
1634126137920619300,9.037619384765625,-19.882080078125,74.4591293334961,13.61447525024414
1634126137940498200,9.057498291015625,-19.49285888671875,74.65221405029297,13.334556579589844
1634126137960377300,9.07737744140625,-19.811126708984375,74.76579284667969,13.380786895751953
1634126137980257300,9.09725732421875,-20.33251953125,74.33712005615234,13.562271118164062
1634126138000136200,9.11713623046875,-20.067596435546875,74.29737854003906,13.461563110351562
1634126138020015400,9.137015380859374,-20.304412841796875,74.48331451416016,13.404594421386719
1634126138039894000,9.15689404296875,-20.558502197265625,74.48538208007812,13.274799346923828
1634126138059773200,9.176773193359375,-20.4324951171875,74.3812484741211,13.154712677001953
1634126138079653400,9.1966533203125,-20.618621826171875,74.32075500488281,13.117183685302734
1634126138099532000,9.216531982421875,-20.68316650390625,74.23675537109375,12.996002197265625
1634126138119411200,9.2364111328125,-20.65960693359375,74.07508087158203,13.089271545410156
1634126138139290000,9.2562900390625,-21.245361328125,74.19556427001953,13.16021728515625
1634126138159170000,9.276170166015625,-21.400390625,74.32579803466797,13.174247741699219
1634126138179049200,9.29604931640625,-21.321319580078125,74.29960632324219,12.63446044921875
1634126138198928100,9.31592822265625,-21.254730224609375,74.39311218261719,12.835304260253906
1634126138218806300,9.33580615234375,-21.319732666015625,74.0743408203125,13.1358642578125
1634126138238685200,9.355685302734376,-20.794952392578125,74.17465209960938,13.231021881103516
1634126138258565000,9.375565185546876,-20.88385009765625,74.19608306884766,13.357452392578125
1634126138278444300,9.3954443359375,-20.827880859375,74.07122802734375,13.376869201660156
1634126138298323200,9.4153232421875,-20.604339599609375,74.21080017089844,13.318359375
1634126138318202400,9.435202392578125,-20.619293212890625,74.31428527832031,13.270118713378906
1634126138338082300,9.455082275390625,-20.47857666015625,74.22123718261719,13.426231384277344
1634126138357961200,9.474961181640625,-20.597259521484375,74.37236785888672,13.349224090576172
1634126138377840400,9.49484033203125,-20.809112548828125,74.17613983154297,13.186592102050781
1634126138397719000,9.514718994140624,-20.5458984375,74.347412109375,13.18320083618164
1634126138417598200,9.53459814453125,-20.289093017578125,74.29524993896484,13.070404052734375
1634126138437478400,9.554478515625,-20.553131103515625,74.4624252319336,13.163978576660156
1634126138457357000,9.574357177734376,-20.690032958984375,74.27838134765625,13.150276184082031
1634126138477236200,9.594236328125,-21.132171630859375,74.47042083740234,13.028522491455078
1634126138497115100,9.614115234375,-21.64178466796875,74.19334411621094,12.700271606445312
1634126138516995000,9.6339951171875,-21.734130859375,74.09272766113281,12.579662322998047
1634126138536874200,9.653874267578125,-22.126739501953125,73.94384002685547,12.578990936279297
1634126138556753200,9.673753173828125,-21.97259521484375,73.86056518554688,12.680328369140625
1634126138576632300,9.69363232421875,-22.2783203125,74.05828094482422,12.440044403076172
1634126138596511200,9.71351123046875,-22.244720458984375,74.02607727050781,12.515579223632812
1634126138616391200,9.73339111328125,-22.154052734375,73.75797271728516,12.907367706298828
1634126138636270300,9.753270263671874,-22.147552490234375,74.04032135009766,12.995185852050781
1634126138656149200,9.773149169921876,-21.399322509765625,74.22280883789062,13.045631408691406
1634126138676028200,9.793028076171876,-21.5189208984375,74.34239196777344,13.108612060546875
1634126138695908400,9.812908447265626,-21.643707275390625,74.16959381103516,13.099014282226562
1634126138715787300,9.832787353515625,-21.028411865234375,74.35742950439453,13.119197845458984
1634126138735666200,9.852666259765625,-21.00775146484375,74.4698715209961,13.184219360351562
1634126138755545000,9.872545166015625,-20.954315185546875,74.51396942138672,13.10879135131836
1634126138775425300,9.89242529296875,-20.651885986328125,74.39827728271484,13.105384826660156
1634126138795304200,9.91230419921875,-20.8204345703125,74.39107513427734,13.082500457763672
1634126138815183000,9.93218310546875,-20.930816650390625,74.31094360351562,12.82568359375
1634126138835062300,9.952062255859374,-20.783355712890625,74.45832061767578,12.579689025878906
1634126138854941200,9.971941162109376,-21.259765625,74.34432983398438,12.279354095458984
1634126138874821000,9.991821044921876,-21.05072021484375,74.50890350341797,12.289665222167969
1634126138894700300,10.0117001953125,-21.080230712890625,74.61700439453125,12.066265106201172
1634126138914579200,10.0315791015625,-21.165771484375,74.41801452636719,11.680000305175781
1634126138934458400,10.051458251953125,-21.027099609375,74.19369506835938,11.675960540771484
1634126138954338300,10.07133837890625,-21.640960693359375,74.49214935302734,11.411384582519531
1634126138974217200,10.09121728515625,-21.537109375,74.34107208251953,11.36330795288086
1634126138994096400,10.111096435546875,-21.46844482421875,74.44193267822266,11.285564422607422
1634126139013975000,10.13097509765625,-21.199432373046875,74.42125701904297,11.107139587402344
1634126139033854200,10.150854248046874,-21.535247802734375,74.31065368652344,11.022686004638672
1634126139053734400,10.170734375,-21.671142578125,74.39114379882812,11.269100189208984
1634126139073613000,10.190613037109374,-21.62933349609375,74.3738784790039,10.977554321289062
1634126139093492200,10.2104921875,-21.179901123046875,74.34152221679688,10.940296173095703
1634126139113371100,10.23037109375,-21.226959228515625,74.38482666015625,10.96097183227539
1634126139133251000,10.2502509765625,-21.182525634765625,74.46632385253906,11.105987548828125
1634126139153130200,10.270130126953125,-21.227630615234375,74.63683319091797,11.152488708496094
1634126139173009200,10.290009033203125,-20.9715576171875,74.57966613769531,11.088424682617188
1634126139192888300,10.309888427734375,-21.431121826171875,74.37338256835938,10.88083267211914
1634126139212768000,10.32976806640625,-21.644866943359375,74.62934875488281,10.886863708496094
1634126139232648200,10.349648193359375,-21.48992919921875,74.36607360839844,10.873291015625
1634126139252527400,10.36952734375,-21.300140380859375,74.37513732910156,10.82806396484375
1634126139272406000,10.389406005859374,-20.92034912109375,74.3643569946289,10.82012939453125
1634126139292285200,10.40928515625,-20.474212646484375,74.82364654541016,10.69979476928711
1634126139312165400,10.429165283203124,-20.452056884765625,74.61894226074219,10.656024932861328
1634126139332044000,10.4490439453125,-20.35113525390625,74.77401733398438,10.434062957763672
1634126139351923200,10.468923095703126,-20.270904541015625,74.57701873779297,10.226879119873047
1634126139371802000,10.488802001953125,-20.286865234375,74.8277816772461,10.230484008789062
1634126139391682000,10.50868212890625,-19.88507080078125,74.8542709350586,10.084949493408203
1634126139411561200,10.528561279296875,-20.505157470703125,74.71005249023438,9.856006622314453
1634126139431440100,10.548440185546875,-21.1270751953125,74.8582763671875,9.441913604736328
1634126139451319300,10.5683193359375,-21.857025146484375,74.64400482177734,9.398868560791016
1634126139471198200,10.5881982421875,-22.1048583984375,74.52489471435547,9.267658233642578
1634126139491078100,10.608078125,-22.507904052734375,74.4007797241211,9.437015533447266
1634126139510957300,10.627957275390624,-22.715118408203125,74.17898559570312,9.468757629394531
1634126139530836200,10.647836181640624,-23.193023681640625,74.16865539550781,9.344047546386719
1634126139550715100,10.667715087890626,-23.1907958984375,74.15918731689453,9.545661926269531
1634126139570595300,10.68759521484375,-23.053070068359375,73.96580505371094,9.658546447753906
1634126139590474200,10.70747412109375,-22.96685791015625,74.05110931396484,9.797290802001953
1634126139610353200,10.727353271484375,-23.0389404296875,74.64321899414062,9.73895263671875
1634126139630232000,10.747232177734375,-22.637451171875,74.4248046875,9.77315902709961
1634126139650111200,10.767111328125,-22.38323974609375,74.47916412353516,9.715694427490234
1634126139669991200,10.7869912109375,-21.9925537109375,74.62242126464844,9.882774353027344
1634126139689870000,10.8068701171875,-21.617279052734375,74.627685546875,9.876670837402344
1634126139709749200,10.826749267578125,-21.20501708984375,74.66749572753906,9.949295043945312
1634126139729628200,10.846628173828124,-20.8719482421875,74.69046783447266,9.892200469970703
1634126139749508000,10.866508056640624,-21.186065673828125,74.8958969116211,9.913616180419922
1634126139769387300,10.88638720703125,-21.458526611328125,74.83038330078125,9.423320770263672
1634126139789266200,10.90626611328125,-21.370819091796875,74.84745788574219,9.464153289794922
1634126139809145000,10.92614501953125,-21.4056396484375,74.75297546386719,9.545394897460938
1634126139829024000,10.94602392578125,-21.48681640625,74.71863555908203,9.432998657226562
1634126139848904200,10.965904296875,-21.447845458984375,75.04287719726562,9.243968963623047
1634126139868783400,10.985783447265625,-21.373748779296875,74.64783477783203,9.181453704833984
1634126139888662000,11.005662109375,-21.74053955078125,74.65708923339844,9.228626251220703
1634126139908541200,11.025541259765625,-21.716064453125,74.55525207519531,9.235271453857422
1634126139928421400,11.04542138671875,-21.739990234375,74.6300048828125,9.017982482910156
1634126139948300000,11.065300048828124,-21.771240234375,74.52562713623047,9.265735626220703
1634126139968179200,11.08517919921875,-21.688262939453125,74.5843276977539,9.003589630126953
1634126139988058000,11.10505810546875,-21.796661376953125,74.46129608154297,8.96457290649414
1634126140007937300,11.124937255859376,-21.830322265625,74.41465759277344,9.198585510253906
1634126140027817200,11.144817138671876,-21.807708740234375,74.46022033691406,8.997444152832031
1634126140047696100,11.164696044921875,-21.979400634765625,74.49229431152344,8.765605926513672
1634126140067575300,11.1845751953125,-21.902557373046875,74.61321258544922,8.536914825439453
1634126140087454200,11.2044541015625,-21.65673828125,74.55216979980469,8.662120819091797
1634126140107334100,11.224334228515625,-21.490966796875,74.81975555419922,8.529460906982422
1634126140127213300,11.24421337890625,-21.31536865234375,74.84165954589844,8.3826904296875
1634126140147092200,11.26409228515625,-21.59576416015625,74.60498809814453,8.375499725341797
1634126140166971100,11.28397119140625,-21.686614990234375,74.5677490234375,8.277687072753906
1634126140186850000,11.30385009765625,-21.375640869140625,74.67035675048828,8.153167724609375
1634126140206730200,11.323730224609376,-21.415679931640625,74.6259765625,8.271595001220703
1634126140226612000,11.343612060546874,-21.44580078125,74.4224624633789,8.151283264160156
1634126140246491100,11.3634912109375,-21.134552001953125,74.40186309814453,8.105339050292969
1634126140266370000,11.3833701171875,-21.4239501953125,74.66277313232422,8.34195327758789
1634126140286250200,11.403250244140626,-21.1910400390625,74.79378509521484,7.944236755371094
1634126140306129200,11.423129150390626,-21.029266357421875,74.60653686523438,7.693042755126953
1634126140326008000,11.443008056640625,-21.448211669921875,74.6092529296875,7.720832824707031
1634126140345887200,11.46288720703125,-21.2886962890625,74.85696411132812,7.644824981689453
1634126140365766400,11.482766357421875,-21.4818115234375,74.41946411132812,7.409534454345703
1634126140385646000,11.50264599609375,-21.497772216796875,74.8443374633789,7.596073150634766
1634126140405525200,11.522525146484375,-21.3905029296875,74.59384155273438,7.347034454345703
1634126140425404200,11.542404052734375,-21.346954345703125,74.51526641845703,7.2242279052734375
1634126140445283000,11.562282958984374,-21.33282470703125,74.72209930419922,6.9190521240234375
1634126140465163300,11.582163330078124,-21.581268310546875,74.90674591064453,7.148891448974609
1634126140485042200,11.602042236328124,-21.328338623046875,74.72764587402344,7.1255950927734375
1634126140504921000,11.621921142578126,-21.6002197265625,74.7896957397461,7.04345703125
1634126140524800000,11.641800048828125,-21.361602783203125,74.62474060058594,7.208919525146484
1634126140544679200,11.66167919921875,-21.590789794921875,74.72430419921875,6.972057342529297
1634126140564559000,11.68155908203125,-21.29443359375,75.06559753417969,7.1392822265625
1634126140584438000,11.70143798828125,-21.549285888671875,74.73228454589844,6.876945495605469
1634126140604317200,11.721317138671875,-21.564117431640625,74.99091339111328,7.098865509033203
1634126140624196400,11.7411962890625,-21.726348876953125,74.76325225830078,6.927459716796875
1634126140644076000,11.761075927734375,-21.405853271484375,74.91111755371094,7.035346984863281
1634126140663955200,11.780955078125,-21.371337890625,74.8769302368164,6.8531341552734375
1634126140683834000,11.800834228515624,-21.1943359375,75.10546112060547,7.012989044189453
1634126140703713300,11.82071337890625,-20.8397216796875,74.91642761230469,7.142524719238281
1634126140723592200,11.84059228515625,-20.922882080078125,75.03475952148438,6.946475982666016
1634126140743472000,11.86047216796875,-20.86920166015625,74.9260482788086,6.925594329833984
1634126140763351300,11.880351318359375,-21.002227783203125,74.79593658447266,6.993152618408203
1634126140783230000,11.90022998046875,-20.393707275390625,74.66590881347656,6.78326416015625
1634126140803109000,11.920109130859375,-20.619537353515625,74.8110122680664,6.822315216064453
1634126140822988300,11.93998828125,-20.8765869140625,74.86148834228516,6.7559967041015625
1634126140842868000,11.959867919921875,-20.844451904296875,75.01306915283203,6.7378387451171875
1634126140862747100,11.9797470703125,-20.76324462890625,74.9054946899414,6.543621063232422
1634126140882626000,11.9996259765625,-21.052642822265625,75.11195373535156,6.540851593017578
1634126140902505200,12.019505126953124,-20.95654296875,74.92538452148438,6.344429016113281
1634126140922385200,12.03938525390625,-21.11138916015625,74.94160461425781,6.082527160644531
1634126140942264000,12.05926416015625,-21.15106201171875,75.01952362060547,6.271160125732422
1634126140962143200,12.079143310546876,-20.989898681640625,74.81683349609375,6.072010040283203
1634126140982022400,12.0990224609375,-20.995758056640625,74.9499740600586,5.770061492919922
1634126141001901000,12.118901123046875,-21.1300048828125,75.12982177734375,5.705623626708984
1634126141021781200,12.13878125,-21.1065673828125,74.94277954101562,5.843719482421875
1634126141041660200,12.15866015625,-20.936492919921875,74.69760131835938,5.7186279296875
1634126141061539000,12.1785390625,-20.7359619140625,74.70304107666016,5.736907958984375
1634126141081418200,12.198418212890624,-20.956451416015625,74.98652648925781,5.58056640625
1634126141101298200,12.218298095703124,-20.8431396484375,74.68855285644531,5.458671569824219
1634126141121177000,12.238177001953124,-20.736541748046875,74.74718475341797,5.63885498046875
1634126141141056000,12.258055908203126,-20.665283203125,74.76980590820312,5.556789398193359
1634126141160935200,12.27793505859375,-20.8819580078125,74.73987579345703,5.244773864746094
1634126141180814300,12.297814453125,-20.90167236328125,74.8962631225586,5.057552337646484
1634126141200694000,12.317694091796875,-20.956329345703125,74.94294738769531,5.116065979003906
1634126141220569900,12.33756982421875,-21.063140869140625,74.90677642822266,4.948909759521484
1634126141240449000,12.357448974609374,-21.043182373046875,74.88416290283203,5.278343200683594
1634126141260328000,12.377327880859376,-21.017913818359375,74.70652770996094,5.016956329345703
1634126141280206800,12.397206787109376,-21.162353515625,74.70301055908203,4.9149322509765625
1634126141300087000,12.417087158203126,-20.946136474609375,74.67404174804688,5.016986846923828
1634126141319966000,12.436966064453125,-20.758697509765625,74.6727294921875,5.24041748046875
1634126141339844900,12.456844970703125,-20.68682861328125,74.73709869384766,5.109165191650391
1634126141359724000,12.47672412109375,-20.855865478515625,74.70001220703125,5.0121612548828125
1634126141379604000,12.49660400390625,-20.661834716796875,74.88719177246094,4.930782318115234
1634126141399483000,12.51648291015625,-20.47113037109375,74.92190551757812,4.9019775390625
1634126141419362000,12.536362060546875,-20.6513671875,74.8899917602539,5.054866790771484
1634126141439241000,12.556240966796874,-20.322265625,74.91673278808594,4.856483459472656
1634126141459120000,12.5761201171875,-20.20501708984375,74.77526092529297,4.726043701171875
1634126141478999800,12.595999755859374,-20.51898193359375,74.9778060913086,4.9485321044921875
1634126141498879000,12.61587890625,-20.836334228515625,74.60738372802734,4.933353424072266
1634126141518758100,12.635758056640626,-20.96728515625,74.96466064453125,4.987144470214844
1634126141538636800,12.65563671875,-20.89990234375,74.68014526367188,5.080657958984375
1634126141558517000,12.67551708984375,-20.611480712890625,74.8719711303711,5.260581970214844
1634126141578396200,12.695396240234375,-20.392974853515625,74.80740356445312,5.177944183349609
1634126141598275000,12.715275146484375,-20.545257568359375,74.94795989990234,5.1567840576171875
1634126141618154000,12.735154052734375,-20.6529541015625,74.88140869140625,5.269634246826172
1634126141638033000,12.755032958984375,-20.09161376953125,74.61772918701172,5.1068115234375
1634126141657913000,12.7749130859375,-20.741241455078125,74.64115905761719,5.103546142578125
1634126141677792000,12.7947919921875,-20.790679931640625,74.8388671875,4.998378753662109
1634126141697671000,12.8146708984375,-20.780731201171875,74.87413787841797,5.0124359130859375
1634126141717550000,12.834550048828126,-20.4879150390625,74.67443084716797,4.877593994140625
1634126141737429000,12.854428955078125,-20.329864501953125,74.81008911132812,4.956565856933594
1634126141757309000,12.874308837890625,-20.61041259765625,74.7325439453125,4.7650146484375
1634126141777188000,12.89418798828125,-20.389862060546875,75.00115203857422,5.014537811279297
1634126141797067000,12.91406689453125,-20.624359130859375,75.0631103515625,4.716129302978516
1634126141816946000,12.93394580078125,-20.42803955078125,74.8634033203125,4.761905670166016
1634126141836825900,12.953825927734375,-20.489288330078125,74.82315063476562,4.909244537353516
1634126141856705000,12.973705078125,-20.224853515625,75.02606201171875,4.8975067138671875
1634126141876584000,12.993583984375,-20.59112548828125,74.90386962890625,4.991912841796875
1634126141896462800,13.013462890625,-20.07281494140625,74.7793197631836,5.306957244873047
1634126141916342000,13.033342041015626,-20.6973876953125,75.10419464111328,4.947162628173828
1634126141936222000,13.053221923828126,-20.647186279296875,74.80641174316406,4.991767883300781
1634126141956100900,13.073100830078126,-20.6712646484375,74.91232299804688,5.098442077636719
1634126141975980000,13.09297998046875,-20.694244384765625,74.9979476928711,5.151084899902344
1634126141995859000,13.11285888671875,-20.609222412109375,75.17691040039062,4.737579345703125
1634126142015739000,13.13273876953125,-20.768341064453125,75.12535095214844,4.805610656738281
1634126142035618000,13.1526181640625,-20.47216796875,75.1318130493164,4.691444396972656
1634126142055497000,13.1724970703125,-19.912567138671875,75.2443618774414,4.510814666748047
1634126142075376000,13.192376220703125,-20.315032958984375,75.20226287841797,4.570087432861328
1634126142095254800,13.2122548828125,-20.422119140625,75.02398681640625,4.444091796875
1634126142115135000,13.232135009765624,-20.80487060546875,75.30440521240234,4.5633697509765625
1634126142135014100,13.25201416015625,-20.4952392578125,75.03583526611328,4.592674255371094
1634126142154892800,13.271892822265626,-20.547576904296875,75.00956726074219,4.773101806640625
1634126142174772000,13.29177197265625,-20.411102294921875,75.06999206542969,4.6168212890625
1634126142194652200,13.311652099609375,-20.459747314453125,74.9167251586914,4.554706573486328
1634126142214531000,13.331531005859375,-20.44366455078125,74.966552734375,4.475513458251953
1634126142234410200,13.35141015625,-20.118896484375,74.87017059326172,4.392452239990234
1634126142254289200,13.3712890625,-20.30999755859375,74.82617950439453,4.310115814208984
1634126142274168300,13.391168212890625,-20.568939208984375,74.69371032714844,4.347160339355469
1634126142294048000,13.411048095703125,-20.413482666015625,75.09902954101562,4.117633819580078
1634126142313927200,13.43092724609375,-20.76507568359375,74.96381378173828,4.182186126708984
1634126142333806300,13.450806396484374,-20.367889404296875,74.87860870361328,4.0544891357421875
1634126142353685200,13.470685302734376,-20.421112060546875,74.95174407958984,4.141155242919922
1634126142373564200,13.490564208984376,-20.118682861328125,75.23500061035156,4.09710693359375
1634126142393444000,13.510444091796876,-20.423248291015625,74.90567016601562,3.8985366821289062
1634126142413323300,13.5303232421875,-20.739776611328125,74.91986846923828,3.834270477294922
1634126142433202200,13.5502021484375,-20.493896484375,74.8722152709961,3.7378692626953125
1634126142453081000,13.5700810546875,-20.356658935546875,74.98100280761719,3.7371788024902344
1634126142472961300,13.589961181640625,-20.344268798828125,74.92660522460938,3.7262001037597656
1634126142492840200,13.609840087890625,-20.405059814453125,74.84326934814453,3.5988540649414062
1634126142512719000,13.629718994140624,-20.51873779296875,75.10610961914062,3.709522247314453
1634126142532598300,13.649598388671874,-20.6165771484375,75.07088470458984,3.4436302185058594
1634126142552477200,13.669477294921874,-20.679351806640625,74.85397338867188,3.6525535583496094
1634126142572357000,13.689357177734376,-20.6832275390625,74.88267517089844,3.6659202575683594
1634126142592236300,13.709236328125,-20.95074462890625,75.09891510009766,3.5467567443847656
1634126142612115200,13.729115234375,-20.73004150390625,75.00300598144531,3.433338165283203
1634126142631994400,13.748994384765625,-20.661956787109375,74.74248504638672,3.525768280029297
1634126142651874000,13.7688740234375,-20.58868408203125,74.90491485595703,3.681079864501953
1634126142671753200,13.788753173828125,-20.513153076171875,74.85636901855469,3.4237289428710938
1634126142691632400,13.80863232421875,-21.07958984375,74.53340911865234,3.4399986267089844
1634126142711511000,13.828510986328125,-20.659271240234375,74.9706802368164,3.4064407348632812
1634126142731390200,13.84839013671875,-20.807586669921875,74.94542694091797,3.3957862854003906
1634126142751270100,13.868270263671874,-20.683624267578125,74.87779235839844,3.3757896423339844
1634126142771149000,13.888149169921874,-20.665863037109375,74.89802551269531,3.4705581665039062
1634126142791028200,13.9080283203125,-20.65863037109375,74.90034484863281,3.353099822998047
1634126142810907100,13.9279072265625,-20.77740478515625,74.8678970336914,3.208831787109375
1634126142830786300,13.947786376953125,-20.79937744140625,74.9474105834961,3.545787811279297
1634126142850666200,13.967666259765625,-20.787445068359375,74.93838500976562,3.3844833374023438
1634126142870545200,13.987545166015625,-20.70013427734375,75.00923919677734,3.184612274169922
1634126142890424300,14.00742431640625,-20.49627685546875,75.0556411743164,3.3370590209960938
1634126142910303200,14.02730322265625,-20.574462890625,75.05708312988281,3.159473419189453
1634126142930183200,14.04718310546875,-20.793182373046875,75.12802124023438,3.5739479064941406
1634126142950062300,14.067062255859375,-20.807891845703125,75.07418823242188,3.3750953674316406
1634126142969941200,14.086941162109374,-20.50921630859375,75.18313598632812,3.348857879638672
1634126142989820200,14.106820068359376,-20.441253662109375,75.34353637695312,3.2074203491210938
1634126143009699000,14.126698974609376,-20.519287109375,75.07727813720703,3.3614234924316406
1634126143029579300,14.146579345703126,-19.93194580078125,75.02649688720703,3.5053939819335938
1634126143049458200,14.166458251953125,-20.30035400390625,74.90169525146484,3.4480056762695312
1634126143069337000,14.186337158203125,-20.033538818359375,75.24655151367188,3.4013099670410156
1634126143089216300,14.20621630859375,-20.325103759765625,75.27093505859375,3.306182861328125
1634126143109095200,14.22609521484375,-20.330780029296875,75.33070373535156,3.0879974365234375
1634126143128975000,14.24597509765625,-20.6922607421875,75.23838806152344,2.992889404296875
1634126143148854300,14.265854248046875,-20.47418212890625,75.15501403808594,3.1684303283691406
1634126143168733200,14.285733154296874,-20.262481689453125,75.08350372314453,2.8529396057128906
1634126143188612000,14.305612060546874,-20.563720703125,75.00335693359375,3.0347671508789062
1634126143208492300,14.3254921875,-20.037353515625,75.15177154541016,3.172119140625
1634126143228371000,14.345370849609376,-20.02734375,75.1099853515625,3.102161407470703
1634126143248250000,14.36525,-20.3297119140625,75.4150390625,3.1236495971679688
1634126143268128800,14.385128662109375,-20.007110595703125,75.29541778564453,2.7546005249023438
1634126143288008000,14.405008056640625,-19.94244384765625,74.99899291992188,2.863800048828125
1634126143307888000,14.42488818359375,-20.01953125,75.13916778564453,2.6284942626953125
1634126143327766800,14.444766845703125,-19.5888671875,75.12077331542969,2.8777618408203125
1634126143347646000,14.46464599609375,-19.53839111328125,75.39244079589844,2.7572059631347656
1634126143367524900,14.48452490234375,-19.533050537109375,75.29530334472656,2.8342819213867188
1634126143387404800,14.50440478515625,-19.55023193359375,75.31241607666016,2.7746658325195312
1634126143407284000,14.524283935546874,-19.91290283203125,75.13034057617188,3.069549560546875
1634126143427163000,14.544162841796876,-19.899017333984375,75.12639617919922,3.1292800903320312
1634126143447042000,14.5640419921875,-19.952880859375,74.95710754394531,3.0782394409179688
1634126143466921000,14.5839208984375,-19.72296142578125,75.24186706542969,3.2214088439941406
1634126143486801000,14.60380078125,-20.033355712890625,75.04393005371094,3.3853225708007812
1634126143506680000,14.62368017578125,-19.946929931640625,75.02411651611328,3.2613601684570312
1634126143526559000,14.64355908203125,-20.048919677734375,75.20375061035156,3.4224281311035156
1634126143546438000,14.66343798828125,-20.17877197265625,75.07162475585938,3.35418701171875
1634126143566318000,14.683318115234375,-20.17608642578125,75.41618347167969,3.1945228576660156
1634126143586197000,14.703197021484375,-19.73779296875,75.24164581298828,3.273731231689453
1634126143606076000,14.723075927734374,-19.9949951171875,75.01921081542969,3.5077285766601562
1634126143625954800,14.742954833984374,-19.991912841796875,75.1047592163086,3.5535621643066406
1634126143645834000,14.762833984375,-20.17913818359375,75.28389739990234,3.4903793334960938
1634126143665714000,14.7827138671875,-19.974761962890625,75.28339385986328,3.5464096069335938
1634126143685592800,14.8025927734375,-20.107177734375,75.07677459716797,3.583324432373047
1634126143705472000,14.822471923828125,-19.826507568359375,75.32498931884766,3.5581817626953125
1634126143725351000,14.842350830078125,-20.18780517578125,75.29077911376953,3.710906982421875
1634126143745230000,14.86222998046875,-20.085845947265625,75.03824615478516,3.5788345336914062
1634126143765110000,14.882110107421875,-20.279815673828125,74.98094940185547,3.850147247314453
1634126143784989000,14.901989013671875,-19.946136474609375,75.27644348144531,3.6496353149414062
1634126143804868000,14.9218681640625,-19.90789794921875,75.4162826538086,4.049064636230469
1634126143824746800,14.941746826171874,-20.61968994140625,75.23638153076172,3.9779052734375
1634126143844627000,14.961626953125,-20.4219970703125,75.1857681274414,3.9422645568847656
1634126143864506000,14.981506103515626,-20.270416259765625,75.21907806396484,4.1277618408203125
1634126143884384800,15.001384765625,-20.485382080078125,75.06080627441406,4.147544860839844
1634126143904264000,15.021263916015625,-20.30792236328125,74.91472625732422,4.190494537353516
1634126143924143000,15.04114306640625,-19.987335205078125,75.11966705322266,4.374027252197266
1634126143944022800,15.061022705078125,-20.171875,75.14336395263672,4.641277313232422
1634126143963902000,15.08090185546875,-20.2635498046875,75.40740966796875,4.396892547607422
1634126143983780900,15.10078076171875,-20.399261474609375,75.14248657226562,4.370838165283203
1634126144003660000,15.120659912109375,-20.231231689453125,75.29646301269531,4.444801330566406
1634126144023540000,15.1405400390625,-20.5416259765625,75.06005096435547,4.5041046142578125
1634126144043419000,15.1604189453125,-20.600250244140625,75.17220306396484,4.595142364501953
1634126144063298000,15.180298095703124,-20.267486572265625,75.18421173095703,4.825389862060547
1634126144083177000,15.200177001953126,-20.228424072265625,75.27229309082031,4.709865570068359
1634126144103056000,15.220055908203125,-20.275238037109375,74.97964477539062,4.453025817871094
1634126144122936000,15.23993603515625,-20.14593505859375,75.21200561523438,4.612781524658203
1634126144142815000,15.25981494140625,-20.3673095703125,75.05298614501953,4.583080291748047
1634126144162694000,15.27969384765625,-20.2999267578125,75.15640258789062,4.434597015380859
1634126144182573000,15.299572998046875,-20.410064697265625,75.06466674804688,4.32659912109375
1634126144202452000,15.319451904296875,-20.265869140625,74.92174530029297,4.462047576904297
1634126144222332000,15.339331787109375,-20.626007080078125,74.9334945678711,4.350128173828125
1634126144242210800,15.3592109375,-20.987579345703125,75.10134887695312,4.380435943603516
1634126144262090000,15.379090087890624,-20.612091064453125,75.00563049316406,4.292793273925781
1634126144281969000,15.398968994140626,-20.80780029296875,74.79532623291016,4.338855743408203
1634126144301848800,15.418848876953126,-20.6998291015625,74.86227416992188,4.354938507080078
1634126144321728000,15.43872802734375,-20.270751953125,75.30197143554688,4.389610290527344
1634126144341607000,15.45860693359375,-19.8543701171875,75.00228881835938,4.400825500488281
1634126144361486000,15.478486083984375,-20.41851806640625,75.22820281982422,4.409996032714844
1634126144381364700,15.49836474609375,-20.00994873046875,75.07523345947266,4.109592437744141
1634126144401245000,15.518244873046875,-20.12994384765625,74.91539764404297,4.3209381103515625
1634126144421124000,15.5381240234375,-19.964996337890625,75.27642059326172,4.266426086425781
1634126144441002800,15.558002685546874,-20.178070068359375,75.03169250488281,4.233074188232422
1634126144460882000,15.5778818359375,-20.351470947265625,75.24349975585938,3.9743614196777344
1634126144480760800,15.5977607421875,-19.734161376953125,75.02690124511719,3.6658096313476562
1634126144500640800,15.617640869140626,-19.460052490234375,75.12973022460938,3.9063682556152344
1634126144520520000,15.63752001953125,-19.323516845703125,75.3028793334961,4.0472869873046875
1634126144540398800,15.65739892578125,-19.470184326171875,75.33809661865234,4.367542266845703
1634126144560278000,15.677278076171875,-19.609619140625,75.38499450683594,4.911857604980469
1634126144580157000,15.697156982421875,-18.844879150390625,75.42829132080078,5.719722747802734
1634126144600036900,15.717036865234375,-18.752227783203125,75.43362426757812,6.126686096191406
1634126144619916000,15.736916015625,-18.488128662109375,75.5007095336914,6.842189788818359
1634126144639795000,15.756794921875,-17.907989501953125,75.30486297607422,7.542594909667969
1634126144659673900,15.776673828125,-17.991790771484375,75.27078247070312,8.462421417236328
1634126144679554000,15.796553955078124,-18.02484130859375,75.18495178222656,9.295185089111328
1634126144699433000,15.816432861328124,-18.253387451171875,74.88053894042969,9.987964630126953
1634126144719312000,15.836311767578126,-18.417755126953125,74.6415023803711,10.916984558105469
1634126144739190800,15.856190673828126,-18.590728759765625,74.18958282470703,11.66812515258789
1634126144759070000,15.876070068359375,-19.10858154296875,74.15262603759766,12.626121520996094
1634126144778950000,15.895949951171875,-19.0928955078125,73.83643341064453,13.403617858886719
1634126144798828800,15.915828857421875,-19.925994873046875,73.62744903564453,14.172531127929688
1634126144818708000,15.9357080078125,-19.976715087890625,73.27857971191406,14.926258087158203
1634126144838587000,15.9555869140625,-20.7518310546875,73.0530014038086,15.227466583251953
1634126144858465800,15.9754658203125,-20.812103271484375,73.06669616699219,15.375598907470703
1634126144878346000,15.995345947265625,-20.82757568359375,72.97225952148438,15.355438232421875
1634126144898225000,16.015224853515626,-20.88043212890625,73.00167846679688,15.90285873413086
1634126144918103800,16.035103759765626,-20.57867431640625,72.6449966430664,16.050464630126953
1634126144937983000,16.05498291015625,-20.53265380859375,72.88195037841797,15.396617889404297
1634126144957863000,16.07486279296875,-20.43292236328125,72.82988739013672,15.241764068603516
1634126144977742000,16.0947421875,-20.167510986328125,72.92384338378906,15.148338317871094
1634126144997620700,16.114620849609373,-20.42974853515625,72.72417449951172,15.08156967163086
1634126145017500000,16.1345,-20.5550537109375,72.83280181884766,14.885875701904297
1634126145037379000,16.154379150390625,-20.5238037109375,72.78471374511719,14.810592651367188
1634126145057258800,16.1742587890625,-20.822998046875,72.7978744506836,14.73385238647461
1634126145077138000,16.194137939453125,-20.44403076171875,72.9191665649414,14.36264419555664
1634126145097016800,16.214016845703124,-20.627685546875,72.99891662597656,13.97406005859375
1634126145116896000,16.23389599609375,-20.60418701171875,72.8702163696289,13.609272003173828
1634126145136775000,16.25377490234375,-20.76422119140625,72.82281494140625,13.602622985839844
1634126145156654800,16.27365478515625,-20.63623046875,72.99021911621094,13.458061218261719
1634126145176534000,16.293533935546876,-20.663665771484375,72.83578491210938,13.150753021240234
1634126145196413000,16.313412841796875,-20.738922119140625,73.04731750488281,12.980640411376953
1634126145216291600,16.33329150390625,-20.4974365234375,73.14309692382812,12.887168884277344
1634126145236170500,16.35317041015625,-20.440948486328125,72.813232421875,13.034778594970703
1634126145256050700,16.37305078125,-20.44122314453125,73.12749481201172,12.77078628540039
1634126145275929600,16.3929296875,-19.865631103515625,73.31365203857422,12.481639862060547
1634126145295808500,16.41280859375,-20.03546142578125,73.12600708007812,12.591690063476562
1634126145315687700,16.432687744140626,-20.5045166015625,73.02059173583984,12.333106994628906
1634126145335566600,16.452566650390626,-20.14544677734375,73.20552062988281,12.109428405761719
1634126145355446500,16.472446533203126,-20.196929931640625,73.13896179199219,12.183845520019531
1634126145375325700,16.49232568359375,-20.160888671875,73.32787322998047,11.821792602539062
1634126145395204600,16.51220458984375,-20.34881591796875,73.36937713623047,11.767791748046875
1634126145415083500,16.53208349609375,-20.81915283203125,73.16889190673828,11.568572998046875
1634126145434963700,16.551963623046873,-20.634918212890625,73.28926086425781,11.427757263183594
1634126145454842600,16.571842529296877,-20.39404296875,73.30110168457031,11.688232421875
1634126145474721800,16.5917216796875,-20.64593505859375,73.11005401611328,11.516426086425781
1634126145494600400,16.611600341796876,-20.33978271484375,73.13949584960938,11.127689361572266
1634126145514479600,16.631479736328124,-20.089752197265625,73.26895904541016,11.240917205810547
1634126145534359800,16.65135986328125,-19.977020263671875,73.37079620361328,10.89163589477539
1634126145554238500,16.671238525390624,-20.10882568359375,73.35826110839844,10.860305786132812
1634126145574117600,16.69111767578125,-20.244537353515625,73.43880462646484,10.689208984375
1634126145593996500,16.71099658203125,-20.333099365234375,73.47032165527344,10.68747329711914
1634126145613875700,16.730875732421875,-20.042816162109375,73.55498504638672,10.605087280273438
1634126145633755600,16.750755615234375,-19.7872314453125,73.53821563720703,10.844070434570312
1634126145653634600,16.770634521484375,-19.5489501953125,73.39569854736328,10.659481048583984
1634126145673513700,16.790513671875,-20.023223876953125,73.27851104736328,10.63846206665039
1634126145693392600,16.810392578125,-20.31439208984375,73.35714721679688,10.47467041015625
1634126145713271600,16.830271484375,-20.451171875,73.247802734375,10.568721771240234
1634126145733151700,16.85015185546875,-20.334747314453125,73.36769104003906,10.325748443603516
1634126145753030700,16.87003076171875,-20.471466064453125,73.18793487548828,10.099594116210938
1634126145772909600,16.88990966796875,-20.644500732421875,73.40959930419922,10.233871459960938
1634126145792788500,16.90978857421875,-20.9398193359375,73.25377655029297,10.43658447265625
1634126145812667600,16.929667724609374,-21.3411865234375,73.16967010498047,10.526420593261719
1634126145832547600,16.949547607421874,-21.166717529296875,72.75528717041016,10.545143127441406
1634126145852426500,16.969426513671873,-21.014923095703125,72.96528625488281,10.437339782714844
1634126145872305700,16.9893056640625,-21.26806640625,73.14164733886719,10.46010971069336
1634126145892184600,17.0091845703125,-21.419342041015625,72.89812469482422,10.815624237060547
1634126145912063500,17.0290634765625,-21.114227294921875,72.78661346435547,10.870697021484375
1634126145931943700,17.048943603515625,-21.19537353515625,72.86164093017578,11.039295196533203
1634126145951822600,17.068822509765624,-21.27197265625,72.76683807373047,11.006195068359375
1634126145971701500,17.088701416015624,-21.337921142578125,72.75231170654297,11.258174896240234
1634126145991580400,17.108580322265624,-21.29205322265625,72.5970230102539,11.215850830078125
1634126146011459600,17.12845947265625,-21.529541015625,72.8622055053711,11.631145477294922
1634126146031339500,17.148339599609375,-21.48193359375,72.6828842163086,11.74502182006836
1634126146051218400,17.168218505859375,-21.434661865234375,72.54276275634766,11.888019561767578
1634126146071097600,17.18809765625,-21.491058349609375,72.71835327148438,11.870166778564453
1634126146090976500,17.2079765625,-21.084564208984375,72.36236572265625,11.880149841308594
1634126146110855700,17.227855712890626,-21.68621826171875,72.6895751953125,11.939258575439453
1634126146130735600,17.247735595703126,-21.576568603515625,72.41178894042969,12.076923370361328
1634126146150614500,17.267614501953126,-21.4100341796875,72.44961547851562,12.359661102294922
1634126146170493700,17.28749365234375,-21.134063720703125,72.43954467773438,12.449649810791016
1634126146190372600,17.30737255859375,-21.39501953125,72.5868148803711,12.58456802368164
1634126146210251500,17.32725146484375,-21.25323486328125,72.6717300415039,12.597293853759766
1634126146230135600,17.347135498046875,-20.92486572265625,72.41832733154297,12.611038208007812
1634126146250014700,17.3670146484375,-21.1790771484375,72.59056091308594,12.561962127685547
1634126146269894000,17.386893798828126,-20.8631591796875,72.45904541015625,12.724014282226562
1634126146289772800,17.406772705078126,-20.650177001953125,72.71409606933594,12.750808715820312
1634126146309652700,17.42665283203125,-20.857208251953125,72.60173797607422,12.750282287597656
1634126146329532000,17.446531982421874,-20.723724365234375,72.6388931274414,12.621749877929688
1634126146349410800,17.466410888671874,-20.491729736328125,72.53170013427734,12.582496643066406
1634126146369290000,17.4862900390625,-20.72723388671875,72.65108489990234,12.7110595703125
1634126146389168600,17.506168701171877,-21.107269287109375,72.35499572753906,12.866008758544922
1634126146409048800,17.526048828125,-21.202880859375,72.60922241210938,12.478927612304688
1634126146428928000,17.545927978515625,-21.0445556640625,72.36622619628906,12.570232391357422
1634126146448806700,17.565806640625,-20.995941162109375,72.56159973144531,12.688724517822266
1634126146468685800,17.585685791015624,-20.832000732421875,72.48506164550781,12.955543518066406
1634126146488564700,17.605564697265624,-20.841400146484375,72.75128173828125,12.939956665039062
1634126146508444700,17.625444580078124,-20.849395751953125,72.3935775756836,12.968040466308594
1634126146528323800,17.64532373046875,-20.695892333984375,72.36947631835938,12.984642028808594
1634126146548202800,17.66520263671875,-21.142333984375,72.47347259521484,13.132923126220703
1634126146568082000,17.68508203125,-20.9781494140625,72.75895690917969,13.266109466552734
1634126146587960800,17.7049609375,-20.500518798828125,72.79553985595703,13.223400115966797
1634126146607840800,17.7248408203125,-20.38714599609375,72.7497787475586,13.272422790527344
1634126146627720000,17.744719970703127,-20.337738037109375,72.49954223632812,13.420509338378906
1634126146647598800,17.764598876953126,-20.46356201171875,72.9518051147461,13.358985900878906
1634126146667477800,17.784477783203126,-20.836883544921875,72.72906494140625,13.454826354980469
1634126146687356700,17.804356689453126,-20.938018798828125,72.4610366821289,13.204360961914062
1634126146707236900,17.82423681640625,-20.364013671875,72.75724792480469,13.578903198242188
1634126146727115800,17.84411572265625,-19.962066650390625,72.71308135986328,13.378002166748047
1634126146746994700,17.86399462890625,-20.11968994140625,72.66883850097656,13.675697326660156
1634126146766873900,17.883873779296874,-20.07501220703125,72.7407455444336,13.931827545166016
1634126146786752800,17.903752685546873,-20.25738525390625,72.76665496826172,13.835304260253906
1634126146806632700,17.9236328125,-20.270111083984375,72.62142944335938,13.893413543701172
1634126146826512000,17.943511962890625,-20.526214599609375,72.75183868408203,13.978469848632812
1634126146846390800,17.963390869140625,-20.55364990234375,72.74110412597656,13.940567016601562
1634126146866270000,17.98327001953125,-20.55169677734375,72.5947494506836,13.991958618164062
1634126146886148600,18.003148681640624,-20.72314453125,72.46357727050781,14.21084213256836
1634126146906028800,18.02302880859375,-20.86639404296875,72.59219360351562,14.59173583984375
1634126146925908000,18.042907958984376,-20.790557861328125,72.61177062988281,14.415077209472656
1634126146945786600,18.06278662109375,-20.799224853515625,72.71934509277344,14.635231018066406
1634126146965665800,18.082665771484375,-21.06341552734375,72.4145278930664,14.957786560058594
1634126146985544700,18.102544677734375,-20.776947021484375,72.38384246826172,14.844318389892578
1634126147005424600,18.122424560546875,-20.916900634765625,72.54348754882812,15.220970153808594
1634126147025303800,18.1423037109375,-20.778472900390625,72.44932556152344,15.42001724243164
1634126147045182700,18.1621826171875,-20.377899169921875,72.67428588867188,15.43771743774414
1634126147065062000,18.182061767578126,-20.719940185546875,72.54253387451172,15.60076904296875
1634126147084940800,18.20194091796875,-20.539154052734375,72.54352569580078,15.480201721191406
1634126147104820700,18.22182080078125,-20.50787353515625,72.58370971679688,15.630146026611328
1634126147124700000,18.241699951171874,-20.457275390625,72.81036376953125,15.72964096069336
1634126147144578800,18.261578857421874,-20.16387939453125,72.80432891845703,15.94546127319336
1634126147164457700,18.281457763671874,-20.62347412109375,72.67778015136719,16.12392807006836
1634126147184337000,18.3013369140625,-20.2684326171875,72.7539291381836,16.073150634765625
1634126147204216800,18.321216796875,-20.0194091796875,72.65584564208984,16.091461181640625
1634126147224092000,18.341091796875,-19.915496826171875,72.78370666503906,16.11296844482422
1634126147243970800,18.360970703125,-20.14459228515625,73.01734924316406,15.81411361694336
1634126147263850000,18.38085009765625,-20.26422119140625,72.93795776367188,15.813358306884766
1634126147283729200,18.400729248046876,-19.882537841796875,72.87174224853516,15.778491973876953
1634126147303608800,18.42060888671875,-19.904815673828125,73.04680633544922,16.24911880493164
1634126147323488000,18.440488037109375,-20.021575927734375,73.06385040283203,16.231895446777344
1634126147343367000,18.460366943359375,-19.765838623046875,72.90182495117188,15.901981353759766
1634126147363246000,18.48024609375,-19.44927978515625,72.87676239013672,15.907390594482422
1634126147383125000,18.500125,-20.188385009765625,72.92723083496094,16.12220001220703
1634126147403005000,18.5200048828125,-19.936614990234375,72.92298126220703,16.24146270751953
1634126147422884000,18.539884033203126,-19.20709228515625,72.8216781616211,16.175418853759766
1634126147442762800,18.5597626953125,-19.2021484375,72.92854309082031,16.137622833251953
1634126147462642000,18.579641845703126,-19.412567138671875,72.76773834228516,16.014198303222656
1634126147482521000,18.59952099609375,-19.225006103515625,72.80873107910156,16.165782928466797
1634126147502400800,18.61940087890625,-19.486114501953125,72.89262390136719,16.25029754638672
1634126147522280000,18.639280029296874,-19.356903076171875,72.80311584472656,16.035842895507812
1634126147542159000,18.6591591796875,-19.36212158203125,72.91486358642578,15.799060821533203
1634126147562038000,18.6790380859375,-19.36468505859375,73.22566986083984,15.999092102050781
1634126147581917000,18.6989169921875,-19.217193603515625,72.75104522705078,16.32408905029297
1634126147601796900,18.718796875,-19.561798095703125,72.90544128417969,16.00937271118164
1634126147621676000,18.738676025390625,-19.537567138671875,73.08519744873047,15.921276092529297
1634126147641555000,18.758554931640624,-19.4566650390625,73.33653259277344,15.90167236328125
1634126147661433900,18.778433837890624,-19.477020263671875,72.9006118774414,15.912670135498047
1634126147681313000,18.79831298828125,-19.25457763671875,72.86705017089844,16.01982879638672
1634126147701193000,18.81819287109375,-19.07281494140625,72.9366683959961,15.893016815185547
1634126147721071900,18.83807177734375,-19.10113525390625,72.99501037597656,15.987930297851562
1634126147740951000,18.857950927734375,-19.026397705078125,73.0291976928711,16.21786117553711
1634126147760830000,18.877829833984375,-18.941864013671875,73.23696899414062,16.298023223876953
1634126147780709000,18.897709228515627,-18.82366943359375,73.14984130859375,16.297290802001953
1634126147800588800,18.9175888671875,-18.7984619140625,72.88467407226562,16.237442016601562
1634126147820468000,18.937468017578126,-18.473968505859375,72.98345947265625,15.995262145996094
1634126147840347100,18.95734716796875,-18.246612548828125,72.74634552001953,16.082012176513672
1634126147860225800,18.977225830078126,-18.563232421875,72.84536743164062,15.989871978759766
1634126147880105000,18.99710498046875,-18.763153076171875,73.08151245117188,16.337890625
1634126147899985200,19.016985107421874,-18.854522705078125,72.83769226074219,16.253620147705078
1634126147919864000,19.036864013671874,-18.80487060546875,72.95460510253906,16.396984100341797
1634126147939743000,19.056742919921874,-19.32525634765625,73.01063537597656,16.25433349609375
1634126147959622000,19.076621826171873,-20.175994873046875,72.49132537841797,16.614246368408203
1634126147979501000,19.0965009765625,-20.453887939453125,72.74505615234375,16.36864471435547
1634126147999381000,19.116381103515625,-20.544097900390625,72.64108276367188,16.59294891357422
1634126148019260000,19.136260009765625,-20.873626708984375,72.25943756103516,16.604774475097656
1634126148039139000,19.15613916015625,-21.108917236328125,72.34391021728516,16.71331787109375
1634126148059018000,19.17601806640625,-21.712615966796875,72.24000549316406,16.764888763427734
1634126148078897000,19.19589697265625,-21.870513916015625,72.08712005615234,16.814228057861328
1634126148098777000,19.215777099609376,-22.197662353515625,71.80946350097656,16.747234344482422
1634126148118656000,19.235656005859376,-21.88714599609375,72.16533660888672,16.910598754882812
1634126148138535000,19.255534912109376,-22.029052734375,71.98787689208984,17.121379852294922
1634126148158413800,19.275413818359375,-21.557159423828125,72.35955047607422,16.890094757080078
1634126148178293000,19.29529296875,-21.852630615234375,72.2862319946289,17.101612091064453
1634126148198173000,19.3151728515625,-21.69464111328125,72.26962280273438,17.077308654785156
1634126148218051800,19.3350517578125,-21.37078857421875,72.57486724853516,16.860347747802734
1634126148237930800,19.3549306640625,-20.982940673828125,72.52989196777344,17.06218719482422
1634126148257810000,19.374809814453126,-21.3790283203125,72.05046081542969,16.8057861328125
1634126148277688800,19.394688720703126,-21.0223388671875,72.0426254272461,17.106231689453125
1634126148297568800,19.41456884765625,-20.9664306640625,72.36968231201172,16.873558044433594
1634126148317448000,19.434447998046874,-21.473541259765625,72.45784759521484,16.87293243408203
1634126148337326800,19.454326904296874,-21.287933349609375,72.18986511230469,17.07950210571289
1634126148357205800,19.474205810546874,-21.45452880859375,72.08599853515625,17.11484146118164
1634126148377084700,19.494084716796873,-21.94305419921875,72.07090759277344,17.24158477783203
