 Acc_timestamp,Accx,Accy,Accz,Gyro_timestamp,Gyrox,Gyroy,Gyroz,Baro_timestamp,Pressure_Reading
 125092416.000000, 0.768096 , 1.153341, 9.607183, 741136512.000000, -0.280000,  0.210000,  0.070000, 0.000000,  0.000000 
 125112384.000000, 0.753739 , 1.129412, 9.604790, 741156480.000000, -0.490000,  0.350000,  0.070000, 0.000000,  0.000000 
 125134912.000000, 0.722632 , 1.141376, 9.616754, 741176512.000000, -0.630000,  0.420000,  0.070000, 0.000000,  0.000000 
 125152640.000000, 0.763310 , 1.122234, 9.592826, 741199040.000000, -0.700000,  0.420000,  0.070000, 0.000000,  0.000000 
 125172352.000000, 0.691526 , 1.105484, 9.588040, 741216768.000000, -0.770000,  0.280000,  0.070000, 0.000000,  0.000000 
 125192320.000000, 0.715454 , 1.124627, 9.592826, 741236480.000000, -0.350000,  0.280000,  0.070000, 0.000000,  0.000000 
 125212352.000000, 0.753739 , 1.148555, 9.585647, 741256448.000000, -0.070000,  0.350000,  0.070000, 0.000000,  0.000000 
 125232896.000000, 0.734596 , 1.153341, 9.628718, 741276416.000000, -0.070000,  0.210000,  0.070000, 0.000000,  0.000000 
 125252608.000000, 0.751346 , 1.124627, 9.631111, 741297024.000000, -0.350000,  0.210000,  0.070000, 0.000000,  0.000000 
 125272320.000000, 0.739382 , 1.136591, 9.609575, 741316736.000000, -0.420000,  0.350000,  0.070000, 0.000000,  0.000000 
 125292288.000000, 0.729811 , 1.141376, 9.614362, 741336384.000000, -0.420000,  0.350000,  0.070000, 0.000000,  0.000000 
 125312256.000000, 0.696311 , 1.122234, 9.595219, 741356416.000000, -0.490000,  0.420000,  0.070000, 0.000000,  0.000000 
 125332864.000000, 0.725025 , 1.129412, 9.623933, 741376384.000000, -0.560000,  0.420000,  0.070000, 0.000000,  0.000000 
 125352576.000000, 0.746561 , 1.158126, 9.616754, 741396992.000000, -0.350000,  0.350000,  0.070000, 0.000000,  0.000000 
 125372224.000000, 0.746561 , 1.129412, 9.585647, 741416640.000000, -0.280000,  0.280000,  0.070000, 0.000000,  0.000000 
 125392256.000000, 0.748954 , 1.115055, 9.614362, 741436352.000000, -0.280000,  0.350000,  0.070000, 0.000000,  0.000000 
 125412224.000000, 0.725025 , 1.122234, 9.600004, 741456320.000000, -0.210000,  0.420000,  0.140000, 0.000000,  0.000000 
 125432832.000000, 0.744168 , 1.141376, 9.595219, 741476352.000000, -0.210000,  0.350000,  0.070000, 0.000000,  0.000000 
 125452480.000000, 0.751346 , 1.138984, 9.595219, 741496896.000000, -0.140000,  0.280000,  0.070000, 0.000000,  0.000000 
 125472192.000000, 0.717847 , 1.148555, 9.623933, 741516608.000000, -0.210000,  0.280000,  0.070000, 0.000000,  0.000000 
 125492160.000000, 0.777667 , 1.131805, 9.576077, 741536320.000000, -0.350000,  0.420000,  0.070000, 0.000000,  0.000000 
 125512192.000000, 0.753739 , 1.105484, 9.592826, 741576256.000000, -0.490000,  0.350000,  0.070000, 742236352.000000,  1010.471069 
 125532736.000000, 0.758525 , 1.127020, 9.611969, 0.000000, 0.000000,  0.000000,  0.000000, 0.000000,  0.000000 
 125552448.000000, 0.746561 , 1.131805, 9.614362, 741596864.000000, -0.630000,  0.280000,  0.070000, 0.000000,  0.000000 
 125572096.000000, 0.768096 , 1.170090, 9.571291, 741616576.000000, -0.490000,  0.420000,  0.070000, 0.000000,  0.000000 
 125592128.000000, 0.768096 , 1.119841, 9.652647, 741636224.000000, -0.490000,  0.420000,  0.070000, 0.000000,  0.000000 
 125612096.000000, 0.736989 , 1.134198, 9.568897, 741656192.000000, -0.280000,  0.280000,  0.070000, 0.000000,  0.000000 
 125632704.000000, 0.748954 , 1.100698, 9.590433, 741676224.000000, -0.420000,  0.350000,  0.070000, 0.000000,  0.000000 
 125652416.000000, 0.775275 , 1.155733, 9.609575, 741696768.000000, -0.420000,  0.280000,  0.140000, 0.000000,  0.000000 
 125672064.000000, 0.741775 , 1.131805, 9.585647, 741716480.000000, -0.350000,  0.350000,  0.070000, 0.000000,  0.000000 
 125692032.000000, 0.729811 , 1.131805, 9.631111, 741736192.000000, -0.210000,  0.350000,  0.070000, 0.000000,  0.000000 
 125712064.000000, 0.756132 , 1.160519, 9.602397, 741756160.000000, -0.210000,  0.350000,  0.070000, 0.000000,  0.000000 
 125732608.000000, 0.698704 , 1.136591, 9.556933, 741776128.000000, -0.280000,  0.350000,  0.070000, 0.000000,  0.000000 
 125752320.000000, 0.758525 , 1.153341, 9.580862, 741796736.000000, -0.280000,  0.210000,  0.070000, 0.000000,  0.000000 
 125772032.000000, 0.732204 , 1.127020, 9.592826, 741816448.000000, -0.280000,  0.280000,  0.070000, 0.000000,  0.000000 
 125792000.000000, 0.710668 , 1.134198, 9.602397, 741836096.000000, -0.350000,  0.350000,  0.070000, 0.000000,  0.000000 
 125811968.000000, 0.741775 , 1.148555, 9.607183, 741856128.000000, -0.490000,  0.420000,  0.070000, 0.000000,  0.000000 
 125832640.000000, 0.775275 , 1.129412, 9.604790, 741876096.000000, -0.490000,  0.350000,  0.070000, 0.000000,  0.000000 
 125852288.000000, 0.741775 , 1.127020, 9.585647, 741896704.000000, -0.420000,  0.350000,  0.070000, 0.000000,  0.000000 
 125871936.000000, 0.758525 , 1.167697, 9.559326, 741916416.000000, -0.140000,  0.280000,  0.070000, 0.000000,  0.000000 
 125891968.000000, 0.753739 , 1.146162, 9.564112, 741936064.000000, -0.140000,  0.210000,  0.070000, 0.000000,  0.000000 
 125911936.000000, 0.734596 , 1.153341, 9.602397, 741956032.000000, -0.350000,  0.210000,  0.070000, 0.000000,  0.000000 
 125932544.000000, 0.729811 , 1.122234, 9.623933, 741976064.000000, -0.560000,  0.560000,  0.070000, 0.000000,  0.000000 
 125952256.000000, 0.748954 , 1.129412, 9.623933, 741996608.000000, -0.770000,  0.560000,  0.070000, 0.000000,  0.000000 
 125971904.000000, 0.720240 , 1.105484, 9.602397, 742016320.000000, -0.770000,  0.280000,  -0.070000, 0.000000,  0.000000 
 125991872.000000, 0.775275 , 1.105484, 9.580862, 742036032.000000, -0.630000,  0.140000,  -0.070000, 0.000000,  0.000000 
 126011904.000000, 0.703490 , 1.158126, 9.561719, 742056000.000000, -0.280000,  0.210000,  0.070000, 0.000000,  0.000000 
 126032448.000000, 0.777667 , 1.141376, 9.580862, 742075968.000000, 0.070000,  0.280000,  0.070000, 0.000000,  0.000000 
 126052160.000000, 0.777667 , 1.167697, 9.595219, 742096576.000000, -0.280000,  0.350000,  0.070000, 0.000000,  0.000000 
 126071872.000000, 0.765703 , 1.141376, 9.607183, 742116288.000000, -0.630000,  0.420000,  0.070000, 0.000000,  0.000000 
 126091840.000000, 0.772882 , 1.103091, 9.590433, 742135936.000000, -0.770000,  0.420000,  0.070000, 0.000000,  0.000000 
 126111808.000000, 0.725025 , 1.122234, 9.664611, 742155968.000000, -0.490000,  0.350000,  0.070000, 0.000000,  0.000000 
 126134336.000000, 0.768096 , 1.045663, 9.528220, 742175936.000000, -0.560000,  0.350000,  0.070000, 0.000000,  0.000000 
 126152128.000000, 0.679562 , 1.186840, 9.645468, 742198464.000000, 0.140000,  0.350000,  0.140000, 0.000000,  0.000000 
 126171776.000000, 0.789631 , 1.057628, 9.576077, 742216192.000000, -0.630000,  0.630000,  0.070000, 0.000000,  0.000000 
 126191808.000000, 0.751346 , 1.222732, 9.609575, 742235904.000000, -0.280000,  0.210000,  0.140000, 0.000000,  0.000000 
 126211776.000000, 0.739382 , 1.067199, 9.535398, 742255872.000000, -0.280000,  0.490000,  -0.070000, 0.000000,  0.000000 
 126232384.000000, 0.770489 , 1.150948, 9.616754, 742275904.000000, -0.280000,  0.280000,  0.070000, 0.000000,  0.000000 
 126252032.000000, 0.768096 , 1.182054, 9.552148, 742296448.000000, -0.280000,  0.420000,  0.140000, 0.000000,  0.000000 
 126271744.000000, 0.780060 , 1.086342, 9.609575, 742316160.000000, -0.140000,  0.490000,  0.070000, 0.000000,  0.000000 
 126291712.000000, 0.739382 , 1.172483, 9.583255, 742335872.000000, -0.350000,  0.140000,  0.070000, 0.000000,  0.000000 
 126311744.000000, 0.794417 , 1.083949, 9.573684, 742355840.000000, -0.420000,  0.490000,  0.070000, 0.000000,  0.000000 
 126332288.000000, 0.729811 , 1.110270, 9.566505, 742375808.000000, -0.560000,  0.140000,  0.070000, 0.000000,  0.000000 
 126352000.000000, 0.758525 , 1.124627, 9.590433, 742396416.000000, -0.490000,  0.210000,  0.070000, 0.000000,  0.000000 
 126371712.000000, 0.751346 , 1.105484, 9.621540, 742416128.000000, -0.910000,  0.560000,  0.070000, 0.000000,  0.000000 
 126391680.000000, 0.748954 , 1.155733, 9.583255, 742435776.000000, -0.490000,  0.420000,  0.140000, 0.000000,  0.000000 
 126411648.000000, 0.784846 , 1.119841, 9.559326, 742455808.000000, -0.700000,  0.420000,  -0.070000, 0.000000,  0.000000 
 126432256.000000, 0.684347 , 1.093520, 9.580862, 742475776.000000, -0.490000,  0.140000,  0.140000, 0.000000,  0.000000 
 126451968.000000, 0.739382 , 1.071985, 9.592826, 742496384.000000, -0.350000,  0.350000,  0.140000, 0.000000,  0.000000 
 126471616.000000, 0.727418 , 1.112662, 9.607183, 742516032.000000, -0.140000,  0.210000,  0.070000, 0.000000,  0.000000 
 126491648.000000, 0.722632 , 1.117448, 9.600004, 742535744.000000, -0.210000,  0.420000,  0.070000, 0.000000,  0.000000 
 126511616.000000, 0.763310 , 1.150948, 9.635897, 742555712.000000, -0.210000,  0.560000,  0.070000, 0.000000,  0.000000 
 126532224.000000, 0.758525 , 1.141376, 9.578469, 742575744.000000, -0.280000,  0.350000,  0.070000, 743235776.000000,  1010.472046 
 126551872.000000, 0.787239 , 1.141376, 9.561719, 742596288.000000, -0.280000,  0.210000,  0.070000, 0.000000,  0.000000 
 126571584.000000, 0.768096 , 1.112662, 9.576077, 742616000.000000, -0.350000,  0.210000,  0.070000, 0.000000,  0.000000 
 126591552.000000, 0.756132 , 1.136591, 9.588040, 742635648.000000, -0.210000,  0.420000,  0.140000, 0.000000,  0.000000 
 126611584.000000, 0.751346 , 1.129412, 9.626326, 742655680.000000, -0.280000,  0.490000,  0.140000, 0.000000,  0.000000 
 126632128.000000, 0.734596 , 1.122234, 9.623933, 742675648.000000, -0.350000,  0.420000,  0.140000, 0.000000,  0.000000 
 126651840.000000, 0.760918 , 1.127020, 9.631111, 742696256.000000, -0.490000,  0.350000,  0.070000, 0.000000,  0.000000 
 126671552.000000, 0.729811 , 1.143769, 9.640682, 742715968.000000, -0.490000,  0.350000,  0.140000, 0.000000,  0.000000 
 126691520.000000, 0.760918 , 1.136591, 9.585647, 742735616.000000, -0.210000,  0.280000,  0.140000, 0.000000,  0.000000 
 126711488.000000, 0.748954 , 1.150948, 9.583255, 742755584.000000, -0.070000,  0.280000,  0.070000, 0.000000,  0.000000 
 126732096.000000, 0.725025 , 1.124627, 9.623933, 742775616.000000, -0.210000,  0.280000,  0.070000, 0.000000,  0.000000 
 126751808.000000, 0.725025 , 1.198804, 9.576077, 742796160.000000, -0.490000,  0.420000,  0.070000, 0.000000,  0.000000 
 126771456.000000, 0.722632 , 1.150948, 9.621540, 742815872.000000, -0.700000,  0.490000,  0.070000, 0.000000,  0.000000 
 126791488.000000, 0.720240 , 1.076770, 9.628718, 742835584.000000, -0.700000,  0.280000,  0.070000, 0.000000,  0.000000 
 126811456.000000, 0.746561 , 1.138984, 9.595219, 742855552.000000, -0.560000,  0.210000,  0.070000, 0.000000,  0.000000 
 126832064.000000, 0.753739 , 1.146162, 9.623933, 742875520.000000, -0.210000,  0.280000,  0.070000, 0.000000,  0.000000 
 126851712.000000, 0.729811 , 1.153341, 9.578469, 742896192.000000, 0.070000,  0.350000,  0.070000, 0.000000,  0.000000 
 126871424.000000, 0.760918 , 1.122234, 9.576077, 742915840.000000, 0.070000,  0.280000,  0.070000, 0.000000,  0.000000 
 126891392.000000, 0.765703 , 1.117448, 9.609575, 742935552.000000, -0.350000,  0.280000,  0.070000, 0.000000,  0.000000 
 126911424.000000, 0.777667 , 1.119841, 9.621540, 742955520.000000, -0.490000,  0.420000,  0.140000, 0.000000,  0.000000 
 126931968.000000, 0.736989 , 1.143769, 9.614362, 742975488.000000, -0.350000,  0.420000,  0.140000, 0.000000,  0.000000 
 126951680.000000, 0.727418 , 1.174876, 9.614362, 742996096.000000, -0.280000,  0.420000,  0.070000, 0.000000,  0.000000 
 126971392.000000, 0.770489 , 1.136591, 9.592826, 743015808.000000, -0.350000,  0.420000,  0.070000, 0.000000,  0.000000 
 126991360.000000, 0.717847 , 1.115055, 9.607183, 743035456.000000, -0.420000,  0.280000,  0.070000, 0.000000,  0.000000 
 127011328.000000, 0.732204 , 1.071985, 9.576077, 743055488.000000, -0.490000,  0.350000,  0.070000, 0.000000,  0.000000 
 127031936.000000, 0.734596 , 1.186840, 9.652647, 743075456.000000, -0.280000,  0.490000,  0.140000, 0.000000,  0.000000 
 127051648.000000, 0.736989 , 1.131805, 9.638289, 743096000.000000, -0.210000,  0.490000,  0.070000, 0.000000,  0.000000 
 127071296.000000, 0.765703 , 1.138984, 9.592826, 743115712.000000, -0.350000,  0.490000,  0.070000, 0.000000,  0.000000 
 127091328.000000, 0.701097 , 1.122234, 9.619147, 743135424.000000, -0.280000,  0.420000,  0.070000, 0.000000,  0.000000 
 127111296.000000, 0.799203 , 1.127020, 9.619147, 743155392.000000, -0.140000,  0.280000,  0.070000, 0.000000,  0.000000 
 127133824.000000, 0.698704 , 1.160519, 9.571291, 743175424.000000, -0.210000,  0.280000,  0.070000, 0.000000,  0.000000 
 127151552.000000, 0.787239 , 1.148555, 9.611969, 743197952.000000, -0.490000,  0.420000,  0.070000, 0.000000,  0.000000 
 127171264.000000, 0.748954 , 1.095913, 9.626326, 743215680.000000, -0.630000,  0.420000,  0.070000, 0.000000,  0.000000 
 127191232.000000, 0.756132 , 1.134198, 9.592826, 743235328.000000, -0.630000,  0.350000,  0.070000, 0.000000,  0.000000 
 127211264.000000, 0.746561 , 1.098306, 9.619147, 743255360.000000, -0.420000,  0.420000,  0.070000, 0.000000,  0.000000 
 127231808.000000, 0.768096 , 1.134198, 9.568897, 743275328.000000, -0.210000,  0.420000,  0.070000, 0.000000,  0.000000 
 127251520.000000, 0.756132 , 1.127020, 9.600004, 743295936.000000, -0.280000,  0.350000,  0.070000, 0.000000,  0.000000 
 127271232.000000, 0.717847 , 1.100698, 9.597611, 743315648.000000, -0.350000,  0.280000,  0.070000, 0.000000,  0.000000 
 127291200.000000, 0.739382 , 1.124627, 9.590433, 743335296.000000, -0.490000,  0.420000,  0.140000, 0.000000,  0.000000 
 127311168.000000, 0.744168 , 1.122234, 9.638289, 743355264.000000, -0.280000,  0.420000,  0.140000, 0.000000,  0.000000 
 127331776.000000, 0.768096 , 1.155733, 9.602397, 743375296.000000, -0.140000,  0.350000,  0.070000, 0.000000,  0.000000 
 127351488.000000, 0.756132 , 1.119841, 9.635897, 743395840.000000, -0.140000,  0.350000,  0.070000, 0.000000,  0.000000 
 127371136.000000, 0.741775 , 1.105484, 9.566505, 743415552.000000, -0.280000,  0.420000,  0.070000, 0.000000,  0.000000 
 127391104.000000, 0.727418 , 1.117448, 9.602397, 743435264.000000, -0.420000,  0.490000,  0.140000, 0.000000,  0.000000 
 127411136.000000, 0.770489 , 1.143769, 9.600004, 743455232.000000, -0.560000,  0.420000,  0.070000, 0.000000,  0.000000 
 127431680.000000, 0.679562 , 1.112662, 9.576077, 743475200.000000, -0.420000,  0.420000,  0.070000, 0.000000,  0.000000 
 127451392.000000, 0.708275 , 1.076770, 9.607183, 743495808.000000, -0.280000,  0.350000,  0.070000, 0.000000,  0.000000 
 127471104.000000, 0.734596 , 1.088734, 9.585647, 743515520.000000, -0.350000,  0.350000,  0.070000, 0.000000,  0.000000 
 127491072.000000, 0.768096 , 1.105484, 9.600004, 743535168.000000, -0.350000,  0.420000,  0.070000, 0.000000,  0.000000 
 127511040.000000, 0.741775 , 1.141376, 9.604790, 743555200.000000, -0.280000,  0.420000,  0.070000, 0.000000,  0.000000 
 127531648.000000, 0.732204 , 1.146162, 9.597611, 743575168.000000, -0.280000,  0.350000,  0.070000, 744235264.000000,  1010.471802 
 127551360.000000, 0.753739 , 1.127020, 9.616754, 743595776.000000, -0.490000,  0.280000,  0.070000, 0.000000,  0.000000 
 127571008.000000, 0.741775 , 1.131805, 9.619147, 743615488.000000, -0.700000,  0.490000,  0.070000, 0.000000,  0.000000 
 127591040.000000, 0.734596 , 1.103091, 9.626326, 743635136.000000, -0.630000,  0.560000,  0.070000, 0.000000,  0.000000 
 127611008.000000, 0.713061 , 1.105484, 9.631111, 743655104.000000, -0.630000,  0.490000,  0.070000, 0.000000,  0.000000 
 127631616.000000, 0.777667 , 1.138984, 9.623933, 743675136.000000, -0.560000,  0.210000,  0.070000, 0.000000,  0.000000 
 127651328.000000, 0.756132 , 1.158126, 9.571291, 743695680.000000, -0.420000,  0.210000,  0.070000, 0.000000,  0.000000 
 127670976.000000, 0.701097 , 1.107877, 9.547362, 743715392.000000, -0.070000,  0.350000,  0.070000, 0.000000,  0.000000 
 127690944.000000, 0.746561 , 1.119841, 9.621540, 743735040.000000, -0.140000,  0.420000,  0.070000, 0.000000,  0.000000 
 127710976.000000, 0.775275 , 1.107877, 9.621540, 743755072.000000, -0.280000,  0.280000,  0.070000, 0.000000,  0.000000 
 127731520.000000, 0.768096 , 1.115055, 9.595219, 743775040.000000, -0.280000,  0.420000,  0.070000, 0.000000,  0.000000 
 127751232.000000, 0.736989 , 1.153341, 9.568897, 743795648.000000, -0.420000,  0.490000,  0.070000, 0.000000,  0.000000 
 127770944.000000, 0.717847 , 1.105484, 9.602397, 743815360.000000, -0.630000,  0.490000,  0.070000, 0.000000,  0.000000 
 127790912.000000, 0.770489 , 1.115055, 9.559326, 743835008.000000, -0.560000,  0.420000,  0.070000, 0.000000,  0.000000 
 127810880.000000, 0.729811 , 1.162912, 9.604790, 743854976.000000, -0.350000,  0.280000,  0.070000, 0.000000,  0.000000 
 127831680.000000, 0.744168 , 1.129412, 9.628718, 743875008.000000, -0.280000,  0.420000,  0.070000, 0.000000,  0.000000 
 127851328.000000, 0.765703 , 1.146162, 9.578469, 743895808.000000, -0.350000,  0.560000,  0.070000, 0.000000,  0.000000 
 127870848.000000, 0.739382 , 1.115055, 9.585647, 743915392.000000, -0.420000,  0.490000,  0.070000, 0.000000,  0.000000 
 127890880.000000, 0.744168 , 1.107877, 9.564112, 743934976.000000, -0.560000,  0.350000,  0.070000, 0.000000,  0.000000 
 127910848.000000, 0.722632 , 1.110270, 9.564112, 743954944.000000, -0.560000,  0.350000,  0.070000, 0.000000,  0.000000 
 127931456.000000, 0.722632 , 1.107877, 9.564112, 743974912.000000, -0.490000,  0.420000,  0.070000, 0.000000,  0.000000 
 127951104.000000, 0.708275 , 1.141376, 9.638289, 743995520.000000, -0.560000,  0.420000,  0.070000, 0.000000,  0.000000 
 127970816.000000, 0.758525 , 1.110270, 9.607183, 744015232.000000, -0.630000,  0.420000,  0.070000, 0.000000,  0.000000 
 127990784.000000, 0.748954 , 1.117448, 9.619147, 744034880.000000, -0.840000,  0.420000,  0.070000, 0.000000,  0.000000 
 128010816.000000, 0.736989 , 1.081556, 9.578469, 744054912.000000, -0.770000,  0.420000,  0.070000, 0.000000,  0.000000 
 128031360.000000, 0.722632 , 1.127020, 9.580862, 744074880.000000, -0.630000,  0.280000,  0.070000, 0.000000,  0.000000 
 128051072.000000, 0.765703 , 1.153341, 9.592826, 744095488.000000, -0.490000,  0.350000,  0.070000, 0.000000,  0.000000 
 128070720.000000, 0.789631 , 1.131805, 9.614362, 744115200.000000, -0.420000,  0.420000,  0.070000, 0.000000,  0.000000 
 128090752.000000, 0.744168 , 1.131805, 9.607183, 744134848.000000, -0.490000,  0.420000,  0.070000, 0.000000,  0.000000 
 128110720.000000, 0.780060 , 1.115055, 9.588040, 744154816.000000, -0.490000,  0.420000,  0.070000, 0.000000,  0.000000 
 128133312.000000, 0.799203 , 1.076770, 9.600004, 744174848.000000, -0.350000,  0.420000,  0.140000, 0.000000,  0.000000 
 128151040.000000, 0.741775 , 1.122234, 9.583255, 744197376.000000, -0.210000,  0.280000,  0.140000, 0.000000,  0.000000 
 128170688.000000, 0.715454 , 1.103091, 9.645468, 744215104.000000, -0.210000,  0.280000,  0.070000, 0.000000,  0.000000 
 128190656.000000, 0.725025 , 1.122234, 9.602397, 744234816.000000, -0.280000,  0.350000,  0.070000, 0.000000,  0.000000 
 128210688.000000, 0.725025 , 1.069592, 9.585647, 744254784.000000, -0.350000,  0.280000,  0.070000, 0.000000,  0.000000 
 128231296.000000, 0.705883 , 1.086342, 9.576077, 744274752.000000, -0.490000,  0.280000,  0.070000, 0.000000,  0.000000 
 128250944.000000, 0.736989 , 1.129412, 9.585647, 744295360.000000, -0.350000,  0.350000,  0.140000, 0.000000,  0.000000 
 128270656.000000, 0.739382 , 1.136591, 9.635897, 744315072.000000, -0.280000,  0.490000,  0.070000, 0.000000,  0.000000 
 128290624.000000, 0.713061 , 1.100698, 9.616754, 744334720.000000, -0.140000,  0.420000,  0.070000, 0.000000,  0.000000 
 128310592.000000, 0.725025 , 1.153341, 9.619147, 744354752.000000, -0.280000,  0.280000,  0.070000, 0.000000,  0.000000 
 128331200.000000, 0.725025 , 1.103091, 9.585647, 744374720.000000, -0.420000,  0.210000,  0.070000, 0.000000,  0.000000 
 128350912.000000, 0.736989 , 1.141376, 9.571291, 744395328.000000, -0.560000,  0.420000,  0.070000, 0.000000,  0.000000 
 128370560.000000, 0.744168 , 1.060020, 9.626326, 744415040.000000, -0.560000,  0.490000,  0.070000, 0.000000,  0.000000 
 128390592.000000, 0.792024 , 1.122234, 9.647861, 744434688.000000, -0.560000,  0.350000,  0.070000, 0.000000,  0.000000 
 128410560.000000, 0.741775 , 1.131805, 9.585647, 744454656.000000, -0.350000,  0.210000,  0.070000, 0.000000,  0.000000 
 128431168.000000, 0.782453 , 1.160519, 9.626326, 744474688.000000, -0.350000,  0.210000,  0.070000, 0.000000,  0.000000 
 128450880.000000, 0.732204 , 1.143769, 9.549755, 744495232.000000, 0.070000,  0.210000,  0.070000, 0.000000,  0.000000 
 128470528.000000, 0.768096 , 1.064806, 9.614362, 744514944.000000, -0.210000,  0.280000,  0.070000, 0.000000,  0.000000 
 128490496.000000, 0.753739 , 1.091127, 9.588040, 744534656.000000, -0.560000,  0.350000,  0.070000, 0.000000,  0.000000 
 128510528.000000, 0.741775 , 1.129412, 9.628718, 744554624.000000, -0.560000,  0.420000,  0.070000, 0.000000,  0.000000 
 128531072.000000, 0.720240 , 1.115055, 9.614362, 744574592.000000, -0.420000,  0.350000,  0.070000, 745234688.000000,  1010.467834 
 128550784.000000, 0.727418 , 1.095913, 9.607183, 744595200.000000, -0.350000,  0.490000,  0.140000, 0.000000,  0.000000 
 128570496.000000, 0.748954 , 1.055235, 9.640682, 744614912.000000, -0.490000,  0.420000,  0.070000, 0.000000,  0.000000 
 128590464.000000, 0.715454 , 1.081556, 9.616754, 744634560.000000, -0.420000,  0.210000,  0.070000, 0.000000,  0.000000 
 128610432.000000, 0.725025 , 1.122234, 9.607183, 744654592.000000, -0.140000,  0.280000,  0.070000, 0.000000,  0.000000 
 128631040.000000, 0.736989 , 1.117448, 9.623933, 744674560.000000, -0.140000,  0.420000,  0.070000, 0.000000,  0.000000 
 128650752.000000, 0.739382 , 1.119841, 9.590433, 744695168.000000, -0.140000,  0.350000,  0.070000, 0.000000,  0.000000 
 128670400.000000, 0.763310 , 1.088734, 9.607183, 744714880.000000, -0.490000,  0.350000,  0.070000, 0.000000,  0.000000 
 128690432.000000, 0.775275 , 1.107877, 9.592826, 744734528.000000, -0.630000,  0.350000,  0.070000, 0.000000,  0.000000 
 128710400.000000, 0.744168 , 1.122234, 9.623933, 744754496.000000, -0.490000,  0.350000,  0.070000, 0.000000,  0.000000 
 128731008.000000, 0.794417 , 1.141376, 9.578469, 744774528.000000, -0.350000,  0.280000,  -0.070000, 0.000000,  0.000000 
 128750720.000000, 0.748954 , 1.105484, 9.578469, 744795072.000000, -0.420000,  0.350000,  -0.070000, 0.000000,  0.000000 
 128770368.000000, 0.739382 , 1.086342, 9.590433, 744814784.000000, -0.630000,  0.350000,  0.070000, 0.000000,  0.000000 
 128790336.000000, 0.758525 , 1.093520, 9.597611, 744834496.000000, -0.560000,  0.280000,  0.070000, 0.000000,  0.000000 
 128810368.000000, 0.727418 , 1.083949, 9.609575, 744854464.000000, -0.560000,  0.350000,  0.070000, 0.000000,  0.000000 
 128830976.000000, 0.741775 , 1.117448, 9.628718, 744874432.000000, -0.420000,  0.490000,  0.070000, 0.000000,  0.000000 
 128850624.000000, 0.705883 , 1.086342, 9.600004, 744895104.000000, -0.350000,  0.420000,  0.070000, 0.000000,  0.000000 
 128870336.000000, 0.736989 , 1.107877, 9.578469, 744914752.000000, -0.140000,  0.210000,  0.070000, 0.000000,  0.000000 
 128890304.000000, 0.717847 , 1.112662, 9.571291, 744934400.000000, -0.140000,  0.280000,  0.070000, 0.000000,  0.000000 
 128910272.000000, 0.760918 , 1.112662, 9.607183, 744954432.000000, -0.280000,  0.350000,  0.070000, 0.000000,  0.000000 
 128930880.000000, 0.770489 , 1.105484, 9.616754, 744974400.000000, -0.420000,  0.420000,  0.070000, 0.000000,  0.000000 
 128950592.000000, 0.780060 , 1.129412, 9.592826, 744995008.000000, -0.350000,  0.420000,  0.070000, 0.000000,  0.000000 
 128970240.000000, 0.713061 , 1.100698, 9.623933, 745014656.000000, -0.210000,  0.350000,  0.070000, 0.000000,  0.000000 
 128990272.000000, 0.796810 , 1.136591, 9.600004, 745034368.000000, -0.140000,  0.280000,  0.070000, 0.000000,  0.000000 
 129010240.000000, 0.806381 , 1.100698, 9.561719, 745054336.000000, -0.140000,  0.280000,  0.070000, 0.000000,  0.000000 
 129030848.000000, 0.746561 , 1.141376, 9.576077, 745074368.000000, -0.140000,  0.280000,  0.070000, 0.000000,  0.000000 
 129050560.000000, 0.703490 , 1.153341, 9.588040, 745094912.000000, -0.210000,  0.350000,  0.070000, 0.000000,  0.000000 
 129070208.000000, 0.722632 , 1.131805, 9.614362, 745114624.000000, -0.420000,  0.350000,  0.070000, 0.000000,  0.000000 
 129090176.000000, 0.744168 , 1.203590, 9.607183, 745134336.000000, -0.490000,  0.280000,  0.070000, 0.000000,  0.000000 
 129110208.000000, 0.765703 , 1.081556, 9.607183, 745154304.000000, -0.490000,  0.420000,  0.070000, 0.000000,  0.000000 
 129132736.000000, 0.727418 , 1.076770, 9.590433, 745174272.000000, -0.490000,  0.420000,  0.070000, 0.000000,  0.000000 
 129150464.000000, 0.725025 , 1.093520, 9.600004, 745196864.000000, -0.490000,  0.210000,  0.070000, 0.000000,  0.000000 
 129170176.000000, 0.753739 , 1.110270, 9.573684, 745214592.000000, -0.560000,  0.070000,  0.070000, 0.000000,  0.000000 
 129190144.000000, 0.748954 , 1.141376, 9.604790, 745254208.000000, -0.140000,  0.420000,  0.070000, 0.000000,  0.000000 
 129210112.000000, 0.751346 , 1.122234, 9.583255, 0.000000, 0.000000,  0.000000,  0.000000, 0.000000,  0.000000 
 129230720.000000, 0.765703 , 1.117448, 9.611969, 745274240.000000, -0.210000,  0.350000,  0.070000, 0.000000,  0.000000 
 129250432.000000, 0.720240 , 1.117448, 9.638289, 745294784.000000, -0.420000,  0.350000,  0.070000, 0.000000,  0.000000 
 129270080.000000, 0.770489 , 1.153341, 9.600004, 745314560.000000, -0.490000,  0.350000,  0.070000, 0.000000,  0.000000 
 129290112.000000, 0.751346 , 1.110270, 9.609575, 745334208.000000, -0.490000,  0.350000,  0.070000, 0.000000,  0.000000 
 129310080.000000, 0.753739 , 1.095913, 9.602397, 745354176.000000, -0.420000,  0.350000,  0.070000, 0.000000,  0.000000 
 129330688.000000, 0.715454 , 1.148555, 9.643075, 745374144.000000, -0.280000,  0.350000,  0.070000, 0.000000,  0.000000 
 129350400.000000, 0.775275 , 1.115055, 9.655040, 745394752.000000, -0.280000,  0.280000,  0.070000, 0.000000,  0.000000 
 129370048.000000, 0.765703 , 1.117448, 9.580862, 745414464.000000, -0.280000,  0.280000,  0.070000, 0.000000,  0.000000 
 129390016.000000, 0.758525 , 1.112662, 9.631111, 745434112.000000, -0.350000,  0.350000,  0.070000, 0.000000,  0.000000 
 129410048.000000, 0.768096 , 1.095913, 9.633504, 745454144.000000, -0.350000,  0.420000,  0.070000, 0.000000,  0.000000 
 129430592.000000, 0.746561 , 1.083949, 9.614362, 745474112.000000, -0.280000,  0.350000,  0.070000, 0.000000,  0.000000 
 129450304.000000, 0.715454 , 1.141376, 9.592826, 745494720.000000, -0.210000,  0.280000,  0.070000, 0.000000,  0.000000 
 129469952.000000, 0.736989 , 1.155733, 9.600004, 745514432.000000, -0.210000,  0.350000,  0.070000, 0.000000,  0.000000 
 129489984.000000, 0.715454 , 1.074377, 9.600004, 745534080.000000, -0.350000,  0.420000,  0.070000, 0.000000,  0.000000 
 129509952.000000, 0.751346 , 1.071985, 9.602397, 745574080.000000, -0.420000,  0.210000,  0.070000, 746234112.000000,  1010.468628 
 129530560.000000, 0.777667 , 1.138984, 9.588040, 0.000000, 0.000000,  0.000000,  0.000000, 0.000000,  0.000000 
 129550272.000000, 0.756132 , 1.155733, 9.588040, 745594624.000000, -0.420000,  0.210000,  0.070000, 0.000000,  0.000000 
 129569920.000000, 0.770489 , 1.093520, 9.597611, 745614336.000000, -0.420000,  0.350000,  0.070000, 0.000000,  0.000000 
 129589888.000000, 0.768096 , 1.100698, 9.633504, 745634048.000000, -0.560000,  0.420000,  0.140000, 0.000000,  0.000000 
 129609920.000000, 0.756132 , 1.098306, 9.638289, 745654016.000000, -0.560000,  0.420000,  0.070000, 0.000000,  0.000000 
 129630464.000000, 0.715454 , 1.148555, 9.600004, 745673984.000000, -0.350000,  0.420000,  0.070000, 0.000000,  0.000000 
 129650176.000000, 0.713061 , 1.131805, 9.607183, 745694592.000000, -0.140000,  0.280000,  0.070000, 0.000000,  0.000000 
 129669888.000000, 0.763310 , 1.127020, 9.578469, 745714304.000000, -0.070000,  0.140000,  0.070000, 0.000000,  0.000000 
 129689856.000000, 0.765703 , 1.127020, 9.554541, 745733952.000000, -0.070000,  0.210000,  0.070000, 0.000000,  0.000000 
 129709824.000000, 0.720240 , 1.055235, 9.590433, 745753984.000000, -0.280000,  0.420000,  0.070000, 0.000000,  0.000000 
 129730432.000000, 0.741775 , 1.088734, 9.619147, 745773952.000000, -0.420000,  0.490000,  0.070000, 0.000000,  0.000000 
 129750144.000000, 0.748954 , 1.100698, 9.647861, 745794560.000000, -0.560000,  0.420000,  0.070000, 0.000000,  0.000000 
 129769792.000000, 0.775275 , 1.117448, 9.592826, 745814272.000000, -0.490000,  0.280000,  0.070000, 0.000000,  0.000000 
 129789824.000000, 0.717847 , 1.127020, 9.600004, 745833920.000000, -0.210000,  0.210000,  0.070000, 0.000000,  0.000000 
 129809792.000000, 0.701097 , 1.110270, 9.628718, 745853888.000000, -0.210000,  0.280000,  0.070000, 0.000000,  0.000000 
 129830400.000000, 0.725025 , 1.110270, 9.604790, 745873920.000000, -0.210000,  0.280000,  0.070000, 0.000000,  0.000000 
 129850112.000000, 0.739382 , 1.103091, 9.600004, 745894528.000000, -0.280000,  0.280000,  0.070000, 0.000000,  0.000000 
 129869760.000000, 0.753739 , 1.079163, 9.590433, 745914176.000000, -0.560000,  0.350000,  0.070000, 0.000000,  0.000000 
 129889728.000000, 0.710668 , 1.074377, 9.621540, 745933888.000000, -0.630000,  0.490000,  0.070000, 0.000000,  0.000000 
 129909760.000000, 0.739382 , 1.074377, 9.556933, 745953856.000000, -0.700000,  0.350000,  0.070000, 0.000000,  0.000000 
 129930304.000000, 0.746561 , 1.081556, 9.602397, 745973824.000000, -0.560000,  0.070000,  0.070000, 0.000000,  0.000000 
 129950016.000000, 0.751346 , 1.143769, 9.631111, 745994432.000000, -0.350000,  0.210000,  0.070000, 0.000000,  0.000000 
 129969728.000000, 0.736989 , 1.141376, 9.561719, 746014144.000000, -0.070000,  0.280000,  0.070000, 0.000000,  0.000000 
 129989696.000000, 0.748954 , 1.091127, 9.592826, 746033792.000000, -0.070000,  0.280000,  0.070000, 0.000000,  0.000000 
 130009664.000000, 0.734596 , 1.107877, 9.604790, 746053824.000000, -0.280000,  0.210000,  0.070000, 0.000000,  0.000000 
 130030272.000000, 0.748954 , 1.074377, 9.571291, 746073792.000000, -0.420000,  0.350000,  0.070000, 0.000000,  0.000000 
 130049984.000000, 0.732204 , 1.119841, 9.621540, 746094400.000000, -0.350000,  0.350000,  0.070000, 0.000000,  0.000000 
 130069632.000000, 0.734596 , 1.107877, 9.600004, 746114048.000000, -0.350000,  0.350000,  0.070000, 0.000000,  0.000000 
 130089664.000000, 0.765703 , 1.093520, 9.590433, 746133760.000000, -0.420000,  0.420000,  0.070000, 0.000000,  0.000000 
 130109632.000000, 0.739382 , 1.127020, 9.525827, 746153728.000000, -0.350000,  0.210000,  0.070000, 0.000000,  0.000000 
 130132160.000000, 0.693919 , 1.129412, 9.611969, 746173760.000000, -0.280000,  0.280000,  0.070000, 0.000000,  0.000000 
 130149952.000000, 0.787239 , 1.103091, 9.619147, 746196288.000000, -0.490000,  0.420000,  0.070000, 0.000000,  0.000000 
 130169600.000000, 0.777667 , 1.095913, 9.619147, 746214016.000000, -0.560000,  0.490000,  0.140000, 0.000000,  0.000000 
 130189568.000000, 0.753739 , 1.127020, 9.693325, 746233728.000000, -0.490000,  0.490000,  0.070000, 0.000000,  0.000000 
 130209600.000000, 0.732204 , 1.129412, 9.626326, 746253696.000000, -0.350000,  0.350000,  0.070000, 0.000000,  0.000000 
 130230144.000000, 0.777667 , 1.100698, 9.544970, 746273664.000000, -0.210000,  0.210000,  0.070000, 0.000000,  0.000000 
 130249856.000000, 0.720240 , 1.064806, 9.561719, 746294272.000000, -0.210000,  0.280000,  0.140000, 0.000000,  0.000000 
 130269568.000000, 0.815953 , 1.131805, 9.602397, 746313984.000000, -0.490000,  0.280000,  0.070000, 0.000000,  0.000000 
 130289536.000000, 0.751346 , 1.153341, 9.631111, 746333632.000000, -0.630000,  0.420000,  0.070000, 0.000000,  0.000000 
 130309504.000000, 0.758525 , 1.105484, 9.611969, 746353664.000000, -0.700000,  0.420000,  0.070000, 0.000000,  0.000000 
 130330112.000000, 0.720240 , 1.105484, 9.635897, 746373632.000000, -0.630000,  0.420000,  0.070000, 0.000000,  0.000000 
 130349824.000000, 0.748954 , 1.119841, 9.602397, 746394176.000000, -0.420000,  0.280000,  0.070000, 0.000000,  0.000000 
 130369472.000000, 0.782453 , 1.086342, 9.556933, 746413888.000000, -0.350000,  0.280000,  0.070000, 0.000000,  0.000000 
 130389504.000000, 0.760918 , 1.115055, 9.619147, 746433600.000000, -0.350000,  0.350000,  0.070000, 0.000000,  0.000000 
 130409472.000000, 0.782453 , 1.103091, 9.602397, 746453568.000000, -0.350000,  0.350000,  0.070000, 0.000000,  0.000000 
 130430080.000000, 0.768096 , 1.119841, 9.595219, 746473600.000000, -0.280000,  0.350000,  0.070000, 0.000000,  0.000000 
 130449728.000000, 0.732204 , 1.112662, 9.633504, 746494144.000000, -0.210000,  0.350000,  0.070000, 0.000000,  0.000000 
 130469440.000000, 0.736989 , 1.095913, 9.568897, 746513856.000000, -0.140000,  0.350000,  0.070000, 0.000000,  0.000000 
 130489408.000000, 0.736989 , 1.105484, 9.650253, 746533568.000000, -0.210000,  0.280000,  0.070000, 0.000000,  0.000000 
 130509440.000000, 0.732204 , 1.110270, 9.602397, 746553536.000000, -0.420000,  0.350000,  0.070000, 0.000000,  0.000000 
 130529984.000000, 0.768096 , 1.105484, 9.604790, 746573504.000000, -0.630000,  0.350000,  0.070000, 747233600.000000,  1010.470093 
 130549696.000000, 0.741775 , 1.103091, 9.597611, 746594112.000000, -0.420000,  0.280000,  0.070000, 0.000000,  0.000000 
 130569408.000000, 0.710668 , 1.148555, 9.607183, 746613824.000000, -0.140000,  0.350000,  0.140000, 0.000000,  0.000000 
 130589376.000000, 0.736989 , 1.081556, 9.623933, 746633472.000000, -0.070000,  0.420000,  0.070000, 0.000000,  0.000000 
 130609344.000000, 0.751346 , 1.124627, 9.614362, 746653504.000000, -0.140000,  0.350000,  0.070000, 0.000000,  0.000000 
 130629952.000000, 0.756132 , 1.117448, 9.592826, 746673472.000000, -0.420000,  0.280000,  0.070000, 0.000000,  0.000000 
 130649664.000000, 0.758525 , 1.124627, 9.597611, 746694080.000000, -0.700000,  0.350000,  0.070000, 0.000000,  0.000000 
 130669312.000000, 0.770489 , 1.064806, 9.559326, 746713728.000000, -0.770000,  0.350000,  0.070000, 0.000000,  0.000000 
 130689344.000000, 0.746561 , 1.083949, 9.590433, 746733440.000000, -0.700000,  0.140000,  0.070000, 0.000000,  0.000000 
 130709312.000000, 0.763310 , 1.100698, 9.609575, 746753408.000000, -0.420000,  0.280000,  0.070000, 0.000000,  0.000000 
 130729920.000000, 0.758525 , 1.146162, 9.643075, 746773440.000000, 0.070000,  0.490000,  0.070000, 0.000000,  0.000000 
 130749568.000000, 0.722632 , 1.146162, 9.643075, 746793984.000000, 0.070000,  0.350000,  0.070000, 0.000000,  0.000000 
 130769280.000000, 0.739382 , 1.134198, 9.595219, 746813696.000000, -0.210000,  0.210000,  0.070000, 0.000000,  0.000000 
 130789248.000000, 0.725025 , 1.079163, 9.585647, 746833408.000000, -0.350000,  0.210000,  0.070000, 0.000000,  0.000000 
 130809280.000000, 0.729811 , 1.103091, 9.597611, 746853376.000000, -0.350000,  0.350000,  0.140000, 0.000000,  0.000000 
 130829888.000000, 0.770489 , 1.095913, 9.609575, 746873344.000000, -0.560000,  0.490000,  0.070000, 0.000000,  0.000000 
 130849536.000000, 0.736989 , 1.076770, 9.592826, 746893952.000000, -0.560000,  0.560000,  0.070000, 0.000000,  0.000000 
 130869248.000000, 0.722632 , 1.117448, 9.578469, 746913664.000000, -0.490000,  0.420000,  0.070000, 0.000000,  0.000000 
 130889216.000000, 0.744168 , 1.093520, 9.619147, 746933312.000000, -0.420000,  0.350000,  0.070000, 0.000000,  0.000000 
 130909184.000000, 0.751346 , 1.148555, 9.578469, 746953344.000000, -0.280000,  0.350000,  0.070000, 0.000000,  0.000000 
 130929792.000000, 0.736989 , 1.083949, 9.566505, 746973312.000000, -0.350000,  0.350000,  0.070000, 0.000000,  0.000000 
 130949504.000000, 0.746561 , 1.076770, 9.595219, 746993856.000000, -0.700000,  0.560000,  0.070000, 0.000000,  0.000000 
 130969152.000000, 0.772882 , 1.050449, 9.585647, 747013568.000000, -0.700000,  0.560000,  0.070000, 0.000000,  0.000000 
 130989120.000000, 0.780060 , 1.107877, 9.571291, 747033280.000000, -0.630000,  0.490000,  0.070000, 0.000000,  0.000000 
 131009152.000000, 0.768096 , 1.098306, 9.585647, 747053248.000000, -0.490000,  0.420000,  0.140000, 0.000000,  0.000000 
 131029696.000000, 0.713061 , 1.071985, 9.592826, 747073216.000000, -0.490000,  0.350000,  0.140000, 0.000000,  0.000000 
 131049408.000000, 0.744168 , 1.086342, 9.592826, 747093824.000000, -0.420000,  0.350000,  0.140000, 0.000000,  0.000000 
 131069120.000000, 0.775275 , 1.071985, 9.592826, 747113536.000000, -0.210000,  0.210000,  0.070000, 0.000000,  0.000000 
 131089088.000000, 0.736989 , 1.088734, 9.623933, 747133184.000000, -0.280000,  0.280000,  0.070000, 0.000000,  0.000000 
 131109056.000000, 0.717847 , 1.060020, 9.633504, 747153216.000000, -0.280000,  0.420000,  0.140000, 0.000000,  0.000000 
 131131648.000000, 0.720240 , 1.098306, 9.628718, 747173184.000000, -0.350000,  0.490000,  0.070000, 0.000000,  0.000000 
 131149376.000000, 0.684347 , 1.086342, 9.566505, 747195712.000000, -0.420000,  0.420000,  0.070000, 0.000000,  0.000000 
 131169024.000000, 0.763310 , 1.110270, 9.600004, 747213504.000000, -0.350000,  0.350000,  0.070000, 0.000000,  0.000000 
 131189056.000000, 0.717847 , 1.064806, 9.609575, 747233152.000000, -0.420000,  0.420000,  0.070000, 0.000000,  0.000000 
 131209024.000000, 0.732204 , 1.095913, 9.623933, 747253120.000000, -0.350000,  0.350000,  0.070000, 0.000000,  0.000000 
 131229632.000000, 0.775275 , 1.100698, 9.623933, 747273152.000000, -0.210000,  0.350000,  0.070000, 0.000000,  0.000000 
 131249344.000000, 0.748954 , 1.107877, 9.592826, 747293696.000000, -0.210000,  0.280000,  0.070000, 0.000000,  0.000000 
 131268992.000000, 0.739382 , 1.122234, 9.597611, 747313408.000000, -0.350000,  0.420000,  0.070000, 0.000000,  0.000000 
 131288960.000000, 0.784846 , 1.112662, 9.602397, 747333120.000000, -0.630000,  0.420000,  0.070000, 0.000000,  0.000000 
 131308992.000000, 0.765703 , 1.098306, 9.623933, 747353088.000000, -0.560000,  0.280000,  0.070000, 0.000000,  0.000000 
 131329536.000000, 0.744168 , 1.112662, 9.585647, 747373056.000000, -0.350000,  0.350000,  0.140000, 0.000000,  0.000000 
 131349248.000000, 0.734596 , 1.117448, 9.604790, 747393664.000000, -0.070000,  0.350000,  0.070000, 0.000000,  0.000000 
 131368960.000000, 0.787239 , 1.103091, 9.576077, 747413376.000000, -0.210000,  0.420000,  0.070000, 0.000000,  0.000000 
 131388928.000000, 0.801596 , 1.122234, 9.619147, 747433024.000000, -0.560000,  0.350000,  0.070000, 0.000000,  0.000000 
 131408896.000000, 0.770489 , 1.064806, 9.628718, 747453056.000000, -0.840000,  0.560000,  0.070000, 0.000000,  0.000000 
 131429504.000000, 0.768096 , 1.062413, 9.592826, 747473024.000000, -0.910000,  0.560000,  0.070000, 0.000000,  0.000000 
 131449216.000000, 0.770489 , 1.081556, 9.578469, 747493568.000000, -0.700000,  0.210000,  0.070000, 0.000000,  0.000000 
 131468864.000000, 0.765703 , 1.091127, 9.626326, 747513344.000000, -0.420000,  0.140000,  0.070000, 0.000000,  0.000000 
 131488896.000000, 0.780060 , 1.107877, 9.595219, 747532992.000000, -0.210000,  0.420000,  0.070000, 0.000000,  0.000000 
 131508864.000000, 0.739382 , 1.086342, 9.640682, 747572992.000000, -0.350000,  0.420000,  0.070000, 748233024.000000,  1010.474060 
 131529472.000000, 0.760918 , 1.131805, 9.602397, 0.000000, 0.000000,  0.000000,  0.000000, 0.000000,  0.000000 
 131549184.000000, 0.729811 , 1.112662, 9.590433, 747593536.000000, -0.420000,  0.280000,  0.070000, 0.000000,  0.000000 
 131568832.000000, 0.698704 , 1.079163, 9.580862, 747613248.000000, -0.350000,  0.280000,  0.070000, 0.000000,  0.000000 
 131588800.000000, 0.772882 , 1.071985, 9.580862, 747632960.000000, -0.420000,  0.280000,  0.070000, 0.000000,  0.000000 
 131608832.000000, 0.705883 , 1.062413, 9.592826, 747652928.000000, -0.560000,  0.560000,  0.140000, 0.000000,  0.000000 
 131629376.000000, 0.763310 , 1.062413, 9.573684, 747672896.000000, -0.630000,  0.700000,  0.070000, 0.000000,  0.000000 
 131649088.000000, 0.784846 , 1.107877, 9.621540, 747693504.000000, -0.420000,  0.350000,  0.070000, 0.000000,  0.000000 
 131668800.000000, 0.760918 , 1.129412, 9.623933, 747713216.000000, -0.210000,  0.350000,  0.070000, 0.000000,  0.000000 
 131688768.000000, 0.734596 , 1.091127, 9.604790, 747732864.000000, -0.210000,  0.420000,  0.070000, 0.000000,  0.000000 
 131708736.000000, 0.727418 , 1.052842, 9.616754, 747752896.000000, -0.350000,  0.420000,  0.070000, 0.000000,  0.000000 
 131729344.000000, 0.789631 , 1.067199, 9.600004, 747772864.000000, -0.560000,  0.280000,  0.070000, 0.000000,  0.000000 
 131749056.000000, 0.772882 , 1.060020, 9.628718, 747793472.000000, -0.630000,  0.490000,  0.070000, 0.000000,  0.000000 
 131768704.000000, 0.758525 , 1.095913, 9.611969, 747813120.000000, -0.420000,  0.560000,  0.070000, 0.000000,  0.000000 
 131788736.000000, 0.727418 , 1.093520, 9.604790, 747832832.000000, -0.420000,  0.420000,  0.070000, 0.000000,  0.000000 
 131808704.000000, 0.739382 , 1.071985, 9.585647, 747852800.000000, -0.490000,  0.280000,  0.070000, 0.000000,  0.000000 
 131829504.000000, 0.734596 , 1.050449, 9.580862, 747872832.000000, -0.700000,  0.420000,  0.070000, 0.000000,  0.000000 
 131848960.000000, 0.729811 , 1.060020, 9.592826, 747893568.000000, -0.700000,  0.420000,  0.070000, 0.000000,  0.000000 
 131868672.000000, 0.715454 , 1.081556, 9.619147, 747913088.000000, -0.630000,  0.350000,  0.070000, 0.000000,  0.000000 
 131888640.000000, 0.715454 , 1.071985, 9.600004, 747932800.000000, -0.420000,  0.420000,  0.070000, 0.000000,  0.000000 
 131908672.000000, 0.725025 , 1.100698, 9.604790, 747952768.000000, -0.280000,  0.420000,  0.070000, 0.000000,  0.000000 
 131929216.000000, 0.772882 , 1.055235, 9.611969, 747972736.000000, -0.280000,  0.420000,  0.070000, 0.000000,  0.000000 
 131948928.000000, 0.720240 , 1.136591, 9.628718, 747993344.000000, -0.350000,  0.350000,  0.070000, 0.000000,  0.000000 
 131968640.000000, 0.703490 , 1.076770, 9.607183, 748013056.000000, -0.350000,  0.280000,  0.070000, 0.000000,  0.000000 
 131988608.000000, 0.693919 , 1.079163, 9.580862, 748032704.000000, -0.280000,  0.350000,  0.070000, 0.000000,  0.000000 
 132008576.000000, 0.748954 , 1.076770, 9.600004, 748052672.000000, -0.280000,  0.350000,  0.070000, 0.000000,  0.000000 
 132029184.000000, 0.732204 , 1.076770, 9.578469, 748072704.000000, -0.280000,  0.280000,  0.140000, 0.000000,  0.000000 
 132048896.000000, 0.693919 , 1.074377, 9.597611, 748093312.000000, -0.210000,  0.280000,  0.140000, 0.000000,  0.000000 
 132068544.000000, 0.756132 , 1.098306, 9.621540, 748112960.000000, -0.210000,  0.490000,  0.070000, 0.000000,  0.000000 
 132088576.000000, 0.782453 , 1.081556, 9.611969, 748132672.000000, -0.140000,  0.420000,  0.070000, 0.000000,  0.000000 
 132108544.000000, 0.780060 , 1.048056, 9.578469, 748152640.000000, -0.350000,  0.280000,  0.070000, 0.000000,  0.000000 
 132131072.000000, 0.722632 , 1.069592, 9.590433, 748172672.000000, -0.420000,  0.210000,  0.070000, 0.000000,  0.000000 
 132148800.000000, 0.703490 , 1.079163, 9.595219, 748195200.000000, -0.420000,  0.420000,  0.070000, 0.000000,  0.000000 
 132168512.000000, 0.693919 , 1.107877, 9.628718, 748212928.000000, -0.420000,  0.490000,  0.070000, 0.000000,  0.000000 
 132188480.000000, 0.703490 , 1.062413, 9.631111, 748232576.000000, -0.420000,  0.350000,  0.070000, 0.000000,  0.000000 
 132208512.000000, 0.782453 , 1.048056, 9.626326, 748252608.000000, -0.490000,  0.210000,  0.070000, 0.000000,  0.000000 
 132229056.000000, 0.741775 , 1.081556, 9.571291, 748272576.000000, -0.210000,  0.210000,  0.070000, 0.000000,  0.000000 
 132248768.000000, 0.727418 , 1.105484, 9.583255, 748293184.000000, 0.140000,  0.280000,  0.070000, 0.000000,  0.000000 
 132268480.000000, 0.698704 , 1.081556, 9.561719, 748312896.000000, -0.070000,  0.210000,  0.070000, 0.000000,  0.000000 
 132288448.000000, 0.792024 , 1.119841, 9.592826, 748332544.000000, -0.350000,  0.280000,  0.070000, 0.000000,  0.000000 
 132308416.000000, 0.748954 , 1.076770, 9.621540, 748352512.000000, -0.630000,  0.420000,  0.070000, 0.000000,  0.000000 
 132329024.000000, 0.751346 , 1.057628, 9.595219, 748372544.000000, -0.560000,  0.420000,  0.070000, 0.000000,  0.000000 
 132348736.000000, 0.763310 , 1.067199, 9.619147, 748393088.000000, -0.420000,  0.420000,  0.070000, 0.000000,  0.000000 
 132368384.000000, 0.732204 , 1.064806, 9.578469, 748412800.000000, -0.280000,  0.350000,  0.070000, 0.000000,  0.000000 
 132388416.000000, 0.782453 , 1.095913, 9.588040, 748432512.000000, -0.070000,  0.210000,  0.070000, 0.000000,  0.000000 
 132408384.000000, 0.734596 , 1.138984, 9.611969, 748452480.000000, -0.070000,  0.210000,  0.070000, 0.000000,  0.000000 
 132428928.000000, 0.739382 , 1.093520, 9.647861, 748472512.000000, -0.280000,  0.560000,  0.070000, 0.000000,  0.000000 
 132448640.000000, 0.768096 , 1.069592, 9.600004, 748493056.000000, -0.420000,  0.350000,  0.070000, 0.000000,  0.000000 
 132468352.000000, 0.734596 , 1.067199, 9.633504, 748512768.000000, -0.560000,  0.280000,  0.070000, 0.000000,  0.000000 
 132488320.000000, 0.734596 , 1.086342, 9.614362, 748552448.000000, -0.140000,  0.350000,  0.070000, 0.000000,  0.000000 
 132508352.000000, 0.739382 , 1.103091, 9.592826, 0.000000, 0.000000,  0.000000,  0.000000, 0.000000,  0.000000 
 132528896.000000, 0.739382 , 1.112662, 9.604790, 748572416.000000, -0.210000,  0.350000,  0.070000, 749232512.000000,  1010.476135 
 132548608.000000, 0.765703 , 1.081556, 9.602397, 748593024.000000, -0.350000,  0.350000,  0.070000, 0.000000,  0.000000 
 132568320.000000, 0.732204 , 1.081556, 9.592826, 748612736.000000, -0.490000,  0.280000,  0.070000, 0.000000,  0.000000 
 132588288.000000, 0.720240 , 1.093520, 9.633504, 748632384.000000, -0.420000,  0.350000,  0.070000, 0.000000,  0.000000 
 132608256.000000, 0.691526 , 1.100698, 9.614362, 748652352.000000, -0.210000,  0.280000,  0.070000, 0.000000,  0.000000 
 132628864.000000, 0.751346 , 1.086342, 9.609575, 748672384.000000, -0.070000,  0.350000,  0.070000, 0.000000,  0.000000 
 132648576.000000, 0.698704 , 1.093520, 9.626326, 748692928.000000, 0.070000,  0.350000,  0.070000, 0.000000,  0.000000 
 132668224.000000, 0.736989 , 1.107877, 9.611969, 748712640.000000, 0.070000,  0.280000,  0.070000, 0.000000,  0.000000 
 132688192.000000, 0.698704 , 1.064806, 9.643075, 748732352.000000, -0.070000,  0.350000,  0.070000, 0.000000,  0.000000 
 132708224.000000, 0.741775 , 1.091127, 9.621540, 748752320.000000, -0.280000,  0.350000,  0.070000, 0.000000,  0.000000 
 132728768.000000, 0.739382 , 1.081556, 9.595219, 748772288.000000, -0.280000,  0.350000,  0.070000, 0.000000,  0.000000 
 132748480.000000, 0.736989 , 1.079163, 9.607183, 748792896.000000, -0.280000,  0.350000,  0.070000, 0.000000,  0.000000 
 132768192.000000, 0.736989 , 1.112662, 9.631111, 748812608.000000, -0.070000,  0.280000,  0.070000, 0.000000,  0.000000 
 132788160.000000, 0.725025 , 1.081556, 9.607183, 748832256.000000, -0.140000,  0.210000,  0.070000, 0.000000,  0.000000 
 132808128.000000, 0.732204 , 1.127020, 9.611969, 748852288.000000, -0.070000,  0.350000,  0.140000, 0.000000,  0.000000 
 132828800.000000, 0.784846 , 1.131805, 9.602397, 748872256.000000, -0.070000,  0.420000,  0.070000, 0.000000,  0.000000 
 132848576.000000, 0.741775 , 1.076770, 9.595219, 748892864.000000, -0.140000,  0.280000,  0.070000, 0.000000,  0.000000 
 132868096.000000, 0.748954 , 1.134198, 9.614362, 748912640.000000, -0.280000,  0.280000,  0.070000, 0.000000,  0.000000 
 132888128.000000, 0.701097 , 1.091127, 9.623933, 748932224.000000, -0.420000,  0.280000,  0.070000, 0.000000,  0.000000 
 132908096.000000, 0.741775 , 1.069592, 9.621540, 748952192.000000, -0.630000,  0.280000,  0.070000, 0.000000,  0.000000 
 132928704.000000, 0.720240 , 1.043271, 9.628718, 748972224.000000, -0.700000,  0.280000,  0.070000, 0.000000,  0.000000 
 132948416.000000, 0.789631 , 1.057628, 9.633504, 748992768.000000, -0.630000,  0.210000,  0.070000, 0.000000,  0.000000 
 132968064.000000, 0.720240 , 1.036092, 9.588040, 749012480.000000, -0.280000,  0.210000,  0.070000, 0.000000,  0.000000 
 132988032.000000, 0.717847 , 1.129412, 9.604790, 749032192.000000, -0.280000,  0.350000,  0.070000, 0.000000,  0.000000 
 133008064.000000, 0.736989 , 1.105484, 9.588040, 749052160.000000, -0.140000,  0.210000,  0.070000, 0.000000,  0.000000 
 133028608.000000, 0.777667 , 1.074377, 9.628718, 749072128.000000, -0.490000,  0.350000,  0.070000, 0.000000,  0.000000 
 133048320.000000, 0.720240 , 1.091127, 9.607183, 749092736.000000, -0.560000,  0.350000,  0.070000, 0.000000,  0.000000 
 133068032.000000, 0.772882 , 1.100698, 9.623933, 749112448.000000, -0.420000,  0.350000,  0.070000, 0.000000,  0.000000 
 133088000.000000, 0.756132 , 1.107877, 9.643075, 749132096.000000, -0.350000,  0.420000,  0.070000, 0.000000,  0.000000 
 133107968.000000, 0.741775 , 1.079163, 9.590433, 749152128.000000, -0.350000,  0.420000,  0.070000, 0.000000,  0.000000 
 133130560.000000, 0.708275 , 1.110270, 9.571291, 749172096.000000, -0.420000,  0.350000,  0.070000, 0.000000,  0.000000 
 133148288.000000, 0.717847 , 1.093520, 9.623933, 749194624.000000, -0.490000,  0.280000,  0.070000, 0.000000,  0.000000 
 133167936.000000, 0.736989 , 1.048056, 9.616754, 749212416.000000, -0.420000,  0.350000,  0.070000, 0.000000,  0.000000 
 133187968.000000, 0.744168 , 1.076770, 9.626326, 749232064.000000, -0.280000,  0.350000,  0.070000, 0.000000,  0.000000 
 133207936.000000, 0.736989 , 1.100698, 9.580862, 749252032.000000, -0.140000,  0.350000,  0.070000, 0.000000,  0.000000 
 133228480.000000, 0.739382 , 1.074377, 9.568897, 749272064.000000, -0.140000,  0.350000,  0.070000, 0.000000,  0.000000 
 133248256.000000, 0.710668 , 1.112662, 9.626326, 749292608.000000, -0.210000,  0.280000,  0.140000, 0.000000,  0.000000 
 133267904.000000, 0.787239 , 1.071985, 9.616754, 749312320.000000, -0.210000,  0.350000,  0.070000, 0.000000,  0.000000 
 133287872.000000, 0.823131 , 1.086342, 9.623933, 749331968.000000, -0.350000,  0.350000,  0.070000, 0.000000,  0.000000 
 133307904.000000, 0.765703 , 1.086342, 9.635897, 749352000.000000, -0.350000,  0.350000,  0.070000, 0.000000,  0.000000 
 133328448.000000, 0.782453 , 1.062413, 9.590433, 749371968.000000, -0.420000,  0.350000,  0.070000, 0.000000,  0.000000 
 133348160.000000, 0.748954 , 1.081556, 9.573684, 749392576.000000, -0.490000,  0.280000,  0.070000, 0.000000,  0.000000 
 133367872.000000, 0.720240 , 1.107877, 9.597611, 749412288.000000, -0.420000,  0.280000,  0.070000, 0.000000,  0.000000 
 133387840.000000, 0.725025 , 1.134198, 9.611969, 749431936.000000, -0.420000,  0.350000,  0.070000, 0.000000,  0.000000 
 133407808.000000, 0.732204 , 1.095913, 9.621540, 749451904.000000, -0.280000,  0.490000,  0.140000, 0.000000,  0.000000 
 133428416.000000, 0.717847 , 1.095913, 9.621540, 749471936.000000, -0.210000,  0.350000,  0.070000, 0.000000,  0.000000 
 133448128.000000, 0.756132 , 1.103091, 9.614362, 749492480.000000, -0.140000,  0.210000,  0.070000, 0.000000,  0.000000 
 133467776.000000, 0.705883 , 1.093520, 9.621540, 749512192.000000, -0.210000,  0.280000,  0.070000, 0.000000,  0.000000 
 133487744.000000, 0.725025 , 1.088734, 9.580862, 749531904.000000, -0.280000,  0.350000,  0.070000, 0.000000,  0.000000 
 133507776.000000, 0.789631 , 1.081556, 9.609575, 749571840.000000, -0.420000,  0.420000,  0.070000, 750231936.000000,  1010.478088 
 133528320.000000, 0.768096 , 1.081556, 9.607183, 0.000000, 0.000000,  0.000000,  0.000000, 0.000000,  0.000000 
 133548032.000000, 0.765703 , 1.107877, 9.611969, 749592448.000000, -0.560000,  0.420000,  0.070000, 0.000000,  0.000000 
 133567744.000000, 0.741775 , 1.079163, 9.588040, 749612160.000000, -0.420000,  0.350000,  0.070000, 0.000000,  0.000000 
 133587712.000000, 0.746561 , 1.110270, 9.595219, 749631808.000000, -0.210000,  0.280000,  0.070000, 0.000000,  0.000000 
 133607744.000000, 0.720240 , 1.074377, 9.588040, 749651840.000000, -0.070000,  0.280000,  0.070000, 0.000000,  0.000000 
 133628288.000000, 0.777667 , 1.048056, 9.568897, 749671808.000000, -0.070000,  0.280000,  0.070000, 0.000000,  0.000000 
 133648000.000000, 0.746561 , 1.103091, 9.600004, 749692416.000000, -0.350000,  0.280000,  0.070000, 0.000000,  0.000000 
 133667648.000000, 0.732204 , 1.124627, 9.609575, 749712128.000000, -0.490000,  0.420000,  0.070000, 0.000000,  0.000000 
 133687680.000000, 0.772882 , 1.043271, 9.604790, 749731776.000000, -0.560000,  0.420000,  -0.070000, 0.000000,  0.000000 
 133707648.000000, 0.768096 , 1.033699, 9.590433, 749751744.000000, -0.700000,  0.210000,  -0.070000, 0.000000,  0.000000 
 133728256.000000, 0.760918 , 1.081556, 9.580862, 749771776.000000, -0.560000,  0.140000,  -0.070000, 0.000000,  0.000000 
 133747968.000000, 0.763310 , 1.088734, 9.602397, 749792320.000000, -0.210000,  0.350000,  -0.070000, 0.000000,  0.000000 
 133767616.000000, 0.753739 , 1.122234, 9.621540, 749812032.000000, -0.140000,  0.350000,  0.070000, 0.000000,  0.000000 
 133787584.000000, 0.768096 , 1.064806, 9.597611, 749831744.000000, -0.280000,  0.210000,  0.070000, 0.000000,  0.000000 
 133807616.000000, 0.717847 , 1.119841, 9.614362, 749851712.000000, -0.280000,  0.280000,  0.070000, 0.000000,  0.000000 
 133828224.000000, 0.756132 , 1.093520, 9.573684, 749871680.000000, -0.210000,  0.350000,  0.070000, 0.000000,  0.000000 
 133847872.000000, 0.763310 , 1.079163, 9.576077, 749892352.000000, -0.210000,  0.350000,  0.070000, 0.000000,  0.000000 
 133867584.000000, 0.768096 , 1.074377, 9.592826, 749912000.000000, -0.490000,  0.490000,  0.070000, 0.000000,  0.000000 
 133887552.000000, 0.739382 , 1.050449, 9.578469, 749931648.000000, -0.630000,  0.350000,  0.070000, 0.000000,  0.000000 
 133907520.000000, 0.715454 , 1.103091, 9.571291, 749951680.000000, -0.560000,  0.280000,  0.070000, 0.000000,  0.000000 
 133928128.000000, 0.748954 , 1.088734, 9.597611, 749971648.000000, -0.350000,  0.350000,  0.070000, 0.000000,  0.000000 
 133947840.000000, 0.763310 , 1.110270, 9.607183, 749992256.000000, -0.140000,  0.420000,  0.140000, 0.000000,  0.000000 
 133967488.000000, 0.777667 , 1.107877, 9.633504, 750011968.000000, -0.140000,  0.420000,  0.070000, 0.000000,  0.000000 
 133987520.000000, 0.772882 , 1.115055, 9.616754, 750031616.000000, -0.280000,  0.420000,  0.070000, 0.000000,  0.000000 
 134007488.000000, 0.739382 , 1.067199, 9.566505, 750051584.000000, -0.280000,  0.280000,  0.070000, 0.000000,  0.000000 
 134028096.000000, 0.744168 , 1.055235, 9.573684, 750071616.000000, -0.490000,  0.280000,  0.070000, 0.000000,  0.000000 
 134047808.000000, 0.768096 , 1.122234, 9.631111, 750092160.000000, -0.420000,  0.280000,  0.070000, 0.000000,  0.000000 
 134067456.000000, 0.770489 , 1.060020, 9.602397, 750111872.000000, -0.490000,  0.350000,  0.070000, 0.000000,  0.000000 
 134087424.000000, 0.734596 , 1.069592, 9.657433, 750131584.000000, -0.630000,  0.420000,  0.140000, 0.000000,  0.000000 
 134107456.000000, 0.727418 , 1.088734, 9.609575, 750151552.000000, -0.630000,  0.490000,  0.070000, 0.000000,  0.000000 
 134129984.000000, 0.729811 , 1.057628, 9.640682, 750171520.000000, -0.560000,  0.350000,  0.070000, 0.000000,  0.000000 
 134147712.000000, 0.756132 , 1.076770, 9.592826, 750194112.000000, -0.490000,  0.280000,  0.070000, 0.000000,  0.000000 
 134167424.000000, 0.768096 , 1.038485, 9.602397, 750211840.000000, -0.350000,  0.280000,  0.070000, 0.000000,  0.000000 
 134187392.000000, 0.768096 , 1.112662, 9.621540, 750231488.000000, -0.210000,  0.280000,  0.070000, 0.000000,  0.000000 
 134207360.000000, 0.792024 , 1.095913, 9.600004, 750251520.000000, -0.210000,  0.280000,  0.070000, 0.000000,  0.000000 
 134227968.000000, 0.748954 , 1.088734, 9.576077, 750271488.000000, -0.350000,  0.420000,  0.070000, 0.000000,  0.000000 
 134247680.000000, 0.777667 , 1.117448, 9.592826, 750292096.000000, -0.280000,  0.350000,  0.070000, 0.000000,  0.000000 
 134267328.000000, 0.739382 , 1.091127, 9.619147, 750311744.000000, -0.280000,  0.350000,  0.070000, 0.000000,  0.000000 
 134287360.000000, 0.741775 , 1.086342, 9.564112, 750331456.000000, -0.350000,  0.280000,  0.070000, 0.000000,  0.000000 
 134307328.000000, 0.758525 , 1.071985, 9.604790, 750351424.000000, -0.420000,  0.420000,  0.070000, 0.000000,  0.000000 
 134327936.000000, 0.729811 , 1.060020, 9.607183, 750371456.000000, -0.630000,  0.280000,  0.070000, 0.000000,  0.000000 
 134347584.000000, 0.760918 , 1.110270, 9.607183, 750392000.000000, -0.420000,  0.280000,  0.070000, 0.000000,  0.000000 
 134367296.000000, 0.744168 , 1.088734, 9.607183, 750411712.000000, -0.070000,  0.420000,  0.140000, 0.000000,  0.000000 
 134387264.000000, 0.763310 , 1.127020, 9.604790, 750431424.000000, -0.070000,  0.350000,  0.140000, 0.000000,  0.000000 
 134407296.000000, 0.763310 , 1.143769, 9.635897, 750451392.000000, -0.070000,  0.280000,  0.140000, 0.000000,  0.000000 
 134427840.000000, 0.739382 , 1.045663, 9.616754, 750471360.000000, -0.490000,  0.280000,  0.140000, 0.000000,  0.000000 
 134447552.000000, 0.739382 , 1.040878, 9.578469, 750491968.000000, -0.630000,  0.350000,  0.070000, 0.000000,  0.000000 
 134467264.000000, 0.744168 , 1.036092, 9.592826, 750511680.000000, -0.700000,  0.350000,  0.070000, 0.000000,  0.000000 
 134487232.000000, 0.729811 , 1.076770, 9.597611, 750531328.000000, -0.630000,  0.140000,  0.070000, 0.000000,  0.000000 
 134507200.000000, 0.763310 , 1.074377, 9.621540, 750571328.000000, -0.280000,  0.490000,  0.070000, 751231424.000000,  1010.478088 
 134527808.000000, 0.763310 , 1.129412, 9.609575, 0.000000, 0.000000,  0.000000,  0.000000, 0.000000,  0.000000 
 134547520.000000, 0.729811 , 1.069592, 9.628718, 750591936.000000, -0.280000,  0.350000,  0.070000, 0.000000,  0.000000 
 134567168.000000, 0.710668 , 1.026521, 9.537791, 750611584.000000, -0.070000,  0.210000,  0.070000, 0.000000,  0.000000 
 134587200.000000, 0.746561 , 1.093520, 9.580862, 750631296.000000, -0.280000,  0.210000,  0.070000, 0.000000,  0.000000 
 134607168.000000, 0.782453 , 1.095913, 9.616754, 750651264.000000, -0.420000,  0.350000,  0.070000, 0.000000,  0.000000 
 134627776.000000, 0.727418 , 1.086342, 9.645468, 750671296.000000, -0.420000,  0.490000,  0.070000, 0.000000,  0.000000 
 134647424.000000, 0.744168 , 1.124627, 9.621540, 750691840.000000, -0.560000,  0.560000,  0.070000, 0.000000,  0.000000 
 134667136.000000, 0.739382 , 1.105484, 9.626326, 750711552.000000, -0.490000,  0.490000,  0.070000, 0.000000,  0.000000 
 134687104.000000, 0.708275 , 1.098306, 9.583255, 750731200.000000, -0.420000,  0.350000,  0.070000, 0.000000,  0.000000 
 134707136.000000, 0.722632 , 1.076770, 9.623933, 750751232.000000, -0.350000,  0.350000,  0.070000, 0.000000,  0.000000 
 134727680.000000, 0.751346 , 1.091127, 9.614362, 750771200.000000, -0.140000,  0.420000,  0.070000, 0.000000,  0.000000 
 134747392.000000, 0.725025 , 1.083949, 9.619147, 750791808.000000, -0.210000,  0.420000,  0.070000, 0.000000,  0.000000 
 134767040.000000, 0.746561 , 1.098306, 9.592826, 750811520.000000, -0.280000,  0.420000,  0.070000, 0.000000,  0.000000 
 134787072.000000, 0.758525 , 1.098306, 9.568897, 750831168.000000, -0.490000,  0.490000,  0.070000, 0.000000,  0.000000 
 134807040.000000, 0.753739 , 1.115055, 9.564112, 750851136.000000, -0.560000,  0.420000,  0.070000, 0.000000,  0.000000 
 134827648.000000, 0.782453 , 1.081556, 9.623933, 750871168.000000, -0.490000,  0.350000,  0.070000, 0.000000,  0.000000 
 134847360.000000, 0.753739 , 1.095913, 9.628718, 750891776.000000, -0.560000,  0.350000,  0.070000, 0.000000,  0.000000 
 134867008.000000, 0.717847 , 1.093520, 9.643075, 750911424.000000, -0.630000,  0.420000,  0.070000, 0.000000,  0.000000 
 134886976.000000, 0.748954 , 1.110270, 9.580862, 750931136.000000, -0.560000,  0.490000,  0.070000, 0.000000,  0.000000 
 134907008.000000, 0.727418 , 1.062413, 9.614362, 750951104.000000, -0.630000,  0.420000,  0.070000, 0.000000,  0.000000 
 134927616.000000, 0.753739 , 1.105484, 9.573684, 750971072.000000, -0.490000,  0.420000,  0.070000, 0.000000,  0.000000 
 134947264.000000, 0.736989 , 1.079163, 9.628718, 750991680.000000, -0.630000,  0.490000,  0.070000, 0.000000,  0.000000 
 134966976.000000, 0.768096 , 1.038485, 9.623933, 751011392.000000, -0.630000,  0.420000,  0.070000, 0.000000,  0.000000 
 134986944.000000, 0.717847 , 1.076770, 9.592826, 751031040.000000, -0.700000,  0.420000,  0.070000, 0.000000,  0.000000 
 135006912.000000, 0.787239 , 1.060020, 9.588040, 751051072.000000, -0.560000,  0.280000,  0.070000, 0.000000,  0.000000 
 135027520.000000, 0.751346 , 1.064806, 9.638289, 751071040.000000, -0.420000,  0.420000,  0.070000, 0.000000,  0.000000 
 135047232.000000, 0.727418 , 1.103091, 9.628718, 751091648.000000, -0.280000,  0.420000,  0.070000, 0.000000,  0.000000 
 135066880.000000, 0.732204 , 1.057628, 9.623933, 751111360.000000, -0.420000,  0.490000,  0.140000, 0.000000,  0.000000 
 135086912.000000, 0.739382 , 1.105484, 9.571291, 751131008.000000, -0.350000,  0.420000,  0.070000, 0.000000,  0.000000 
 135106880.000000, 0.734596 , 1.117448, 9.614362, 751150976.000000, -0.420000,  0.280000,  0.070000, 0.000000,  0.000000 
 135129408.000000, 0.736989 , 1.067199, 9.609575, 751171008.000000, -0.630000,  0.350000,  0.070000, 0.000000,  0.000000 
 135147200.000000, 0.703490 , 1.024128, 9.580862, 751193536.000000, -0.490000,  0.350000,  0.140000, 0.000000,  0.000000 
 135166848.000000, 0.768096 , 1.062413, 9.604790, 751211264.000000, -0.350000,  0.420000,  0.140000, 0.000000,  0.000000 
 135186816.000000, 0.729811 , 1.110270, 9.614362, 751230976.000000, -0.070000,  0.420000,  0.070000, 0.000000,  0.000000 
 135206848.000000, 0.713061 , 1.083949, 9.607183, 751250944.000000, -0.210000,  0.420000,  0.070000, 0.000000,  0.000000 
 135227392.000000, 0.744168 , 1.103091, 9.611969, 751270912.000000, -0.420000,  0.420000,  0.070000, 0.000000,  0.000000 
 135247104.000000, 0.765703 , 1.107877, 9.592826, 751291520.000000, -0.560000,  0.490000,  0.070000, 0.000000,  0.000000 
 135266816.000000, 0.741775 , 1.043271, 9.549755, 751311232.000000, -0.490000,  0.420000,  0.070000, 0.000000,  0.000000 
 135286784.000000, 0.784846 , 1.081556, 9.609575, 751330880.000000, -0.560000,  0.350000,  0.070000, 0.000000,  0.000000 
 135306752.000000, 0.722632 , 1.091127, 9.633504, 751350912.000000, -0.630000,  0.350000,  0.070000, 0.000000,  0.000000 
 135327360.000000, 0.753739 , 1.083949, 9.616754, 751370880.000000, -0.350000,  0.420000,  0.070000, 0.000000,  0.000000 
 135347072.000000, 0.753739 , 1.095913, 9.619147, 751391488.000000, -0.140000,  0.350000,  0.070000, 0.000000,  0.000000 
 135366720.000000, 0.717847 , 1.052842, 9.556933, 751411136.000000, -0.140000,  0.210000,  0.070000, 0.000000,  0.000000 
 135386752.000000, 0.713061 , 1.079163, 9.571291, 751430848.000000, -0.210000,  0.280000,  0.140000, 0.000000,  0.000000 
 135406720.000000, 0.760918 , 1.048056, 9.614362, 751450816.000000, -0.560000,  0.420000,  0.070000, 0.000000,  0.000000 
 135427328.000000, 0.748954 , 1.048056, 9.645468, 751470848.000000, -0.560000,  0.490000,  0.070000, 0.000000,  0.000000 
 135447040.000000, 0.720240 , 1.071985, 9.628718, 751491392.000000, -0.560000,  0.630000,  0.070000, 0.000000,  0.000000 
 135466688.000000, 0.746561 , 1.071985, 9.628718, 751511104.000000, -0.490000,  0.490000,  0.070000, 0.000000,  0.000000 
 135486656.000000, 0.758525 , 1.052842, 9.607183, 751530816.000000, -0.280000,  0.280000,  0.070000, 0.000000,  0.000000 
 135506688.000000, 0.703490 , 1.036092, 9.573684, 751550784.000000, -0.210000,  0.280000,  0.070000, 0.000000,  0.000000 
 135527232.000000, 0.768096 , 1.062413, 9.602397, 751570752.000000, -0.350000,  0.560000,  0.140000, 752230848.000000,  1010.479675 
 135546944.000000, 0.681954 , 1.086342, 9.633504, 751591360.000000, -0.490000,  0.560000,  0.140000, 0.000000,  0.000000 
 135566656.000000, 0.784846 , 1.071985, 9.621540, 751611072.000000, -0.490000,  0.350000,  0.070000, 0.000000,  0.000000 
 135586624.000000, 0.734596 , 1.040878, 9.607183, 751630720.000000, -0.490000,  0.350000,  0.070000, 0.000000,  0.000000 
 135606592.000000, 0.768096 , 1.048056, 9.623933, 751650752.000000, -0.490000,  0.420000,  0.070000, 0.000000,  0.000000 
 135627200.000000, 0.686740 , 1.064806, 9.588040, 751670720.000000, -0.350000,  0.280000,  0.070000, 0.000000,  0.000000 
 135646912.000000, 0.763310 , 1.112662, 9.600004, 751691328.000000, -0.420000,  0.210000,  0.070000, 0.000000,  0.000000 
 135666560.000000, 0.746561 , 1.057628, 9.635897, 751710976.000000, -0.630000,  0.350000,  0.070000, 0.000000,  0.000000 
 135686592.000000, 0.768096 , 1.028914, 9.602397, 751730688.000000, -0.630000,  0.420000,  0.070000, 0.000000,  0.000000 
 135706560.000000, 0.713061 , 1.091127, 9.554541, 751750656.000000, -0.630000,  0.350000,  0.070000, 0.000000,  0.000000 
 135727168.000000, 0.758525 , 1.064806, 9.635897, 751770688.000000, -0.280000,  0.280000,  0.070000, 0.000000,  0.000000 
 135746816.000000, 0.717847 , 1.100698, 9.635897, 751791232.000000, -0.140000,  0.420000,  0.070000, 0.000000,  0.000000 
 135766528.000000, 0.751346 , 1.064806, 9.609575, 751810944.000000, -0.140000,  0.350000,  0.070000, 0.000000,  0.000000 
 135786496.000000, 0.777667 , 1.071985, 9.609575, 751830656.000000, -0.140000,  0.280000,  0.070000, 0.000000,  0.000000 
 135806528.000000, 0.748954 , 1.074377, 9.604790, 751850624.000000, -0.210000,  0.280000,  0.070000, 0.000000,  0.000000 
 135827264.000000, 0.722632 , 1.100698, 9.573684, 751870592.000000, -0.140000,  0.280000,  0.070000, 0.000000,  0.000000 
 135846784.000000, 0.741775 , 1.060020, 9.638289, 751891392.000000, -0.070000,  0.420000,  0.070000, 0.000000,  0.000000 
 135866496.000000, 0.763310 , 1.083949, 9.633504, 751910912.000000, -0.140000,  0.420000,  0.070000, 0.000000,  0.000000 
 135886464.000000, 0.744168 , 1.052842, 9.631111, 751930560.000000, -0.210000,  0.420000,  0.070000, 0.000000,  0.000000 
 135906432.000000, 0.727418 , 1.069592, 9.597611, 751950592.000000, -0.210000,  0.350000,  0.070000, 0.000000,  0.000000 
 135927040.000000, 0.756132 , 1.048056, 9.600004, 751970560.000000, -0.210000,  0.210000,  0.070000, 0.000000,  0.000000 
 135946752.000000, 0.746561 , 1.060020, 9.573684, 751991104.000000, 0.070000,  0.210000,  0.070000, 0.000000,  0.000000 
 135966400.000000, 0.708275 , 1.127020, 9.616754, 752010816.000000, -0.070000,  0.350000,  0.140000, 0.000000,  0.000000 
 135986432.000000, 0.811167 , 1.124627, 9.623933, 752030528.000000, -0.490000,  0.350000,  0.070000, 0.000000,  0.000000 
 136006400.000000, 0.732204 , 1.091127, 9.650253, 752050496.000000, -0.630000,  0.350000,  0.070000, 0.000000,  0.000000 
 136027008.000000, 0.741775 , 1.062413, 9.619147, 752070528.000000, -0.490000,  0.420000,  0.070000, 0.000000,  0.000000 
 136046656.000000, 0.748954 , 1.043271, 9.592826, 752091072.000000, -0.280000,  0.280000,  0.070000, 0.000000,  0.000000 
 136066368.000000, 0.751346 , 1.038485, 9.585647, 752110784.000000, -0.140000,  0.140000,  0.070000, 0.000000,  0.000000 
 136086336.000000, 0.708275 , 1.062413, 9.607183, 752130496.000000, -0.210000,  0.140000,  0.070000, 0.000000,  0.000000 
 136106368.000000, 0.763310 , 1.083949, 9.611969, 752150464.000000, -0.210000,  0.420000,  0.070000, 0.000000,  0.000000 
 136128896.000000, 0.751346 , 1.091127, 9.607183, 752170432.000000, -0.210000,  0.350000,  0.070000, 0.000000,  0.000000 
 136146624.000000, 0.763310 , 1.069592, 9.621540, 752192960.000000, -0.210000,  0.210000,  0.070000, 0.000000,  0.000000 
 136166336.000000, 0.713061 , 1.095913, 9.633504, 752210752.000000, -0.210000,  0.280000,  0.070000, 0.000000,  0.000000 
 136186304.000000, 0.775275 , 1.069592, 9.588040, 752230400.000000, -0.280000,  0.420000,  0.070000, 0.000000,  0.000000 
 136206272.000000, 0.744168 , 1.060020, 9.621540, 752250432.000000, -0.420000,  0.420000,  0.070000, 0.000000,  0.000000 
 136226880.000000, 0.734596 , 1.060020, 9.585647, 752270400.000000, -0.420000,  0.420000,  0.070000, 0.000000,  0.000000 
 136246592.000000, 0.734596 , 1.115055, 9.552148, 752290944.000000, -0.210000,  0.210000,  0.070000, 0.000000,  0.000000 
 136266240.000000, 0.775275 , 1.057628, 9.580862, 752310656.000000, -0.210000,  0.210000,  0.070000, 0.000000,  0.000000 
 136286272.000000, 0.741775 , 1.079163, 9.635897, 752330368.000000, -0.070000,  0.420000,  0.070000, 0.000000,  0.000000 
 136306240.000000, 0.780060 , 1.069592, 9.604790, 752350336.000000, -0.070000,  0.490000,  0.070000, 0.000000,  0.000000 
 136326848.000000, 0.746561 , 1.019342, 9.628718, 752370368.000000, -0.280000,  0.280000,  0.070000, 0.000000,  0.000000 
 136346496.000000, 0.768096 , 1.028914, 9.604790, 752390912.000000, -0.420000,  0.210000,  0.070000, 0.000000,  0.000000 
 136366208.000000, 0.751346 , 1.055235, 9.590433, 752410624.000000, -0.210000,  0.280000,  0.140000, 0.000000,  0.000000 
 136386176.000000, 0.827917 , 1.100698, 9.609575, 752430272.000000, -0.140000,  0.210000,  0.070000, 0.000000,  0.000000 
 136406208.000000, 0.763310 , 1.098306, 9.611969, 752450304.000000, -0.210000,  0.280000,  0.070000, 0.000000,  0.000000 
 136426752.000000, 0.787239 , 1.071985, 9.621540, 752470272.000000, -0.490000,  0.420000,  0.070000, 0.000000,  0.000000 
 136446464.000000, 0.744168 , 1.016950, 9.635897, 752490880.000000, -0.560000,  0.350000,  0.070000, 0.000000,  0.000000 
 136466112.000000, 0.744168 , 1.081556, 9.590433, 752510592.000000, -0.490000,  0.210000,  0.070000, 0.000000,  0.000000 
 136486144.000000, 0.734596 , 1.071985, 9.611969, 752530240.000000, -0.420000,  0.140000,  0.070000, 0.000000,  0.000000 
 136506112.000000, 0.780060 , 1.064806, 9.583255, 752550208.000000, -0.350000,  0.350000,  0.070000, 0.000000,  0.000000 
 136526720.000000, 0.763310 , 1.079163, 9.588040, 752570240.000000, -0.210000,  0.350000,  0.070000, 753230272.000000,  1010.478455 
 136546432.000000, 0.780060 , 1.033699, 9.600004, 752590784.000000, -0.280000,  0.280000,  0.070000, 0.000000,  0.000000 
 136566080.000000, 0.775275 , 1.064806, 9.602397, 752610496.000000, -0.140000,  0.350000,  0.070000, 0.000000,  0.000000 
 136586048.000000, 0.725025 , 1.067199, 9.585647, 752630208.000000, -0.140000,  0.280000,  0.070000, 0.000000,  0.000000 
 136606080.000000, 0.729811 , 1.115055, 9.595219, 752650176.000000, -0.210000,  0.280000,  0.070000, 0.000000,  0.000000 
 136626624.000000, 0.782453 , 1.100698, 9.607183, 752670144.000000, -0.140000,  0.210000,  0.070000, 0.000000,  0.000000 
 136646400.000000, 0.746561 , 1.119841, 9.600004, 752690752.000000, -0.210000,  0.350000,  0.070000, 0.000000,  0.000000 
 136666048.000000, 0.725025 , 1.098306, 9.638289, 752710464.000000, -0.350000,  0.350000,  0.070000, 0.000000,  0.000000 
 136686016.000000, 0.780060 , 1.093520, 9.655040, 752730112.000000, -0.490000,  0.420000,  0.070000, 0.000000,  0.000000 
 136705984.000000, 0.722632 , 1.064806, 9.650253, 752750144.000000, -0.420000,  0.350000,  0.070000, 0.000000,  0.000000 
 136726592.000000, 0.725025 , 1.103091, 9.619147, 752770112.000000, -0.140000,  0.350000,  0.070000, 0.000000,  0.000000 
 136746304.000000, 0.741775 , 1.134198, 9.597611, 752790720.000000, 0.070000,  0.280000,  0.070000, 0.000000,  0.000000 
 136765952.000000, 0.734596 , 1.064806, 9.542577, 752810432.000000, 0.070000,  0.210000,  0.070000, 0.000000,  0.000000 
 136785984.000000, 0.748954 , 1.086342, 9.604790, 752830080.000000, -0.420000,  0.350000,  0.070000, 0.000000,  0.000000 
 136805952.000000, 0.736989 , 1.095913, 9.595219, 752850048.000000, -0.560000,  0.490000,  0.070000, 0.000000,  0.000000 
 136826560.000000, 0.736989 , 1.045663, 9.607183, 752870080.000000, -0.770000,  0.490000,  0.070000, 0.000000,  0.000000 
 136846272.000000, 0.720240 , 1.079163, 9.616754, 752890688.000000, -0.770000,  0.280000,  0.070000, 0.000000,  0.000000 
 136865920.000000, 0.760918 , 1.050449, 9.588040, 752910336.000000, -0.560000,  0.140000,  0.070000, 0.000000,  0.000000 
 136885888.000000, 0.727418 , 1.124627, 9.619147, 752930048.000000, -0.070000,  0.210000,  0.070000, 0.000000,  0.000000 
 136905920.000000, 0.713061 , 1.112662, 9.611969, 752950016.000000, 0.070000,  0.210000,  0.070000, 0.000000,  0.000000 
 136926464.000000, 0.748954 , 1.071985, 9.628718, 752969984.000000, 0.070000,  0.280000,  0.070000, 0.000000,  0.000000 
 136946176.000000, 0.777667 , 1.076770, 9.623933, 752990592.000000, -0.280000,  0.280000,  0.070000, 0.000000,  0.000000 
 136965888.000000, 0.722632 , 1.074377, 9.655040, 753010304.000000, -0.350000,  0.350000,  0.070000, 0.000000,  0.000000 
 136985856.000000, 0.748954 , 1.043271, 9.600004, 753029952.000000, -0.630000,  0.420000,  0.070000, 0.000000,  0.000000 
 137005824.000000, 0.725025 , 1.045663, 9.611969, 753049984.000000, -0.490000,  0.490000,  0.070000, 0.000000,  0.000000 
 137026432.000000, 0.775275 , 1.036092, 9.578469, 753069952.000000, -0.350000,  0.280000,  0.070000, 0.000000,  0.000000 
 137046144.000000, 0.746561 , 1.107877, 9.592826, 753090560.000000, -0.140000,  0.210000,  0.070000, 0.000000,  0.000000 
 137065792.000000, 0.775275 , 1.074377, 9.633504, 753110208.000000, -0.140000,  0.350000,  0.070000, 0.000000,  0.000000 
 137085824.000000, 0.725025 , 1.103091, 9.595219, 753129920.000000, -0.350000,  0.490000,  0.070000, 0.000000,  0.000000 
 137105792.000000, 0.756132 , 1.103091, 9.623933, 753149888.000000, -0.350000,  0.420000,  0.070000, 0.000000,  0.000000 
 137128320.000000, 0.725025 , 1.069592, 9.580862, 753169920.000000, -0.350000,  0.420000,  0.070000, 0.000000,  0.000000 
 137146048.000000, 0.772882 , 1.071985, 9.592826, 753192448.000000, -0.280000,  0.210000,  0.070000, 0.000000,  0.000000 
 137165760.000000, 0.739382 , 1.093520, 9.576077, 753210176.000000, -0.140000,  0.280000,  0.070000, 0.000000,  0.000000 
 137185728.000000, 0.758525 , 1.091127, 9.561719, 753229824.000000, -0.350000,  0.350000,  0.070000, 0.000000,  0.000000 
 137205760.000000, 0.720240 , 1.052842, 9.628718, 753249856.000000, -0.560000,  0.350000,  0.070000, 0.000000,  0.000000 
 137226304.000000, 0.775275 , 1.110270, 9.607183, 753269824.000000, -0.630000,  0.420000,  0.070000, 0.000000,  0.000000 
 137246016.000000, 0.681954 , 1.079163, 9.635897, 753290432.000000, -0.630000,  0.350000,  0.070000, 0.000000,  0.000000 
 137265728.000000, 0.751346 , 1.093520, 9.583255, 753310144.000000, -0.420000,  0.350000,  0.070000, 0.000000,  0.000000 
 137285696.000000, 0.744168 , 1.031307, 9.590433, 753329792.000000, -0.420000,  0.210000,  0.070000, 0.000000,  0.000000 
 137305664.000000, 0.717847 , 1.067199, 9.621540, 753349760.000000, -0.490000,  0.280000,  0.070000, 0.000000,  0.000000 
 137326272.000000, 0.760918 , 1.040878, 9.583255, 753369792.000000, -0.490000,  0.490000,  0.140000, 0.000000,  0.000000 
 137345984.000000, 0.710668 , 1.124627, 9.614362, 753390400.000000, -0.420000,  0.420000,  0.070000, 0.000000,  0.000000 
 137365632.000000, 0.739382 , 1.083949, 9.616754, 753410048.000000, -0.210000,  0.280000,  0.070000, 0.000000,  0.000000 
 137385664.000000, 0.732204 , 1.110270, 9.609575, 753429760.000000, -0.140000,  0.280000,  0.070000, 0.000000,  0.000000 
 137405632.000000, 0.765703 , 1.086342, 9.597611, 753449728.000000, -0.210000,  0.350000,  0.070000, 0.000000,  0.000000 
 137426240.000000, 0.734596 , 1.052842, 9.571291, 753469696.000000, -0.420000,  0.280000,  0.070000, 0.000000,  0.000000 
 137445888.000000, 0.803988 , 1.091127, 9.616754, 753490304.000000, -0.560000,  0.420000,  0.070000, 0.000000,  0.000000 
 137465600.000000, 0.703490 , 1.067199, 9.621540, 753510016.000000, -0.420000,  0.350000,  0.070000, 0.000000,  0.000000 
 137485568.000000, 0.787239 , 1.052842, 9.604790, 753529664.000000, -0.350000,  0.350000,  0.070000, 0.000000,  0.000000 
 137505600.000000, 0.784846 , 1.028914, 9.619147, 753549696.000000, -0.420000,  0.280000,  0.070000, 0.000000,  0.000000 
 137526144.000000, 0.708275 , 1.031307, 9.588040, 753569664.000000, -0.560000,  0.350000,  0.070000, 754229760.000000,  1010.476257 
 137545856.000000, 0.780060 , 1.093520, 9.626326, 753590272.000000, -0.560000,  0.350000,  0.070000, 0.000000,  0.000000 
 137565504.000000, 0.739382 , 1.100698, 9.580862, 753609984.000000, -0.350000,  0.350000,  0.070000, 0.000000,  0.000000 
 137585536.000000, 0.784846 , 1.074377, 9.576077, 753629632.000000, -0.350000,  0.210000,  0.070000, 0.000000,  0.000000 
 137605504.000000, 0.803988 , 1.067199, 9.595219, 753649600.000000, -0.490000,  0.280000,  0.070000, 0.000000,  0.000000 
 137626112.000000, 0.717847 , 1.055235, 9.609575, 753669632.000000, -0.560000,  0.490000,  0.070000, 0.000000,  0.000000 
 137645824.000000, 0.741775 , 1.052842, 9.619147, 753690176.000000, -0.560000,  0.350000,  0.070000, 0.000000,  0.000000 
 137665472.000000, 0.732204 , 1.055235, 9.611969, 753709888.000000, -0.420000,  0.280000,  -0.070000, 0.000000,  0.000000 
 137685440.000000, 0.765703 , 1.062413, 9.580862, 753729600.000000, -0.350000,  0.140000,  -0.070000, 0.000000,  0.000000 
 137705472.000000, 0.720240 , 1.091127, 9.585647, 753749568.000000, -0.140000,  0.210000,  0.070000, 0.000000,  0.000000 
 137726016.000000, 0.722632 , 1.081556, 9.604790, 753769536.000000, -0.140000,  0.280000,  0.070000, 0.000000,  0.000000 
 137745728.000000, 0.801596 , 1.093520, 9.621540, 753790144.000000, -0.140000,  0.280000,  0.070000, 0.000000,  0.000000 
 137765440.000000, 0.751346 , 1.091127, 9.626326, 753809856.000000, -0.140000,  0.350000,  0.070000, 0.000000,  0.000000 
 137785408.000000, 0.772882 , 1.105484, 9.662218, 753829504.000000, -0.140000,  0.280000,  0.070000, 0.000000,  0.000000 
 137805440.000000, 0.722632 , 1.071985, 9.580862, 753849536.000000, -0.280000,  0.350000,  0.070000, 0.000000,  0.000000 
 137826048.000000, 0.703490 , 1.026521, 9.573684, 753869504.000000, -0.420000,  0.420000,  0.070000, 0.000000,  0.000000 
 137845824.000000, 0.739382 , 1.095913, 9.600004, 753890112.000000, -0.490000,  0.350000,  0.070000, 0.000000,  0.000000 
 137865408.000000, 0.787239 , 1.098306, 9.595219, 753909888.000000, -0.420000,  0.280000,  0.070000, 0.000000,  0.000000 
 137885376.000000, 0.746561 , 1.119841, 9.614362, 753929472.000000, -0.420000,  0.490000,  0.070000, 0.000000,  0.000000 
 137905344.000000, 0.741775 , 1.093520, 9.633504, 753949440.000000, -0.350000,  0.490000,  0.070000, 0.000000,  0.000000 
 137925952.000000, 0.686740 , 1.129412, 9.590433, 753969472.000000, -0.280000,  0.350000,  0.140000, 0.000000,  0.000000 
 137945664.000000, 0.720240 , 1.100698, 9.597611, 753990016.000000, -0.140000,  0.350000,  0.070000, 0.000000,  0.000000 
 137965312.000000, 0.765703 , 1.100698, 9.600004, 754009728.000000, -0.280000,  0.350000,  0.070000, 0.000000,  0.000000 
 137985344.000000, 0.772882 , 1.057628, 9.588040, 754029440.000000, -0.420000,  0.350000,  0.070000, 0.000000,  0.000000 
 138005312.000000, 0.725025 , 1.076770, 9.600004, 754049408.000000, -0.560000,  0.350000,  0.070000, 0.000000,  0.000000 
 138025856.000000, 0.763310 , 1.071985, 9.628718, 754069376.000000, -0.630000,  0.350000,  0.070000, 0.000000,  0.000000 
 138045568.000000, 0.760918 , 1.093520, 9.611969, 754109696.000000, -0.490000,  0.490000,  0.070000, 0.000000,  0.000000 
 138065280.000000, 0.784846 , 1.062413, 9.597611, 0.000000, 0.000000,  0.000000,  0.000000, 0.000000,  0.000000 
 138085248.000000, 0.744168 , 1.074377, 9.628718, 754129344.000000, -0.350000,  0.350000,  0.070000, 0.000000,  0.000000 
 138105280.000000, 0.722632 , 1.093520, 9.635897, 754149376.000000, -0.420000,  0.350000,  0.070000, 0.000000,  0.000000 
 138127808.000000, 0.775275 , 1.064806, 9.595219, 754169344.000000, -0.420000,  0.280000,  0.070000, 0.000000,  0.000000 
 138145536.000000, 0.772882 , 1.012164, 9.544970, 754191872.000000, -0.350000,  0.350000,  0.070000, 0.000000,  0.000000 
 138165184.000000, 0.734596 , 1.062413, 9.623933, 754209664.000000, -0.280000,  0.350000,  0.070000, 0.000000,  0.000000 
 138185216.000000, 0.770489 , 1.019342, 9.607183, 754229312.000000, -0.280000,  0.490000,  0.070000, 0.000000,  0.000000 
 138205184.000000, 0.710668 , 1.095913, 9.600004, 754249280.000000, -0.280000,  0.490000,  0.140000, 0.000000,  0.000000 
 138225792.000000, 0.722632 , 1.088734, 9.600004, 754269312.000000, -0.280000,  0.350000,  0.070000, 0.000000,  0.000000 
 138245504.000000, 0.794417 , 1.091127, 9.561719, 754289856.000000, -0.140000,  0.280000,  0.070000, 0.000000,  0.000000 
 138265152.000000, 0.744168 , 1.071985, 9.573684, 754309568.000000, -0.280000,  0.350000,  0.070000, 0.000000,  0.000000 
 138285120.000000, 0.732204 , 0.995414, 9.626326, 754329280.000000, -0.350000,  0.420000,  0.140000, 0.000000,  0.000000 
 138305152.000000, 0.772882 , 1.057628, 9.623933, 754349248.000000, -0.490000,  0.490000,  0.070000, 0.000000,  0.000000 
 138325696.000000, 0.736989 , 1.088734, 9.616754, 754369216.000000, -0.420000,  0.490000,  0.070000, 0.000000,  0.000000 
 138345408.000000, 0.739382 , 1.067199, 9.650253, 754389824.000000, -0.490000,  0.490000,  0.070000, 0.000000,  0.000000 
 138365120.000000, 0.768096 , 1.048056, 9.628718, 754409536.000000, -0.350000,  0.350000,  0.070000, 0.000000,  0.000000 
 138385088.000000, 0.722632 , 1.067199, 9.588040, 754429184.000000, -0.140000,  0.210000,  0.070000, 0.000000,  0.000000 
 138405056.000000, 0.684347 , 1.055235, 9.597611, 754449216.000000, -0.140000,  0.350000,  0.140000, 0.000000,  0.000000 
 138425664.000000, 0.780060 , 1.086342, 9.590433, 754469184.000000, -0.210000,  0.350000,  0.070000, 0.000000,  0.000000 
 138445376.000000, 0.782453 , 1.060020, 9.604790, 754489728.000000, -0.490000,  0.420000,  0.070000, 0.000000,  0.000000 
 138465024.000000, 0.713061 , 1.055235, 9.607183, 754509504.000000, -0.490000,  0.490000,  0.070000, 0.000000,  0.000000 
 138485056.000000, 0.760918 , 1.074377, 9.611969, 754529152.000000, -0.420000,  0.350000,  0.070000, 0.000000,  0.000000 
 138505024.000000, 0.753739 , 1.038485, 9.633504, 754569152.000000, -0.420000,  0.210000,  0.070000, 755229184.000000,  1010.476257 
 138525632.000000, 0.689133 , 1.079163, 9.595219, 0.000000, 0.000000,  0.000000,  0.000000, 0.000000,  0.000000 
 138545344.000000, 0.753739 , 1.067199, 9.578469, 754589696.000000, -0.140000,  0.350000,  0.140000, 0.000000,  0.000000 
 138564992.000000, 0.722632 , 1.081556, 9.600004, 754609408.000000, 0.070000,  0.350000,  0.070000, 0.000000,  0.000000 
 138584960.000000, 0.751346 , 1.088734, 9.614362, 754629056.000000, -0.070000,  0.280000,  0.070000, 0.000000,  0.000000 
 138604992.000000, 0.748954 , 1.064806, 9.611969, 754649088.000000, -0.140000,  0.350000,  0.070000, 0.000000,  0.000000 
 138625536.000000, 0.720240 , 1.033699, 9.616754, 754669056.000000, -0.350000,  0.420000,  0.070000, 0.000000,  0.000000 
 138645248.000000, 0.796810 , 1.062413, 9.549755, 754689664.000000, -0.420000,  0.420000,  0.070000, 0.000000,  0.000000 
 138664960.000000, 0.725025 , 1.069592, 9.585647, 754709376.000000, -0.490000,  0.420000,  0.140000, 0.000000,  0.000000 
 138684928.000000, 0.772882 , 1.038485, 9.616754, 754729024.000000, -0.350000,  0.420000,  0.140000, 0.000000,  0.000000 
 138704896.000000, 0.780060 , 1.112662, 9.583255, 754748992.000000, -0.350000,  0.350000,  0.070000, 0.000000,  0.000000 
 138725504.000000, 0.756132 , 1.069592, 9.616754, 754769024.000000, -0.280000,  0.420000,  0.070000, 0.000000,  0.000000 
 138745216.000000, 0.727418 , 1.079163, 9.600004, 754789568.000000, -0.420000,  0.490000,  0.070000, 0.000000,  0.000000 
 138764864.000000, 0.732204 , 1.088734, 9.595219, 754809280.000000, -0.350000,  0.350000,  0.070000, 0.000000,  0.000000 
 138784896.000000, 0.808774 , 1.069592, 9.590433, 754828992.000000, -0.350000,  0.350000,  0.070000, 0.000000,  0.000000 
 138804864.000000, 0.768096 , 1.093520, 9.626326, 754848960.000000, -0.280000,  0.420000,  0.070000, 0.000000,  0.000000 
 138825472.000000, 0.763310 , 1.079163, 9.638289, 754868928.000000, -0.280000,  0.420000,  0.070000, 0.000000,  0.000000 
 138845120.000000, 0.763310 , 1.122234, 9.635897, 754889600.000000, -0.420000,  0.420000,  0.140000, 0.000000,  0.000000 
 138864832.000000, 0.772882 , 1.124627, 9.652647, 754909248.000000, -0.490000,  0.280000,  0.070000, 0.000000,  0.000000 
 138884800.000000, 0.710668 , 1.083949, 9.590433, 754928896.000000, -0.700000,  0.490000,  0.070000, 0.000000,  0.000000 
 138904832.000000, 0.775275 , 1.071985, 9.635897, 754948928.000000, -0.700000,  0.490000,  0.070000, 0.000000,  0.000000 
 138925376.000000, 0.792024 , 1.040878, 9.597611, 754968896.000000, -0.560000,  0.420000,  0.070000, 0.000000,  0.000000 
 138945088.000000, 0.775275 , 1.040878, 9.576077, 754989504.000000, -0.420000,  0.420000,  0.070000, 0.000000,  0.000000 
 138964736.000000, 0.732204 , 1.036092, 9.626326, 755009216.000000, -0.350000,  0.490000,  0.070000, 0.000000,  0.000000 
 138984768.000000, 0.705883 , 1.067199, 9.631111, 755028864.000000, -0.350000,  0.490000,  0.070000, 0.000000,  0.000000 
 139004736.000000, 0.760918 , 1.052842, 9.571291, 755048832.000000, -0.350000,  0.350000,  0.070000, 0.000000,  0.000000 
 139025344.000000, 0.727418 , 1.067199, 9.640682, 755068864.000000, -0.350000,  0.420000,  0.070000, 0.000000,  0.000000 
 139045056.000000, 0.775275 , 1.074377, 9.635897, 755089408.000000, -0.280000,  0.350000,  0.070000, 0.000000,  0.000000 
 139064704.000000, 0.729811 , 1.060020, 9.602397, 755109120.000000, -0.280000,  0.350000,  0.070000, 0.000000,  0.000000 
 139084672.000000, 0.770489 , 1.055235, 9.628718, 755128832.000000, -0.280000,  0.350000,  0.070000, 0.000000,  0.000000 
 139104704.000000, 0.715454 , 1.050449, 9.604790, 755148800.000000, -0.420000,  0.420000,  0.070000, 0.000000,  0.000000 
 139127232.000000, 0.701097 , 1.052842, 9.635897, 755168768.000000, -0.420000,  0.350000,  0.070000, 0.000000,  0.000000 
 139144960.000000, 0.746561 , 1.083949, 9.609575, 755191360.000000, -0.420000,  0.280000,  0.070000, 0.000000,  0.000000 
 139164672.000000, 0.772882 , 1.031307, 9.611969, 755209088.000000, -0.210000,  0.280000,  0.070000, 0.000000,  0.000000 
 139184640.000000, 0.693919 , 1.069592, 9.621540, 755228736.000000, -0.140000,  0.350000,  0.070000, 0.000000,  0.000000 
 139204608.000000, 0.796810 , 1.083949, 9.590433, 755248768.000000, -0.140000,  0.490000,  0.070000, 0.000000,  0.000000 
 139225216.000000, 0.713061 , 1.055235, 9.616754, 755268736.000000, -0.350000,  0.210000,  0.070000, 0.000000,  0.000000 
 139244928.000000, 0.763310 , 1.069592, 9.652647, 755289344.000000, -0.420000,  0.280000,  0.070000, 0.000000,  0.000000 
 139264576.000000, 0.751346 , 1.055235, 9.583255, 755309056.000000, -0.490000,  0.420000,  0.070000, 0.000000,  0.000000 
 139284608.000000, 0.756132 , 1.033699, 9.643075, 755328704.000000, -0.490000,  0.420000,  0.070000, 0.000000,  0.000000 
 139304576.000000, 0.725025 , 1.004985, 9.607183, 755348672.000000, -0.490000,  0.210000,  0.070000, 0.000000,  0.000000 
 139325184.000000, 0.768096 , 1.038485, 9.655040, 755368704.000000, -0.420000,  0.210000,  0.070000, 0.000000,  0.000000 
 139344896.000000, 0.782453 , 1.069592, 9.607183, 755389248.000000, 0.070000,  0.280000,  0.070000, 0.000000,  0.000000 
 139364544.000000, 0.789631 , 1.076770, 9.597611, 755408960.000000, 0.350000,  0.140000,  0.070000, 0.000000,  0.000000 
 139384512.000000, 0.717847 , 1.088734, 9.588040, 755428672.000000, 0.070000,  0.210000,  0.070000, 0.000000,  0.000000 
 139404544.000000, 0.751346 , 1.038485, 9.626326, 755448640.000000, -0.350000,  0.280000,  0.070000, 0.000000,  0.000000 
 139425088.000000, 0.744168 , 1.038485, 9.604790, 755468608.000000, -0.700000,  0.350000,  0.070000, 0.000000,  0.000000 
 139444800.000000, 0.746561 , 1.036092, 9.602397, 755489216.000000, -0.630000,  0.350000,  0.070000, 0.000000,  0.000000 
 139464512.000000, 0.746561 , 1.000200, 9.592826, 755508928.000000, -0.420000,  0.420000,  0.070000, 0.000000,  0.000000 
 139484480.000000, 0.772882 , 1.048056, 9.604790, 755528576.000000, -0.210000,  0.210000,  0.070000, 0.000000,  0.000000 
 139504448.000000, 0.760918 , 1.064806, 9.573684, 755568576.000000, -0.210000,  0.350000,  0.070000, 756228672.000000,  1010.478577 
 139525056.000000, 0.732204 , 1.045663, 9.611969, 0.000000, 0.000000,  0.000000,  0.000000, 0.000000,  0.000000 
 139544768.000000, 0.758525 , 1.083949, 9.585647, 755589184.000000, -0.140000,  0.490000,  0.070000, 0.000000,  0.000000 
 139564416.000000, 0.760918 , 1.079163, 9.611969, 755608832.000000, -0.350000,  0.350000,  0.070000, 0.000000,  0.000000 
 139584448.000000, 0.751346 , 1.060020, 9.657433, 755628544.000000, -0.630000,  0.210000,  0.070000, 0.000000,  0.000000 
 139604416.000000, 0.763310 , 1.107877, 9.590433, 755648512.000000, -0.420000,  0.350000,  0.070000, 0.000000,  0.000000 
 139625024.000000, 0.739382 , 1.071985, 9.607183, 755668544.000000, -0.140000,  0.280000,  0.070000, 0.000000,  0.000000 
 139644736.000000, 0.729811 , 1.040878, 9.600004, 755689088.000000, -0.210000,  0.280000,  0.070000, 0.000000,  0.000000 
 139664384.000000, 0.725025 , 1.100698, 9.609575, 755708800.000000, -0.280000,  0.280000,  0.070000, 0.000000,  0.000000 
 139684352.000000, 0.772882 , 1.016950, 9.652647, 755728512.000000, -0.420000,  0.420000,  0.070000, 0.000000,  0.000000 
 139704384.000000, 0.710668 , 1.067199, 9.597611, 755748480.000000, -0.490000,  0.420000,  0.070000, 0.000000,  0.000000 
 139724928.000000, 0.748954 , 1.026521, 9.592826, 755768448.000000, -0.420000,  0.280000,  0.070000, 0.000000,  0.000000 
 139744640.000000, 0.729811 , 1.038485, 9.585647, 755789056.000000, -0.350000,  0.350000,  0.070000, 0.000000,  0.000000 
 139764352.000000, 0.741775 , 1.069592, 9.631111, 755808768.000000, -0.280000,  0.350000,  0.070000, 0.000000,  0.000000 
 139784320.000000, 0.748954 , 1.069592, 9.616754, 755828416.000000, -0.280000,  0.280000,  0.070000, 0.000000,  0.000000 
 139804288.000000, 0.772882 , 1.091127, 9.607183, 755848448.000000, -0.210000,  0.420000,  0.070000, 0.000000,  0.000000 
 139825088.000000, 0.770489 , 1.076770, 9.607183, 755868416.000000, -0.140000,  0.350000,  0.070000, 0.000000,  0.000000 
 139844608.000000, 0.765703 , 1.076770, 9.566505, 755889216.000000, -0.140000,  0.280000,  0.070000, 0.000000,  0.000000 
 139864256.000000, 0.753739 , 1.105484, 9.592826, 755908672.000000, -0.210000,  0.350000,  0.070000, 0.000000,  0.000000 
 139884288.000000, 0.770489 , 1.083949, 9.597611, 755928384.000000, -0.210000,  0.350000,  0.070000, 0.000000,  0.000000 
 139904256.000000, 0.727418 , 1.057628, 9.597611, 755948352.000000, -0.420000,  0.350000,  0.140000, 0.000000,  0.000000 
 139924864.000000, 0.727418 , 1.048056, 9.628718, 755968384.000000, -0.420000,  0.420000,  0.070000, 0.000000,  0.000000 
 139944512.000000, 0.756132 , 1.079163, 9.590433, 755988928.000000, -0.210000,  0.350000,  0.070000, 0.000000,  0.000000 
 139964224.000000, 0.801596 , 1.048056, 9.549755, 756008640.000000, 0.070000,  0.280000,  0.070000, 0.000000,  0.000000 
 139984192.000000, 0.782453 , 1.064806, 9.566505, 756028352.000000, 0.070000,  0.350000,  0.070000, 0.000000,  0.000000 
 140004224.000000, 0.746561 , 1.079163, 9.619147, 756048320.000000, -0.210000,  0.210000,  0.070000, 0.000000,  0.000000 
 140024768.000000, 0.701097 , 1.038485, 9.600004, 756068288.000000, -0.420000,  0.420000,  0.070000, 0.000000,  0.000000 
 140044480.000000, 0.763310 , 1.100698, 9.614362, 756088896.000000, -0.490000,  0.420000,  0.070000, 0.000000,  0.000000 
 140064192.000000, 0.772882 , 1.074377, 9.568897, 756108608.000000, -0.490000,  0.210000,  -0.070000, 0.000000,  0.000000 
 140084160.000000, 0.792024 , 1.048056, 9.592826, 756128256.000000, -0.490000,  0.140000,  -0.070000, 0.000000,  0.000000 
 140104128.000000, 0.736989 , 1.060020, 9.580862, 756148288.000000, -0.350000,  0.280000,  0.070000, 0.000000,  0.000000 
 140126656.000000, 0.693919 , 1.036092, 9.607183, 756168256.000000, -0.350000,  0.350000,  0.070000, 0.000000,  0.000000 
 140144448.000000, 0.784846 , 1.074377, 9.576077, 756190784.000000, -0.490000,  0.350000,  0.070000, 0.000000,  0.000000 
 140164096.000000, 0.784846 , 1.134198, 9.640682, 756208512.000000, -0.560000,  0.280000,  0.070000, 0.000000,  0.000000 
 140184064.000000, 0.765703 , 1.052842, 9.631111, 756228224.000000, -0.350000,  0.280000,  0.070000, 0.000000,  0.000000 
 140204096.000000, 0.744168 , 1.081556, 9.611969, 756248192.000000, -0.350000,  0.350000,  0.070000, 0.000000,  0.000000 
 140224640.000000, 0.696311 , 1.112662, 9.609575, 756268160.000000, -0.280000,  0.350000,  0.070000, 0.000000,  0.000000 
 140244416.000000, 0.768096 , 1.064806, 9.600004, 756288768.000000, -0.420000,  0.350000,  0.070000, 0.000000,  0.000000 
 140264064.000000, 0.796810 , 1.064806, 9.621540, 756308480.000000, -0.490000,  0.350000,  0.070000, 0.000000,  0.000000 
 140284032.000000, 0.746561 , 1.083949, 9.655040, 756328128.000000, -0.490000,  0.350000,  0.070000, 0.000000,  0.000000 
 140304000.000000, 0.739382 , 1.048056, 9.616754, 756348160.000000, -0.420000,  0.420000,  0.070000, 0.000000,  0.000000 
 140324608.000000, 0.746561 , 1.057628, 9.602397, 756368128.000000, -0.210000,  0.280000,  0.070000, 0.000000,  0.000000 
 140344320.000000, 0.741775 , 1.062413, 9.607183, 756388736.000000, -0.140000,  0.350000,  0.070000, 0.000000,  0.000000 
 140363968.000000, 0.693919 , 1.050449, 9.609575, 756408448.000000, -0.280000,  0.280000,  0.070000, 0.000000,  0.000000 
 140384000.000000, 0.744168 , 1.043271, 9.626326, 756428096.000000, -0.350000,  0.350000,  0.070000, 0.000000,  0.000000 
 140403968.000000, 0.760918 , 1.050449, 9.590433, 756448064.000000, -0.490000,  0.350000,  0.070000, 0.000000,  0.000000 
 140424576.000000, 0.756132 , 1.091127, 9.600004, 756468096.000000, -0.490000,  0.280000,  0.070000, 0.000000,  0.000000 
 140444288.000000, 0.739382 , 1.033699, 9.588040, 756488640.000000, -0.420000,  0.280000,  0.070000, 0.000000,  0.000000 
 140463936.000000, 0.746561 , 1.093520, 9.621540, 756508352.000000, -0.490000,  0.350000,  0.070000, 0.000000,  0.000000 
 140483904.000000, 0.717847 , 1.088734, 9.628718, 756528064.000000, -0.420000,  0.280000,  0.070000, 0.000000,  0.000000 
 140503936.000000, 0.751346 , 1.012164, 9.595219, 756548032.000000, -0.560000,  0.420000,  0.070000, 0.000000,  0.000000 
 140524480.000000, 0.727418 , 1.079163, 9.626326, 756568000.000000, -0.560000,  0.420000,  0.070000, 757228096.000000,  1010.480652 
 140544192.000000, 0.751346 , 1.036092, 9.616754, 756588608.000000, -0.280000,  0.280000,  0.070000, 0.000000,  0.000000 
 140563904.000000, 0.768096 , 1.040878, 9.590433, 756608320.000000, -0.140000,  0.280000,  0.070000, 0.000000,  0.000000 
 140583872.000000, 0.748954 , 1.088734, 9.638289, 756627968.000000, -0.140000,  0.350000,  0.140000, 0.000000,  0.000000 
 140603840.000000, 0.775275 , 1.069592, 9.635897, 756648000.000000, -0.140000,  0.350000,  0.070000, 0.000000,  0.000000 
 140624448.000000, 0.748954 , 1.062413, 9.604790, 756667968.000000, -0.210000,  0.350000,  0.140000, 0.000000,  0.000000 
 140644160.000000, 0.753739 , 1.103091, 9.638289, 756688576.000000, -0.350000,  0.350000,  0.140000, 0.000000,  0.000000 
 140663808.000000, 0.739382 , 1.095913, 9.595219, 756708288.000000, -0.700000,  0.350000,  0.070000, 0.000000,  0.000000 
 140683840.000000, 0.746561 , 1.028914, 9.652647, 756727936.000000, 0.070000,  0.420000,  0.140000, 0.000000,  0.000000 
 140703808.000000, 0.787239 , 1.055235, 9.571291, 756747904.000000, -0.490000,  0.140000,  -0.140000, 0.000000,  0.000000 
 140724416.000000, 0.713061 , 1.095913, 9.635897, 756767936.000000, -0.280000,  0.140000,  0.070000, 0.000000,  0.000000 
 140744128.000000, 0.736989 , 1.055235, 9.604790, 756808192.000000, -0.490000,  0.420000,  0.070000, 0.000000,  0.000000 
 140763776.000000, 0.782453 , 1.127020, 9.580862, 0.000000, 0.000000,  0.000000,  0.000000, 0.000000,  0.000000 
 140783744.000000, 0.744168 , 1.081556, 9.592826, 756827904.000000, -0.420000,  0.420000,  0.070000, 0.000000,  0.000000 
 140803776.000000, 0.789631 , 1.055235, 9.621540, 756847872.000000, -0.560000,  0.490000,  -0.070000, 0.000000,  0.000000 
 140824384.000000, 0.713061 , 1.093520, 9.592826, 756867840.000000, -0.560000,  0.280000,  -0.070000, 0.000000,  0.000000 
 140844032.000000, 0.751346 , 1.033699, 9.600004, 756888512.000000, -0.630000,  0.420000,  -0.070000, 0.000000,  0.000000 
 140863744.000000, 0.756132 , 0.995414, 9.602397, 756908160.000000, -0.560000,  0.210000,  0.070000, 0.000000,  0.000000 
 140883712.000000, 0.758525 , 1.036092, 9.626326, 756927808.000000, -0.280000,  0.280000,  0.070000, 0.000000,  0.000000 
 140903680.000000, 0.710668 , 1.107877, 9.623933, 756947840.000000, -0.140000,  0.350000,  0.070000, 0.000000,  0.000000 
 140924288.000000, 0.782453 , 1.064806, 9.600004, 756967808.000000, -0.140000,  0.280000,  0.070000, 0.000000,  0.000000 
 140944000.000000, 0.753739 , 1.100698, 9.616754, 756988416.000000, -0.280000,  0.280000,  0.070000, 0.000000,  0.000000 
 140963648.000000, 0.784846 , 1.052842, 9.607183, 757008064.000000, -0.210000,  0.280000,  0.070000, 0.000000,  0.000000 
 140983680.000000, 0.710668 , 1.031307, 9.616754, 757027776.000000, -0.210000,  0.280000,  0.070000, 0.000000,  0.000000 
 141003648.000000, 0.727418 , 1.083949, 9.588040, 757047744.000000, -0.210000,  0.420000,  0.070000, 0.000000,  0.000000 
 141024256.000000, 0.734596 , 1.050449, 9.611969, 757067776.000000, -0.280000,  0.420000,  0.140000, 0.000000,  0.000000 
 141043968.000000, 0.756132 , 1.129412, 9.626326, 757088320.000000, -0.280000,  0.210000,  0.070000, 0.000000,  0.000000 
 141063616.000000, 0.722632 , 1.083949, 9.595219, 757108032.000000, -0.210000,  0.350000,  0.070000, 0.000000,  0.000000 
 141083584.000000, 0.784846 , 1.057628, 9.628718, 757127680.000000, -0.140000,  0.420000,  0.070000, 0.000000,  0.000000 
 141103616.000000, 0.763310 , 1.052842, 9.590433, 757147712.000000, -0.140000,  0.210000,  0.070000, 0.000000,  0.000000 
 141126144.000000, 0.758525 , 1.069592, 9.600004, 757167680.000000, 0.070000,  0.280000,  0.070000, 0.000000,  0.000000 
 141143872.000000, 0.713061 , 1.057628, 9.611969, 757190208.000000, -0.140000,  0.350000,  0.070000, 0.000000,  0.000000 
 141163584.000000, 0.768096 , 1.112662, 9.561719, 757208000.000000, -0.280000,  0.350000,  0.070000, 0.000000,  0.000000 
 141183552.000000, 0.720240 , 1.079163, 9.597611, 757227648.000000, -0.490000,  0.350000,  0.070000, 0.000000,  0.000000 
 141203520.000000, 0.727418 , 1.048056, 9.633504, 757247680.000000, -0.700000,  0.420000,  0.070000, 0.000000,  0.000000 
 141224128.000000, 0.763310 , 1.067199, 9.650253, 757267648.000000, -0.840000,  0.490000,  0.070000, 0.000000,  0.000000 
 141243840.000000, 0.753739 , 1.019342, 9.616754, 757288192.000000, -0.840000,  0.490000,  0.070000, 0.000000,  0.000000 
 141263488.000000, 0.758525 , 1.026521, 9.631111, 757307904.000000, -0.770000,  0.560000,  0.070000, 0.000000,  0.000000 
 141283520.000000, 0.777667 , 1.055235, 9.604790, 757327616.000000, -0.630000,  0.560000,  0.140000, 0.000000,  0.000000 
 141303488.000000, 0.713061 , 1.086342, 9.602397, 757347584.000000, -0.350000,  0.560000,  0.140000, 0.000000,  0.000000 
 141324032.000000, 0.744168 , 1.079163, 9.600004, 757367552.000000, 0.070000,  0.350000,  0.070000, 0.000000,  0.000000 
 141343744.000000, 0.772882 , 1.117448, 9.643075, 757388160.000000, 0.210000,  0.280000,  0.140000, 0.000000,  0.000000 
 141363456.000000, 0.792024 , 1.088734, 9.568897, 757407872.000000, -0.140000,  0.350000,  0.070000, 0.000000,  0.000000 
 141383424.000000, 0.763310 , 1.079163, 9.611969, 757427520.000000, -0.630000,  0.420000,  0.070000, 0.000000,  0.000000 
 141403456.000000, 0.739382 , 0.988236, 9.616754, 757447552.000000, -1.190000,  0.560000,  0.070000, 0.000000,  0.000000 
 141424000.000000, 0.727418 , 0.981057, 9.614362, 757467520.000000, -1.190000,  0.630000,  0.140000, 0.000000,  0.000000 
 141443712.000000, 0.727418 , 0.978664, 9.628718, 757488128.000000, -0.420000,  0.560000,  0.280000, 0.000000,  0.000000 
 141463424.000000, 0.763310 , 1.009771, 9.595219, 757507840.000000, 0.770000,  0.560000,  0.280000, 0.000000,  0.000000 
 141483392.000000, 0.732204 , 1.112662, 9.619147, 757527488.000000, 2.100000,  0.490000,  0.420000, 0.000000,  0.000000 
 141503360.000000, 0.739382 , 1.124627, 9.590433, 757547520.000000, 2.800000,  0.280000,  0.280000, 0.000000,  0.000000 
 141523968.000000, 0.756132 , 1.174876, 9.559326, 757567488.000000, 2.450000,  0.210000,  0.280000, 758227584.000000,  1010.479309 
 141543680.000000, 0.751346 , 1.191626, 9.568897, 757588096.000000, 1.400000,  -0.140000,  0.070000, 0.000000,  0.000000 
 141563328.000000, 0.758525 , 1.141376, 9.588040, 757607744.000000, -0.070000,  0.210000,  -0.070000, 0.000000,  0.000000 
 141583360.000000, 0.768096 , 1.112662, 9.626326, 757627456.000000, -1.750000,  0.630000,  -0.140000, 0.000000,  0.000000 
 141603328.000000, 0.751346 , 1.064806, 9.564112, 757647424.000000, -3.220000,  0.490000,  -0.140000, 0.000000,  0.000000 
 141623936.000000, 0.667598 , 1.028914, 9.631111, 757667456.000000, -3.570000,  0.280000,  -0.280000, 0.000000,  0.000000 
 141643584.000000, 0.765703 , 1.012164, 9.647861, 757688000.000000, -3.290000,  0.420000,  -0.350000, 0.000000,  0.000000 
 141663296.000000, 0.741775 , 1.014557, 9.611969, 757707712.000000, -2.660000,  0.350000,  -0.210000, 0.000000,  0.000000 
 141683264.000000, 0.734596 , 0.981057, 9.643075, 757727424.000000, -2.380000,  0.210000,  -0.280000, 0.000000,  0.000000 
 141703296.000000, 0.770489 , 0.961915, 9.616754, 757747392.000000, -1.890000,  0.420000,  -0.070000, 0.000000,  0.000000 
 141723840.000000, 0.763310 , 1.033699, 9.655040, 757767360.000000, -1.470000,  0.350000,  -0.070000, 0.000000,  0.000000 
 141743552.000000, 0.732204 , 1.048056, 9.609575, 757787968.000000, -0.840000,  0.280000,  -0.070000, 0.000000,  0.000000 
 141763264.000000, 0.725025 , 1.000200, 9.600004, 757807680.000000, -0.490000,  0.280000,  -0.070000, 0.000000,  0.000000 
 141783232.000000, 0.772882 , 1.055235, 9.621540, 757827328.000000, -0.420000,  0.420000,  0.070000, 0.000000,  0.000000 
 141803200.000000, 0.801596 , 1.069592, 9.614362, 757847296.000000, -0.490000,  0.210000,  -0.070000, 0.000000,  0.000000 
 141823808.000000, 0.715454 , 0.964308, 9.626326, 757867328.000000, -0.840000,  0.280000,  -0.070000, 0.000000,  0.000000 
 141843520.000000, 0.768096 , 0.971486, 9.643075, 757887936.000000, -0.700000,  0.560000,  0.140000, 0.000000,  0.000000 
 141863168.000000, 0.784846 , 1.021735, 9.635897, 757907584.000000, -0.700000,  0.280000,  0.070000, 0.000000,  0.000000 
 141883200.000000, 0.751346 , 1.040878, 9.611969, 757927296.000000, 0.630000,  0.070000,  0.070000, 0.000000,  0.000000 
 141903168.000000, 0.748954 , 1.062413, 9.611969, 757947264.000000, 0.840000,  0.210000,  0.210000, 0.000000,  0.000000 
 141923712.000000, 0.727418 , 1.026521, 9.619147, 757967232.000000, 0.980000,  0.210000,  0.140000, 0.000000,  0.000000 
 141943424.000000, 0.775275 , 1.115055, 9.597611, 757987840.000000, 0.840000,  0.070000,  0.070000, 0.000000,  0.000000 
 141963136.000000, 0.777667 , 1.033699, 9.607183, 758007552.000000, 0.560000,  0.070000,  0.070000, 0.000000,  0.000000 
 141983104.000000, 0.744168 , 1.083949, 9.655040, 758027200.000000, 0.070000,  0.140000,  0.070000, 0.000000,  0.000000 
 142003072.000000, 0.760918 , 1.048056, 9.595219, 758047232.000000, -0.560000,  0.210000,  -0.280000, 0.000000,  0.000000 
 142023680.000000, 0.746561 , 0.964308, 9.643075, 758067200.000000, -1.120000,  0.210000,  0.140000, 0.000000,  0.000000 
 142043392.000000, 0.701097 , 1.004985, 9.609575, 758087808.000000, -0.770000,  0.560000,  0.140000, 0.000000,  0.000000 
 142063040.000000, 0.727418 , 1.112662, 9.609575, 758107520.000000, 0.350000,  0.420000,  0.070000, 0.000000,  0.000000 
 142083072.000000, 0.770489 , 1.117448, 9.616754, 758127168.000000, 0.630000,  0.070000,  0.070000, 0.000000,  0.000000 
 142103040.000000, 0.751346 , 1.067199, 9.619147, 758147136.000000, -0.070000,  0.140000,  0.070000, 0.000000,  0.000000 
 142125568.000000, 0.772882 , 0.993021, 9.578469, 758167168.000000, -0.980000,  0.560000,  0.070000, 0.000000,  0.000000 
 142143360.000000, 0.746561 , 1.016950, 9.614362, 758189696.000000, -1.120000,  0.140000,  0.070000, 0.000000,  0.000000 
 142163008.000000, 0.758525 , 1.060020, 9.604790, 758207424.000000, -0.420000,  0.140000,  0.070000, 0.000000,  0.000000 
 142182976.000000, 0.741775 , 1.083949, 9.614362, 758227136.000000, 0.280000,  0.210000,  0.070000, 0.000000,  0.000000 
 142203008.000000, 0.710668 , 1.079163, 9.583255, 758247104.000000, 0.630000,  0.280000,  0.070000, 0.000000,  0.000000 
 142223552.000000, 0.744168 , 1.074377, 9.609575, 758267072.000000, 0.560000,  0.210000,  0.070000, 0.000000,  0.000000 
 142243264.000000, 0.775275 , 1.057628, 9.640682, 758287680.000000, 0.700000,  0.210000,  0.140000, 0.000000,  0.000000 
 142262976.000000, 0.758525 , 1.093520, 9.628718, 758307392.000000, 1.050000,  0.210000,  0.140000, 0.000000,  0.000000 
 142282944.000000, 0.772882 , 1.117448, 9.628718, 758327040.000000, 1.400000,  0.210000,  0.210000, 0.000000,  0.000000 
 142302912.000000, 0.768096 , 1.088734, 9.614362, 758347072.000000, 1.470000,  0.280000,  0.140000, 0.000000,  0.000000 
 142323520.000000, 0.751346 , 1.115055, 9.580862, 758367040.000000, 1.050000,  0.280000,  0.140000, 0.000000,  0.000000 
 142343232.000000, 0.725025 , 1.110270, 9.571291, 758387584.000000, 0.560000,  0.070000,  0.140000, 0.000000,  0.000000 
 142362880.000000, 0.789631 , 1.150948, 9.635897, 758407360.000000, 0.490000,  0.140000,  0.070000, 0.000000,  0.000000 
 142382912.000000, 0.770489 , 1.129412, 9.590433, 758427008.000000, 0.140000,  0.280000,  0.070000, 0.000000,  0.000000 
 142402880.000000, 0.782453 , 1.117448, 9.585647, 758446976.000000, -0.280000,  0.280000,  0.070000, 0.000000,  0.000000 
 142423488.000000, 0.722632 , 1.055235, 9.592826, 758467008.000000, -0.840000,  0.420000,  0.070000, 0.000000,  0.000000 
 142443200.000000, 0.686740 , 1.074377, 9.600004, 758487552.000000, -1.050000,  0.630000,  0.070000, 0.000000,  0.000000 
 142462848.000000, 0.748954 , 1.048056, 9.588040, 758507264.000000, -0.910000,  0.490000,  0.070000, 0.000000,  0.000000 
 142482816.000000, 0.787239 , 1.086342, 9.604790, 758526976.000000, -0.350000,  0.350000,  0.070000, 0.000000,  0.000000 
 142502848.000000, 0.739382 , 1.146162, 9.578469, 758566912.000000, -0.140000,  0.210000,  0.070000, 759227008.000000,  1010.481018 
 142523392.000000, 0.803988 , 1.103091, 9.609575, 0.000000, 0.000000,  0.000000,  0.000000, 0.000000,  0.000000 
 142543104.000000, 0.748954 , 1.105484, 9.619147, 758587520.000000, -0.840000,  0.280000,  0.070000, 0.000000,  0.000000 
 142562816.000000, 0.768096 , 1.014557, 9.647861, 758607232.000000, -1.330000,  0.560000,  0.070000, 0.000000,  0.000000 
 142582784.000000, 0.741775 , 1.024128, 9.609575, 758626880.000000, -1.190000,  0.490000,  0.070000, 0.000000,  0.000000 
 142602752.000000, 0.753739 , 1.036092, 9.585647, 758646848.000000, -0.910000,  0.350000,  0.070000, 0.000000,  0.000000 
 142623360.000000, 0.741775 , 1.093520, 9.611969, 758666880.000000, -0.140000,  0.350000,  0.070000, 0.000000,  0.000000 
 142643072.000000, 0.799203 , 1.138984, 9.604790, 758687424.000000, 0.420000,  0.280000,  0.070000, 0.000000,  0.000000 
 142662720.000000, 0.787239 , 1.088734, 9.597611, 758707136.000000, 0.420000,  0.280000,  0.070000, 0.000000,  0.000000 
 142682752.000000, 0.756132 , 1.064806, 9.638289, 758726848.000000, -0.140000,  0.420000,  0.070000, 0.000000,  0.000000 
 142702720.000000, 0.760918 , 1.019342, 9.614362, 758746816.000000, -0.560000,  0.630000,  0.140000, 0.000000,  0.000000 
 142723328.000000, 0.722632 , 1.007378, 9.583255, 758766784.000000, -0.350000,  0.490000,  0.140000, 0.000000,  0.000000 
 142742976.000000, 0.734596 , 1.174876, 9.602397, 758787392.000000, 0.210000,  0.210000,  0.070000, 0.000000,  0.000000 
 142762688.000000, 0.732204 , 1.150948, 9.628718, 758807104.000000, 0.630000,  0.280000,  -0.070000, 0.000000,  0.000000 
 142782656.000000, 0.739382 , 1.112662, 9.621540, 758826752.000000, 0.350000,  0.350000,  -0.070000, 0.000000,  0.000000 
 142802624.000000, 0.760918 , 1.031307, 9.609575, 758846784.000000, -0.280000,  0.350000,  0.070000, 0.000000,  0.000000 
 142823296.000000, 0.756132 , 1.060020, 9.583255, 758866752.000000, -0.490000,  0.560000,  0.070000, 0.000000,  0.000000 
 142843072.000000, 0.746561 , 1.098306, 9.626326, 758887360.000000, -0.350000,  0.700000,  0.140000, 0.000000,  0.000000 
 142862592.000000, 0.744168 , 1.115055, 9.607183, 758907136.000000, -0.140000,  0.630000,  0.140000, 0.000000,  0.000000 
 142882624.000000, 0.751346 , 1.079163, 9.583255, 758926720.000000, -0.140000,  0.560000,  0.140000, 0.000000,  0.000000 
 142902592.000000, 0.744168 , 1.098306, 9.580862, 758946688.000000, -0.140000,  0.630000,  0.210000, 0.000000,  0.000000 
 142923200.000000, 0.722632 , 1.129412, 9.628718, 758966720.000000, -0.140000,  0.490000,  0.140000, 0.000000,  0.000000 
 142942912.000000, 0.736989 , 1.148555, 9.595219, 758987264.000000, -0.210000,  0.420000,  0.140000, 0.000000,  0.000000 
 142962560.000000, 0.725025 , 1.107877, 9.559326, 759006976.000000, -0.630000,  0.490000,  0.070000, 0.000000,  0.000000 
 142982592.000000, 0.775275 , 1.103091, 9.635897, 759026688.000000, -1.050000,  0.420000,  0.070000, 0.000000,  0.000000 
 143002560.000000, 0.698704 , 1.069592, 9.611969, 759046656.000000, -1.190000,  0.560000,  0.070000, 0.000000,  0.000000 
 143023104.000000, 0.727418 , 1.067199, 9.592826, 759066624.000000, -1.050000,  0.700000,  0.070000, 0.000000,  0.000000 
 143042816.000000, 0.708275 , 1.071985, 9.602397, 759087232.000000, -0.840000,  0.280000,  0.070000, 0.000000,  0.000000 
 143062528.000000, 0.744168 , 1.048056, 9.585647, 759106944.000000, -0.840000,  0.280000,  0.070000, 0.000000,  0.000000 
 143082496.000000, 0.727418 , 1.024128, 9.614362, 759126592.000000, -0.980000,  0.560000,  0.140000, 0.000000,  0.000000 
 143102464.000000, 0.787239 , 1.040878, 9.633504, 759146624.000000, -0.770000,  0.560000,  0.140000, 0.000000,  0.000000 
 143125056.000000, 0.748954 , 1.055235, 9.631111, 759166592.000000, -0.280000,  0.350000,  0.070000, 0.000000,  0.000000 
 143142784.000000, 0.744168 , 1.100698, 9.611969, 759189120.000000, 0.210000,  0.280000,  0.140000, 0.000000,  0.000000 
 143162432.000000, 0.734596 , 1.127020, 9.595219, 759206912.000000, 0.420000,  0.280000,  0.140000, 0.000000,  0.000000 
 143182464.000000, 0.760918 , 1.103091, 9.628718, 759226560.000000, 0.420000,  0.280000,  0.070000, 0.000000,  0.000000 
 143202432.000000, 0.768096 , 1.095913, 9.619147, 759246528.000000, 0.420000,  0.350000,  0.070000, 0.000000,  0.000000 
 143223040.000000, 0.775275 , 1.064806, 9.619147, 759266560.000000, -0.210000,  0.420000,  0.210000, 0.000000,  0.000000 
 143242752.000000, 0.780060 , 1.093520, 9.602397, 759287104.000000, -0.140000,  0.210000,  0.140000, 0.000000,  0.000000 
 143262400.000000, 0.768096 , 1.141376, 9.597611, 759306816.000000, -0.070000,  0.070000,  0.140000, 0.000000,  0.000000 
 143282368.000000, 0.720240 , 1.095913, 9.657433, 759326528.000000, -0.420000,  0.140000,  -0.070000, 0.000000,  0.000000 
 143302400.000000, 0.765703 , 1.064806, 9.607183, 759346496.000000, -0.770000,  0.280000,  -0.070000, 0.000000,  0.000000 
 143322944.000000, 0.756132 , 1.004985, 9.645468, 759366464.000000, -0.700000,  0.350000,  -0.070000, 0.000000,  0.000000 
 143342656.000000, 0.772882 , 1.103091, 9.602397, 759387072.000000, -0.210000,  0.280000,  0.070000, 0.000000,  0.000000 
 143362368.000000, 0.744168 , 1.119841, 9.611969, 759406784.000000, 0.350000,  0.280000,  0.140000, 0.000000,  0.000000 
 143382336.000000, 0.756132 , 1.182054, 9.607183, 759426432.000000, 0.490000,  0.210000,  0.140000, 0.000000,  0.000000 
 143402368.000000, 0.751346 , 1.057628, 9.614362, 759446464.000000, -0.280000,  0.210000,  0.140000, 0.000000,  0.000000 
 143422912.000000, 0.746561 , 1.048056, 9.626326, 759466432.000000, -1.120000,  0.210000,  0.140000, 0.000000,  0.000000 
 143442624.000000, 0.763310 , 1.043271, 9.583255, 759487040.000000, -1.190000,  0.280000,  0.140000, 0.000000,  0.000000 
 143462272.000000, 0.753739 , 1.122234, 9.609575, 759506688.000000, -0.560000,  0.210000,  0.140000, 0.000000,  0.000000 
 143482304.000000, 0.741775 , 1.117448, 9.619147, 759526400.000000, -0.210000,  0.280000,  -0.070000, 0.000000,  0.000000 
 143502272.000000, 0.717847 , 1.095913, 9.626326, 759546368.000000, -0.420000,  0.280000,  -0.070000, 0.000000,  0.000000 
 143522880.000000, 0.729811 , 1.024128, 9.640682, 759566400.000000, -0.630000,  0.420000,  0.070000, 760226432.000000,  1010.481628 
 143542592.000000, 0.710668 , 1.016950, 9.609575, 759586944.000000, -0.350000,  0.350000,  0.140000, 0.000000,  0.000000 
 143562240.000000, 0.758525 , 1.110270, 9.616754, 759606656.000000, 0.420000,  0.280000,  0.070000, 0.000000,  0.000000 
 143582208.000000, 0.763310 , 1.153341, 9.592826, 759626368.000000, 1.050000,  0.210000,  0.070000, 0.000000,  0.000000 
 143602240.000000, 0.768096 , 1.131805, 9.602397, 759646336.000000, 1.050000,  0.280000,  0.140000, 0.000000,  0.000000 
 143622784.000000, 0.725025 , 1.115055, 9.645468, 759666304.000000, 0.420000,  0.350000,  0.140000, 0.000000,  0.000000 
 143642496.000000, 0.727418 , 1.088734, 9.566505, 759686912.000000, 0.420000,  0.350000,  0.140000, 0.000000,  0.000000 
 143662208.000000, 0.768096 , 1.110270, 9.592826, 759706624.000000, -0.140000,  0.280000,  0.070000, 0.000000,  0.000000 
 143682176.000000, 0.768096 , 1.141376, 9.590433, 759726272.000000, -0.350000,  0.210000,  0.070000, 0.000000,  0.000000 
 143702144.000000, 0.717847 , 1.095913, 9.633504, 759746304.000000, -0.840000,  0.350000,  -0.070000, 0.000000,  0.000000 
 143722752.000000, 0.751346 , 1.024128, 9.600004, 759766272.000000, -1.330000,  0.490000,  -0.070000, 0.000000,  0.000000 
 143742464.000000, 0.784846 , 1.031307, 9.621540, 759786816.000000, -1.120000,  0.350000,  -0.070000, 0.000000,  0.000000 
 143762112.000000, 0.751346 , 1.086342, 9.595219, 759806528.000000, -0.280000,  0.350000,  -0.070000, 0.000000,  0.000000 
 143782144.000000, 0.792024 , 1.131805, 9.662218, 759826240.000000, 0.420000,  0.140000,  -0.070000, 0.000000,  0.000000 
 143802112.000000, 0.703490 , 1.115055, 9.588040, 759846208.000000, 0.490000,  0.280000,  0.070000, 0.000000,  0.000000 
 143822912.000000, 0.758525 , 1.069592, 9.590433, 759866240.000000, -0.210000,  0.280000,  0.070000, 0.000000,  0.000000 
 143842432.000000, 0.727418 , 1.071985, 9.614362, 759886976.000000, -0.840000,  0.210000,  0.070000, 0.000000,  0.000000 
 143862080.000000, 0.722632 , 1.074377, 9.600004, 759906496.000000, -0.770000,  0.280000,  0.070000, 0.000000,  0.000000 
 143882048.000000, 0.768096 , 1.095913, 9.590433, 759926144.000000, -0.210000,  0.210000,  0.070000, 0.000000,  0.000000 
 143902080.000000, 0.739382 , 1.115055, 9.623933, 759946176.000000, 0.210000,  0.210000,  0.070000, 0.000000,  0.000000 
 143922624.000000, 0.746561 , 1.103091, 9.600004, 759966144.000000, 0.140000,  0.420000,  0.070000, 0.000000,  0.000000 
 143942336.000000, 0.813560 , 1.060020, 9.616754, 759986752.000000, -0.350000,  0.350000,  0.070000, 0.000000,  0.000000 
 143962048.000000, 0.787239 , 1.045663, 9.592826, 760006464.000000, -0.630000,  0.280000,  0.070000, 0.000000,  0.000000 
 143982016.000000, 0.768096 , 1.095913, 9.609575, 760026112.000000, -0.420000,  0.350000,  0.070000, 0.000000,  0.000000 
 144001984.000000, 0.780060 , 1.122234, 9.585647, 760046080.000000, -0.070000,  0.420000,  0.070000, 0.000000,  0.000000 
 144022592.000000, 0.758525 , 1.143769, 9.556933, 760066112.000000, -0.140000,  0.280000,  0.070000, 0.000000,  0.000000 
 144042304.000000, 0.768096 , 1.124627, 9.595219, 760086656.000000, -0.490000,  0.280000,  -0.070000, 0.000000,  0.000000 
 144061952.000000, 0.717847 , 1.074377, 9.604790, 760106368.000000, -0.630000,  0.070000,  -0.070000, 0.000000,  0.000000 
 144081984.000000, 0.756132 , 1.093520, 9.595219, 760126080.000000, -0.490000,  0.210000,  -0.070000, 0.000000,  0.000000 
 144101952.000000, 0.775275 , 1.081556, 9.559326, 760146048.000000, -0.140000,  0.280000,  0.070000, 0.000000,  0.000000 
 144124480.000000, 0.780060 , 1.074377, 9.611969, 760166016.000000, 0.070000,  0.350000,  0.070000, 0.000000,  0.000000 
 144142272.000000, 0.796810 , 1.110270, 9.609575, 760188608.000000, 0.210000,  0.350000,  0.070000, 0.000000,  0.000000 
 144161920.000000, 0.794417 , 1.095913, 9.549755, 760206336.000000, 0.350000,  0.350000,  0.070000, 0.000000,  0.000000 
 144181888.000000, 0.796810 , 1.103091, 9.585647, 760225984.000000, 0.350000,  0.140000,  0.070000, 0.000000,  0.000000 
 144201920.000000, 0.794417 , 1.112662, 9.561719, 760246016.000000, 0.280000,  0.210000,  0.070000, 0.000000,  0.000000 
 144222464.000000, 0.760918 , 1.062413, 9.597611, 760265984.000000, -0.140000,  0.420000,  0.070000, 0.000000,  0.000000 
 144242496.000000, 0.777667 , 1.110270, 9.614362, 760286592.000000, -0.350000,  0.420000,  0.140000, 0.000000,  0.000000 
 144261824.000000, 0.729811 , 1.110270, 9.604790, 760306624.000000, -0.210000,  0.490000,  0.070000, 0.000000,  0.000000 
 144281856.000000, 0.741775 , 1.146162, 9.635897, 760325952.000000, -0.210000,  0.350000,  0.070000, 0.000000,  0.000000 
 144301824.000000, 0.748954 , 1.057628, 9.609575, 760345920.000000, -0.490000,  0.490000,  0.070000, 0.000000,  0.000000 
 144322432.000000, 0.727418 , 1.057628, 9.623933, 760365952.000000, -0.700000,  0.350000,  0.070000, 0.000000,  0.000000 
 144342144.000000, 0.765703 , 1.107877, 9.604790, 760386496.000000, -0.560000,  0.280000,  0.070000, 0.000000,  0.000000 
 144361792.000000, 0.746561 , 1.167697, 9.576077, 760406208.000000, -0.140000,  0.350000,  0.140000, 0.000000,  0.000000 
 144381760.000000, 0.780060 , 1.117448, 9.607183, 760425920.000000, -0.070000,  0.420000,  0.070000, 0.000000,  0.000000 
 144401792.000000, 0.760918 , 1.100698, 9.611969, 760445888.000000, -0.280000,  0.350000,  0.070000, 0.000000,  0.000000 
 144422336.000000, 0.787239 , 1.105484, 9.604790, 760465856.000000, -0.560000,  0.350000,  0.070000, 0.000000,  0.000000 
 144442048.000000, 0.760918 , 1.095913, 9.600004, 760486464.000000, -0.630000,  0.420000,  0.070000, 0.000000,  0.000000 
 144461760.000000, 0.799203 , 1.127020, 9.602397, 760506176.000000, -0.490000,  0.280000,  0.070000, 0.000000,  0.000000 
 144481728.000000, 0.772882 , 1.143769, 9.597611, 760525824.000000, -0.420000,  0.070000,  0.070000, 0.000000,  0.000000 
 144501696.000000, 0.768096 , 1.081556, 9.635897, 760565824.000000, -0.420000,  0.420000,  0.070000, 761225920.000000,  1010.484741 
 144522304.000000, 0.794417 , 1.098306, 9.580862, 0.000000, 0.000000,  0.000000,  0.000000, 0.000000,  0.000000 
 144542016.000000, 0.765703 , 1.122234, 9.623933, 760586432.000000, -0.280000,  0.280000,  0.070000, 0.000000,  0.000000 
 144561664.000000, 0.792024 , 1.095913, 9.633504, 760606144.000000, -0.210000,  0.210000,  0.070000, 0.000000,  0.000000 
 144581696.000000, 0.729811 , 1.115055, 9.611969, 760625792.000000, -0.210000,  0.280000,  0.070000, 0.000000,  0.000000 
 144601664.000000, 0.753739 , 1.076770, 9.626326, 760645760.000000, -0.350000,  0.490000,  0.070000, 0.000000,  0.000000 
 144622272.000000, 0.780060 , 1.103091, 9.626326, 760665792.000000, -0.350000,  0.350000,  0.140000, 0.000000,  0.000000 
 144641984.000000, 0.784846 , 1.112662, 9.611969, 760686336.000000, -0.070000,  0.350000,  0.070000, 0.000000,  0.000000 
 144661632.000000, 0.770489 , 1.146162, 9.614362, 760706048.000000, 0.140000,  0.280000,  0.070000, 0.000000,  0.000000 
 144681600.000000, 0.794417 , 1.134198, 9.640682, 760725760.000000, 0.140000,  0.280000,  0.070000, 0.000000,  0.000000 
 144701632.000000, 0.760918 , 1.115055, 9.611969, 760745728.000000, -0.210000,  0.210000,  0.070000, 0.000000,  0.000000 
