time,seconds_elapsed,z,y,x
1633781541197629200,0.014629150390625,-9.036338996720314,-3.7345810803562403,0.7535661316405982
1633781541217507000,0.034507080078125,-9.037043345597386,-3.7341546716377136,0.7472115749821067
1633781541237386200,0.05438623046875,-9.038387161421776,-3.7327410054475068,0.7379612238168716
1633781541257265200,0.07426513671875,-9.037524407112597,-3.7368124926701185,0.7278557171270251
1633781541277143300,0.094143310546875,-9.034765463793278,-3.7452795845031734,0.7185251403324305
1633781541297022200,0.114022216796875,-9.030911710974573,-3.7561920236617325,0.7099536382768302
1633781541316901000,0.133901123046875,-9.027814914003015,-3.7647491318657993,0.7039910766106099
1633781541336779000,0.153779052734375,-9.026113955304027,-3.769256672418117,0.7016782696235925
1633781541356658200,0.173658203125,-9.025282765176891,-3.771666656169295,0.699416023780033
1633781541376537000,0.193537109375,-9.024943742480874,-3.7727182110488413,0.6981183121196926
1633781541396416300,0.213416259765625,-9.02532601979673,-3.7720594548791646,0.6967343104153871
1633781541416294100,0.233294189453125,-9.02537921128869,-3.772335933732986,0.6945461527213453
1633781541436173300,0.25317333984375,-9.024434623914956,-3.7749297496184706,0.6927284357748925
1633781541456052000,0.273052001953125,-9.023051645123958,-3.7785570002049207,0.6909658830817789
1633781541475930000,0.29293017578125,-9.02325564326346,-3.778943953695893,0.6861653509322554
1633781541495809000,0.31280908203125,-9.024342269456387,-3.7772739746570583,0.6810529032893479
1633781541515688200,0.332688232421875,-9.024635699445009,-3.7768297380208966,0.6796269621394574
1633781541535566000,0.352566162109375,-9.025055970683693,-3.776185302637517,0.6776240978844463
1633781541555445200,0.3724453125,-9.024892304554582,-3.776787944705784,0.6764473091900348
1633781541575324200,0.39232421875,-9.024249330475925,-3.778862412892282,0.6734329298049211
1633781541595202300,0.412202392578125,-9.02418561758995,-3.7806387749150394,0.6642478258956224
1633781541615081000,0.4320810546875,-9.02386939124763,-3.783700208312273,0.6509827591963112
1633781541634960100,0.451960205078125,-9.022566491955518,-3.789473531016707,0.6352662807568907
1633781541654838000,0.471838134765625,-9.019335839471221,-3.7997064634785054,0.619834245282039
1633781541674717200,0.49171728515625,-9.01528744086325,-3.812262578190863,0.6013580198056996
1633781541694596000,0.51159619140625,-9.01170665976703,-3.8240281270474195,0.5799440238444135
1633781541714475300,0.531475341796875,-9.009028964990376,-3.833163911922276,0.5609281020008027
1633781541734353400,0.551353515625,-9.008430999097227,-3.8366327570766208,0.5466325232099741
1633781541754232300,0.571232421875,-9.01072057133913,-3.8323327217951415,0.5390065583761782
1633781541774111200,0.591111328125,-9.014851387533545,-3.8224931725651023,0.5397971242319792
1633781541793989400,0.6109892578125,-9.018934857454896,-3.812652162030339,0.5411869346225634
1633781541813868300,0.630868408203125,-9.020878977259994,-3.8080145653575657,0.5414366350673139
1633781541833747500,0.65074755859375,-9.019085079580545,-3.812721135613322,0.5381851955233141
1633781541853625300,0.670625244140625,-9.01295929017663,-3.827784849232435,0.5338668574001639
1633781541873504500,0.69050439453125,-9.004830928778647,-3.847061212110519,0.5324655027022585
1633781541893383200,0.710383056640625,-8.998332798931003,-3.8620474765792485,0.5338337953807786
1633781541913261300,0.73026123046875,-8.994595950490236,-3.8708138436198234,0.533314447681792
1633781541933140200,0.75014013671875,-8.99331935468316,-3.8737007972329853,0.53388486798089
1633781541953019400,0.770019287109375,-8.9934871124655,-3.872600727036595,0.5390145955521614
1633781541972897300,0.789897216796875,-8.995062983480095,-3.8687884752720594,0.5400953399935737
1633781541992776400,0.8097763671875,-8.998164456626773,-3.8620889776334164,0.5363706569146365
1633781542012655400,0.8296552734375,-9.001348931881784,-3.855038474600017,0.5336425471249967
1633781542032534300,0.8495341796875,-9.004095015719532,-3.8490474174916742,0.5305641260603442
1633781542052412200,0.869412109375,-9.006735885617136,-3.843428700827062,0.5264543891865759
1633781542072291300,0.889291259765625,-9.008968759235739,-3.8386575409024952,0.523047247624211
1633781542092170200,0.909170166015625,-9.009911593043803,-3.8365246205270287,0.5224520582100376
1633781542112048400,0.92904833984375,-9.010482086408137,-3.8342794719487427,0.5290506527574732
1633781542131927300,0.94892724609375,-9.012163755884766,-3.82855875621438,0.5416904636979103
1633781542151806500,0.968806396484375,-9.01487710649669,-3.8190997307345267,0.5628968447905034
1633781542171684400,0.988684326171875,-9.018377808094025,-3.8069703170016407,0.5884060011109337
1633781542191563300,1.008563232421875,-9.021453562277555,-3.795423963853717,0.6152376382067799
1633781542211442200,1.028442138671875,-9.022031069904566,-3.7885049782454967,0.6485162229523063
1633781542231320300,1.0483203125,-9.018425154367089,-3.7910616769909855,0.6828165519610047
1633781542251199200,1.06819921875,-9.012243835383654,-3.8008342984646557,0.7095791789412498
1633781542271078400,1.088078369140625,-9.006641777592897,-3.811747614406049,0.7220623014826327
1633781542290957600,1.10795751953125,-9.003114187988638,-3.819403682117164,0.7255862378250807
1633781542310835500,1.12783544921875,-9.000490269225836,-3.8249689150288697,0.7288135293085127
1633781542330714000,1.147714111328125,-8.9998858735919,-3.8267429389640686,0.726963955919072
1633781542350593300,1.16759326171875,-9.003301819515228,-3.8210327446237202,0.7145997835822403
1633781542370471200,1.18747119140625,-9.008890433302522,-3.8113539389133453,0.6955977806661278
1633781542390350300,1.207350341796875,-9.015068245154618,-3.7996184929341075,0.6795772047135978
1633781542410229500,1.2272294921875,-9.020544046217202,-3.787899998089671,0.6722958885990082
1633781542430107400,1.247107421875,-9.024441053655742,-3.7792400140330193,0.6687244598530232
1633781542449986300,1.266986328125,-9.02631035465896,-3.7755920129194855,0.6640849634841084
1633781542469865200,1.286865234375,-9.02571706494093,-3.7785830114290118,0.6550787963382899
1633781542489743400,1.306743408203125,-9.02381152358055,-3.7855169023454187,0.6411459133800119
1633781542509622300,1.326622314453125,-9.022539603948593,-3.791088857258856,0.6259435219425707
1633781542529501400,1.34650146484375,-9.022597471615672,-3.791700267155468,0.6213917769223452
1633781542549380400,1.36638037109375,-9.025745706513524,-3.7839036219298836,0.6231924696687609
1633781542569258500,1.386258544921875,-9.031841685301066,-3.769156426914036,0.6242435130916536
1633781542589137400,1.406137451171875,-9.038872899112105,-3.752483232271671,0.6229244663823396
1633781542609016300,1.426016357421875,-9.045114423850178,-3.7373306713253256,0.6234156839653849
1633781542628894200,1.445894287109375,-9.050803575402497,-3.7236142806619403,0.6229227128166706
1633781542648773400,1.4657734375,-9.05531374630332,-3.712756786561012,0.6221883341275155
1633781542668652300,1.48565234375,-9.057375939530134,-3.708534492690861,0.6173333683770149
1633781542688530400,1.505530517578125,-9.055974840560555,-3.713323480533063,0.6090391488928347
1633781542708409300,1.525409423828125,-9.051709584331512,-3.724987614841759,0.6011704978769645
1633781542728288500,1.54528857421875,-9.046056673136352,-3.7403710619345305,0.590649469188787
1633781542748167200,1.565167236328125,-9.041042059844731,-3.753927293600142,0.5813576900346205
1633781542768045300,1.58504541015625,-9.037042761075496,-3.763593532089889,0.5810400389201938
1633781542787924200,1.60492431640625,-9.033893357133865,-3.770158005172014,0.5874203510744497
1633781542807803400,1.624803466796875,-9.032761138233543,-3.7718180473387237,0.5941406723054126
1633781542827681300,1.644681396484375,-9.033927843925357,-3.7687694734230637,0.5957450022295117
1633781542847560400,1.664560546875,-9.034974138107895,-3.767142164482176,0.5901419215254485
1633781542867439400,1.684439453125,-9.037096537089347,-3.7631469573661684,0.58309525441695
1633781542887317500,1.7043173828125,-9.042981503474712,-3.749367438338697,0.580612095831707
1633781542907196200,1.724196044921875,-9.050690762677789,-3.7299309164628385,0.585660574860312
1633781542927075300,1.744075439453125,-9.05542480546236,-3.716617845903337,0.5970060351412743
1633781542946954200,1.763954345703125,-9.05514423495531,-3.7159544135585425,0.6053362392542884
1633781542966832400,1.783832275390625,-9.049264529266953,-3.7296477156072854,0.6090300522709265
1633781542986711300,1.803711181640625,-9.040379212021827,-3.7514214482590553,0.6072597181301563
1633781543006590500,1.823590576171875,-9.031749915364385,-3.7720772827968,0.6077100557135418
1633781543026468400,1.84346826171875,-9.027281245517731,-3.7821915573149916,0.6112299004027619
1633781543046347300,1.86334716796875,-9.028761839464305,-3.7777453915610906,0.6168370362274348
1633781543066226200,1.88322607421875,-9.031696723872424,-3.7704181174129245,0.6186972771413624
1633781543086104300,1.903104248046875,-9.03028510350883,-3.7732621086671947,0.6219581055682152
1633781543105983200,1.922983154296875,-9.025984775966405,-3.7829824154317375,0.6253196178905666
1633781543125862400,1.9428623046875,-9.022109980359673,-3.7927047680228947,0.6223386293184012
1633781543145741300,1.9627412109375,-9.020238925790785,-3.7980627879247066,0.6167565183371305
1633781543165619500,1.982619384765625,-9.020423634707926,-3.798621298590302,0.6105916390318423
1633781543185498000,2.002498046875,-9.022230391868948,-3.7952120746687052,0.6050670669240876
1633781543205377300,2.022377197265625,-9.024560296121239,-3.789070503173768,0.6087985816026106
1633781543225255200,2.042255126953125,-9.025530602458119,-3.78312737686038,0.6309717984333634
1633781543245134300,2.06213427734375,-9.02276815200746,-3.7825598061054944,0.6725193951565772
1633781543265013200,2.08201318359375,-9.01452756240666,-3.793872350497544,0.7177772445745766
1633781543284891400,2.101891357421875,-8.999049422767758,-3.8243390926927328,0.7496159327100962
1633781543304770300,2.121770263671875,-8.976371727013587,-3.8743648140996694,0.7644800321038812
1633781543324649200,2.141649169921875,-8.951773292329907,-3.9296412956416606,0.7707499061536044
1633781543344528400,2.1615283203125,-8.930406679174304,-3.9763299815803763,0.7791163871563971
1633781543364406300,2.18140625,-8.914065200704336,-4.009198816481232,0.7975893977623433
1633781543384285400,2.201285400390625,-8.903121781885623,-4.028777961698174,0.820828307595849
1633781543404164400,2.221164306640625,-8.896666906657815,-4.038692329730093,0.8418196576982736
1633781543424042200,2.241042236328125,-8.892170179760456,-4.044778663906455,0.8599210585128515
1633781543443921400,2.26092138671875,-8.889201977604626,-4.048219452010095,0.874294890171662
1633781543463800300,2.28080029296875,-8.889071629223228,-4.047131364512444,0.8806352721743285
1633781543483678500,2.300678466796875,-8.892135108447075,-4.04023692882359,0.8813684818197042
1633781543503557400,2.320557373046875,-8.897805555298923,-4.028385747510194,0.8783770449187606
1633781543523436300,2.340436279296875,-8.904632770970464,-4.014715534076094,0.8717592342142015
1633781543543315500,2.3603154296875,-8.910613598945737,-4.002416608995199,0.8671862272102385
1633781543563193300,2.380193359375,-8.914757274621724,-3.9937621778964996,0.8644928964730352
1633781543583072500,2.400072509765625,-8.91769332807362,-3.9877623529598116,0.8619064601764083
1633781543602951200,2.419951171875,-8.920276914826035,-3.98215094281882,0.8611131178416311
1633781543622829300,2.439829345703125,-8.92138867546022,-3.9789562384307384,0.8643555338289588
1633781543642708200,2.459708251953125,-8.92041720007956,-3.9801863647475835,0.8687112448204308
1633781543662587400,2.47958740234375,-8.918146917060017,-3.9853932857409116,0.8681479118492453
1633781543682466300,2.49946630859375,-8.914556199091672,-3.9940269663125276,0.8653445448663085
1633781543702344400,2.519344482421875,-8.90952697275281,-4.00482133204937,0.8672481134653091
1633781543722223400,2.539223388671875,-8.905436488568782,-4.013040878862142,0.8712566915195434
1633781543742106000,2.559106201171875,-8.904235880607366,-4.015682333281636,0.8713574484802782
1633781543761984000,2.57898388671875,-8.905833378931879,-4.013121835143864,0.8668141790274531
1633781543781863000,2.59886279296875,-8.908328118357062,-4.008938996501267,0.8605149327527731
1633781543801742000,2.6187421875,-8.91185570796132,-4.002707993157208,0.8529600603938102
1633781543821621200,2.638621337890625,-8.9149343847543,-3.9979453088000416,0.843068123389408
1633781543841499100,2.6584990234375,-8.915330690595507,-3.9995866462662812,0.8310069525871425
1633781543861378300,2.67837841796875,-8.913477171683311,-4.006291989123821,0.8184968689735979
1633781543881257000,2.698257080078125,-8.913401183837651,-4.009071682970226,0.8056085996974259
1633781543901134800,2.718134765625,-8.91838306390345,-3.999960155753791,0.7957059951685369
1633781543921014000,2.738013916015625,-8.92711114476025,-3.9813355347827075,0.7912246119707822
1633781543940893200,2.75789306640625,-8.937221035364269,-3.9587478553995488,0.790429150744155
1633781543960772000,2.777772216796875,-8.945643995794653,-3.9396339896067976,0.7906496616270393
1633781543980650200,2.797650146484375,-8.950203266534208,-3.930068581143021,0.7866423256818205
1633781544000529200,2.817529052734375,-8.95064633412659,-3.929733065578341,0.7832694882478565
1633781544020408000,2.837407958984375,-8.949449233296512,-3.9328301548108455,0.7814017946798354
1633781544040286000,2.857285888671875,-8.949871842622757,-3.9325089600324628,0.778168146520853
1633781544060165000,2.8771650390625,-8.953336888384818,-3.9257659155130384,0.7723369561493396
1633781544080044000,2.8970439453125,-8.959143528836965,-3.913735285979509,0.7660361755046993
1633781544099923200,2.916923095703125,-8.965619446852802,-3.899762874728441,0.7615099302519113
1633781544119801000,2.936801025390625,-8.970570931780339,-3.8886952450081704,0.7597952352885157
1633781544139680300,2.95668017578125,-8.972635463094711,-3.8839670474424954,0.7596057040657848
1633781544159559000,2.976558837890625,-8.971837006193399,-3.885847746622562,0.759416903495416
1633781544179437000,2.99643701171875,-8.969651478847862,-3.8907217823997136,0.7602744701728225
1633781544199316000,3.01631591796875,-8.968062748351693,-3.8938440060734747,0.7630319521874189
1633781544219195100,3.036195068359375,-8.968438595926761,-3.8926039428845045,0.7649348631992936
1633781544239073000,3.056072998046875,-8.97011851183772,-3.889109671027958,0.7630112747255712
1633781544258952200,3.0759521484375,-8.971877338203788,-3.8846760724946856,0.7649129436284303
1633781544278831000,3.0958310546875,-8.97344151878059,-3.8789877977252005,0.7753615646675228
1633781544298710000,3.1157099609375,-8.97584331922531,-3.870982478184998,0.7874703740037977
1633781544318588000,3.135587890625,-8.978689940828085,-3.8623929290160532,0.7971399734944105
1633781544338467000,3.155467041015625,-8.980461626675725,-3.8564842894941567,0.8057434050582348
1633781544358346000,3.175345947265625,-8.981723024913668,-3.852272224757075,0.8118064314242452
1633781544378224000,3.19522412109375,-8.98177329379618,-3.851563784226775,0.8146087024286389
1633781544398103000,3.21510302734375,-8.980472732591629,-3.853300398761034,0.8207129375878721
1633781544417982200,3.234982177734375,-8.97934869699776,-3.8545740719586608,0.8270064117088913
1633781544437860900,3.25486083984375,-8.978793401202559,-3.855327812935412,0.8295213171392679
1633781544457739000,3.274739013671875,-8.978358516916632,-3.856215117163956,0.8301008705928922
1633781544477618000,3.294617919921875,-8.977441986593604,-3.8580715586856007,0.8313867456849664
1633781544497497000,3.3144970703125,-8.975666793614625,-3.8621336935579773,0.8316958846993744
1633781544517376300,3.334376220703125,-8.972809650617837,-3.8687238856032486,0.8318923571195453
1633781544537254100,3.354254150390625,-8.968390080609916,-3.878976984070241,0.831807674510777
1633781544557133300,3.37413330078125,-8.96394712972641,-3.892060922048986,0.8184711500104517
1633781544577012000,3.394011962890625,-8.961661064615845,-3.90110727507472,0.800233336399868
1633781544596889900,3.413889892578125,-8.96181830100417,-3.9022909319013355,0.7926689655601978
1633781544616769000,3.43376904296875,-8.963398848193883,-3.898239610683918,0.7947319625046104
1633781544636648200,3.453648193359375,-8.964882364749908,-3.894083952309191,0.7983576056558639
1633781544656527000,3.473527099609375,-8.966229103183746,-3.8913711862191556,0.7964634624723345
1633781544676405200,3.4934052734375,-8.968184328904748,-3.887840089483559,0.791677178043872
1633781544696284200,3.5132841796875,-8.970392652603984,-3.883003463107347,0.7903957599312067
1633781544716163000,3.5331630859375,-8.972294686833024,-3.878313843986392,0.7918276193652302
1633781544736038100,3.5530380859375,-8.973090221124886,-3.8759570517271755,0.7943548728205263
1633781544755917300,3.572917236328125,-8.973256809863448,-3.8753701917499304,0.7953337277900427
1633781544775796200,3.592796142578125,-8.973810936614871,-3.87447528873682,0.7934353468228131
1633781544795675400,3.61267529296875,-8.97469064205885,-3.873272342687845,0.7893518769014626
1633781544815553300,3.63255322265625,-8.975208528453111,-3.872735167071223,0.7860928751055151
1633781544835432200,3.65243212890625,-8.97603211979568,-3.871184722758829,0.7843212623231113
1633781544855311000,3.67231103515625,-8.977568827843665,-3.868343361853063,0.7807465456414967
1633781544875189200,3.692189208984375,-8.978899199664593,-3.8662195015668868,0.7759500320799648
1633781544895068200,3.712068115234375,-8.979952508109807,-3.8648657488703724,0.7704873827598988
1633781544914947300,3.731947265625,-8.981751666486263,-3.861506501570344,0.7663498445637523
1633781544934826200,3.751826171875,-8.985898849293589,-3.853052269218862,0.7602623413436115
1633781544954704400,3.771704345703125,-8.990172873350977,-3.844293208701908,0.7540426631111651
1633781544974583000,3.7915830078125,-8.99319017534554,-3.8380245036959644,0.7499933877203613
1633781544994462200,3.811462158203125,-8.994788258191942,-3.8347257544115183,0.7476970204114913
1633781545014341000,3.831341064453125,-8.996400369563698,-3.831089151474833,0.7469424757171422
1633781545034219300,3.85121923828125,-8.998528613764048,-3.8257805236727,0.7485134513609111
1633781545054098200,3.87109814453125,-9.000802403914928,-3.8195878065124154,0.7527886444620787
1633781545073977300,3.890977294921875,-9.002488165044785,-3.8151448556289074,0.7551563965067267
1633781545093855200,3.910855224609375,-9.00316445687115,-3.8137382037013765,0.7541993880428374
1633781545113734100,3.930734130859375,-9.003550825840234,-3.8140366021260617,0.7480532134380191
1633781545133613000,3.950613037109375,-9.005036680483817,-3.8117669036284085,0.7417054518464953
1633781545153492200,3.9704921875,-9.00743614284098,-3.80496686822474,0.747466791852191
1633781545173370000,3.9903701171875,-9.010074674651026,-3.795341838528216,0.7644080628462135
1633781545193249300,4.010249267578125,-9.012465369179845,-3.7864962687715886,0.7799342063453047
1633781545213128200,4.030128173828125,-9.013802755263447,-3.781823893046379,0.7871195878047496
1633781545233007000,4.050007080078125,-9.012440819260478,-3.7848452866941686,0.7881852442748845
1633781545252885000,4.069885009765625,-9.008419308659434,-3.794098560468852,0.7896706605270505
1633781545272764200,4.08976416015625,-9.0038588688761,-3.8038545230686664,0.7947348120488226
1633781545292643300,4.109643310546875,-9.000320757877827,-3.811402746491134,0.7986390529457479
1633781545312521200,4.129521240234375,-8.99731163918972,-3.818459971526265,0.7988327488869428
1633781545332400400,4.149400390625,-8.993943039539456,-3.826754044879973,0.7970729726728052
1633781545352279300,4.169279296875,-8.990949118420481,-3.8344761635646223,0.793734037508443
1633781545372158200,4.189158203125,-8.98880509212911,-3.8407173960417507,0.7878157533753662
1633781545392036000,4.2090361328125,-8.986746990555524,-3.846434604644775,0.7833904112137854
1633781545411915300,4.228915283203125,-8.985795973441004,-3.8493548760056493,0.7799476503487676
1633781545431794200,4.248794189453125,-8.987863427364825,-3.8456250418275593,0.7745089664261787
1633781545451673300,4.26867333984375,-8.99208893610537,-3.8372459205389022,0.7669852929230779
1633781545471551200,4.28855126953125,-8.996811872974037,-3.8277754968822,0.7588818467706442
1633781545491430400,4.308430419921875,-9.001012831795215,-3.8186943648040295,0.7548027607634663
1633781545511309000,4.32830908203125,-9.00527165828347,-3.8088229591310023,0.753882504113391
1633781545531187200,4.348187255859375,-9.010145401799678,-3.798062495663762,0.7499222221802919
1633781545551066000,4.368066162109375,-9.015227819630503,-3.785984227596223,0.7499144772652536
1633781545570945300,4.3879453125,-9.022362493816017,-3.766582777033746,0.7617150974351913
1633781545590824200,4.40782421875,-9.03358706766367,-3.735656892894208,0.7807413580097258
1633781545610702300,4.427702392578125,-9.044563804230094,-3.704804073990881,0.8004206756655127
1633781545630581200,4.447581298828125,-9.046755761316419,-3.6934962057739495,0.8274541554763912
1633781545650460200,4.467460205078125,-9.039727470114826,-3.7053161151662466,0.8510849141716956
1633781545670339000,4.487339111328125,-9.023317018061876,-3.7448122592523694,0.8523604870654642
1633781545690217200,4.50721728515625,-9.001589170378447,-3.79982862855345,0.8384951894506811
1633781545710096100,4.52709619140625,-8.976618979772924,-3.8596900997981427,0.8327597876038402
1633781545729975300,4.546975341796875,-8.95029269838333,-3.919545141302049,0.836544274578616
1633781545749854200,4.566854248046875,-8.927846473297476,-3.970387147527933,0.8366385287333279
1633781545769732400,4.586732421875,-8.915632888412475,-3.9979184207931158,0.8357750437717885
1633781545789611300,4.606611328125,-8.916344836074114,-3.994731022928655,0.8433895373634993
1633781545809490400,4.626490478515625,-8.928538547214865,-3.9649101774215696,0.8550302907966076
1633781545829368300,4.646368408203125,-8.94858004924655,-3.9182790668889877,0.8604575765423477
1633781545849247200,4.666247314453125,-8.970169365242123,-3.8702442270383237,0.8530276457373053
1633781545869126400,4.68612646484375,-8.987878040412069,-3.8329815410926935,0.8346797958809882
1633781545889005300,4.70600537109375,-8.996837007415294,-3.8155747714787718,0.8177394747350365
1633781545908883500,4.725883544921875,-8.99482975924611,-3.8234441896796225,0.8029299550727009
1633781545928762400,4.745762451171875,-8.984411825606227,-3.850849790738523,0.7884686643261462
1633781545948641300,4.765641357421875,-8.9710321195513,-3.887397898674011,0.7609926283795386
1633781545968520400,4.7855205078125,-8.95946793848574,-3.9226530441895124,0.7149168136421591
1633781545988398300,4.8053984375,-8.954008504036068,-3.944791226239502,0.6593459522634745
1633781546008277500,4.825277587890625,-8.958159193974733,-3.946074251787364,0.5918357198312878
1633781546028156200,4.84515625,-8.972563566902279,-3.924103242997825,0.5146880731450394
1633781546048035300,4.865035400390625,-8.9941955529958,-3.883346869717538,0.4409678801568225
1633781546067913200,4.884913330078125,-9.0188156149894,-3.83261563038975,0.37736897594947366
1633781546087792400,4.90479248046875,-9.04317205761075,-3.77909826747477,0.3314137919170782
1633781546107671300,4.92467138671875,-9.063526863375305,-3.7321576526015994,0.3063672298734076
1633781546127550500,4.944550537109375,-9.075881902557612,-3.70214829878509,0.3047161199318245
1633781546147428400,4.964428466796875,-9.078507574886084,-3.6939892499879,0.3248448618555441
1633781546167307300,4.984307373046875,-9.072465372112394,-3.7059544130697843,0.3558905364498496
1633781546187186200,5.004186279296875,-9.060743370136619,-3.7310029296085236,0.39106450648792085
1633781546207065300,5.0240654296875,-9.049638038754463,-3.75417279279381,0.42500235885977744
1633781546226943200,5.043943115234375,-9.043704557052255,-3.764443134656548,0.45908798567187037
1633781546246822400,5.063822509765625,-9.042420362460613,-3.7622438710466026,0.5005404879901558
1633781546266701300,5.083701416015625,-9.043169135001301,-3.754671097704768,0.5421432854993269
1633781546286579500,5.103579345703125,-9.041234367546439,-3.755582659591734,0.5675108779245988
1633781546306458000,5.1234580078125,-9.03306158248484,-3.774004159206152,0.5753919500306248
1633781546326337300,5.143337158203125,-9.017503363347053,-3.809537537141144,0.5851870390644297
1633781546346216400,5.163216552734375,-8.997764643654227,-3.8530414555639028,0.6038923605889082
1633781546366094300,5.18309423828125,-8.979734481444954,-3.891835881121456,0.6231930541906505
1633781546385973200,5.20297314453125,-8.967541939347981,-3.917852365909517,0.6356141443464904
1633781546405852400,5.222852294921875,-8.962233896067739,-3.9293616019174453,0.6394231081753969
1633781546425731300,5.2427314453125,-8.96258694728911,-3.92684435839951,0.6498561663191765
1633781546445609200,5.262609130859375,-8.968780541232228,-3.908224413603544,0.6761205614537
1633781546465488400,5.28248828125,-8.981541823127865,-3.872107975083589,0.7134886805351823
1633781546485367300,5.3023671875,-8.99516819742024,-3.830575064472854,0.7642197737324983
1633781546505246500,5.32224658203125,-9.000378625544904,-3.803230253690481,0.8360681084342301
1633781546525124400,5.342124267578125,-8.99537102651596,-3.798935186845064,0.9065168054711074
1633781546545003500,5.36200341796875,-8.982724310910701,-3.8177161674216387,0.9518880521357059
1633781546564882200,5.381882080078125,-8.964737987843156,-3.854936183269322,0.9712466134045272
1633781546584761300,5.40176123046875,-8.944318884670734,-3.9000212334036823,0.9794771200027316
1633781546604639200,5.42163916015625,-8.926525453826784,-3.9384827737450596,0.9878648629892617
1633781546624518400,5.441518310546875,-8.916086477398872,-3.9591193190604446,0.9995812389418482
1633781546644397300,5.461397216796875,-8.916823559501767,-3.9555589962303634,1.007074663437158
1633781546664276500,5.4812763671875,-8.92843567136228,-3.9315249174311755,0.9982678913209587
1633781546684154400,5.501154296875,-8.948294802564382,-3.894697408032417,0.9642297203797846
1633781546704033300,5.521033203125,-8.970179302114248,-3.855375451469421,0.9177921596579253
1633781546723912200,5.540912109375,-8.989361556968092,-3.8198449961438774,0.8778071360763162
1633781546743790600,5.56079052734375,-9.005768501889705,-3.788222361911833,0.8461049338020383
1633781546763668500,5.58066845703125,-9.019494829425215,-3.7606907963857052,0.8223772906035184
1633781546783547600,5.600547607421875,-9.031984308642148,-3.733013392648101,0.8113252237785608
1633781546803426600,5.620426513671875,-9.051832918450236,-3.6869755718335506,0.8005701671388
1633781546823305700,5.6403056640625,-9.083629155683518,-3.6134830501213666,0.7751186227571218
1633781546843183600,5.66018359375,-9.126139094632864,-3.5156513291835783,0.7239894701529294
1633781546863062500,5.6800625,-9.17381445352137,-3.403358536694944,0.6547234070293605
1633781546882941400,5.69994140625,-9.219276812535524,-3.2930136634036895,0.5756525737281888
1633781546902820600,5.719820556640625,-9.256139100986719,-3.2028993849754333,0.4854988766049966
1633781546922698500,5.739698486328125,-9.277476488047837,-3.153920542272925,0.3893562412653118
1633781546942577700,5.75957763671875,-9.279451002991198,-3.1581504349276424,0.29707798973619937
1633781546962456600,5.77945654296875,-9.261305689969658,-3.217026986788213,0.22211455522123724
1633781546982335500,5.79933544921875,-9.226340175050497,-3.319248174856603,0.16620940212057903
1633781547002213400,5.81921337890625,-9.183395351815223,-3.4382658916860818,0.11814979315483942
1633781547022092500,5.839092529296875,-9.146471688565612,-3.5365929949253796,0.0703369574578246
1633781547041971700,5.8589716796875,-9.127498108026385,-3.585960544684529,0.0067233831210178315
1633781547061850600,5.8788505859375,-9.131428433212637,-3.575235444791615,-0.07133327958537265
1633781547081728800,5.898728759765625,-9.156676856237649,-3.508128532463312,-0.13669828014979138
1633781547101607700,5.918607666015625,-9.197653594270347,-3.3976892588868735,-0.1710583765217103
1633781547121486600,5.938486572265625,-9.245670313942432,-3.26418942771852,-0.1817512546454556
1633781547141365500,5.958365478515625,-9.291203400105237,-3.132262252694368,-0.18126266741091385
1633781547161243600,5.97824365234375,-9.32764015662074,-3.02207403126955,-0.18049562856117263
1633781547181122600,5.99812255859375,-9.353075042128562,-2.9422002840876575,-0.18393429777296258
1633781547201001700,6.018001708984375,-9.369097371646761,-2.891091151358187,-0.1788668400492519
1633781547220880400,6.03788037109375,-9.378129403886199,-2.8641645659878847,-0.13280900849313473
1633781547240758800,6.0577587890625,-9.38224794512093,-2.853625344055891,-0.025136934607708824
1633781547260637400,6.077637451171875,-9.384153486481308,-2.844732135765254,0.12469060223358683
1633781547280516600,6.0975166015625,-9.387876306396722,-2.8223551765233275,0.269209721335303
1633781547300395500,6.1173955078125,-9.394810489574073,-2.7865234001636505,0.37842758162431417
1633781547320274700,6.137274658203125,-9.400982456207275,-2.7508742868945,0.47392636610250916
1633781547340152600,6.157152587890625,-9.40099180855751,-2.7280574749305844,0.5911316266825423
1633781547360031500,6.177031494140625,-9.393152785494923,-2.724654096227884,0.7178586392477154
1633781547379910400,6.196910400390625,-9.382814931353925,-2.738354704800248,0.7966066703353076
1633781547399789600,6.21678955078125,-9.368722693115473,-2.788195132768154,0.7895496644958854
1633781547419667500,6.23666748046875,-9.342151497054099,-2.893069465693831,0.7243889908645301
1633781547439546600,6.256546630859375,-9.292519158878921,-3.0610891138404606,0.6702285808056593
1633781547459425800,6.27642578125,-9.21547800477445,-3.2880095715060826,0.659042220076546
1633781547479304400,6.296304443359375,-9.116187024939059,-3.549770748667419,0.6816488233558833
1633781547499182600,6.3161826171875,-9.013227585723996,-3.800792505149543,0.6971985669262707
1633781547519061500,6.3360615234375,-8.933039950287341,-3.990480379746854,0.6687628921672701
1633781547538940700,6.355940673828125,-8.895706537193059,-4.083791116128862,0.5995308409111574
1633781547558819600,6.375819580078125,-8.907820168834924,-4.069184498627483,0.5127031464055181
1633781547578697700,6.39569775390625,-8.957693330028652,-3.967264923854172,0.4369492921652272
1633781547598576600,6.41557666015625,-9.02157397378683,-3.8262399578779935,0.37613062979355455
1633781547618455600,6.43545556640625,-9.07442819661796,-3.7046111817672847,0.31778884239681066
1633781547638334500,6.45533447265625,-9.099593033012747,-3.646795537136495,0.2620658043974079
1633781547658212600,6.475212646484375,-9.092178957363963,-3.6686283064991234,0.2093773483209312
1633781547678091500,6.495091552734375,-9.053743135985732,-3.7645460105091333,0.16826953125447033
1633781547697970700,6.514970703125,-8.989183277791739,-3.9175723799243567,0.13264233755618332
1633781547717849600,6.534849609375,-8.90622559311986,-4.103533927474916,0.10267906050425954
1633781547737728800,6.554728759765625,-8.816504990184306,-4.29320631224215,0.08942804972976445
1633781547757606700,6.574606689453125,-8.736383990243077,-4.454027573317289,0.08728037017658352
1633781547777485800,6.59448583984375,-8.685254106986521,-4.553137351366877,0.07539976640588138
1633781547797365000,6.614364990234375,-8.67429256798923,-4.574494319911301,0.03225261183180846
1633781547817244000,6.634243896484375,-8.69448896832168,-4.535898047274351,-0.04331715454584919
1633781547837121800,6.654121826171875,-8.726315600693225,-4.472164995293319,-0.14676398455221204
1633781547857000700,6.674000732421875,-8.752162574133276,-4.4156282845571635,-0.26882863132953644
1633781547876880000,6.6938798828125,-8.762772815474868,-4.385406749294698,-0.3903942060109228
1633781547896758800,6.7137587890625,-8.757683967903256,-4.3863472450152035,-0.4830261663485318
1633781547916637000,6.733636962890625,-8.740265800112486,-4.414424169464409,-0.5394429039668291
1633781547936515800,6.753515869140625,-8.71515590877533,-4.462068840953707,-0.5535207848863676
1633781547956395000,6.77339501953125,-8.68712048538029,-4.520388635714352,-0.5200056149059906
1633781547976273700,6.793273681640625,-8.663891585484146,-4.572095149815082,-0.45090047796517607
1633781547996151800,6.81315185546875,-8.658165609052777,-4.591893783001601,-0.3479393582496792
1633781548016030700,6.83303076171875,-8.677214008393884,-4.564469769503176,-0.20483725720588117
1633781548035910000,6.852909912109375,-8.718335707855225,-4.489949366047978,-0.036832135341526004
1633781548055788800,6.872788818359375,-8.775445250043273,-4.376323571389913,0.09867685739188455
1633781548075668000,6.89266796875,-8.838905038040876,-4.246181526216865,0.11870576480347662
1633781548095545900,6.9125458984375,-8.895503123575448,-4.127910243840516,-0.027681381226400844
1633781548115424800,6.9324248046875,-8.930278668880462,-4.04150534132421,-0.2945157380327582
1633781548135303700,6.9523037109375,-8.936866815099119,-3.996177714605629,-0.5773732965735718
1633781548155182800,6.972182861328125,-8.923724424931406,-3.9905604592457413,-0.7829136605475098
1633781548175060700,6.992060791015625,-8.904858396419883,-4.013319403542578,-0.8758686422944069
1633781548194940000,7.01193994140625,-8.889081566095351,-4.053032989771664,-0.8529582337629049
1633781548214818800,7.03181884765625,-8.870815841564536,-4.114891187791526,-0.7393737209632992
1633781548234697700,7.05169775390625,-8.84126358386576,-4.1993931792959565,-0.6062494085764512
1633781548254575600,7.07157568359375,-8.80006823464632,-4.297933340764046,-0.50690289916154
1633781548274454800,7.091454833984375,-8.754975293466448,-4.393678903077543,-0.46515784363746643
1633781548294334000,7.111333984375,-8.71996477036178,-4.462540550118685,-0.4672594555592164
1633781548314212900,7.131212890625,-8.71196792638898,-4.473985780979692,-0.5054183231595903
1633781548334091800,7.151091796875,-8.74003432944417,-4.410323163886368,-0.5755326006103306
1633781548353970000,7.170969970703125,-8.802560635983943,-4.270358812879025,-0.6703340870067477
1633781548373848800,7.190848876953125,-8.888761832621693,-4.064021124514937,-0.8025154559876769
1633781548393727700,7.210727783203125,-8.98390270704031,-3.811788823199272,-0.9644405135862528
1633781548413607000,7.23060693359375,-9.07401961581707,-3.544884437930584,-1.1253225649379193
1633781548433484800,7.25048486328125,-9.160731684586406,-3.2721807187333702,-1.2426615349002181
1633781548453364000,7.270364013671875,-9.250312586790322,-3.0140967687800524,-1.231796149753779
1633781548473243000,7.290242919921875,-9.335162953341007,-2.8178371145769954,-1.0415881968051195
1633781548493121800,7.310121826171875,-9.402045701524615,-2.7165479466617106,-0.6263249224755912
1633781548512999700,7.329999755859375,-9.419368592247366,-2.7282375076726075,-0.051024847412924276
1633781548532878800,7.34987890625,-9.38394773477614,-2.807943789333105,0.4768255581427365
1633781548552757800,7.3697578125,-9.320733445972204,-2.9510566674992442,0.765230631275475
1633781548572637000,7.389636962890625,-9.260901200821996,-3.1553523286417127,0.6707063543852418
1633781548592515800,7.409515869140625,-9.210262315952777,-3.3590570381537077,0.2412285488781519
1633781548612394000,7.42939404296875,-9.210419552341103,-3.3630992992818354,-0.16770212489636613
1633781548632272600,7.449272705078125,-9.255391497489809,-3.2342794426232575,-0.2180527308761142
1633781548652151800,7.46915185546875,-9.329411257946491,-3.020912001752853,0.08100985680604353
1633781548672031000,7.489031005859375,-9.382223979723452,-2.8024033986017107,0.5392482947101817
1633781548691908900,7.508908935546875,-9.39541430068612,-2.643768541654944,0.9524004586372524
1633781548711788000,7.5287880859375,-9.382188323888181,-2.614523742470145,1.1441975074082613
1633781548731666400,7.54866650390625,-9.357808500391243,-2.759721610216796,0.9928468891855329
1633781548751545000,7.568545166015625,-9.316063116073607,-3.0108237384587526,0.5624038371091709
1633781548771424300,7.58842431640625,-9.250722336634993,-3.2526796071887016,0.12080215256083755
1633781548791302100,7.60830224609375,-9.171386349591613,-3.4669010345399376,-0.19145148673634976
1633781548811181300,7.628181396484375,-9.112646575853228,-3.610181670488417,-0.3108866252603009
1633781548831060200,7.648060302734375,-9.096424339848756,-3.651948097594082,-0.2978613951988518
1633781548850939400,7.667939453125,-9.118537971979379,-3.5972339261099693,-0.2873281828825362
1633781548870817300,7.6878173828125,-9.168222332602738,-3.4729292087882757,-0.22988845889205112
1633781548890696200,7.7076962890625,-9.233714503210782,-3.3021149614870544,-0.07029143781566527
1633781548910575000,7.7275751953125,-9.299296105667949,-3.110852384918928,0.12678351025907322
1633781548930454300,7.747454345703125,-9.349005016210675,-2.944347817510366,0.31194548666346816
1633781548950333200,7.767333251953125,-9.374390217357874,-2.8374259044051167,0.4901093660751357
1633781548970211300,7.78721142578125,-9.373159214258193,-2.8046994005843997,0.66927369123362
1633781548990090200,7.80709033203125,-9.344226549762487,-2.86420109860599,0.8075719356596469
1633781549009969200,7.82696923828125,-9.285818784457444,-3.0255855465218424,0.8886975095335393
1633781549029848000,7.84684814453125,-9.19376886179149,-3.2610376856893297,1.0053007856324314
1633781549049726200,7.866726318359375,-9.081364133360982,-3.5095772699669,1.1756184085231274
1633781549069605000,7.886605224609375,-8.98156988017857,-3.7073444061234593,1.3256626203224062
1633781549089484300,7.906484375,-8.914999851205945,-3.8256358545050024,1.4344598257802426
1633781549109363200,7.92636328125,-8.876076538571715,-3.86758406791836,1.5580245383895932
1633781549129242000,7.9462421875,-8.864309528410434,-3.8196152790412303,1.7334752133198081
1633781549149120000,7.9661201171875,-8.890063562870026,-3.6642885237291454,1.9261720604747532
1633781549168999200,7.985999267578125,-8.964721621230245,-3.4051042113184926,2.051686299716681
1633781549188878300,8.00587841796875,-9.0760128354609,-3.095687841273844,2.0525813488602638
1633781549208757200,8.02575732421875,-9.187809661126137,-2.814540118858218,1.957780666181445
1633781549228635400,8.045635498046876,-9.26702874379158,-2.6180413952022787,1.8542986643970012
1633781549248514000,8.06551416015625,-9.312215208473802,-2.5461814431279897,1.7233666378900407
1633781549268393200,8.085393310546875,-9.332018810096383,-2.612616155283153,1.5026796677865086
1633781549288272100,8.105272216796875,-9.313556686210632,-2.8191528733506797,1.2167241797629742
1633781549308151300,8.1251513671875,-9.239346956139803,-3.129287913058698,1.0061869208171963
1633781549328029200,8.145029296875,-9.127219291085003,-3.461788221570849,0.9382284331608564
1633781549347908400,8.164908447265624,-9.007806729719043,-3.7532802278682587,0.9709234458647668
1633781549367787000,8.184787109375,-8.908352083754538,-3.971192910952866,1.020429527311772
1633781549387666200,8.204666259765625,-8.850828700068593,-4.0884032860994335,1.0574391152791678
1633781549407544000,8.2245439453125,-8.836610789623856,-4.101778608240187,1.1225455745052546
1633781549427423200,8.24442333984375,-8.849854886600374,-4.0444764660894865,1.2217437614906579
1633781549447302100,8.26430224609375,-8.870607751771807,-3.970315835857391,1.3112196689501403
1633781549467181300,8.284181396484374,-8.884711680448055,-3.9225186041548845,1.3587214248374104
1633781549487060200,8.304060302734374,-8.882973312348128,-3.926011122445762,1.3600026968196033
1633781549506938000,8.323938232421876,-8.865451099660993,-3.975133173011243,1.3313425656549631
1633781549526817300,8.3438173828125,-8.843770598250627,-4.037037840521335,1.2885764599874614
1633781549546696200,8.3636962890625,-8.830977167651056,-4.084613830688595,1.224808190562576
1633781549566575400,8.383575439453125,-8.832859912657737,-4.1198052633181215,1.0854391020346432
1633781549586454300,8.403454345703125,-8.829979388785361,-4.183171820074319,0.838407072775811
1633781549606332400,8.42333251953125,-8.78787218541801,-4.314661772724985,0.5721734994407743
1633781549626211000,8.443211181640624,-8.695391470119356,-4.519355201013386,0.36875195425171403
1633781549646090200,8.46309033203125,-8.568501704740523,-4.764153552936017,0.2323943407657556
1633781549665969200,8.48296923828125,-8.438672963300347,-4.994254394203424,0.12888201690828427
1633781549685847300,8.502847412109375,-8.337869825336337,-5.162152461796999,0.04990422305227257
1633781549705726200,8.522726318359375,-8.2691750592947,-5.271727519759535,-0.0033281862977179114
1633781549725605400,8.54260546875,-8.216810081285237,-5.352978400513529,-0.005885917945901747
1633781549745485000,8.562485107421875,-8.178980409106611,-5.41038254173398,0.049233502450166264
1633781549765364200,8.5823642578125,-8.160496073389053,-5.43652995942533,0.144355124179041
1633781549785242000,8.6022421875,-8.165548680603504,-5.424453737184405,0.2636366704433225
1633781549805121300,8.622121337890626,-8.19479990952909,-5.372621258616447,0.38805089428778733
1633781549825000000,8.642,-8.241401501706243,-5.291946131923795,0.4949657565977424
1633781549844879000,8.661879150390625,-8.293954695764183,-5.1989229803115125,0.5932164335999638
1633781549864758000,8.681758056640625,-8.338989184755086,-5.112357042014598,0.7038824286043643
1633781549884636200,8.70163623046875,-8.367600362211466,-5.048162510001659,0.8183575335681438
1633781549904515000,8.72151513671875,-8.378672960367798,-5.010851308739185,0.9271445829581468
1633781549924394200,8.741394287109374,-8.37762549714148,-4.995397134497761,1.0157684036329389
1633781549944273000,8.76127294921875,-8.37533124872446,-4.9876896288603545,1.071055260438472
1633781549964152000,8.781152099609375,-8.374879997825621,-4.981414786374569,1.103302310179174
1633781549984030000,8.801030029296875,-8.368251519596576,-4.986901108831167,1.1285231876101345
1633781550003909000,8.8209091796875,-8.346697274914384,-5.016195592376589,1.1579339910116047
1633781550023788000,8.8407880859375,-8.307249646145104,-5.073663446483016,1.190765489576757
1633781550043667200,8.860667236328124,-8.252896124666929,-5.156523515999317,1.2125802848912774
1633781550063546000,8.880546142578124,-8.190722284826636,-5.252313209715485,1.2229717689156532
1633781550083424000,8.900424072265626,-8.132892611670494,-5.339122309118509,1.232968262273073
1633781550103303200,8.92030322265625,-8.092823636132477,-5.393893763747811,1.2579765929318965
1633781550123182000,8.94018212890625,-8.071912365528942,-5.416245880809426,1.2957209249146282
1633781550143061200,8.960061279296875,-8.07033006477356,-5.4089042858749625,1.335631641151011
1633781550162939100,8.979939208984375,-8.087498641717433,-5.3777551143735645,1.3573860845804213
1633781550182818000,8.999818115234374,-8.118293008431792,-5.332870262986421,1.3506313496232032
1633781550202697000,9.019697021484374,-8.15449770975709,-5.283769839730859,1.3252658760897815
1633781550222576000,9.039576171875,-8.19099291846156,-5.235051693791151,1.293157211906463
1633781550242455000,9.059455078125,-8.227629581463336,-5.185998032286763,1.2577427841760218
1633781550262333200,9.079333251953125,-8.265272791159152,-5.134730786386132,1.220730492794886
1633781550282212000,9.099212158203125,-8.303926639202237,-5.078425546318292,1.1936415564697236
1633781550302091000,9.119091064453125,-8.341860356277227,-5.018206347677111,1.183789440019056
1633781550321970000,9.138969970703124,-8.37169201543927,-4.9696185501188035,1.178153772219643
1633781550341849000,9.15884912109375,-8.38978472149074,-4.93982371583581,1.1747488591469823
1633781550361727000,9.17872705078125,-8.39581114217341,-4.928676883399486,1.1785100383114069
1633781550381606100,9.198606201171875,-8.392683950063585,-4.930421096718311,1.1933976647112519
1633781550401485000,9.218485107421875,-8.388004852336644,-4.931445179069042,1.2217226456373929
1633781550421364000,9.238364013671875,-8.390444062182306,-4.916026660662889,1.266300038510561
1633781550441243100,9.2582431640625,-8.405605390956998,-4.8743993497669695,1.3252972941413521
1633781550461121000,9.27812109375,-8.43199070905745,-4.811003859177232,1.3878629097782074
1633781550481000200,9.298000244140624,-8.459811028397082,-4.744496081785857,1.4462845574781298
1633781550500879000,9.317879150390626,-8.480735158482194,-4.692262621201574,1.493382993261516
1633781550520758300,9.33775830078125,-8.490469786033033,-4.663264490254223,1.5284877705208957
1633781550540637000,9.357636962890625,-8.487542500409484,-4.664839776746929,1.5398950074590743
1633781550560515000,9.37751513671875,-8.475616500294208,-4.687760049085319,1.535971404274553
1633781550580394000,9.39739404296875,-8.472372403806448,-4.692368419663608,1.5397943235635756
1633781550600273200,9.417273193359375,-8.482100601616501,-4.671478191848099,1.5497233046427368
1633781550620152000,9.437152099609374,-8.500211427846551,-4.6322781080991025,1.568052888190001
1633781550640031000,9.457031005859376,-8.522419752523303,-4.581336440891027,1.596904158012569
1633781550659909000,9.4769091796875,-8.546003457206487,-4.525865021298825,1.6287275755137205
1633781550679788000,9.4967880859375,-8.562661162018776,-4.488184109941125,1.6454254662059247
1633781550699667000,9.5166669921875,-8.564234110423921,-4.4807530831575395,1.6574471817806362
1633781550719546000,9.536546142578125,-8.547158472460508,-4.510072701144218,1.6660465216912328
1633781550739424800,9.5564248046875,-8.527094758597016,-4.5422938857913016,1.6812494976505636
1633781550759302700,9.576302734375,-8.511820617097616,-4.56604739408344,1.6942567171312868
1633781550779181800,9.596181884765626,-8.505051853615045,-4.570874960370362,1.7151016445003449
1633781550799060700,9.616060791015625,-8.506054893177748,-4.56033164678514,1.7380406215392052
1633781550818939600,9.635939697265625,-8.515853233614564,-4.535971697032451,1.753736787842959
1633781550838818800,9.65581884765625,-8.533007782033085,-4.501149682237208,1.7600618992112576
1633781550858696700,9.67569677734375,-8.556410284930466,-4.460560482217371,1.749750786946714
1633781550878575900,9.695575927734374,-8.585550454697012,-4.414619692036509,1.723320899052173
1633781550898454800,9.715454833984374,-8.617320388445258,-4.365479229031503,1.6896043612807987
1633781550918333700,9.735333740234376,-8.648805660033226,-4.314805272848904,1.6586124261677264
1633781550938212600,9.755212646484376,-8.678660700070857,-4.262431234750151,1.6379579068042336
1633781550958090800,9.7750908203125,-8.707182445678114,-4.210980156715214,1.6195678252413868
1633781550977969700,9.7949697265625,-8.733165028196574,-4.166503009346127,1.5945114176571369
1633781550997848800,9.814848876953125,-8.755133698898554,-4.131248448352515,1.5655040804900229
1633781551017727500,9.8347275390625,-8.774559114858508,-4.099223955321312,1.5407330657184124
1633781551037606700,9.854606689453124,-8.793487687212227,-4.063274105539918,1.5279932650022208
1633781551057484500,9.874484619140626,-8.81651960323155,-4.018824722960591,1.5127515644676983
1633781551077363700,9.89436376953125,-8.845863186615706,-3.966343717356026,1.479595290927589
1633781551097242600,9.91424267578125,-8.878299475318192,-3.9139045050665735,1.4239165121950208
1633781551117121800,9.934121826171875,-8.908094894123076,-3.875114463423192,1.3415342893235385
1633781551137000700,9.954000732421875,-8.930164687111974,-3.8627342897996306,1.22549091212973
1633781551156878600,9.973878662109374,-8.937958117467165,-3.887010652922094,1.0837126435682176
1633781551176757800,9.9937578125,-8.927333263078332,-3.948017787070572,0.9414147350467741
1633781551196636700,10.01363671875,-8.904756105089188,-4.022150360251963,0.8354696310844272
1633781551216515800,10.033515869140626,-8.885766157937049,-4.0765471363499755,0.7715641451459377
1633781551236394800,10.053394775390625,-8.884318881738185,-4.085423101244866,0.7406628109257668
1633781551256273700,10.073273681640625,-8.909569058328866,-4.031317417047918,0.7337895641554146
1633781551276151600,10.093151611328125,-8.959487812229991,-3.918653745420277,0.7362812348406761
1633781551296030700,10.11303076171875,-9.019440468889474,-3.7783500794559717,0.7376691090025007
1633781551315909600,10.13290966796875,-9.071234953534603,-3.6482433978572484,0.7572307185627519
1633781551335788800,10.152788818359374,-9.103616881701349,-3.5524867296278475,0.8212067124541849
1633781551355667700,10.172667724609376,-9.114109634143114,-3.4999285671338436,0.924060864663869
1633781551375545900,10.1925458984375,-9.104595955866575,-3.4949379192396997,1.0305953858867287
1633781551395424500,10.212424560546875,-9.077909608992934,-3.5401325672283765,1.1087852716349065
1633781551415303700,10.2323037109375,-9.035079352048038,-3.628414077271521,1.1714687414977698
1633781551435182800,10.252182861328125,-8.98088014434874,-3.742533500665426,1.2278523805640638
1633781551455061800,10.272061767578125,-8.919966533702611,-3.8701550874501462,1.2753342627070843
1633781551474940000,10.29193994140625,-8.858733189582825,-4.000013347245752,1.3012019866742193
1633781551494818600,10.311818603515626,-8.799078054565191,-4.127251779931783,1.308588005272299
1633781551514697700,10.33169775390625,-8.741013988131284,-4.25176546382904,1.2990588371656835
1633781551534576600,10.35157666015625,-8.682847630366682,-4.375612208250165,1.2777157510161399
1633781551554455800,10.371455810546875,-8.623287187895178,-4.499631678889692,1.2500479918897152
1633781551574333700,10.391333740234375,-8.55756120853126,-4.629374787873029,1.2277682094119489
1633781551594212900,10.411212890625,-8.482630178448558,-4.769350244796276,1.2118878456477076
1633781551614091500,10.431091552734374,-8.403248014175892,-4.912027361893654,1.194903246968612
1633781551633970700,10.450970703125,-8.328325167399644,-5.0435459561169145,1.1713361280940473
1633781551653849600,10.470849609375,-8.26710526728332,-5.150756038513779,1.1380103432059288
1633781551673727700,10.490727783203125,-8.224352167227863,-5.22468344451189,1.11044794415012
1633781551693606700,10.510606689453125,-8.19895878277421,-5.264082557964325,1.1121576706774532
1633781551713485800,10.53048583984375,-8.191434232488275,-5.270466706043481,1.1370886983163655
1633781551733364700,10.55036474609375,-8.204063412436842,-5.243312157136201,1.1710700245037675
1633781551753244000,10.570243896484374,-8.235667341968417,-5.1885407025068995,1.1929868188880384
1633781551773122800,10.590122802734374,-8.275091005340219,-5.1272570895045995,1.1851114824030549
1633781551793001000,10.6100009765625,-8.304925587111711,-5.086947290948033,1.1495936673633753
1633781551812880000,10.6298798828125,-8.31384188401699,-5.080999196198582,1.110797634370625
1633781551832758800,10.6497587890625,-8.30378810751438,-5.100055194324255,1.0986017312727867
1633781551852637700,10.6696376953125,-8.292474686339498,-5.117312034073472,1.103797254089266
1633781551872516900,10.689516845703125,-8.299571366602182,-5.1097793004810805,1.0851968177113682
1633781551892394800,10.709394775390624,-8.325166411107778,-5.076418882670998,1.0449694367412476
1633781551912274000,10.72927392578125,-8.357945229637622,-5.026884744173288,1.022529714461416
1633781551932152800,10.74915283203125,-8.391721827033162,-4.969817287561297,1.024843471296504
1633781551952031700,10.76903173828125,-8.427447804930805,-4.906624626067281,1.0361207251794635
1633781551971910700,10.78891064453125,-8.465981241464615,-4.839021746915579,1.039911349634081
1633781551991789800,10.808789794921875,-8.502291156730056,-4.776076630441844,1.0346610278904438
1633781552011667700,10.828667724609375,-8.530309628990292,-4.728097612431645,1.024351669191569
1633781552031547000,10.848546875,-8.546119777062534,-4.7015001128852365,1.0149462005298584
1633781552051426000,10.868426025390624,-8.550670279973744,-4.696862223951518,0.9979485962387173
1633781552071304700,10.8883046875,-8.5430896155864,-4.7145220915436745,0.9794331347305327
1633781552091183900,10.908183837890626,-8.523739018428325,-4.752073531302809,0.9664655166078359
1633781552111061800,10.928061767578125,-8.49528858449161,-4.805042028163373,0.9550007042635231
1633781552130941000,10.94794091796875,-8.462336747482418,-4.864008304134011,0.9490337586831301
1633781552150819800,10.96781982421875,-8.42986421842277,-4.918838795474171,0.9554009556274861
1633781552170699000,10.987698974609375,-8.405103286653757,-4.9589001722276205,0.9664028997004032
1633781552190577700,11.00757763671875,-8.391138474187255,-4.980383689761162,0.9772148010939359
1633781552210456800,11.027456787109376,-8.384649696689843,-4.98849860715568,0.9914225554708391
1633781552230334700,11.047334716796875,-8.381195172321796,-4.991331784754991,1.0062607897710054
1633781552250214000,11.0672138671875,-8.377496902325749,-4.995127085384726,1.0181519377686084
1633781552270092800,11.0870927734375,-8.372130406856536,-5.0022792952269315,1.0271397655401378
1633781552289971700,11.1069716796875,-8.363885725602508,-5.013520820209384,1.0394265617918224
1633781552309851000,11.126850830078125,-8.352219837728143,-5.029923088955879,1.0538861720379442
1633781552329728800,11.146728759765624,-8.340358719542621,-5.048930571764707,1.056929339126125
1633781552349608000,11.16660791015625,-8.334065756878257,-5.06059996677041,1.0507421749237924
1633781552369486800,11.18648681640625,-8.334890517264604,-5.059931858250499,1.047416391501948
1633781552389366000,11.206365966796875,-8.342958088386059,-5.047882524016499,1.0413018541444092
1633781552409244700,11.22624462890625,-8.357745323151349,-5.0260260815173385,1.0283682844217865
1633781552429123800,11.246123779296875,-8.376678571680188,-4.9967958953797815,1.016696916654706
1633781552449001700,11.266001708984374,-8.394926176032424,-4.967590843683481,1.0092745846342295
1633781552468881000,11.285880859375,-8.408914369374513,-4.945147541207075,1.0030263378944246
1633781552488759800,11.305759765625,-8.417155543497204,-4.932270523977279,0.9972880134381353
1633781552508639000,11.325638916015626,-8.420033144760131,-4.928243168157339,0.9929002268079667
1633781552528517600,11.345517578125,-8.416414369741082,-4.934990304329991,0.9900628844901919
1633781552548396800,11.365396728515625,-8.405497838929294,-4.953893742242455,0.988396266452223
1633781552568274700,11.385274658203125,-8.38958013882935,-4.981725752019882,0.9837363118171691
1633781552588153900,11.40515380859375,-8.372033376222848,-5.012908241268992,0.9747759565744548
1633781552608033000,11.425032958984374,-8.356709550362824,-5.040167419594526,0.965663260314241
1633781552627911700,11.44491162109375,-8.347544831654428,-5.0578018604844805,0.952641208590567
1633781552647790800,11.464790771484376,-8.347126313981413,-5.062911166322231,0.9288671689670532
1633781552667668700,11.484668701171875,-8.354302489221096,-5.056264567914605,0.9001140257567167
1633781552687548000,11.5045478515625,-8.366736438858508,-5.04043922227323,0.8729713134177028
1633781552707426800,11.5244267578125,-8.380139525789023,-5.022261176025867,0.8488452454861253
1633781552727306000,11.544305908203125,-8.390470950189233,-5.008015208530426,0.8307634261548519
1633781552747188000,11.56418798828125,-8.396277590641379,-4.999879248347878,0.8210441423036158
1633781552767066600,11.584066650390625,-8.396152502956985,-5.000764214488863,0.8169275007650255
1633781552786944800,11.60394482421875,-8.390674948328734,-5.010284907028079,0.814863480907306
1633781552806823700,11.62382373046875,-8.383335106959938,-5.021968330559134,0.8184824020568281
1633781552826702800,11.643702880859376,-8.377552431905269,-5.030068634906411,0.8278943004593252
1633781552846582000,11.66358203125,-8.374819207549095,-5.032519535189866,0.8405560675032436
1633781552866461000,11.6834609375,-8.376670388373732,-5.026803495630622,0.85617061993815
1633781552886339800,11.70333984375,-8.381894260501861,-5.01475883757174,0.8754585271235555
1633781552906217700,11.7232177734375,-8.387108780279755,-5.002456989881396,0.8956652296543121
1633781552926097000,11.743096923828125,-8.388490005505085,-4.996920398542285,0.9134548611059784
1633781552945975800,11.762975830078124,-8.388992109808326,-4.994222245499492,0.9235486773580313
1633781552965855000,11.78285498046875,-8.392256664562225,-4.98853660107851,0.9246166719157248
1633781552985733600,11.802733642578126,-8.397712591880559,-4.979961664956808,0.9212987064741551
1633781553005612800,11.82261279296875,-8.405532325720786,-4.967276955428719,0.9184593183297663
1633781553025490700,11.84249072265625,-8.417484044799208,-4.946853176081181,0.9192361479211598
1633781553045369900,11.862369873046875,-8.4317101385504,-4.9213364575088026,0.9257970408067107
1633781553065248800,11.882248779296875,-8.443401160866022,-4.89987398276329,0.9330595060903578
1633781553085128000,11.9021279296875,-8.449174483570456,-4.888507954618334,0.9403867802385241
1633781553105006800,11.9220068359375,-8.450718790403007,-4.884251173956692,0.9485949288744479
1633781553124884700,11.941884765625,-8.448891574975848,-4.884674367804825,0.9625859717607498
1633781553144764000,11.961763916015625,-8.444182666632532,-4.888878833757341,0.9823549404613673
1633781553164642800,11.981642822265625,-8.437904317015409,-4.895679161421954,1.0022356259081513
1633781553184522000,12.00152197265625,-8.429828562587499,-4.905418172886967,1.0223764966610818
1633781553204401000,12.02140087890625,-8.418705695548653,-4.91822504749,1.0520636327859014
1633781553224279800,12.04127978515625,-8.403854747897386,-4.933312141984701,1.0991070504464209
1633781553244157700,12.06115771484375,-8.386789046806097,-4.94907202117443,1.1570806621178984
1633781553264036900,12.081036865234376,-8.37205149640143,-4.962303843191266,1.2061029055707155
1633781553283915800,12.100915771484376,-8.363206511166691,-4.969027013966441,1.2393239149101078
1633781553303795000,12.120794921875,-8.362194119253754,-4.966013803625106,1.2580968583106993
1633781553323673600,12.140673583984375,-8.368347381186485,-4.951217216509581,1.275381316719204
1633781553343552800,12.160552734375,-8.381852759447693,-4.92756921441853,1.2782784994654357
1633781553363430700,12.1804306640625,-8.404914486083388,-4.892990945251285,1.2595406273782253
1633781553383309800,12.200309814453124,-8.436188160747289,-4.847829322749376,1.2246056537277996
1633781553403189000,12.22018896484375,-8.469917996391654,-4.7995036832585924,1.181372076679021
1633781553423068000,12.24006787109375,-8.501057231020926,-4.756115207909048,1.1321560642197728
1633781553442946800,12.25994677734375,-8.527809044346213,-4.720919391365349,1.076927221211791
1633781553462825700,12.27982568359375,-8.550260530129075,-4.691954285904765,1.0242050272624939
1633781553482704000,12.299703857421875,-8.570527657610178,-4.664723749151825,0.9781572695758193
1633781553502582800,12.319582763671875,-8.588807410666346,-4.638987250348925,0.9394503031060099
1633781553522462000,12.3394619140625,-8.603260298910737,-4.618537459777295,0.9074164577245711
1633781553542340900,12.3593408203125,-8.611492120683193,-4.607100996744633,0.8872470915295183
1633781553562219800,12.3792197265625,-8.613571849566698,-4.604999640551209,0.8779213370405137
1633781553582098700,12.3990986328125,-8.611558756178617,-4.610456152391434,0.868986116239056
1633781553601976800,12.418976806640625,-8.606156020352245,-4.621952528917789,0.8614035521555692
1633781553621855700,12.438855712890625,-8.600280990839003,-4.634234502863884,0.8540650259610265
1633781553641735000,12.45873486328125,-8.597797941851615,-4.6431478771597146,0.8303229158457368
1633781553661613800,12.47861376953125,-8.598725578090548,-4.646906937432289,0.7990993639338762
1633781553681492700,12.49849267578125,-8.604844937753677,-4.639785707250237,0.7742224045697599
1633781553701372000,12.518371826171874,-8.62059897172451,-4.615836091864109,0.7414223240561783
1633781553721249800,12.538249755859376,-8.64506705802679,-4.577075860837102,0.6953998469412327
1633781553741126000,12.5581259765625,-8.670867269715666,-4.534036637316644,0.6549507860444486
1633781553761004800,12.5780048828125,-8.693530936944484,-4.495191650615633,0.6214117237318307
1633781553780883700,12.5978837890625,-8.709623993611336,-4.468242853413522,0.5896104084646329
1633781553800762600,12.6177626953125,-8.715821094685792,-4.458898394224048,0.568394017434679
1633781553820641800,12.637641845703126,-8.712589273157715,-4.46589599802643,0.5629808698121458
1633781553840519700,12.657519775390625,-8.703468393591045,-4.4836146100685,0.563222496548295
1633781553860398800,12.67739892578125,-8.691776786753534,-4.506219240586459,0.563367384911701
1633781553880277800,12.69727783203125,-8.683146321052313,-4.522582346366345,0.5653308304717763
1633781553900156700,12.71715673828125,-8.677701499649881,-4.532585561725497,0.5688185995223001
1633781553920035800,12.737035888671874,-8.67778157914877,-4.5326019283384085,0.5674642257712781
1633781553939914800,12.756914794921874,-8.683447349825501,-4.522855025827885,0.5584842525126412
1633781553959794000,12.7767939453125,-8.692454247623681,-4.507445275250077,0.5427332872817292
1633781553979671800,12.796671875,-8.701275851982832,-4.492469532175362,0.5252622567925602
1633781553999550700,12.81655078125,-8.706549992993473,-4.483992211209237,0.5100817849259823
1633781554019429600,12.8364296875,-8.706950975009798,-4.485418152359128,0.49031884410735216
1633781554039308800,12.856308837890625,-8.706119784882665,-4.490531549850106,0.45715362007580695
1633781554059187700,12.876187744140625,-8.709016090846061,-4.489147402015329,0.41348804481793194
1633781554079067000,12.89606689453125,-8.718290115147829,-4.4746796084627505,0.372884450946562
1633781554098944800,12.91594482421875,-8.734860726198553,-4.444551012180745,0.3443210216220468
1633781554118823700,12.93582373046875,-8.755656261467934,-4.404572053013742,0.3295642185276374
1633781554138702600,12.95570263671875,-8.774719273856281,-4.367093386229873,0.32122433327082545
1633781554158581800,12.975581787109375,-8.788733186161517,-4.338547090703249,0.32489575179256497
1633781554178461000,12.9954609375,-8.794996922731398,-4.32460302876383,0.3409124918201938
1633781554198339600,13.015339599609375,-8.790406087809801,-4.332181939585507,0.3624195728924125
1633781554218217700,13.0352177734375,-8.776729444634913,-4.358207192201912,0.3813649137178436
1633781554238096600,13.0550966796875,-8.759752006348966,-4.390449711897969,0.4013454062772914
1633781554257975800,13.074975830078126,-8.744121891018748,-4.419661777856946,0.4210873773731291
1633781554277854700,13.094854736328125,-8.733000193023681,-4.440558727674186,0.43189248369969424
1633781554297734000,13.11473388671875,-8.72716432647705,-4.451579887904226,0.436375985789299
1633781554317612500,13.134612548828125,-8.724392523676157,-4.456503315781057,0.44151784218978135
1633781554337490700,13.15449072265625,-8.721929348433017,-4.460687907989323,0.44788595244958995
1633781554357369600,13.17436962890625,-8.717605640015005,-4.468602334375679,0.45313642032369966
1633781554377248800,13.194248779296874,-8.710892990633845,-4.481304287299514,0.4567781012943014
1633781554397128000,13.2141279296875,-8.70316385768652,-4.4958030605122445,0.46160500999409704
1633781554417006800,13.2340068359375,-8.69648394153118,-4.508178557960689,0.4667767866088077
1633781554436885800,13.2538857421875,-8.693919644001125,-4.512842750379443,0.4694620436374098
1633781554456764700,13.2737646484375,-8.695579101645945,-4.5092669377192856,0.47307413318734615
1633781554476642800,13.293642822265625,-8.69920839805901,-4.502091054740548,0.47469260123465207
1633781554496521700,13.313521728515624,-8.703010712951421,-4.494810834604501,0.47398704678118225
1633781554516401000,13.33340087890625,-8.7054206967026,-4.490056333553791,0.4747947464348748
1633781554536279600,13.353279541015626,-8.705061215740441,-4.490479527401924,0.4773720130443573
1633781554556158700,13.37315869140625,-8.70260096310675,-4.493018398229777,0.49789775492902844
1633781554576037600,13.39303759765625,-8.701583895018697,-4.489851166370511,0.5422705651408061
1633781554595915800,13.412915771484375,-8.70719062898457,-4.4747024048164485,0.5764161785118281
1633781554615794700,13.432794677734375,-8.718200098776817,-4.452211463806033,0.5841089980367571
1633781554635673900,13.452673828125,-8.72556039841175,-4.435560480995476,0.6006489582208916
1633781554655552800,13.472552734375,-8.725075829765201,-4.430663356603682,0.6423826155681163
1633781554675431700,13.492431640625,-8.72127176130712,-4.4334842592433095,0.6738103848151862
1633781554695310800,13.512310791015626,-8.719896381300687,-4.4332098262161015,0.6931395738590508
1633781554715188700,13.532188720703125,-8.720143049538136,-4.428666045306623,0.7186186638347805
1633781554735068000,13.55206787109375,-8.72071120481491,-4.423091460044682,0.7455465643793344
1633781554754946000,13.571946044921875,-8.724322381049394,-4.414330938223004,0.7551613649427891
1633781554774825000,13.591824951171875,-8.728777022370696,-4.405389799137414,0.7558979355890303
1633781554794704000,13.611703857421874,-8.729695890781283,-4.402558375103771,0.7617601786859333
1633781554814583000,13.6315830078125,-8.726719505318998,-4.4076858011201026,0.7661950923934578
1633781554834462000,13.6514619140625,-8.722364817240834,-4.41711735407114,0.7614535969547926
1633781554854340000,13.671340087890625,-8.719142348062991,-4.4256756313189864,0.7485543678931892
1633781554874219000,13.691218994140625,-8.719382002037763,-4.428184399269521,0.7307156366027892
1633781554894098000,13.711097900390625,-8.724752589160204,-4.420999748462438,0.7098140106104314
1633781554913976800,13.730976806640625,-8.735590209516882,-4.402788092206419,0.6894234759453683
1633781554933856000,13.75085595703125,-8.748851257628202,-4.378760443148017,0.674124638396129
1633781554953735000,13.77073486328125,-8.760501947933435,-4.357361681288481,0.6613504970189183
1633781554973614000,13.790614013671876,-8.76843800162971,-4.342776106575132,0.6520551376681775
1633781554993492000,13.810491943359375,-8.772624931925534,-4.335118869820237,0.6466708873465656
1633781555013371000,13.830370849609375,-8.774106110394001,-4.332658617186546,0.6430501395661383
1633781555033249800,13.850249755859375,-8.774224768337607,-4.332623545873165,0.6416670877099037
1633781555053129000,13.87012890625,-8.771940456792711,-4.336921827588975,0.6438594831876456
1633781555073008000,13.890008056640625,-8.767621424549818,-4.345610160957277,0.6441088548388332
1633781555092887000,13.909886962890624,-8.764282050994039,-4.352852971692383,0.640637890792638
1633781555112765200,13.92976513671875,-8.763936014035343,-4.353828830987215,0.6387341760631651
1633781555132643800,13.949643798828125,-8.76588071836233,-4.349674049395323,0.6403598775688558
1633781555152523000,13.96952294921875,-8.768837230080365,-4.343187025463581,0.6439037607207894
1633781555172402000,13.98940185546875,-8.771232600784302,-4.33721964149177,0.6514495729904621
1633781555192281000,14.009281005859375,-8.770068233180046,-4.337951755158603,0.6621700697734951
1633781555212160000,14.029159912109375,-8.763630309087038,-4.348997465308011,0.6748279643598943
1633781555232039000,14.049038818359374,-8.752887965798378,-4.368378457604348,0.6889210063159465
1633781555251916800,14.068916748046876,-8.739450976598262,-4.392207953742147,0.7077343547921627
1633781555271796000,14.0887958984375,-8.725742184719444,-4.415501151046157,0.7315441233161837
1633781555291675000,14.1086748046875,-8.71500334856212,-4.432608353191614,0.7557046780392527
1633781555311554000,14.128553955078125,-8.708278424221277,-4.442414292412996,0.7753859684564173
1633781555331433000,14.148432861328125,-8.705007439726591,-4.446652952896058,0.7877221568077802
1633781555351312000,14.168311767578125,-8.705644568586349,-4.444218126964569,0.7943971775922923
1633781555371191000,14.18819091796875,-8.709501828536391,-4.435280202749372,0.8020272340793162
1633781555391069000,14.20806884765625,-8.713703956401348,-4.426030436106026,0.8074629953924566
1633781555410948000,14.227947998046876,-8.71722453174293,-4.418952168282866,0.8082360255915672
1633781555430827000,14.247826904296875,-8.720988268190622,-4.41165324344635,0.8075029620766639
1633781555450706000,14.267705810546875,-8.72360166555941,-4.405677383907139,0.811889214336872
1633781555470584800,14.287584716796875,-8.724770709338785,-4.402212630406022,0.818098371175304
1633781555490464000,14.307464111328125,-8.726769774201513,-4.398122730743885,0.8187731286317109
1633781555510342000,14.327341796875,-8.732772229486704,-4.386685390928387,0.8161305051684379
1633781555530221000,14.347220947265624,-8.743290700891613,-4.366244660446047,0.8131134223695844
1633781555550100000,14.367099853515626,-8.756425492274762,-4.340216485220194,0.8111220293566584
1633781555569979000,14.386978759765626,-8.76935219386518,-4.313943687583506,0.8116289559654891
1633781555589858000,14.406858154296875,-8.77864200025797,-4.295088472726941,0.811201232072711
1633781555609737000,14.426737060546875,-8.782716117829084,-4.286914810882508,0.8103338746536523
1633781555629616000,14.4466162109375,-8.78143835297823,-4.288794341018796,0.8142321242012083
1633781555649494000,14.466493896484375,-8.77550545579791,-4.299999625644087,0.8190783221233635
1633781555669373000,14.486373046875,-8.76636470248699,-4.318061059774458,0.8219388261210173
1633781555689251800,14.506251953125,-8.754335826519132,-4.340339819338918,0.8327291002046316
1633781555709131000,14.526131103515626,-8.74016467782557,-4.365632666027546,0.849206626144424
1633781555729010000,14.546010009765626,-8.72556273649931,-4.392240102446079,0.8620670575655996
1633781555748889600,14.5658896484375,-8.711690863013267,-4.418032715350389,0.8705272082012147
1633781555768768800,14.585768798828125,-8.697731311243771,-4.44453201521933,0.8752055022105574
1633781555788646700,14.605646728515625,-8.682842369669675,-4.473419087007642,0.8758736837957054
1633781555808525800,14.62552587890625,-8.666838744851946,-4.504143018834292,0.8769169092383235
1633781555828404700,14.64540478515625,-8.652417420789599,-4.531560018070042,0.8780782081026584
1633781555848283600,14.66528369140625,-8.642971547052264,-4.550211527048051,0.8746474299363791
1633781555868162600,14.68516259765625,-8.641057822385429,-4.555480115100741,0.8660895180147141
1633781555888041700,14.705041748046876,-8.646806595170498,-4.546092109030485,0.8580021462142468
1633781555907920600,14.724920654296875,-8.657236803770065,-4.52582848868072,0.8599472889326513
1633781555927798800,14.744798828125,-8.66705560247302,-4.506018165056407,0.8650596635103225
1633781555947677700,14.764677734375,-8.674089154371618,-4.492272840559482,0.8660498435914515
1633781555967556600,14.784556640625,-8.675652750426531,-4.489159676975012,0.8665345583684742
1633781555987435800,14.804435791015624,-8.670288008522986,-4.499515359033644,0.8665157075375318
1633781556007314700,14.824314697265624,-8.661657542821764,-4.517087256081402,0.8613912771958857
1633781556027193900,14.84419384765625,-8.653802153146266,-4.5333431020945305,0.8549258075088262
1633781556047072800,14.86407275390625,-8.648127614641188,-4.54486928923726,0.8511367174241692
1633781556066951000,14.883950927734375,-8.644832080227136,-4.551683353166282,0.8482028559293597
1633781556086829600,14.90382958984375,-8.643664790013432,-4.5553827922061085,0.8401990707591176
1633781556106708700,14.923708740234375,-8.643366683849692,-4.558076853595674,0.8285749031346291
1633781556126587600,14.943587646484374,-8.642499837887287,-4.561856664395332,0.8167289825182408
1633781556146466800,14.963466796875,-8.642035142984986,-4.565075918702781,0.8035484522972256
1633781556166345500,14.983345458984376,-8.643400586119293,-4.564969535718858,0.7893477121829986
1633781556186224600,15.003224609375,-8.646497383090853,-4.561117244204879,0.7776120470080524
1633781556206102500,15.0231025390625,-8.650607156497239,-4.555196621984243,0.7665278314791619
1633781556225981700,15.042981689453125,-8.654664322933554,-4.549006535172462,0.7574344975065439
1633781556245860900,15.06286083984375,-8.658127030608057,-4.543431365388631,0.7512984059043228
1633781556265739800,15.08273974609375,-8.660954362988472,-4.538574573007225,0.7480572320260107
1633781556285618700,15.10261865234375,-8.66161136559248,-4.537211467960477,0.7487257789373397
1633781556305497600,15.12249755859375,-8.659527545055747,-4.540891033256053,0.7505152927026152
1633781556325376800,15.142376708984376,-8.656354175716638,-4.546887058800459,0.7508220205642282
1633781556345254700,15.162254638671875,-8.652608559447527,-4.553474328236281,0.7540686743352562
1633781556365133800,15.1821337890625,-8.648121184900402,-4.561156114910543,0.759103234436363
1633781556385012700,15.2020126953125,-8.643169115450977,-4.57052307819277,0.7591652668219059
1633781556404891600,15.2218916015625,-8.638248025661706,-4.580946272529661,0.7523196387108415
1633781556424770600,15.2417705078125,-8.634353940832614,-4.5896112250223755,0.7441675311110914
1633781556444649700,15.261649658203124,-8.633628549167513,-4.592480058456957,0.7348241679001599
1633781556464529000,15.28152880859375,-8.636336639082431,-4.589494320644438,0.7215426615227013
1633781556484406800,15.30140673828125,-8.641929929044842,-4.581284418442845,0.7065850386265665
1633781556504285700,15.32128564453125,-8.64722861997485,-4.5728637961000205,0.6962325714383274
1633781556524164600,15.34116455078125,-8.647385271841287,-4.573435750769079,0.6905038185279816
1633781556544043800,15.361043701171875,-8.64230811470747,-4.584658571051061,0.6795565272517502
1633781556563922700,15.380922607421875,-8.634313024300337,-4.601782724331319,0.6652953621871769
1633781556583801900,15.4008017578125,-8.624026608085632,-4.622364909110963,0.6559637624792755
1633781556603680500,15.420680419921876,-8.613872293817996,-4.642330423296988,0.6483474422566592
1633781556623559700,15.4405595703125,-8.607508604004979,-4.655066278490424,0.641512262474373
1633781556643437600,15.4604375,-8.605020294320584,-4.660145189189911,0.6380099534418433
1633781556663316700,15.480316650390625,-8.605588449597358,-4.659098602746427,0.637990079697594
1633781556683195600,15.500195556640625,-8.607410404327512,-4.655949783326685,0.636399303374812
1633781556703074800,15.52007470703125,-8.61023013792336,-4.65125957968384,0.6325389016196131
1633781556722953700,15.53995361328125,-8.613336287245154,-4.645556691867113,0.632163200175017
1633781556742832600,15.55983251953125,-8.615872527724504,-4.640232574234902,0.6366856460355221
1633781556762711800,15.5797119140625,-8.618162099966407,-4.635034713330865,0.6435214834049343
1633781556782589700,15.599589599609375,-8.620129600647092,-4.630154832334816,0.6522380930196493
1633781556802468900,15.61946875,-8.621583306586741,-4.626472052168846,0.6591214958578347
1633781556822347500,15.639347412109375,-8.622252584150432,-4.62459982855618,0.6634971536587924
1633781556842226700,15.659226806640625,-8.622448983505368,-4.623492159575224,0.6686426267884671
1633781556862105600,15.679105712890625,-8.621502058044076,-4.624909040635824,0.6710455962769687
1633781556881984800,15.69898486328125,-8.620172855266928,-4.627625606118142,0.6693909609377384
1633781556901864000,15.718864013671874,-8.618969909217952,-4.629493153555691,0.6719617612738162
1633781556921742600,15.73874267578125,-8.616379308202863,-4.633535122422874,0.677308967520669
1633781556941620700,15.758620849609375,-8.61321119956076,-4.639103277944028,0.6794849233202636
1633781556961499600,15.778499755859375,-8.61132845455408,-4.64269984113127,0.6787843738354742
1633781556981378800,15.79837890625,-8.610833949035406,-4.6434462755844,0.679946330286935
1633781557001257700,15.8182578125,-8.610622352111339,-4.643801957154274,0.6801978938952088
1633781557021136600,15.83813671875,-8.60787802183926,-4.648664887015522,0.6817120978504418
1633781557041015600,15.858015625,-8.601918821173905,-4.659491693717241,0.683019381056726
1633781557060894700,15.877894775390626,-8.594576641717552,-4.6727816756621,0.6846553847607225
1633781557080772600,15.897772705078125,-8.587093007963896,-4.685679443418979,0.6903849413886666
1633781557100651800,15.91765185546875,-8.579252231335639,-4.699063533388078,0.6968608594045043
1633781557120530700,15.93753076171875,-8.572713769477605,-4.710974043673277,0.6969090824604034
1633781557140409600,15.95740966796875,-8.570277482241393,-4.715802486743033,0.6942149480056017
1633781557160288800,15.977288818359375,-8.572653563722968,-4.711113744404912,0.6967098335612565
1633781557180167700,15.997167724609374,-8.575787185573578,-4.7042532109856605,0.7044596439704298
1633781557200046800,16.017046875,-8.579089734250307,-4.697980414326489,0.7061097492650151
1633781557219925800,16.03692578125,-8.583681738215684,-4.69015278944075,0.7023271619863808
1633781557239804000,16.056803955078124,-8.588067405954003,-4.682129057461023,0.7022471555527299
1633781557259682600,16.0766826171875,-8.591813022223114,-4.675053419986367,0.7035660561315715
1633781557279561700,16.096561767578127,-8.595280990594626,-4.668891097964346,0.7021280592177063
1633781557299440600,16.116440673828127,-8.59741449549198,-4.665364092881977,0.6994468573097139
1633781557319319800,16.13631982421875,-8.597215758049488,-4.666023141312599,0.6974925083715469
1633781557339198500,16.156198486328126,-8.596101659327745,-4.668269751195609,0.6961853712957352
1633781557359077600,16.17607763671875,-8.595622935900092,-4.669277759194374,0.6953398603823036
1633781557378956800,16.195956787109374,-8.596963829115033,-4.666655593997239,0.6963614585150033
1633781557398834700,16.215834716796873,-8.59967191902995,-4.661429676042497,0.6979297307450324
1633781557418713900,16.2357138671875,-8.60204040172696,-4.656989355507493,0.6983826621443033
1633781557438592800,16.2555927734375,-8.603248023951053,-4.654854973827303,0.6977288744106889
1633781557458471700,16.2754716796875,-8.603648421445488,-4.654183065915108,0.6972801807951182
1633781557478350600,16.2953505859375,-8.603094294694065,-4.654905827231705,0.6992899862475693
1633781557498229800,16.315229736328124,-8.601134392797947,-4.658109299448133,0.7020643463317304
1633781557518108700,16.335108642578124,-8.598659527117013,-4.662762678211927,0.7014869117699563
1633781557537986800,16.35498681640625,-8.596049636879563,-4.6677176702708,0.70052193919532
1633781557557865700,16.37486572265625,-8.593615687730908,-4.672322825978696,0.699678035717085
1633781557577744600,16.39474462890625,-8.591949215823412,-4.675761275994778,0.6971751860506832
1633781557597623800,16.414623779296875,-8.590406662556529,-4.678925292983651,0.6949534183479845
1633781557617502700,16.434502685546875,-8.587887373211979,-4.684080191528797,0.6913488179847598
1633781557637382000,16.4543818359375,-8.58415636999011,-4.6915597336292265,0.6869589855279773
1633781557657260500,16.474260498046874,-8.579875916191934,-4.699711183641851,0.6847094530355184
1633781557677139700,16.4941396484375,-8.576298057705163,-4.705775013725459,0.6878778539385646
1633781557697017600,16.514017578125,-8.573056883826851,-4.710632390628755,0.6949989379901439
1633781557716896800,16.533896728515625,-8.56871447070837,-4.717895951890945,0.699269820242375
1633781557736775700,16.553775634765625,-8.565055948200822,-4.724121402277052,0.7020539710681885
1633781557756655000,16.573655029296877,-8.56453689276278,-4.723938154664635,0.7095735529180616
1633781557776533800,16.59353369140625,-8.56800603017807,-4.716141509439051,0.719492597125098
1633781557796413000,16.613412841796876,-8.576030931201577,-4.700607547959685,0.7255111267622559
1633781557816292000,16.6332919921875,-8.58605957326293,-4.681533137394488,0.730209221450612
1633781557836171000,16.6531708984375,-8.595369253399967,-4.663968254609406,0.7330809044294059
1633781557856049200,16.673049072265623,-8.602394621992111,-4.650892499937116,0.7337552965596318
1633781557875927800,16.692927734375,-8.605506032010913,-4.645229359608888,0.7331429368149489
1633781557895807000,16.712806884765627,-8.605302033871412,-4.64608393061161,0.7301134329259396
1633781557915686000,16.732685791015626,-8.603679985627531,-4.649743914423882,0.7259133508875966
1633781557935565000,16.75256494140625,-8.602109375309944,-4.653243154716492,0.722096715208888
1633781557955444000,16.77244384765625,-8.60215379897356,-4.653742628671228,0.7183392623715102
1633781557975323000,16.792322998046874,-8.603892167073488,-4.651318908655643,0.7132018994830548
1633781557995202000,16.8122021484375,-8.605554547327756,-4.649124321220815,0.7074297458223998
1633781558015080000,16.832079833984373,-8.605206756803392,-4.650308854830265,0.7038649660129099
1633781558034958800,16.851958740234377,-8.601901285517215,-4.656462116762995,0.7035917020294815
1633781558054838000,16.871838134765625,-8.59653946622312,-4.666408925759792,0.7032249876089394
1633781558074717000,16.891717041015625,-8.59146523169875,-4.676043307806551,0.7012355673573911
1633781558094595800,16.911595947265624,-8.588938343569636,-4.680706623442471,0.7010773811209946
1633781558114475000,16.93147509765625,-8.590772573259473,-4.677279571603238,0.7014760981149971
1633781558134354000,16.95135400390625,-8.596495042559503,-4.667695458438992,0.6951863503210246
1633781558154233000,16.971233154296876,-8.602291161617636,-4.657730529263615,0.6903030352588743
1633781558174111000,16.991111083984375,-8.605580266290902,-4.652008644485473,0.6878881561368704
1633781558193990000,17.010989990234375,-8.60620102853775,-4.651413893462717,0.6841324568651617
1633781558213868800,17.030868896484375,-8.605299111261964,-4.6531908400073645,0.68339647074081
1633781558233748000,17.050748046875,-8.604384919026494,-4.654155593386292,0.688320190878585
1633781558253627100,17.070627197265626,-8.60455852202773,-4.653345153786241,0.691622008902952
1633781558273506000,17.090506103515626,-8.605053027546406,-4.652346498137712,0.692183442177996
1633781558293385000,17.110385009765626,-8.605110895213484,-4.652093692420423,0.6931679962359368
1633781558313263900,17.130263916015625,-8.603315243968368,-4.6551410972923035,0.69499206985794
1633781558333142000,17.15014208984375,-8.600019125032425,-4.661175701281428,0.6953361340552568
1633781558353021000,17.17002099609375,-8.597980897203087,-4.664384434194862,0.6990183296993374
1633781558372900000,17.189900146484376,-8.597056183573603,-4.665242804589868,0.7046373386248945
1633781558392778800,17.20977880859375,-8.597597450843454,-4.664148287351429,0.7052797281816602
1633781558412658000,17.229657958984376,-8.600752115482091,-4.658979068019986,0.7009685869842768
1633781558432536800,17.249536865234376,-8.60504601328373,-4.6509617657810445,0.7015100734498352
1633781558452416000,17.269416015625,-8.609792915549873,-4.641721936009824,0.7044642470803112
1633781558472295200,17.289295166015624,-8.614736217170954,-4.632312594890594,0.7059688064243644
1633781558492173000,17.309173095703127,-8.618371358802914,-4.625116545906662,0.7087736347120255
1633781558512052000,17.329052001953126,-8.621037363141774,-4.619650389455258,0.7119849979739635
1633781558531931000,17.348930908203126,-8.62475842949152,-4.6124201459407805,0.7137981118105351
1633781558551810000,17.36881005859375,-8.629548586377501,-4.603265071843564,0.7150031036861241
1633781558571689000,17.38868896484375,-8.63456787584424,-4.593802831493318,0.7152628506008535
1633781558591568000,17.40856787109375,-8.638303555241226,-4.586377942189574,0.7177977028407156
1633781558611446800,17.42844677734375,-8.63891321157217,-4.584981519395113,0.7193813918355852
1633781558631326000,17.448325927734373,-8.63790491131246,-4.587165293174982,0.7175671820204704
1633781558651205000,17.468205078125,-8.636891934877633,-4.589249698233604,0.7164301408145576
1633781558671083000,17.4880830078125,-8.635877204877138,-4.591043011391163,0.7171716798968613
1633781558690962200,17.507962158203124,-8.636067759013175,-4.59062770858854,0.7175356178384273
1633781558710840800,17.5278408203125,-8.636255390539764,-4.590108068628609,0.7185944792415946
1633781558730720000,17.547719970703124,-8.635846225216984,-4.590988358594477,0.7178950257353485
1633781558750599000,17.567598876953124,-8.636258313149213,-4.590649335898458,0.7151016686897724
1633781558770477800,17.587477783203123,-8.637705589348077,-4.5883676547020675,0.7122526359342038
1633781558790357000,17.60735693359375,-8.638526842603087,-4.58715126464963,0.7101295063003897
1633781558810235600,17.627235595703127,-8.638660113593936,-4.587398225148022,0.7069073293834924
1633781558830113800,17.64711376953125,-8.637341432210803,-4.590279625803232,0.7043105908885597
1633781558849992700,17.66699267578125,-8.634542156881093,-4.595921723343432,0.7018309029020369
1633781558869871900,17.686871826171874,-8.631170634621382,-4.602241281753778,0.7018965154841542
1633781558889750800,17.706750732421874,-8.628608090656995,-4.606292895232141,0.7068032844871283
1633781558909629700,17.726629638671874,-8.62479408532679,-4.6120095193132755,0.7160187104694545
1633781558929508900,17.7465087890625,-8.619124222996831,-4.621932362912595,0.7202893004607409
1633781558949387800,17.7663876953125,-8.615854407545923,-4.6283042360320685,0.7184991291083395
1633781558969267000,17.786266845703125,-8.61679548778832,-4.626761682765186,0.7171455225422978
1633781558989144800,17.806144775390624,-8.619923848941921,-4.62095328874737,0.7169988075479865
1633781559009024000,17.82602392578125,-8.625175778120756,-4.611828025266528,0.7125782146267593
1633781559028902700,17.845902587890624,-8.631983120048046,-4.600163014174997,0.7055163134165108
1633781559048781800,17.86578173828125,-8.63770266673863,-4.590163890469074,0.7006215271122753
1633781559068660700,17.88566064453125,-8.64064748801887,-4.585440076817572,0.6952171838507056
1633781559088540000,17.905539794921875,-8.64176918552518,-4.584527930408716,0.6872499312985688
1633781559108418800,17.925418701171875,-8.641995395496487,-4.58552687831819,0.6776735630493611
1633781559128297700,17.945297607421875,-8.640749779349566,-4.58881978238374,0.6712413380447775
1633781559148177000,17.965177001953126,-8.638713889607786,-4.593359763900936,0.666373220551759
1633781559168054800,17.9850546875,-8.63719588626027,-4.597203287586569,0.6595130524586886
1633781559187934000,18.004933837890626,-8.636212720441817,-4.600108653639257,0.6520822448708117
1633781559207812900,18.024812744140625,-8.635465116944909,-4.602467491725087,0.6453018640156835
1633781559227691800,18.04469189453125,-8.634797592946887,-4.604846495816111,0.637213761562854
1633781559247570700,18.06457080078125,-8.634996330389379,-4.6059868980228895,0.626184491091594
1633781559267449900,18.084449951171877,-8.636344237866997,-4.604996425680816,0.6147765965662896
1633781559287328800,18.104328857421876,-8.636535376524925,-4.605484793719649,0.6083934714004398
1633781559307208000,18.1242080078125,-8.634055250146984,-4.610150739704072,0.6082665205525234
1633781559327086800,18.1440869140625,-8.628540286117792,-4.620204223945737,0.6102381494190543
1633781559346964700,18.16396484375,-8.621313257473707,-4.63355061225295,0.611187960957177
1633781559366844000,18.183843994140624,-8.615350549677014,-4.644720825564861,0.6104790820354595
1633781559386722800,18.203722900390623,-8.613866448599099,-4.647458726096153,0.6105930272713304
1633781559406602000,18.22360205078125,-8.6170912558645,-4.641100004719197,0.6134412563093006
1633781559426481000,18.24348095703125,-8.622824831080436,-4.629941774106025,0.6171846075560897
1633781559446359800,18.26335986328125,-8.62800369502306,-4.620249816653132,0.617434271468222
1633781559466238700,18.28323876953125,-8.631400936245917,-4.614185402047634,0.6152978439614176
1633781559486118000,18.303117919921874,-8.633544378015399,-4.60987601441592,0.6175254568830132
1633781559505995800,18.322995849609374,-8.63443928102851,-4.607683472807705,0.6213657656982541
1633781559525875000,18.342875,-8.63486715105176,-4.606905766433477,0.6211899707399309
1633781559545753600,18.362753662109377,-8.638508137902617,-4.601092988501489,0.6136033150032162
1633781559565632800,18.3826328125,-8.64676450959444,-4.586288218079507,0.6081182346556335
1633781559585512000,18.402511962890625,-8.655593712738156,-4.569948200914263,0.6055244187701493
1633781559605390800,18.422390869140624,-8.66220582435429,-4.5582492875531315,0.5991165975544601
1633781559625270000,18.44227001953125,-8.666214475473762,-4.551522901907563,0.5922417433489113
1633781559645148700,18.462148681640624,-8.666410874828696,-4.551450421193242,0.5899242967193946
1633781559665027800,18.48202783203125,-8.663987447074055,-4.556073697079718,0.5898346456745639
1633781559684906800,18.50190673828125,-8.659283799427747,-4.564883318740129,0.5907848225388675
1633781559704785000,18.521784912109375,-8.654304841971397,-4.5741506210401655,0.5920592263888568
1633781559724663800,18.541663818359375,-8.650894741266965,-4.580115082402527,0.5957784661076962
1633781559744542700,18.561542724609374,-8.64915169699192,-4.582585564169287,0.6020532355282455
1633781559764421600,18.581421630859374,-8.648458454030752,-4.583295466004312,0.6065904040338471
1633781559784300800,18.60130078125,-8.647937060505152,-4.583990170270204,0.6087706706823781
1633781559804179700,18.6211796875,-8.64710002515912,-4.585470471955835,0.6095126116234809
1633781559824059000,18.641058837890625,-8.647004748091101,-4.585743735939264,0.6088086646052077
1633781559843937500,18.6609375,-8.648620951116085,-4.583096728561818,0.6057767130307853
1633781559863816700,18.680816650390625,-8.65144302279949,-4.578228245742618,0.6022792993690819
1633781559883694600,18.700694580078125,-8.65398335493207,-4.57369410944432,0.6002336188856512
1633781559903573800,18.72057373046875,-8.655610663872956,-4.5708281986191865,0.5985934504631907
1633781559923453000,18.740452880859376,-8.65660961178243,-4.569358126066625,0.5953629806419835
1633781559943331800,18.760331787109376,-8.656130303832889,-4.570573347075284,0.5930017679359764
1633781559963210800,18.780210693359376,-8.654503579413891,-4.57373151884526,0.5924015370205045
1633781559983089700,18.800089599609375,-8.652026375645399,-4.578316800808906,0.593157944878377
1633781560002968800,18.81996875,-8.649678935736418,-4.5824271587371825,0.5956498712919652
1633781560022847700,18.83984765625,-8.647676948264241,-4.585404128721356,0.6017779257182031
1633781560042726700,18.8597265625,-8.64572172254324,-4.588071594364941,0.6094940895861014
1633781560062604500,18.8796044921875,-8.64307208481729,-4.5922141009971496,0.6158466369505972
1633781560082483700,18.899483642578126,-8.64070301759839,-4.596015831367671,0.6207060596805065
1633781560102362600,18.919362548828126,-8.639238790264725,-4.598212464629113,0.6248045079752802
1633781560122241800,18.93924169921875,-8.638902690178156,-4.598420262160897,0.6279123377975077
1633781560142121000,18.959120849609373,-8.640542858600616,-4.595649628403782,0.6256267841435968
1633781560161999600,18.97899951171875,-8.645202667105197,-4.587629403555393,0.620085881955549
1633781560181878800,18.998878662109377,-8.650824598640202,-4.5774233591005205,0.6170986828383058
1633781560201757700,19.0187578125,-8.65448662827909,-4.571007646839321,0.613297902315855
1633781560221636900,19.038636962890624,-8.656739960163831,-4.5678298935860395,0.6051144131971523
1633781560241514800,19.0585146484375,-8.657287072652577,-4.567727017733454,0.5980248202623799
1633781560261393700,19.0783935546875,-8.65498814806044,-4.5726519069150084,0.5936527791906148
1633781560281272600,19.0982724609375,-8.650601895800232,-4.58130458444804,0.5908622351566329
1633781560301151700,19.11815185546875,-8.645144214916229,-4.591740638266503,0.5897311487674712
1633781560321031000,19.138031005859375,-8.640787773272395,-4.600038803273439,0.588907922751084
1633781560340909800,19.157909912109375,-8.638276667234301,-4.604511857034265,0.5907910696165636
1633781560360788700,19.177788818359375,-8.637517373299598,-4.605338370986282,0.5954293604090809
1633781560380667600,19.197667724609374,-8.63768337751627,-4.604392906829714,0.6003162191351875
1633781560400546800,19.217546875,-8.637094179451465,-4.604800026325881,0.6056426017897203
1633781560420424700,19.2374248046875,-8.63501678865552,-4.608030971071124,0.6106730337049812
1633781560440303900,19.257303955078125,-8.632707927191257,-4.612001043745875,0.6133387457828968
1633781560460182800,19.277182861328125,-8.631214473763107,-4.614842112390697,0.6129889824971556
1633781560480061700,19.297061767578125,-8.629523451936244,-4.61857574596107,0.6086601229799911
1633781560499940600,19.316940673828125,-8.628836638715862,-4.6207688720911735,0.60171512614768
1633781560519819800,19.33681982421875,-8.629860136544703,-4.619719363038241,0.5950593580529093
1633781560539699000,19.356698974609376,-8.63100579944849,-4.618040031649172,0.5914604933107271
1633781560559577600,19.37657763671875,-8.631232009419799,-4.617985963374376,0.5885726263821125
1633781560579456800,19.396456787109376,-8.629747323819995,-4.621242919343709,0.5847732340991497
1633781560599335700,19.416335693359375,-8.6263974288702,-4.627838956607878,0.582028501968272
1633781560619213800,19.4362138671875,-8.621635329034923,-4.636782433781027,0.5814056573621929
1633781560639092700,19.4560927734375,-8.617152630662918,-4.6449683705851434,0.5825196464860811
1633781560658972000,19.475971923828126,-8.614148772671818,-4.65021503906697,0.5850877799410372
1633781560678850600,19.4958505859375,-8.613002525246143,-4.652218487843871,0.5860302849555388
1633781560698729700,19.515729736328126,-8.61410610257387,-4.6503833813712,0.5843724712785333
1633781560718609000,19.53560888671875,-8.616408534297346,-4.646060549736022,0.5848172924365848
1633781560738487800,19.55548779296875,-8.616937526607513,-4.645194580556452,0.5838980952324345
1633781560758366500,19.575366455078125,-8.615164087194204,-4.649544300198555,0.5753922788241878
1633781560778245400,19.595245361328125,-8.615009773415327,-4.651269516555964,0.5636335615672171
1633781560798124500,19.61512451171875,-8.617276549303531,-4.648057861033082,0.5554194946471601
1633781560818002400,19.63500244140625,-8.619674842616915,-4.6443569606885315,0.549119809981063
1633781560837881600,19.654881591796876,-8.622962193724513,-4.639412490023672,0.5392195070071145
1633781560857760500,19.674760498046876,-8.626018658685684,-4.634546345292032,0.5321363803457468
1633781560877639400,19.694639404296876,-8.627304606842994,-4.6322857068836685,0.5309774561015889
1633781560897518300,19.714518310546875,-8.62690420934856,-4.633078026305139,0.5305659892238677
1633781560917397500,19.7343974609375,-8.625892986479402,-4.635377535419166,0.5269058958137408
1633781560937276400,19.7542763671875,-8.624800515067577,-4.637491166572272,0.526193071369268
1633781560957155600,19.774155517578127,-8.62402894617319,-4.638509988225996,0.5298464062450453
1633781560977034500,19.794034423828126,-8.624260416841507,-4.6378307737901805,0.5320205354137346
1633781560996913400,19.813913330078126,-8.625107973581551,-4.636113448478281,0.5332412363151088
1633781561016791300,19.833791259765626,-8.624752584272622,-4.636489588314294,0.5357149329522625
1633781561036670500,19.85367041015625,-8.622609727025031,-4.640145772734284,0.5385508870305493
1633781561056549600,19.873549560546873,-8.619286720082163,-4.646255780047178,0.5390613938359543
1633781561076428300,19.89342822265625,-8.61684809475839,-4.651055289283395,0.5366579128907993
1633781561096307500,19.913307373046877,-8.617788590478897,-4.6496918919757,0.5333598577260971
1633781561116186400,19.933186279296876,-8.621882581794262,-4.642331592340767,0.5312990892713889
1633781561136065500,19.9530654296875,-8.626893687954544,-4.633302774971724,0.5287724203379824
1633781561155944400,19.9729443359375,-8.629635095617175,-4.628341937693953,0.5274799693746492
1633781561175823400,19.9928232421875,-8.627242063000798,-4.6327007174253465,0.5283578481877222
1633781561195702500,20.01270263671875,-8.62013193873465,-4.6455032081142065,0.5319876560574397
1633781561215580400,20.032580322265623,-8.610134860855341,-4.663341062621772,0.5377826426044107
1633781561235459600,20.05245947265625,-8.600541103079914,-4.68029804264158,0.5439577145101502
1633781561255338500,20.07233837890625,-8.593831376308202,-4.69250432100296,0.5448446534125134
1633781561275217400,20.092217529296875,-8.592083655858039,-4.696372102347016,0.5390428352659568
1633781561295096300,20.112096435546874,-8.593594644942879,-4.69384579873979,0.5369655175352469
1633781561314975500,20.1319755859375,-8.597538414132595,-4.686904601299762,0.534460548976995
1633781561334854400,20.1518544921875,-8.602495159757137,-4.678623971949517,0.5272006775092333
1633781561354733600,20.171733642578126,-8.607131002864241,-4.671077794353663,0.5183731548659504
1633781561374612500,20.191612548828125,-8.608882230445742,-4.668705512264371,0.5106122385408729
1633781561394491400,20.211491455078125,-8.60705676858425,-4.672809732712805,0.503793133110553
1633781561414369300,20.231369384765625,-8.6032339954257,-4.6802147482722996,0.5003400335146114
1633781561434248400,20.25124853515625,-8.599099672099948,-4.688082412907481,0.49775286656562234
1633781561454127600,20.271127685546876,-8.596030932179092,-4.694271038414538,0.49239535812046376
1633781561474006500,20.291006591796876,-8.595518306481837,-4.695471646375954,0.4898922892583534
1633781561493885400,20.310885498046876,-8.596939279195666,-4.692499352566897,0.4934244819724932
1633781561513764400,20.330764404296875,-8.597299929201602,-4.691210189539194,0.49936293211076405
1633781561533643500,20.3506435546875,-8.594429926723242,-4.696155244725943,0.5022819248300046
1633781561553522400,20.3705224609375,-8.588044025078416,-4.708029806914925,0.5003471208425239
1633781561573401300,20.3904013671875,-8.580464529734849,-4.722091065493226,0.4978656792903319
1633781561593280500,20.410280517578126,-8.573242177265882,-4.735229656268656,0.4974930831182748
1633781561613158400,20.430158447265626,-8.567601541030406,-4.745402382975817,0.49774322195444254
1633781561633037600,20.45003759765625,-8.565761466121673,-4.749188915777206,0.4932797762721777
1633781561652916500,20.46991650390625,-8.568292445904016,-4.745456743511557,0.4851689139982685
1633781561672795600,20.489795654296874,-8.573422794529796,-4.736610881493985,0.4809667861333117
1633781561692674300,20.50967431640625,-8.579110777038336,-4.726428510175645,0.4797072875915095
1633781561712553500,20.529553466796877,-8.584329972991346,-4.717616550427675,0.4730353720795363
1633781561732432400,20.549432373046876,-8.588830791541934,-4.710655186982453,0.46053993804585186
1633781561752311800,20.569311767578125,-8.592553026935457,-4.704631981170177,0.4526140038847923
1633781561772190700,20.589190673828124,-8.592609141036867,-4.7046875107496975,0.45096240075286476
1633781561792069600,20.609069580078124,-8.58783009006679,-4.713909804864228,0.4456618466593325
1633781561811947800,20.62894775390625,-8.574792329317331,-4.738166586503386,0.4394348984358832
1633781561831826700,20.64882666015625,-8.541983700171112,-4.79715916595906,0.43836869397647676
1633781561851705900,20.668705810546875,-8.498435650345682,-4.874531743974983,0.4311804995054379
1633781561871584800,20.688584716796875,-8.46895353527367,-4.92658078790307,0.419540951648727
1633781561891463700,20.708463623046875,-8.47523948367536,-4.914529700103402,0.43370179814398285
1633781561911342600,20.728342529296874,-8.502741823107003,-4.863560852627456,0.4685519795877859
