time,seconds_elapsed,z,y,x
1633779581501605000,0.027605224609375,-8.479729780831933,-4.620653429017961,-1.7070822964347898
1633779581521485000,0.047485107421875,-8.477614396113157,-4.621710536855459,-1.7147088457904756
1633779581541364000,0.067364013671875,-8.484839086669682,-4.604807625110447,-1.724423453466594
1633779581561244000,0.087243896484375,-8.499042968589068,-4.573595032984018,-1.7374911709628997
1633779581581124000,0.1071240234375,-8.514961837732791,-4.537228711356223,-1.7548136232942342
1633779581601003000,0.1270029296875,-8.528219963234662,-4.504479411181808,-1.774686636891216
1633779581620883000,0.146883056640625,-8.541269414421915,-4.471590118014812,-1.7949882511638104
1633779581640762000,0.16676220703125,-8.554585407590865,-4.437896814988553,-1.8150803143389522
1633779581660641800,0.186641845703125,-8.565309630700945,-4.409249981696903,-1.8342222371824084
1633779581680521000,0.20652099609375,-8.569951903548835,-4.394449595189094,-1.848005555602163
1633779581700401200,0.226401123046875,-8.569117206290363,-4.388867995664477,-1.8650598585166036
1633779581720281000,0.246281005859375,-8.574361536684632,-4.368115130493044,-1.8895181540772317
1633779581740160000,0.266159912109375,-8.58094968290329,-4.339303754289448,-1.9256508130796253
1633779581760040000,0.2860400390625,-8.570545193266868,-4.342156513372063,-1.9651507565580306
1633779581779918800,0.3059189453125,-8.538784027346969,-4.396764594133198,-1.9819228815302252
1633779581799799000,0.325799072265625,-8.506490361985565,-4.467003374746442,-1.9636418132998048
1633779581819679000,0.345678955078125,-8.48607593498826,-4.529945276349783,-1.9069586798302829
1633779581839558100,0.36555810546875,-8.473535017845034,-4.581596260870993,-1.8380854884818196
1633779581859437800,0.385437744140625,-8.47710527754724,-4.591595092315972,-1.7961971885621546
1633779581879317000,0.40531689453125,-8.502429103896022,-4.525248350705206,-1.844236266196519
1633779581899197200,0.425197265625,-8.57270733973682,-4.3713849459439515,-1.8894623322367667
1633779581919075800,0.445075927734375,-8.691458222323655,-4.157355534033477,-1.8290267143659293
1633779581938956000,0.4649560546875,-8.827212262159586,-3.943916781492531,-1.6420182881109415
1633779581958836000,0.4848359375,-8.96607128227353,-3.7237168642535803,-1.3834303341582417
1633779581978715000,0.50471484375,-9.087045101606845,-3.5108027201086283,-1.1270572067108005
1633779581998595000,0.524594970703125,-9.188288969075678,-3.3118788151323795,-0.8815803710047155
1633779582018474000,0.544473876953125,-9.258963510757685,-3.154990801852941,-0.6985740199979394
1633779582038354000,0.56435400390625,-9.294055282405019,-3.0773765240356323,-0.5662752351824194
1633779582058233000,0.584233154296875,-9.294968305596708,-3.094121030348539,-0.44762277146875856
1633779582078113000,0.604113037109375,-9.267555398014187,-3.1864179135128854,-0.35992059568352996
1633779582097993200,0.6239931640625,-9.224106716910004,-3.314281784620881,-0.31901604610420764
1633779582117871900,0.643871826171875,-9.182229815167188,-3.4289804692074655,-0.31484588428009297
1633779582137752000,0.663751953125,-9.158698717454076,-3.4906410988286134,-0.3225601849844679
1633779582157631000,0.683630859375,-9.15577961513698,-3.4990859788298603,-0.31381807560231534
1633779582177511000,0.703510986328125,-9.164349290561676,-3.4790801326334475,-0.28476755688060074
1633779582197390300,0.723390380859375,-9.1746345377326,-3.4566569961622355,-0.21905361501434817
1633779582217270300,0.743270263671875,-9.172259040772914,-3.465604857249558,-0.1721228091491386
1633779582237150200,0.763150146484375,-9.155877814814447,-3.5084514808073637,-0.17620817876663059
1633779582257029400,0.783029296875,-9.124418846711515,-3.587152677078545,-0.21839409165969118
1633779582276909300,0.802909423828125,-9.080512484967707,-3.6943452238187193,-0.25787021587109193
1633779582296788200,0.822788330078125,-9.032954614979028,-3.808198689752817,-0.2715554076786153
1633779582316668200,0.842668212890625,-8.995374533647299,-3.896577522690594,-0.265156208160799
1633779582336547300,0.86254736328125,-8.981599106273055,-3.927704482360184,-0.27276445467481386
1633779582356427300,0.88242724609375,-8.991384002706408,-3.9018402655243873,-0.31785927728451785
1633779582376307200,0.90230712890625,-9.00958367626369,-3.8559827697128055,-0.35942349634896964
1633779582396186400,0.922186279296875,-9.029714025622606,-3.8070691012009976,-0.3753373239913955
1633779582416066000,0.942066162109375,-9.055788378077745,-3.7427030120134352,-0.39402430614158507
1633779582435945200,0.9619453125,-9.085127869808673,-3.6672795222386716,-0.4264894190797582
1633779582455825400,0.981825439453125,-9.109224784711003,-3.6024279876217244,-0.46360210209544744
1633779582475704300,1.001704345703125,-9.122964556249975,-3.5586934753134845,-0.5268824418729171
1633779582495584300,1.021584228515625,-9.128545571252703,-3.525038166210055,-0.6435456679981202
1633779582515463400,1.04146337890625,-9.130710055810212,-3.487603923089802,-0.7982073835302144
1633779582535343000,1.061343017578125,-9.133248049855231,-3.4436429085493088,-0.9463048451758921
1633779582555223300,1.081223388671875,-9.139099698492885,-3.3986887913182375,-1.0469729585833847
1633779582575102200,1.101102294921875,-9.145508981013297,-3.3689024326026438,-1.0865302582722156
1633779582594982400,1.120982421875,-9.146655228438973,-3.3692700968712566,-1.0756853313919157
1633779582614861300,1.140861328125,-9.1397222143054,-3.396590065473318,-1.0483497998945415
1633779582634741200,1.1607412109375,-9.127475896194577,-3.433247186741233,-1.0355606070786714
1633779582654620200,1.1806201171875,-9.115269325572251,-3.46283042410016,-1.0445352100424468
1633779582674500400,1.200500244140625,-9.10370865163803,-3.4888811034187674,-1.0585736722670496
1633779582694380300,1.22038037109375,-9.08270736466348,-3.53866161789298,-1.0736325635805726
1633779582714259500,1.240259521484375,-9.039519964843988,-3.646609659175575,-1.0768925152245907
1633779582734139100,1.26013916015625,-8.969029547557234,-3.8155247948572035,-1.0810486119907348
1633779582754018300,1.280018310546875,-8.880627626004815,-4.01383787445873,-1.0926792824212461
1633779582773898200,1.299898193359375,-8.794298419073224,-4.198385755819082,-1.0973844644375146
1633779582793777200,1.319777099609375,-8.72472394758761,-4.340725019264221,-1.0989476221010088
1633779582813657300,1.3396572265625,-8.673890416929126,-4.438903653943538,-1.1091163302201776
1633779582833537300,1.359537353515625,-8.63242384955287,-4.512608357101678,-1.1349042669493705
1633779582853416200,1.379416259765625,-8.589406545603275,-4.588063118797541,-1.1585147865742444
1633779582873296400,1.39929638671875,-8.547596279355883,-4.668702589654922,-1.1455093937244265
1633779582893175300,1.41917529296875,-8.513596394598483,-4.743260110250115,-1.0911195588238536
1633779582913055200,1.43905517578125,-8.494269762837886,-4.795400047332048,-1.0108958291605115
1633779582932935200,1.45893505859375,-8.50047329365313,-4.802132862718403,-0.9229653975773602
1633779582952814300,1.478814453125,-8.534908062696456,-4.754751226079463,-0.8473881785456091
1633779582972694300,1.4986943359375,-8.596086461758613,-4.651926811420918,-0.7982816178102046
1633779582992573200,1.5185732421875,-8.688938932979106,-4.468495951391756,-0.8397996961779892
1633779583012453400,1.538453369140625,-8.797796782582997,-4.230882542537152,-0.9320906610582024
1633779583032332300,1.558332275390625,-8.89250043462813,-4.022364295263588,-0.9562477817151694
1633779583052212200,1.578212158203125,-8.957052109515667,-3.9047432934895157,-0.8334157672945409
1633779583072091400,1.59809130859375,-8.989005583137272,-3.8683793099492787,-0.6354546429358422
1633779583091971000,1.61797119140625,-9.000301468655467,-3.862761177806556,-0.4939981536746025
1633779583111851300,1.637851318359375,-9.006494478076696,-3.851163094471395,-0.471152700138092
1633779583131730400,1.65773046875,-9.008162119027972,-3.83780998416245,-0.5427873920891434
1633779583151610400,1.6776103515625,-8.99350581716597,-3.8588136092245575,-0.6299144714001566
1633779583171489300,1.6974892578125,-8.956314442890882,-3.937473596702516,-0.6716532067812979
1633779583191372500,1.71737255859375,-8.905439995700121,-4.05227661844641,-0.6652650401141494
1633779583211251700,1.737251708984375,-8.855143640658259,-4.163171819096803,-0.6517782204229384
1633779583231131600,1.757131591796875,-8.814463839745521,-4.247276920238137,-0.6604879619054496
1633779583251011600,1.777011474609375,-8.78067321382463,-4.313582745316625,-0.6805674578599631
1633779583270890800,1.796890869140625,-8.748559581205248,-4.377034934529662,-0.6889480404533446
1633779583290770400,1.8167705078125,-8.714057007622719,-4.44630370106697,-0.6826284089777618
1633779583310649600,1.836649658203125,-8.680379778948426,-4.5130949715748425,-0.6733233319506049
1633779583330529800,1.85652978515625,-8.64984143282175,-4.570885189503431,-0.6764866182871162
1633779583350408400,1.876408447265625,-8.622838275083899,-4.6203886406019326,-0.6848722423817962
1633779583370288600,1.89628857421875,-8.600300280061363,-4.663982575395703,-0.6726699826084077
1633779583390168600,1.91616845703125,-8.577056182596086,-4.71374760003984,-0.6205462660089135
1633779583410047500,1.936047607421875,-8.551246618556975,-4.768815407267213,-0.5522371382839978
1633779583429927700,1.955927734375,-8.527752930244803,-4.811176000873744,-0.5480926223577931
1633779583449806600,1.975806640625,-8.512920102772116,-4.82593576311022,-0.6410297396544367
1633779583469686800,1.995686767578125,-8.51371505254209,-4.799532617092132,-0.8071728533394634
1633779583489565700,2.015565673828125,-8.533443835362792,-4.732201540619134,-0.9782563460361212
1633779583509445600,2.035445556640625,-8.571696116867662,-4.6342327492982145,-1.104673744662851
1633779583529325800,2.055325927734375,-8.625623521888256,-4.51038600487709,-1.1939102173432707
1633779583549204500,2.07520458984375,-8.686309168997406,-4.3703173167124385,-1.2722975253596902
1633779583569084700,2.095084716796875,-8.743937766623496,-4.238852498503029,-1.3213862581774591
1633779583588963800,2.1149638671875,-8.794293742898105,-4.136156386399269,-1.3126274899214505
1633779583608843500,2.134843505859375,-8.835368096086382,-4.066020773899555,-1.2546452565521
1633779583628722700,2.15472265625,-8.86571822616458,-4.0233012838527555,-1.1757877737406641
1633779583648602600,2.1746025390625,-8.887631367287039,-3.9954271884992716,-1.1031555951848626
1633779583668482600,2.194482666015625,-8.903998564720153,-3.9679228032410143,-1.0699456186961382
1633779583688361700,2.21436181640625,-8.91394595823884,-3.940872006969154,-1.086959443469718
1633779583708241700,2.23424169921875,-8.9123782705307,-3.932025852690637,-1.1309612284120172
1633779583728120600,2.25412060546875,-8.891070694085956,-3.9675042855679985,-1.1739473335057495
1633779583748000500,2.27400048828125,-8.845929237589239,-4.056429646472632,-1.2104947107888757
1633779583767879700,2.293879638671875,-8.782884460133314,-4.182146568679809,-1.2413586356081068
1633779583787759600,2.313759521484375,-8.717677536207438,-4.309043932843208,-1.2667362379707394
1633779583807639600,2.3336396484375,-8.669504164668917,-4.399230107463896,-1.2871912892393766
1633779583827518700,2.353518798828125,-8.641138486406206,-4.453827666831017,-1.290168113093078
1633779583847398700,2.373398681640625,-8.6198344170928,-4.5015889504373074,-1.266702774092555
1633779583867277600,2.393277587890625,-8.596160111516713,-4.562618296417594,-1.2078614396758376
1633779583887157800,2.41315771484375,-8.579291978824138,-4.616161962817609,-1.1212398987341672
1633779583907036400,2.433036376953125,-8.595150057691335,-4.606217491908371,-1.0375625214856117
1633779583926916600,2.45291650390625,-8.657724879547953,-4.496817790512741,-0.9963983711220323
1633779583946796500,2.472796630859375,-8.74497646202147,-4.332849755844474,-0.9603040713686496
1633779583966675700,2.49267578125,-8.821162460601329,-4.197089286267757,-0.861348753228411
1633779583986555600,2.5125556640625,-8.872717291271686,-4.11092988294512,-0.7385976220242678
1633779584006434600,2.5324345703125,-8.917157321500778,-4.02805724620819,-0.6553258299019187
1633779584026314800,2.552314697265625,-8.977477057906984,-3.899884163020551,-0.6051418126607313
1633779584046193700,2.572193603515625,-9.052603902822732,-3.7318569160893555,-0.5422049890913069
1633779584066073600,2.592073486328125,-9.122209938490391,-3.569899636721611,-0.4598751905268058
1633779584085953800,2.611953857421875,-9.171250155991315,-3.4497950014382597,-0.3968301938751712
1633779584105832700,2.631832763671875,-9.193366710731386,-3.3920173507302995,-0.38288978519756345
1633779584125712600,2.651712646484375,-9.189440477198362,-3.398613387994468,-0.4171312601584941
1633779584145591800,2.671591796875,-9.167153242066503,-3.4522760045990344,-0.46419192121475933
1633779584165471500,2.691471435546875,-9.138229345399141,-3.525013908551633,-0.4872657401470467
1633779584185347000,2.71134716796875,-9.11072291431427,-3.596665770833194,-0.47865390608105807
1633779584205227300,2.731227294921875,-9.087135117977857,-3.6596012426957487,-0.4490909077925607
1633779584225107200,2.751107177734375,-9.064673110800982,-3.7185315705701707,-0.41785793046522884
1633779584244986000,2.770986083984375,-9.03998349070251,-3.7799496236070986,-0.40133532327469434
1633779584264866000,2.790865966796875,-9.013027679237723,-3.8452284437254067,-0.3872202521499246
1633779584284745200,2.8107451171875,-8.986521949627996,-3.910580329079926,-0.3466562231039628
1633779584304625200,2.830625244140625,-8.96606952870786,-3.9628760412454604,-0.27493752439757807
1633779584324504000,2.850504150390625,-8.960700110629201,-3.979076649940014,-0.20782449285574256
1633779584344384300,2.87038427734375,-8.970214373427629,-3.9588156599387525,-0.18280543987350537
1633779584364264200,2.89026416015625,-8.978563099578022,-3.9385166760146615,-0.209449719437398
1633779584384143000,2.91014306640625,-8.968230506134033,-3.9610421038165686,-0.22665764201097188
1633779584404023300,2.930023193359375,-8.937364243227243,-4.032685490530729,-0.17708211205694824
1633779584423902000,2.94990185546875,-8.900863773825764,-4.114704725308716,-0.11920685532656497
1633779584443782100,2.9697822265625,-8.882470623522996,-4.152422461545467,-0.171738248544652
1633779584463661300,2.989661376953125,-8.899868333047628,-4.106104947006703,-0.32035818142816425
1633779584483541200,3.009541259765625,-8.941904809266328,-4.002914037123322,-0.43520975502151993
1633779584503421200,3.029421142578125,-8.983268500789999,-3.904796484981477,-0.47311128685995935
1633779584523300000,3.049300048828125,-9.003978111341596,-3.8532878315404053,-0.5009324464498087
1633779584543180300,3.06918017578125,-9.004989334210753,-3.839740659964084,-0.580465088576451
1633779584563059200,3.08905908203125,-8.998564854121208,-3.8435882753029462,-0.6504148961804807
1633779584582939100,3.108939208984375,-8.992402239838242,-3.8578219678387042,-0.6513813300598412
1633779584602818300,3.128818359375,-8.992136866900324,-3.8688510191142558,-0.5863863318515942
1633779584622698000,3.148697998046875,-9.002393472498655,-3.858014567801356,-0.4929748385088518
1633779584642578200,3.168578125,-9.01999050398767,-3.8247602407142516,-0.4258746847148984
1633779584662457300,3.188457275390625,-9.033079118141531,-3.7939734727844594,-0.42383382653705776
1633779584682337000,3.2083369140625,-9.031173576781153,-3.792899706073105,-0.47137708347849544
1633779584702216200,3.22821630859375,-9.015370442971587,-3.8216426932156082,-0.537144746559672
1633779584722096000,3.24809619140625,-8.995011545553803,-3.86134517352879,-0.5917469090366736
1633779584741975000,3.26797509765625,-8.968592909705638,-3.914347280398011,-0.6423489324942231
1633779584761855200,3.287855224609375,-8.92735489038825,-3.9995860617443917,-0.6899488880589604
1633779584781735200,3.307735107421875,-8.878673569327592,-4.099649194996059,-0.7296675157893449
1633779584801614000,3.327614013671875,-8.838881657165288,-4.17538452719897,-0.7814867695495485
1633779584821494000,3.347493896484375,-8.815764985471963,-4.2094478325814,-0.8562861360765993
1633779584841373200,3.367373291015625,-8.807373589223623,-4.214736878900229,-0.9146342801488936
1633779584861253400,3.38725341796875,-8.808377797830104,-4.21396209513545,-0.9085074678316711
1633779584881132000,3.407132080078125,-8.810734005567431,-4.222700112864375,-0.8427079117748886
1633779584901012200,3.42701220703125,-8.81767403396368,-4.2217797831490635,-0.7717411822132766
1633779584920892200,3.44689208984375,-8.844578407502174,-4.169527910125256,-0.7475643339425325
1633779584940771000,3.46677099609375,-8.892803216966986,-4.065875227949023,-0.7463911985099315
1633779584960651300,3.4866513671875,-8.94897109439075,-3.9494101182118055,-0.6988990872338414
1633779584980530200,3.5065302734375,-9.007874534258246,-3.825336579297483,-0.6287937237419188
1633779585000410000,3.52641015625,-9.075090459918975,-3.6671672940358517,-0.604151559514366
1633779585020289300,3.546289306640625,-9.141115714490413,-3.4972245688721535,-0.6162851744983345
1633779585040169200,3.566169189453125,-9.191575151139498,-3.3607676414638754,-0.6249542917095124
1633779585060049200,3.586049072265625,-9.227665286174416,-3.2559523452490566,-0.6475775538627058
1633779585079928000,3.605927978515625,-9.256835851079225,-3.1579099041700363,-0.7134262828234583
1633779585099808300,3.625808349609375,-9.278290142518282,-3.070008041094243,-0.8116474414702505
1633779585119687200,3.645687255859375,-9.283397110268472,-3.025959348270297,-0.9124100282281636
1633779585139567000,3.665567138671875,-9.270172302514315,-3.0481422462448475,-0.9711396458987146
1633779585159446300,3.6854462890625,-9.244100872668623,-3.12202932023257,-0.9848437616024166
1633779585179326000,3.705325927734375,-9.213830237567425,-3.2155922778099773,-0.9673092739555984
1633779585199206000,3.725205810546875,-9.185510736533999,-3.3059818660482763,-0.9312688963465392
1633779585219085000,3.7450849609375,-9.160916978025435,-3.3868972312375902,-0.8814274454653263
1633779585238965000,3.764965087890625,-9.138421068578959,-3.4624501926109192,-0.8191938382618129
1633779585258844000,3.784843994140625,-9.114480221021175,-3.5397222328618168,-0.752996661189571
1633779585278723800,3.804723876953125,-9.083662473431229,-3.630471302062273,-0.6907492446564137
1633779585298602800,3.824602783203125,-9.04791019204855,-3.727712655891478,-0.6402035910286009
1633779585318483000,3.84448291015625,-9.017616760593652,-3.8074443642541764,-0.5969398745698854
1633779585338363000,3.86436279296875,-8.999197306805849,-3.858580969512462,-0.5442226855892688
1633779585358242000,3.884241943359375,-8.988833733701705,-3.8912484366223214,-0.4789931479727849
1633779585378121700,3.904121826171875,-8.975784867036342,-3.92944694211334,-0.40635121520794926
1633779585398001000,3.9240009765625,-8.94986424383819,-3.994962493596971,-0.3325421018272638
1633779585417881000,3.943881103515625,-8.90939428628385,-4.090445313321053,-0.2476531202992424
1633779585437760000,3.963760009765625,-8.867378852853179,-4.1844016541302205,-0.1753896837242879
1633779585457640000,3.983639892578125,-8.84040725929737,-4.2418139786571265,-0.15684802832892164
1633779585477520000,4.003519775390625,-8.830696597144007,-4.2598406337350605,-0.20722128453189506
1633779585497398800,4.023398681640625,-8.82863908009231,-4.258171531479061,-0.3057606240160763
1633779585517279000,4.043279052734375,-8.82940363472402,-4.246215428486466,-0.42622872231695796
1633779585537158000,4.063157958984375,-8.832477635341883,-4.22377154148817,-0.5634534192273393
1633779585557037800,4.083037841796875,-8.842617336562276,-4.185314385060966,-0.679446929397434
1633779585576917000,4.1029169921875,-8.88067438775599,-4.093874703247845,-0.7376971660532057
1633779585596797000,4.122796875,-8.945179885414243,-3.954496627695858,-0.7183972031038254
1633779585616677000,4.142677001953125,-9.00921192034185,-3.8207597729012366,-0.6373973014362156
1633779585636556000,4.16255615234375,-9.050589640390873,-3.736817753367126,-0.541673037639074
1633779585656436000,4.18243603515625,-9.06586904258728,-3.7085841770514842,-0.4762374195238575
1633779585676315000,4.20231494140625,-9.062052699169517,-3.7198072895944114,-0.46110301528871056
1633779585696194800,4.22219482421875,-9.046422583839297,-3.7538159421801565,-0.4914179279230535
1633779585716074000,4.242073974609375,-9.023055736777186,-3.802879832817614,-0.5412512320304289
1633779585735954000,4.261953857421875,-8.992110563415288,-3.8689325599178668,-0.5862557642744853
1633779585755833900,4.281833740234375,-8.9488945220232,-3.9638808343738314,-0.6126322414813563
1633779585775713000,4.301713134765625,-8.891199873423576,-4.089689526517689,-0.6256127556182444
1633779585795593000,4.321593017578125,-8.827369498547911,-4.223860973337293,-0.6379136534605175
1633779585815471900,4.341471923828125,-8.772599797484277,-4.332927789516747,-0.6615223464544863
1633779585835352000,4.36135205078125,-8.736901876637338,-4.400861215797066,-0.6850901959814131
1633779585855231000,4.38123095703125,-8.720330096542835,-4.432391787831485,-0.6929160673014819
1633779585875111000,4.40111083984375,-8.72075212134719,-4.434653887544572,-0.6728400784783065
1633779585894990800,4.420990966796875,-8.738619786471128,-4.407180481946468,-0.6194082018896937
1633779585914870000,4.4408701171875,-8.77196091505885,-4.349936791984737,-0.5487612423343584
1633779585934750000,4.46075,-8.816243124377728,-4.266781831175089,-0.48868682245872913
1633779585954628900,4.48062890625,-8.87280438503325,-4.153477815817296,-0.4385821540640667
1633779585974509000,4.500509033203125,-8.92787628391385,-4.0422658043026924,-0.35142190313581373
1633779585994388000,4.520387939453125,-8.969618161100149,-3.9588495622083544,-0.20938403379004447
1633779586014268000,4.540267822265625,-9.003593495938182,-3.885139013831317,-0.10670253473352641
1633779586034148000,4.560148193359375,-9.042624945122004,-3.7904876764953133,-0.1830726577086374
1633779586054026800,4.58002685546875,-9.076990740582346,-3.688974344435334,-0.4124217307606712
1633779586073907000,4.599906982421875,-9.093231096765399,-3.615037878347933,-0.6442291932828724
1633779586093786000,4.6197861328125,-9.093382487934827,-3.586531038048863,-0.785858554892987
1633779586113665800,4.639665771484375,-9.0853020573318,-3.593340718063712,-0.8459150372531264
1633779586133545000,4.659544921875,-9.071322047296166,-3.6184330737441774,-0.8879430379044264
1633779586153425000,4.6794248046875,-9.046875588303804,-3.662922203812003,-0.9525889669466763
1633779586173305000,4.69930517578125,-9.006474604332446,-3.737367496204376,-1.0420583716001361
1633779586193184300,4.719184326171875,-8.954355125516653,-3.83219565141201,-1.1420111763451248
1633779586213064200,4.739064208984375,-8.898571863496302,-3.931863355605304,-1.2354175551213324
1633779586232943400,4.758943359375,-8.844322386914492,-4.029299647484719,-1.30885177077502
1633779586252823300,4.7788232421875,-8.797469450324773,-4.117909658829868,-1.3482327640488743
1633779586272702200,4.7987021484375,-8.764227690458297,-4.189413344812393,-1.3444376095496118
1633779586292582400,4.81858251953125,-8.747118150225281,-4.2367604946598405,-1.3069685873769223
1633779586312462300,4.83846240234375,-8.737901409068703,-4.267814681354165,-1.266971361900866
1633779586332341200,4.85834130859375,-8.724507089966535,-4.30187886351943,-1.2438659422539173
1633779586352221200,4.87822119140625,-8.705963717538118,-4.347456373345851,-1.2149918030124156
1633779586372100400,4.898100341796875,-8.691714827433229,-4.38968223465681,-1.1641175019521266
1633779586391980300,4.917980224609375,-8.691215061217546,-4.397349408283829,-1.1386320553008467
1633779586411859200,4.937859130859375,-8.702949338153005,-4.3678257921576495,-1.162392431725189
1633779586431739400,4.957739501953125,-8.717272462537885,-4.327522131080925,-1.2050284812722354
1633779586451619300,4.977619384765625,-8.726414969414472,-4.29863359798789,-1.2416992657393215
1633779586471498200,4.997498291015625,-8.727308703383803,-4.276827716632187,-1.3088980941347776
1633779586491378400,5.01737841796875,-8.720513051894306,-4.249220455521345,-1.4377623744569719
1633779586511257000,5.037257080078125,-8.71352918435633,-4.208338994556665,-1.5920654858097434
1633779586531137300,5.05713720703125,-8.719856049290298,-4.144830691242218,-1.7189754171937703
1633779586551016400,5.077016357421875,-8.751452380037307,-4.047963431422412,-1.7878651212856171
1633779586570896100,5.096896240234375,-8.80336961427927,-3.9267505426362153,-1.8032465225517749
1633779586590776300,5.1167763671875,-8.85806858819425,-3.8145840068757533,-1.775938828909397
1633779586610655200,5.1366552734375,-8.901476937288045,-3.74213485673666,-1.7118774217568338
1633779586630535400,5.156535400390625,-8.930306141409277,-3.713929629732668,-1.6207253247134386
1633779586650414300,5.176414306640625,-8.946012829107046,-3.7107901626631614,-1.5392428271606564
1633779586670294300,5.196294189453125,-8.945171117585897,-3.7283717043220994,-1.5011800768785177
1633779586690173200,5.216173095703125,-8.920904691335558,-3.7767280312120914,-1.5245235430650412
1633779586710053000,5.23605322265625,-8.87467076342702,-3.858186417236924,-1.5890252413310109
1633779586729933300,5.255933349609375,-8.813796900269388,-3.9625881642147895,-1.6689111173421143
1633779586749812500,5.2758125,-8.75193227250874,-4.054145627188682,-1.7714308499656617
1633779586769692200,5.295692138671875,-8.70661136779189,-4.101480794337392,-1.8823280964426696
1633779586789571300,5.3155712890625,-8.6849606769979,-4.105389784474671,-1.9717028085500001
1633779586809451300,5.335451171875,-8.684488967832923,-4.091606173793972,-2.002197900056839
1633779586829330200,5.355330078125,-8.69495717035532,-4.098005811703205,-1.942796301408857
1633779586849210400,5.37521044921875,-8.698114757603406,-4.138768614724278,-1.8395036847166717
1633779586869090300,5.39509033203125,-8.680428294265269,-4.201250205339491,-1.7804637589879333
1633779586888969200,5.41496923828125,-8.656616626045107,-4.2583106476888055,-1.7607281080350279
1633779586908849200,5.43484912109375,-8.650757963144779,-4.2853009459450835,-1.7236489619627593
1633779586928728300,5.454728271484375,-8.671769186991453,-4.283235245586932,-1.62009301815927
1633779586948608300,5.474608154296875,-8.712592195767163,-4.255098699904978,-1.4680800635702906
1633779586968487200,5.494487060546875,-8.762987919530271,-4.184756166656315,-1.3668378035366535
1633779586988367400,5.514367431640625,-8.814528721675277,-4.04239118424803,-1.4606630653120576
1633779587008247300,5.534247314453125,-8.851313853237032,-3.8776305378973484,-1.669912257208675
1633779587028126200,5.554126220703125,-8.874701158565282,-3.7491213546231386,-1.8314334832467138
1633779587048006400,5.57400634765625,-8.90264305845797,-3.6646588183462616,-1.8664412298724053
1633779587067885000,5.593885009765625,-8.940683743038774,-3.6087934310004113,-1.791971533691138
1633779587087765200,5.61376513671875,-8.973202449327706,-3.582003039230406,-1.6796657355904578
1633779587107645200,5.633645263671875,-8.983010726636648,-3.5963404844015834,-1.594441128899902
1633779587127524400,5.6535244140625,-8.963194265532493,-3.6631618577867746,-1.5533105154797433
1633779587147404300,5.673404296875,-8.920482666531205,-3.771214236226678,-1.540558585934341
1633779587167283200,5.693283203125,-8.864334662851691,-3.898660758705437,-1.5473858016058801
1633779587187166200,5.713166259765625,-8.800724068206549,-4.035386858443916,-1.5598992462202905
1633779587207045000,5.733045166015625,-8.737970967173576,-4.166988162514567,-1.5666712245732546
1633779587226925000,5.752925048828125,-8.683390066680312,-4.276768679921329,-1.5742844760559498
1633779587246805200,5.77280517578125,-8.647789176467061,-4.35242977784425,-1.562844944283366
1633779587266684400,5.792684326171875,-8.63824159592092,-4.3844381965234875,-1.5257354030728338
1633779587286564000,5.812564208984375,-8.641067174735666,-4.397322228015959,-1.4717010305464266
1633779587306443300,5.832443359375,-8.630875451067089,-4.434206728298962,-1.4199229125142097
1633779587326323200,5.8523232421875,-8.598898596569896,-4.508643252862989,-1.3789344840437172
1633779587346202000,5.8722021484375,-8.56048966319859,-4.583950130520761,-1.3695986465521155
1633779587366082300,5.892082275390625,-8.534662563502788,-4.622739587642252,-1.4000718184880911
1633779587385962200,5.911962158203125,-8.537295250093937,-4.6064536387518045,-1.4372060557484625
1633779587405841200,5.931841064453125,-8.573485922893882,-4.535661315909028,-1.446894944461435
1633779587425721000,5.95172119140625,-8.628920809867978,-4.429407803584635,-1.4465350251078606
1633779587445600300,5.971600341796875,-8.685341785269975,-4.312759738495946,-1.4612744752086697
1633779587465480200,5.991480224609375,-8.733633230230211,-4.210640841758251,-1.471236043383181
1633779587485359000,6.011359130859375,-8.77213101092875,-4.142677312600612,-1.4346858896210788
1633779587505239300,6.0312392578125,-8.800577937734127,-4.111841444832086,-1.3464657543763519
1633779587525119000,6.051118896484375,-8.818739032846688,-4.10236955987066,-1.2533113775998352
1633779587544998100,6.070998046875,-8.826241955822706,-4.103206010694802,-1.1964683043282478
1633779587564878300,6.09087841796875,-8.823998560810088,-4.1095115405797955,-1.1913646245136857
1633779587584757000,6.110757080078125,-8.809868328648806,-4.12653047991991,-1.2362662809051572
1633779587604637200,6.13063720703125,-8.779016678789258,-4.164605651292205,-1.324882721991092
1633779587624516400,6.150516357421875,-8.734134750011563,-4.222520956905186,-1.4337331189408897
1633779587644396000,6.17039599609375,-8.682381766420603,-4.293221509811282,-1.5345600761719047
1633779587664275200,6.190275146484375,-8.63154823576212,-4.365182291911542,-1.6161511486656963
1633779587684155100,6.210155029296875,-8.589319451841712,-4.4208448501616715,-1.6882266431868076
1633779587704035300,6.230035400390625,-8.559605281579493,-4.447962866450846,-1.7661173998579383
1633779587723914200,6.249914306640625,-8.539373809933663,-4.462060073125362,-1.8274305312156676
1633779587743794200,6.269794189453125,-8.525749189206957,-4.48824957639277,-1.8269100144729018
1633779587763673000,6.289673095703125,-8.523893332207203,-4.521467370861768,-1.752129060385376
1633779587783553000,6.309552978515625,-8.533783442580699,-4.539690133033693,-1.6541270974472164
1633779587803432200,6.32943212890625,-8.555065884584188,-4.524790377804637,-1.5835101311713455
1633779587823312400,6.3493125,-8.587055598562955,-4.482329830954969,-1.5302221930980682
1633779587843192000,6.369192138671875,-8.633514567399024,-4.421832692155242,-1.4422912500582634
1633779587863071200,6.3890712890625,-8.701340733912586,-4.323357997138798,-1.3287690619051455
1633779587882951200,6.408951171875,-8.795003936994075,-4.142360793997347,-1.2880746479451655
1633779587902830000,6.428830078125,-8.89186505933404,-3.9165053352147337,-1.3289485101252794
1633779587922710300,6.448710205078125,-8.961028611931205,-3.7342169232189653,-1.3877970049351454
1633779587942590200,6.468590087890625,-8.992988515293598,-3.6529654579430817,-1.3972769270725547
1633779587962469000,6.48846923828125,-8.990998218259215,-3.6791482392087578,-1.3402255448125302
1633779587982349000,6.50834912109375,-8.962776332381367,-3.771105807416141,-1.271922116176039
1633779588002228200,6.528228271484375,-8.923393585541843,-3.8734929997012015,-1.2407609619759024
1633779588022108200,6.548108154296875,-8.884412989762424,-3.9553497373938558,-1.2620619625493883
1633779588041987000,6.567987060546875,-8.844071042501925,-4.023640598809719,-1.3278200906172395
1633779588061867300,6.5878671875,-8.79751445851028,-4.102992660205066,-1.3926857998900115
1633779588081747200,6.607747314453125,-8.74607653221786,-4.206401889014244,-1.4080888284660875
1633779588101626000,6.627626220703125,-8.699185017183423,-4.3161540571093555,-1.365787563831359
1633779588121506300,6.64750634765625,-8.667245572087168,-4.401165751701593,-1.2957532197490333
1633779588141385000,6.667385009765625,-8.648924317976832,-4.451249925297499,-1.2461422166228293
1633779588161265200,6.68726513671875,-8.634787071552871,-4.481092105853557,-1.237193624883145
1633779588181144300,6.707144287109375,-8.619885270497202,-4.506614961905777,-1.2483515632353723
1633779588201025000,6.72702490234375,-8.604187350627779,-4.540280207881331,-1.2345878262989223
1633779588220904200,6.746904296875,-8.590211432245374,-4.5844183325543995,-1.1669444690063595
1633779588240784000,6.766783935546875,-8.583695766741037,-4.612590241810679,-1.1020711609490215
1633779588260664000,6.7866640625,-8.58962164965868,-4.6004505989447235,-1.1066349617332218
1633779588280543000,6.80654296875,-8.606549403584003,-4.552886591476201,-1.170007655969262
1633779588300423000,6.8264228515625,-8.63055630211532,-4.49314465495795,-1.2229204771198332
1633779588320302000,6.846302001953125,-8.658353825101257,-4.436380565206706,-1.2336235113114118
1633779588340182000,6.86618212890625,-8.693681159070133,-4.367045163173973,-1.2325634808644652
1633779588360062200,6.886062255859375,-8.739912748891115,-4.265483023536205,-1.2609386576078832
1633779588379940900,6.90594091796875,-8.791288131341338,-4.136810466393828,-1.3305761113271117
1633779588399821000,6.925821044921875,-8.840125519746541,-4.004010307927429,-1.4108392962180076
1633779588419700000,6.945699951171875,-8.884060523062944,-3.8886800474390384,-1.4567140354253352
1633779588439580000,6.965579833984375,-8.919777148610352,-3.8126898636922237,-1.4392194413974881
1633779588459459000,6.985458984375,-8.94824161107242,-3.7716073271974917,-1.369062639979273
1633779588479339000,7.005339111328125,-8.973746054685115,-3.742207045190036,-1.2799049316234885
1633779588499219000,7.025218994140625,-8.996963848665356,-3.708587099660933,-1.2130169227428733
1633779588519098000,7.04509814453125,-9.009612902358175,-3.6771380684301254,-1.214872414416447
1633779588538978000,7.06497802734375,-8.997706775987147,-3.6751886879280207,-1.3056195108555257
1633779588558857000,7.08485693359375,-8.95635711298883,-3.726106681999564,-1.438812175770849
1633779588578737000,7.10473681640625,-8.893007215106486,-3.83092723891139,-1.5520340658031404
1633779588598616000,7.124615966796875,-8.827758790126442,-3.9535412266671655,-1.6157266396433114
1633779588618496000,7.14449609375,-8.78554169664383,-4.039180697768926,-1.633911115631461
1633779588638376000,7.1643759765625,-8.77228064853251,-4.069045382417738,-1.6310579181574285
1633779588658255000,7.184255126953125,-8.771443613186477,-4.075037316308915,-1.6205635582804678
1633779588678135000,7.204135009765625,-8.76623493862748,-4.099297312818467,-1.587218922561407
1633779588698014000,7.224013916015625,-8.751978449738026,-4.152578821150958,-1.526219241067022
1633779588717894100,7.24389404296875,-8.733672393196821,-4.2143870425492524,-1.4602363643325864
1633779588737773000,7.26377294921875,-8.723513402754067,-4.2554453213855625,-1.4006722685992716
1633779588757653000,7.283653076171875,-8.730936246231197,-4.257261723157764,-1.347907623747736
1633779588777533000,7.303532958984375,-8.753551982665062,-4.228047319111227,-1.2920251391366124
1633779588797411800,7.323411865234375,-8.781912984752655,-4.187361672979593,-1.2306054786644876
1633779588817292000,7.3432919921875,-8.816737045374513,-4.123757508075237,-1.1958936462454497
1633779588837171200,7.363171142578125,-8.859943149894475,-4.014563850645721,-1.2470252830676734
1633779588857051100,7.383051025390625,-8.894030128413439,-3.8893735826611517,-1.392620479568839
1633779588876930000,7.402929931640625,-8.902351966556907,-3.8083714159712194,-1.5539688332580028
1633779588896810000,7.42281005859375,-8.89426919786632,-3.791600021651387,-1.638941511014104
1633779588916690200,7.442690185546875,-8.89425107768774,-3.794992586699128,-1.6311683927945793
1633779588936569000,7.462569091796875,-8.917446075314283,-3.770658063648641,-1.559381944347918
1633779588956449000,7.482448974609375,-8.953389495354891,-3.723933721874654,-1.4627115222744642
1633779588976328200,7.502328125,-8.979687719693779,-3.6917116604447364,-1.3808924862436949
1633779588996207900,7.522207763671875,-8.98266995037496,-3.697456049315631,-1.3456743117377161
1633779589016087000,7.542087158203125,-8.962816664391756,-3.7446526847764847,-1.347543320479989
1633779589035967200,7.56196728515625,-8.93086085268259,-3.8148181078925725,-1.3628160006746648
1633779589055847000,7.581846923828125,-8.903132303279637,-3.8789690930247303,-1.3631648141123354
1633779589075726000,7.60172607421875,-8.882363656017183,-3.9318881977856157,-1.3469421397164463
1633779589095606000,7.62160595703125,-8.859025450527668,-3.9913635923221706,-1.3255463004663586
1633779589115485000,7.64148486328125,-8.821901880791783,-4.078633294974267,-1.3073577328249812
1633779589135365000,7.661365234375,-8.774391941598058,-4.185444733442366,-1.2893711174964904
1633779589155244000,7.681244140625,-8.725938584074378,-4.29475354168415,-1.2583593086391687
1633779589175124000,7.7011240234375,-8.677564137005806,-4.398549431723356,-1.2341131945244967
1633779589194999800,7.720999755859375,-8.638062147700786,-4.466445740863681,-1.2669374596312641
1633779589214878700,7.740878662109375,-8.612334416726231,-4.484433232975006,-1.3740231849960982
1633779589234759000,7.760759033203125,-8.604084474775195,-4.47062390333116,-1.4675290055587886
1633779589254637800,7.780637939453125,-8.619542156147956,-4.437746885123849,-1.4765785734549164
1633779589274517800,7.800517822265625,-8.655124926182626,-4.386380270501971,-1.420866769235581
1633779589294397000,7.82039697265625,-8.699497151872515,-4.312571522447467,-1.3750868687048554
1633779589314276600,7.840276611328125,-8.748429817345738,-4.210498218417167,-1.3809665743932127
1633779589334156800,7.86015673828125,-8.798172045636177,-4.090397382526099,-1.4252007067866623
1633779589354036000,7.880035888671875,-8.842210509327053,-3.979465356996655,-1.466135505373776
1633779589373915600,7.89991552734375,-8.881407962727547,-3.8941894585102794,-1.4581722714096308
1633779589393794800,7.919794921875,-8.915806491413711,-3.8385748310551047,-1.394318369527906
1633779589413674800,7.9396748046875,-8.944285566923021,-3.8072722225576636,-1.2941492916837334
1633779589433553700,7.9595537109375,-8.965981850424408,-3.7872444567903876,-1.1993055005155504
1633779589453433900,7.979433837890625,-8.98169964403808,-3.768471659520268,-1.1393307050894945
1633779589473313800,7.999313720703125,-8.986521365106105,-3.761555304260552,-1.1240631394613534
1633779589493192700,8.019192626953124,-8.971884936988353,-3.7882434046998616,-1.1510350983433424
1633779589513072600,8.03907275390625,-8.933829054838418,-3.864435833020508,-1.192988060997054
1633779589532951800,8.058951904296874,-8.879794097790121,-3.9780090207085013,-1.2227345260936766
1633779589552831700,8.078831787109374,-8.828964658784866,-4.081412112037837,-1.2497381952881812
1633779589572710700,8.098710693359376,-8.803138143610953,-4.12170963563472,-1.2987097314670681
1633779589592590800,8.1185908203125,-8.807790353330969,-4.0835941322520375,-1.3847282650142907
1633779589612470800,8.138470703125,-8.830130779954791,-4.000545846687257,-1.481487242154032
1633779589632349700,8.158349609375,-8.86032542721033,-3.9212919849693773,-1.512775091473758
1633779589652230000,8.17822998046875,-8.891630081534386,-3.8659193495765325,-1.471043735681474
1633779589672108500,8.198108642578125,-8.923487109044194,-3.800134041240811,-1.4493949445836245
1633779589691988700,8.21798876953125,-8.957872778248786,-3.701809276089072,-1.491141351814568
1633779589711868000,8.237867919921875,-8.990621786162256,-3.6104376910760996,-1.517841873344034
1633779589731747800,8.257747802734375,-9.012688072019815,-3.5756776356011626,-1.4684563495367764
1633779589751627800,8.277627685546875,-9.014403059244156,-3.60831120044142,-1.3751407908491788
1633779589771506700,8.297506591796875,-8.996548838123678,-3.669935881966352,-1.3281803022317586
1633779589791387000,8.317386962890625,-8.97347834365964,-3.691881756314635,-1.4202413308136164
1633779589811265800,8.337265869140625,-8.96236249088347,-3.6300825950056312,-1.633689289574325
1633779589831145700,8.357145751953125,-8.965672638344763,-3.518431023029983,-1.846006929130852
1633779589851025000,8.37702490234375,-8.977292348989844,-3.4199595428839324,-1.9704025396063922
1633779589870904600,8.396904541015624,-8.998345658412575,-3.367649217671156,-1.964459121032059
1633779589890784800,8.41678466796875,-9.023670653805135,-3.3522926585853097,-1.8723999921463428
1633779589910664000,8.436663818359374,-9.04184753100872,-3.348480406820774,-1.7897089955866337
1633779589930543600,8.456543701171874,-9.053723262241482,-3.3446284075677393,-1.7360703443795442
1633779589950422800,8.4764228515625,-9.063809187448024,-3.341389279516041,-1.6890448277018963
1633779589970302700,8.496302734375,-9.074723964694142,-3.3418554357230663,-1.628426985131949
1633779589990181600,8.516181640625,-9.084403062665462,-3.342446679614484,-1.5722756204515695
1633779590010061800,8.536061767578126,-9.086154874768853,-3.3399703526288267,-1.5674100602418184
1633779590029941800,8.555941650390626,-9.074591862747072,-3.3464296117708083,-1.6197462505482136
1633779590049820700,8.575820556640625,-9.051306264227629,-3.3802678762257097,-1.6786987902544437
1633779590069700600,8.59570068359375,-9.023768268960714,-3.452610935641825,-1.679721557430923
1633779590089579800,8.615579833984375,-8.99550079037547,-3.5581568842187523,-1.609618532026559
1633779590109460000,8.6354599609375,-8.963177314397692,-3.6776638458698985,-1.5187562117099762
1633779590129338600,8.655338623046875,-8.925405509886145,-3.793966750782728,-1.4537315124832093
1633779590149218800,8.67521875,-8.887962791198492,-3.893513166683912,-1.4195266066730021
1633779590169098800,8.6950986328125,-8.85405935255289,-3.973074486915767,-1.4109193757168947
1633779590188981800,8.714981689453126,-8.82449891154766,-4.042840389320254,-1.3978700706601142
1633779590208862000,8.734862060546876,-8.814320631882548,-4.083888439023495,-1.3416381880894304
1633779590228740600,8.75474072265625,-8.836800174716114,-4.059696247053146,-1.2649953856527805
1633779590248620800,8.774620849609375,-8.886607869458198,-3.955642582860589,-1.2455853133924304
1633779590268500000,8.7945,-8.943460806536674,-3.808879657754302,-1.295117844454944
1633779590288380000,8.8143798828125,-8.9863799108088,-3.683899525389075,-1.358027743484825
1633779590308259800,8.834259765625,-9.006805443722008,-3.6104084649816155,-1.4187280036412178
1633779590328138800,8.854138671875,-9.012821343010664,-3.5834020923733707,-1.448679489790648
1633779590348019000,8.87401904296875,-9.01428557034433,-3.5796965158537026,-1.4487297586731611
1633779590367897900,8.89389794921875,-9.012557723638414,-3.583554944847524,-1.4499394267238677
1633779590387777800,8.91377783203125,-9.006577480185031,-3.585998246346414,-1.4807323321335017
1633779590407657000,8.933656982421875,-8.997565906211733,-3.5866155014619228,-1.5330946797944605
1633779590427536600,8.95353662109375,-9.002407501024008,-3.537144783589244,-1.6172987112656234
1633779590447415800,8.973415771484374,-9.03809840760827,-3.4218796972915526,-1.6655027702033518
1633779590467296000,8.9932958984375,-9.094860743793845,-3.2869632773235438,-1.6278100222773848
1633779590487175700,9.01317578125,-9.142932993045449,-3.181101686926186,-1.5677236562356351
1633779590507054800,9.033054931640624,-9.146356537753343,-3.1755051820933815,-1.5590740474425255
1633779590526934800,9.052934814453126,-9.085939186191558,-3.287739230132103,-1.6753699380926788
1633779590546813700,9.072813720703126,-8.972139788532257,-3.4937431564971804,-1.86141127288118
1633779590566694000,9.09269384765625,-8.844208405146002,-3.749372699035704,-1.9729599690042434
1633779590586572800,9.11257275390625,-8.73456788073182,-4.002294443920254,-1.9645222493961452
1633779590606452700,9.13245263671875,-8.650847394993901,-4.218430472721159,-1.8809756589204072
1633779590626332700,9.152332763671875,-8.59573750219047,-4.369384712037444,-1.7866615907147525
1633779590646211800,9.1722119140625,-8.570629948940873,-4.459784821669757,-1.6807763271808622
1633779590666092000,9.192092041015625,-8.569667825910448,-4.514052126169204,-1.5344415643587708
1633779590685970700,9.211970703125,-8.582187115743755,-4.544007996232807,-1.3669089690767229
1633779590705851000,9.231850830078125,-8.620829273349047,-4.515289266748726,-1.2098968179609626
1633779590725729800,9.251729736328125,-8.670812324658035,-4.453011382012069,-1.0761454231843353
1633779590745609700,9.271609619140625,-8.698022987666725,-4.437461346180736,-0.9075883802253752
1633779590765490000,9.291489990234375,-8.691129136499763,-4.482028217659891,-0.7389718621641397
1633779590785368800,9.311368896484375,-8.67908389391899,-4.531577553726732,-0.5555948877466842
1633779590805248800,9.331248779296875,-8.70431828841865,-4.493953633253276,-0.4578258933141827
1633779590825128000,9.3511279296875,-8.782367742782831,-4.329218998126685,-0.5461390040719881
1633779590845008000,9.3710078125,-8.861116869848965,-4.134161997711658,-0.7481268631961197
1633779590864886800,9.39088671875,-8.888919069010019,-4.0454187153756616,-0.8899929561715573
1633779590884766700,9.4107666015625,-8.848682920211553,-4.127271945936978,-0.9147801183603703
1633779590904647000,9.43064697265625,-8.77321237642467,-4.292800946311653,-0.8791983712390065
1633779590924525800,9.45052587890625,-8.704795842802524,-4.433736188177764,-0.8595908767104148
1633779590944405800,9.47040576171875,-8.669600026258825,-4.499089534837007,-0.8755622066937386
1633779590964285000,9.490284912109376,-8.664134746590257,-4.506341113400459,-0.89221194739528
1633779590984164600,9.51016455078125,-8.656710734069346,-4.523030090133846,-0.8797408075526356
1633779591004043800,9.530043701171875,-8.630493758273124,-4.578574282701314,-0.8494776981707662
1633779591023924000,9.549924072265625,-8.591444188910723,-4.654599830022454,-0.8319662991385907
1633779591043803600,9.5698037109375,-8.555253516110778,-4.718672781482339,-0.8438882076006382
1633779591063682800,9.589682861328125,-8.533004859423636,-4.754620000915229,-0.8670684460494666
1633779591083562800,9.609562744140625,-8.517098265239596,-4.78115846375078,-0.8774658483579755
1633779591103441700,9.629441650390625,-8.490865507352352,-4.826486382730305,-0.8835258790493011
1633779591123321900,9.64932177734375,-8.444702891114353,-4.9112370882987975,-0.8585628488369286
1633779591143200800,9.66920068359375,-8.389511749768257,-5.017226104468107,-0.7835329614896327
1633779591163080700,9.689080810546875,-8.338532673159241,-5.116995223209262,-0.6749917035542428
1633779591182960600,9.708960693359375,-8.29675864726901,-5.197947997799515,-0.5617059545055031
1633779591202836700,9.728836669921876,-8.270924533310533,-5.246124291947484,-0.49027423778064544
1633779591222716700,9.748716552734376,-8.274573118945955,-5.243567593201995,-0.45477056086417283
1633779591242595600,9.768595703125,-8.33062818364501,-5.149051572683454,-0.5082184752721339
1633779591262475800,9.788475830078125,-8.432826575359702,-4.968625447428226,-0.6087447690561414
1633779591282354700,9.808354736328125,-8.543301797032356,-4.772865851701796,-0.6341396148145199
1633779591302234600,9.828234619140625,-8.639518776249885,-4.605170320942998,-0.5670142535140738
1633779591322114800,9.84811474609375,-8.721586234083771,-4.464187440542877,-0.4187407777143642
1633779591341993500,9.867993408203125,-8.789777142256497,-4.337531191658973,-0.30988026122935114
1633779591361873700,9.887873779296875,-8.853084954562783,-4.205416385108232,-0.32823782876208424
1633779591381752800,9.9077529296875,-8.912504527258873,-4.069419768688083,-0.42126905408296733
1633779591401632800,9.9276328125,-8.96663125424385,-3.9279254316344856,-0.5842134082593023
1633779591421511700,9.94751171875,-9.002721389278769,-3.816260707916319,-0.7466925195440649
1633779591441391600,9.9673916015625,-9.004110213288664,-3.7884848122403025,-0.8624174784384667
1633779591461270500,9.9872705078125,-8.965082855758071,-3.8737519428983327,-0.8897854509007185
1633779591481150700,10.007150634765624,-8.896014580228924,-4.035742832274734,-0.8626028449427336
1633779591501030700,10.02703076171875,-8.818916727501154,-4.205461393293738,-0.8433161798663437
1633779591520909800,10.046909912109374,-8.761337229713797,-4.326511784994602,-0.831050426402688
1633779591540789500,10.06678955078125,-8.750768489426374,-4.357311996927857,-0.7799105332087725
1633779591560668700,10.086668701171876,-8.78313346645832,-4.3105593058422205,-0.6678580522820353
1633779591580548900,10.106548828125,-8.82200183403492,-4.250738751129806,-0.5233474726798013
1633779591600427500,10.126427490234375,-8.839845533761382,-4.228407969117164,-0.3848156386936083
1633779591620307700,10.1463076171875,-8.83983033619225,-4.238295156881213,-0.2542456321657635
1633779591640187000,10.166186767578125,-8.843790471994877,-4.235582098530233,-0.13266578236385249
1633779591660066600,10.186066650390625,-8.861286965718865,-4.200610738392174,-0.05342195798279717
1633779591679946800,10.20594677734375,-8.878396505951882,-4.164528786663711,-0.03409632401933195
1633779591699825700,10.22582568359375,-8.889933799010514,-4.1393624889642,-0.07164672488213981
1633779591719705600,10.24570556640625,-8.908179065275192,-4.097386218500137,-0.16173780966447665
1633779591739584800,10.265584716796875,-8.949961274471878,-4.001455655008554,-0.23859558829236774
1633779591759464700,10.285464599609375,-9.016210400927067,-3.849206115184724,-0.24890176865346728
1633779591779343600,10.305343505859375,-9.084685386738181,-3.688273210428655,-0.18845354702938347
1633779591799223600,10.3252236328125,-9.12626009066403,-3.5870936403676867,-0.12047880235798657
1633779591819103700,10.345103759765625,-9.132347886145114,-3.5724466908559203,-0.09074511454454623
1633779591838982700,10.364982666015624,-9.116696143504976,-3.6123914554923773,-0.08285711037423461
1633779591858862600,10.384862548828124,-9.100328361549973,-3.6537700523242354,-0.06612191531236748
1633779591878741800,10.40474169921875,-9.097541361179948,-3.6612837889552114,-0.011214359555958071
1633779591898621700,10.42462158203125,-9.101077134090662,-3.6521281303361057,0.05230398680353537
1633779591918500600,10.44450048828125,-9.096856301525234,-3.660055416204035,0.14689630569498985
1633779591938380800,10.464380859375,-9.07739464520812,-3.7050010578677055,0.21037496278984472
1633779591958260700,10.4842607421875,-9.052033409458398,-3.766897834332287,0.20384904988612979
1633779591978139600,10.5041396484375,-9.030290948727727,-3.8221182017728683,0.12507574735996313
1633779591998019600,10.52401953125,-9.01346139447987,-3.862768192069232,0.08317680731527506
1633779592017898800,10.543898681640625,-8.998420477214456,-3.897152107708156,0.10493514146851375
1633779592037778700,10.56377880859375,-8.963399432715773,-3.976599153910577,0.12047688439553603
1633779592057657600,10.58365771484375,-8.899328234821558,-4.118391889388859,0.10579928401717915
1633779592077537800,10.603537841796875,-8.820337115693091,-4.285431002065539,0.08435874710883945
1633779592097416700,10.623416748046875,-8.745170523288845,-4.437096604521573,0.06746883184271864
1633779592117296600,10.643296630859375,-8.688381299096346,-4.5467841829478735,0.09577719042762182
1633779592137176800,10.6631767578125,-8.654078632000088,-4.609506596581638,0.17250037375725805
1633779592157055700,10.6830556640625,-8.624560861092805,-4.660327852280438,0.2620673205010593
1633779592176935700,10.702935791015625,-8.597816646552085,-4.708522851128876,0.2788234989854507
1633779592196814300,10.722814453125,-8.593358498099446,-4.722021215127408,0.16458991115996613
1633779592216694300,10.7426943359375,-8.612121650758386,-4.690596149294078,-0.0074735581717482995
1633779592236573200,10.7625732421875,-8.640755040046573,-4.633435753701627,-0.1975084669540636
1633779592256453400,10.782453369140624,-8.69174989874661,-4.5231282898113125,-0.40642274607419965
1633779592276332300,10.802332275390626,-8.773937768089771,-4.342140731281042,-0.578112972492352
1633779592296212200,10.822212158203126,-8.864778314965962,-4.140492954298853,-0.6651409753430635
1633779592316091400,10.84209130859375,-8.943139319497346,-3.9726147604495283,-0.6395104941979051
1633779592335971300,10.861971435546875,-9.002859336444734,-3.8429482238337394,-0.5921583759143948
1633779592355851500,10.8818515625,-9.053003131273389,-3.730767075026035,-0.543042353230901
1633779592375730200,10.901730224609375,-9.095644003126024,-3.632641631838679,-0.4935128909083083
1633779592395610400,10.9216103515625,-9.124396634879707,-3.5653853741675614,-0.45143407338522373
1633779592415489300,10.9414892578125,-9.123397686970234,-3.5718995783671734,-0.4189631152281537
1633779592435369200,10.961369140625,-9.081053167715668,-3.6772704626381394,-0.42725185481961814
1633779592455248400,10.981248291015625,-9.003816198778152,-3.857764684693515,-0.4683214953001588
1633779592475128300,11.00112841796875,-8.906967935919761,-4.071614940644801,-0.5081898336995393
1633779592495008300,11.02100830078125,-8.809683035209774,-4.277462799665331,-0.513008814821206
1633779592514887400,11.040887451171875,-8.732214595603942,-4.437495248450339,-0.4769146246656775
1633779592534767400,11.060767333984375,-8.683077347469329,-4.53760689701885,-0.4297434159070253
1633779592554646300,11.080646240234374,-8.654027194073796,-4.596519981497526,-0.3875613572051748
1633779592574526200,11.100526123046874,-8.6283187523216,-4.648261274650693,-0.3408308414187282
1633779592594405400,11.1204052734375,-8.605420107293128,-4.693398931755126,-0.2985571041117422
1633779592614285300,11.140285400390624,-8.590770819693804,-4.722058624528348,-0.26684717518873513
1633779592634164200,11.160164306640626,-8.583293615680933,-4.737430088922381,-0.23283457708023486
1633779592654044400,11.18004443359375,-8.58236714848578,-4.740065698122978,-0.21245655483687295
1633779592673924000,11.199924072265626,-8.589205470073223,-4.726986728580296,-0.22700784368813037
1633779592693803300,11.21980322265625,-8.603768248432875,-4.699045997731387,-0.254008407610096
1633779592713683500,11.239683349609376,-8.623391817313433,-4.659784539183974,-0.30643320778170596
1633779592733562000,11.25956201171875,-8.684881766542793,-4.531462695175409,-0.45722869460601356
1633779592753442300,11.2794423828125,-8.799820981886983,-4.278142598623037,-0.6565248304281384
1633779592773321500,11.299321533203125,-8.91905643312037,-3.998578346006572,-0.7951007227517664
1633779592793201200,11.319201171875,-8.997530834898352,-3.8116812711715697,-0.8281956945586949
1633779592813080300,11.339080322265625,-9.030017392483353,-3.7468817590028047,-0.7681422809384763
1633779592832960300,11.358960205078125,-9.03394011888504,-3.7577179180547593,-0.6617141426995397
1633779592852839200,11.378839111328125,-9.02793415646851,-3.7926962924554943,-0.531262739316374
1633779592872719400,11.39871923828125,-9.02022957344055,-3.825557820832729,-0.413463129572384
1633779592892599300,11.418599365234375,-9.010506051805615,-3.855738731823861,-0.33829734088573604
1633779592912478200,11.438478271484374,-8.999160481926799,-3.8833383941501376,-0.32430348498784006
1633779592932358100,11.458358154296874,-8.98567439288795,-3.9108679138496516,-0.3648956076171249
1633779592952237300,11.4782373046875,-8.969127747234701,-3.9428362927794454,-0.42329394750669597
1633779592972117500,11.498117431640624,-8.940875466218591,-4.0027603078663345,-0.45721309517808256
1633779592991996400,11.517996337890626,-8.890716473820804,-4.1129873999968165,-0.4570298110330477
1633779593011876400,11.53787646484375,-8.817538424885273,-4.268630673912167,-0.44743364210482683
1633779593031756300,11.55775634765625,-8.738321095785498,-4.429016758440435,-0.44264523878451434
1633779593051635200,11.57763525390625,-8.682767550867796,-4.5376250171974295,-0.4357677176978439
1633779593071515400,11.597515380859376,-8.66718536633253,-4.569034300939738,-0.417390459083952
1633779593091394300,11.617394287109375,-8.675791866636276,-4.555186392851174,-0.3889581818584352
1633779593111274200,11.637274169921875,-8.676788476458192,-4.555562240426242,-0.3613500804973766
1633779593131153400,11.6571533203125,-8.663015971693396,-4.5813519307211035,-0.3657150707738474
1633779593151033300,11.677033447265625,-8.640711785426735,-4.617328960770369,-0.43446039795894176
1633779593170912300,11.696912353515625,-8.61183348146677,-4.660433066220581,-0.5357896786889061
1633779593190795800,11.716795654296876,-8.582506849217415,-4.705557279321551,-0.6071965532334521
1633779593210675000,11.736675048828126,-8.569839090824127,-4.723158110202848,-0.6480838959496468
1633779593230555000,11.756554931640625,-8.589400115862489,-4.679623504380881,-0.7026506948523223
1633779593250434800,11.776434814453125,-8.640645149931311,-4.574463632512092,-0.7641453202567994
1633779593270314000,11.79631396484375,-8.712295258647202,-4.431278273631632,-0.7937672821909189
1633779593290194000,11.81619384765625,-8.78471810530126,-4.291298140533268,-0.7641178477279842
1633779593310072800,11.83607275390625,-8.835305552244186,-4.19992860134691,-0.684365169642493
1633779593329953000,11.855953125,-8.848677659514546,-4.1865754910379644,-0.586408799411729
1633779593349832000,11.87583203125,-8.826862718069552,-4.244114072293043,-0.4943394048603251
1633779593369711900,11.8957119140625,-8.784017848077417,-4.338849288520216,-0.4310524161463603
1633779593389591000,11.915591064453125,-8.73667508214414,-4.433839940813184,-0.42656803727392106
1633779593409470700,11.935470703125,-8.69326088783145,-4.511005013558268,-0.49842970638126133
1633779593429350000,11.955349853515624,-8.652475288456678,-4.5758112477287645,-0.6058113824853674
1633779593449230000,11.97522998046875,-8.604627495610714,-4.656059965702891,-0.6722189509052783
1633779593469110000,11.995110107421874,-8.545193309867381,-4.767307633052766,-0.6502537142693996
1633779593488989000,12.014989013671874,-8.479990477594733,-4.893048812918365,-0.5641088509287685
1633779593508868900,12.034868896484374,-8.423368426662684,-4.999085467621684,-0.4758074671413749
1633779593528747800,12.054747802734376,-8.381868541538715,-5.073675721442699,-0.41531109552662815
1633779593548628000,12.0746279296875,-8.350533492076396,-5.1276200775980945,-0.38273203735258426
1633779593568507000,12.0945068359375,-8.316661617612839,-5.183495694077014,-0.36727771698068823
1633779593588386800,12.11438671875,-8.277201129361986,-5.246598923721909,-0.3626725978054106
1633779593608266000,12.134265869140625,-8.240572649666667,-5.303339048075675,-0.37141068859957155
1633779593628146000,12.15414599609375,-8.216890745306015,-5.339467761555314,-0.3783819889169186
1633779593648026000,12.174026123046875,-8.20528038701117,-5.358499794283509,-0.36088027102854103
1633779593667904800,12.19390478515625,-8.206710127553343,-5.358991961714625,-0.3185925965277478
1633779593687785000,12.213784912109375,-8.209924997946619,-5.357655160152912,-0.25110117839388546
1633779593707664000,12.233663818359375,-8.232822473931313,-5.322505520838499,-0.2489008370717056
1633779593727543800,12.253543701171875,-8.358449672028422,-5.114028190097213,-0.3916952786721289
1633779593747423000,12.273423095703125,-8.558988610985875,-4.752419276000559,-0.5732427726401016
1633779593767303000,12.293302978515625,-8.740645154818893,-4.4013487070530655,-0.6321683878067881
1633779593787181800,12.313181884765624,-8.838607516399025,-4.214314561834931,-0.5375489434463903
1633779593807062000,12.33306201171875,-8.840293862050771,-4.228440117821097,-0.37401221286747605
1633779593826940700,12.352940673828124,-8.774262177738548,-4.375083215939998,-0.20334254340240732
1633779593846820900,12.37282080078125,-8.692256094703078,-4.539698900862038,-0.07873659637812525
1633779593866700800,12.39270068359375,-8.640034909078478,-4.638889342932403,-0.029685085731628348
1633779593886580000,12.412580078125,-8.63171482450068,-4.654193879570067,-0.04862509736139327
1633779593906460000,12.4324599609375,-8.643851252496242,-4.630824109898508,-0.09839737373022361
1633779593926338800,12.4523388671875,-8.651770355057716,-4.615050202183425,-0.13623493695436045
1633779593946219000,12.472218994140626,-8.645013866534828,-4.627314932733774,-0.14857472376860678
1633779593966098000,12.492097900390625,-8.624169231426716,-4.66624525963068,-0.14227107531344518
1633779593985977900,12.511977783203125,-8.598364343562722,-4.713800207009911,-0.1363803459075745
1633779594005857000,12.53185693359375,-8.57804051745832,-4.751016131204366,-0.1243063521563541
1633779594025736700,12.55173681640625,-8.56822814849615,-4.7691456621348856,-0.10534564936500973
1633779594045617000,12.571616943359375,-8.570102125674486,-4.7656610348895185,-0.11046044422863051
1633779594065496000,12.59149609375,-8.572988494765758,-4.759666470649838,-0.14081395357400178
1633779594085375700,12.611375732421875,-8.560579095047713,-4.78141857599169,-0.15783053656024856
1633779594105255000,12.6312548828125,-8.525226042115689,-4.844610945224762,-0.1436989252926316
1633779594125134800,12.651134765625,-8.475326577436924,-4.9317391935795545,-0.13108108872198498
1633779594145013800,12.671013671875,-8.43101923367679,-5.006583129900694,-0.14974344788757152
1633779594164894000,12.69089404296875,-8.412516777780652,-5.035401228106021,-0.21135533386301247
1633779594184772900,12.71077294921875,-8.424540977573395,-5.010082662454248,-0.3107529889432713
1633779594204648700,12.730648681640625,-8.455028470295668,-4.950882869988679,-0.4142932967862114
1633779594224528000,12.75052783203125,-8.496731769037247,-4.872011285586654,-0.4893219054918736
1633779594244407600,12.770407470703125,-8.539145846396684,-4.795594108599424,-0.505614722514525
1633779594264287700,12.790287841796875,-8.56899328764975,-4.747270514935255,-0.4540534621033817
1633779594284167000,12.8101669921875,-8.580684894487261,-4.733901038013398,-0.3638911067496985
1633779594304046800,12.830046875,-8.583065652143954,-4.735954171150922,-0.26852953878510744
1633779594323925800,12.84992578125,-8.588608673223852,-4.729354626755416,-0.19846277200421317
1633779594343805700,12.8698056640625,-8.605423029902576,-4.700032670681178,-0.16361739459969102
1633779594363684600,12.8896845703125,-8.631234347507357,-4.652527115401625,-0.16175426760893313
1633779594383564800,12.909564697265624,-8.656748727992177,-4.604209659217298,-0.17983236061315983
1633779594403443700,12.929443603515624,-8.676656374511122,-4.565393021827936,-0.20784102386543526
1633779594423324000,12.949323974609374,-8.689277371153235,-4.539685456858575,-0.2410524251262657
1633779594443202800,12.969202880859376,-8.694106106483936,-4.528312998972833,-0.27799274724973366
1633779594463082800,12.989082763671876,-8.68956554044485,-4.534596609286964,-0.3150585041174665
1633779594482963000,13.008962890625,-8.676722425484657,-4.55666698679775,-0.3487864400656894
1633779594502841600,13.028841552734375,-8.660241246283054,-4.586126890037954,-0.3715412196440622
1633779594522721800,13.0487216796875,-8.647132173863053,-4.610089364905655,-0.38020591640844936
1633779594542601000,13.06860107421875,-8.64085499328971,-4.62119703437537,-0.38800230590570717
1633779594562480600,13.088480712890625,-8.643101310911774,-4.616762559059262,-0.39075467335376884
1633779594582359800,13.10835986328125,-8.64972920461893,-4.604541375389695,-0.38828981761019676
1633779594602239700,13.12823974609375,-8.652448984971642,-4.600049032406509,-0.3808674490571022
1633779594622118700,13.14811865234375,-8.648491187256575,-4.607955860008299,-0.37513920760340985
1633779594641998800,13.167998779296875,-8.642636616009474,-4.6190573919981714,-0.373532904917933
1633779594661877800,13.187877685546875,-8.638731425264478,-4.626074577283859,-0.37701333091221745
1633779594681757700,13.2077578125,-8.636110429111122,-4.630326097248495,-0.38479302500300105
1633779594701636900,13.227636962890625,-8.634950737681985,-4.631809613804519,-0.39287626861762254
1633779594721516800,13.247516845703124,-8.63434108135104,-4.632839833635091,-0.39412535536326465
1633779594741396700,13.267396728515624,-8.637188871997594,-4.627267586460709,-0.3971688147123903
1633779594761275600,13.287275634765624,-8.644214240589738,-4.6137662998527285,-0.40138398472201076
1633779594781155800,13.30715576171875,-8.653468391147255,-4.595942473870515,-0.4064284816952422
1633779594801034800,13.32703466796875,-8.660206174969673,-4.5831899598032235,-0.40692390052936966
1633779594820914700,13.346914794921876,-8.662234465926884,-4.579524130772054,-0.40501993007156994
1633779594840793900,13.3667939453125,-8.658965819519757,-4.5861850499659775,-0.3995062081513926
1633779594860673800,13.386673828125,-8.655273979264496,-4.593890217515826,-0.3908880904750898
1633779594880552700,13.406552734375,-8.653108325663208,-4.598262148989737,-0.38741014869883655
1633779594900433000,13.426432861328125,-8.651050224089621,-4.601875663311779,-0.39045704211406407
1633779594920311800,13.446311767578125,-8.645777252122759,-4.611201710061729,-0.3971710066694766
1633779594940191700,13.466191650390625,-8.63811066301763,-4.625357953447104,-0.3993650826476514
1633779594960071700,13.48607177734375,-8.63223621802628,-4.63653518102169,-0.39676092803124335
1633779594979950600,13.50595068359375,-8.631439514690637,-4.638356258969009,-0.39279279158525165
1633779594999830800,13.525830810546875,-8.634775965636969,-4.632371631601453,-0.3900832038329914
1633779595019710000,13.5457099609375,-8.63846429876089,-4.625390686672926,-0.391257252581045
1633779595039590000,13.56558984375,-8.637062030747533,-4.627712407618761,-0.3947396878693253
1633779595059468800,13.58546875,-8.631540052455664,-4.637933649642766,-0.39557058573551473
1633779595079348700,13.6053486328125,-8.626486860719323,-4.647497012279928,-0.39355022235643117
1633779595099227600,13.6252275390625,-8.626401520523428,-4.647943879264593,-0.3901274813661352
1633779595119107800,13.64510791015625,-8.631353589972854,-4.638965623039007,-0.38744328378345816
1633779595138986800,13.66498681640625,-8.636516087302565,-4.629173712342977,-0.38951910367682574
1633779595158867000,13.684866943359374,-8.638683494469523,-4.624682538403571,-0.3947628860818222
1633779595178746600,13.70474658203125,-8.637913679140805,-4.625762734855711,-0.3989350206673145
1633779595198626000,13.7246259765625,-8.636035610309243,-4.629076681709289,-0.40115477907601743
1633779595218506000,13.744506103515626,-8.636829975557326,-4.627305288122594,-0.4044741692896932
1633779595238385200,13.76438525390625,-8.64200883949995,-4.6170390379130835,-0.41112200980633495
1633779595258265300,13.784265380859376,-8.649889363616705,-4.601589832107723,-0.4185299114426598
1633779595278144000,13.80414404296875,-8.656914147686958,-4.587829310041665,-0.4243193450316787
1633779595298024200,13.824024169921875,-8.662761120149492,-4.57629610863626,-0.4295046021824702
1633779595317903000,13.843903076171875,-8.667713774120807,-4.566593922050297,-0.4328367057472467
1633779595337783000,13.863782958984375,-8.6738635289222,-4.554723159253597,-0.434712801817432
1633779595357662200,13.883662109375,-8.682233297860622,-4.538598246143758,-0.4362734387302771
1633779595377542100,13.903542236328125,-8.689210735657811,-4.52489734531045,-0.439666003778018
1633779595397421000,13.923421142578125,-8.69185861981809,-4.519174291488528,-0.4461379762711003
1633779595417301200,13.94330126953125,-8.69105724030733,-4.5198944224566215,-0.45438587239552286
1633779595437181200,13.96318115234375,-8.69092572288215,-4.519339418922365,-0.46235243082791566
1633779595457060000,13.98306005859375,-8.693339798286557,-4.514245310653746,-0.46671402357090264
1633779595476940000,14.00293994140625,-8.69713802152574,-4.50694463225156,-0.4665038148863241
1633779595496819200,14.022819091796874,-8.699152868479489,-4.503187325544655,-0.46521980295777315
1633779595516699100,14.04269921875,-8.698245105984807,-4.504909619292617,-0.46551535183824594
1633779595536578300,14.062578369140626,-8.696086466646195,-4.508794351771473,-0.4682289581784978
1633779595556458200,14.082458251953126,-8.694196707376838,-4.512049554175138,-0.47194896508231754
1633779595576337200,14.102337158203126,-8.693274331834912,-4.513517580901086,-0.47488991390503943
1633779595596217000,14.122217041015626,-8.692415084657073,-4.514889746037126,-0.47756749908383933
1633779595616096300,14.14209619140625,-8.69169261560142,-4.515856545242667,-0.4815617563517764
1633779595635976200,14.16197607421875,-8.690038418653607,-4.518336963881552,-0.4881114337235689
1633779595655855000,14.181855224609375,-8.687138605558872,-4.523253962017596,-0.4941454897234216
1633779595675735300,14.2017353515625,-8.685570333328842,-4.525852454078197,-0.49790531718097625
1633779595695615000,14.221614990234375,-8.685788944515586,-4.5253345676839345,-0.4987955074863508
1633779595715494100,14.241494140625,-8.685768486249446,-4.5253252153337,-0.49924460296072065
1633779595735374300,14.261374267578125,-8.684539236715436,-4.527518925985694,-0.500734987648949
1633779595755253000,14.2812529296875,-8.683346227538586,-4.529653599926829,-0.5021182221682742
1633779595775133200,14.30113330078125,-8.683181392365693,-4.529768166217208,-0.5039319205267354
1633779595795012400,14.321012451171875,-8.683051628506183,-4.52992101869136,-0.5047887930843978
1633779595814892000,14.34089208984375,-8.682185951587558,-4.531849064144492,-0.5023687628632411
1633779595834771200,14.360771240234374,-8.679676014593243,-4.53691599214524,-0.500000608959794
1633779595854651100,14.380651123046874,-8.676561097443104,-4.543105786696076,-0.49785782477743923
1633779595874530000,14.400530029296876,-8.67252205118537,-4.550594973407685,-0.4998364679066464
1633779595894410200,14.42041015625,-8.66892198086679,-4.55696509296149,-0.5042313053321092
1633779595914289200,14.4402890625,-8.665783682841061,-4.562579425711929,-0.5073929111681879
1633779595934169000,14.460169189453126,-8.663824949988722,-4.566403075653314,-0.5064376197373495
1633779595954049000,14.480049072265626,-8.662603299239278,-4.569222809249163,-0.5018836096948013
1633779595973928200,14.49992822265625,-8.660503696611523,-4.573438088856637,-0.4997217920184135
1633779595993808100,14.51980810546875,-8.658574189853669,-4.576682477605343,-0.5034418719874695
1633779596013687000,14.53968701171875,-8.658593479076027,-4.5763688816115256,-0.5059585309835151
1633779596033567200,14.559567138671875,-8.659702317100763,-4.574866075833142,-0.5005435201974585
1633779596053446100,14.579446044921875,-8.660445244422554,-4.5740869081541895,-0.4947692841775715
1633779596073326000,14.599326171875,-8.660777252855896,-4.573760452678799,-0.4919678168907761
1633779596093205200,14.619205322265625,-8.660853240701556,-4.5733661926642055,-0.49429910938255484
1633779596113085000,14.6390849609375,-8.66155700505674,-4.571401614592969,-0.5001047634540126
1633779596132964000,14.658964111328125,-8.661371711617708,-4.5711847569718955,-0.5052637171197683
1633779596152844300,14.67884423828125,-8.6588670353204,-4.575610172198712,-0.5081253901612013
1633779596172723000,14.698722900390624,-8.656041456505656,-4.580839012762904,-0.5091639028960838
1633779596192604200,14.718604248046875,-8.653575358653068,-4.585490345700085,-0.5092052943523973
1633779596212484000,14.738484130859375,-8.65060423388779,-4.591012323991954,-0.5099330606376752
1633779596232363300,14.75836328125,-8.645930396857857,-4.599787751121819,-0.5101177330221981
1633779596252243000,14.778242919921874,-8.639562030869723,-4.611746192201972,-0.5100458733623847
1633779596272122000,14.7981220703125,-8.634035960924624,-4.622169971060752,-0.5092743410006165
1633779596292002300,14.818002197265624,-8.6306708684057,-4.628774483892322,-0.5063063945731148
1633779596311881000,14.837880859375,-8.626652864935993,-4.636645071136951,-0.5027619268992916
1633779596331761200,14.85776123046875,-8.621891349622606,-4.646416815827787,-0.49415718016121535
1633779596351640300,14.877640380859376,-8.618691676798463,-4.653882913924753,-0.47948549806699153
1633779596371520000,14.89752001953125,-8.617475286746025,-4.658151969546079,-0.459486410404928
1633779596391399200,14.917399169921875,-8.618308814960718,-4.658489238676428,-0.44002080856505776
1633779596411279000,14.937279052734375,-8.622107038199902,-4.653103453984857,-0.42223581675589084
1633779596431158000,14.957157958984375,-8.62666221728623,-4.646514138722419,-0.40122795391008254
1633779596451038200,14.9770380859375,-8.625984756416083,-4.651890863324701,-0.35025406493283806
1633779596470918100,14.996918212890625,-8.62169728835523,-4.66365348957181,-0.2950580647485331
1633779596490797000,15.016797119140625,-8.632540169408918,-4.643787928628921,-0.2913291256195865
1633779596510677000,15.036677001953125,-8.644660815313458,-4.619938851007819,-0.3104659886954352
1633779596530556200,15.05655615234375,-8.652251416572929,-4.6035438887849445,-0.34104583587627857
