time,seconds_elapsed,z,y,x
1633779581501605000,0.027605224609375,-0.024203691631555557,-0.0737614780664444,0.042434170842170715
1633779581521485000,0.047485107421875,-0.025475261732935905,-0.07082267850637436,-0.02563033066689968
1633779581541364000,0.067364013671875,-0.0035686935298144817,-0.08309053629636765,-0.14325553178787231
1633779581561244000,0.087243896484375,0.010003549978137016,-0.09369106590747833,-0.19524191319942474
1633779581581124000,0.1071240234375,0.029036030173301697,-0.09967323392629623,-0.2014158070087433
1633779581601003000,0.1270029296875,0.01898951269686222,-0.12737712264060974,-0.20074868202209473
1633779581620883000,0.146883056640625,0.004606510046869516,-0.12861372530460358,-0.22248810529708862
1633779581640762000,0.16676220703125,-0.017284199595451355,-0.137984499335289,-0.22483916580677032
1633779581660641800,0.186641845703125,-0.08577944338321686,-0.14404886960983276,-0.17495447397232056
1633779581680521000,0.20652099609375,-0.15390761196613312,-0.13773708045482635,-0.08778522163629532
1633779581700401200,0.226401123046875,-0.08056362718343735,-0.1906595081090927,-0.06817063689231873
1633779581720281000,0.246281005859375,-0.12015911936759949,-0.18202261626720428,-0.20812581479549408
1633779581740160000,0.266159912109375,-0.14133983850479126,-0.30099377036094666,-0.15488272905349731
1633779581760040000,0.2860400390625,-0.21329092979431152,-0.28005528450012207,0.13774265348911285
1633779581779918800,0.3059189453125,-0.3175417184829712,-0.17146283388137817,0.34481021761894226
1633779581799799000,0.325799072265625,-0.14220833778381348,0.17919239401817322,0.3523385226726532
1633779581819679000,0.345678955078125,-0.2856649160385132,0.22124922275543213,0.2956283390522003
1633779581839558100,0.36555810546875,-0.35374748706817627,0.24054542183876038,0.1469922661781311
1633779581859437800,0.385437744140625,-0.36470288038253784,-0.2286716252565384,-0.22718888521194458
1633779581879317000,0.40531689453125,-0.38323816657066345,-0.6111539006233215,-0.7228599786758423
1633779581899197200,0.425197265625,-0.5495970249176025,-0.3225024938583374,-1.3352724313735962
1633779581919075800,0.445075927734375,-0.8029606938362122,0.3967486023902893,-1.411759853363037
1633779581938956000,0.4649560546875,-1.0478888750076294,0.8811948895454407,-1.4337100982666016
1633779581958836000,0.4848359375,-1.126267671585083,1.000876784324646,-1.4019843339920044
1633779581978715000,0.50471484375,-0.9347162246704102,1.0664645433425903,-1.2664949893951416
1633779581998595000,0.524594970703125,-0.7615280747413635,0.92694491147995,-1.087203860282898
1633779582018474000,0.544473876953125,-0.664223313331604,0.5932061076164246,-0.7127547264099121
1633779582038354000,0.56435400390625,-0.6364718675613403,0.4483347535133362,-0.20481504499912262
1633779582058233000,0.584233154296875,-0.5246202945709229,0.4214363694190979,0.3004671037197113
1633779582078113000,0.604113037109375,-0.21938017010688782,0.2691856622695923,0.634349524974823
1633779582097993200,0.6239931640625,0.024133816361427307,0.12075962871313095,0.7029855251312256
1633779582117871900,0.643871826171875,0.04939262941479683,-0.028754947707057,0.5134934782981873
1633779582137752000,0.663751953125,-0.18932358920574188,-0.08170852810144424,0.16360950469970703
1633779582157631000,0.683630859375,-0.40434882044792175,-0.06458120793104172,-0.06510743498802185
1633779582177511000,0.703510986328125,-0.36260202527046204,0.1421208381652832,-0.16317985951900482
1633779582197390300,0.723390380859375,-0.22569532692432404,0.2858634293079376,-0.05788128077983856
1633779582217270300,0.743270263671875,-0.04184221848845482,0.10216603428125381,0.14886879920959473
1633779582237150200,0.763150146484375,0.07430250942707062,-0.12580221891403198,0.3294880986213684
1633779582257029400,0.783029296875,0.11511485278606415,-0.22148185968399048,0.52931147813797
1633779582276909300,0.802909423828125,0.06985262781381607,-0.1289140284061432,0.6416764855384827
1633779582296788200,0.822788330078125,0.05871216207742691,0.030304286628961563,0.597960352897644
1633779582316668200,0.842668212890625,0.03137615695595741,0.0520482063293457,0.3581303060054779
1633779582336547300,0.86254736328125,-0.07995184510946274,-0.19238649308681488,-0.012781248427927494
1633779582356427300,0.88242724609375,-0.19734643399715424,-0.3816085159778595,-0.24473194777965546
1633779582376307200,0.90230712890625,-0.27272912859916687,-0.2573918402194977,-0.26827648282051086
1633779582396186400,0.922186279296875,-0.2807217538356781,-0.18970219790935516,-0.31529828906059265
1633779582416066000,0.942066162109375,-0.19595828652381897,-0.22874076664447784,-0.4130876064300537
1633779582435945200,0.9619453125,-0.03570396453142166,-0.2075100541114807,-0.40708979964256287
1633779582455825400,0.981825439453125,0.1354176104068756,-0.19001591205596924,-0.2953674793243408
1633779582475704300,1.001704345703125,0.23982687294483185,-0.38879817724227905,-0.1798509657382965
1633779582495584300,1.021584228515625,0.27285036444664,-0.6847937107086182,-0.17056412994861603
1633779582515463400,1.04146337890625,0.2165883481502533,-0.7870469689369202,-0.2061861902475357
1633779582535343000,1.061343017578125,0.11399780213832855,-0.677125871181488,-0.2417946606874466
1633779582555223300,1.081223388671875,0.003437007311731577,-0.38710084557533264,-0.22428327798843384
1633779582575102200,1.101102294921875,-0.04509663209319115,-0.0721244364976883,-0.09295424073934555
1633779582594982400,1.120982421875,-0.03610215708613396,0.1302681714296341,0.08614543080329895
1633779582614861300,1.140861328125,-0.040436260402202606,0.1173771321773529,0.19199739396572113
1633779582634741200,1.1607412109375,-0.10924062132835388,-0.046222347766160965,0.17931382358074188
1633779582654620200,1.1806201171875,-0.188188835978508,-0.14678624272346497,0.1167953833937645
1633779582674500400,1.200500244140625,-0.22624093294143677,-0.17576302587985992,0.14858697354793549
1633779582694380300,1.22038037109375,-0.23986853659152985,-0.14431776106357574,0.38581568002700806
1633779582714259500,1.240259521484375,-0.2740926742553711,-0.11320032179355621,0.7557579278945923
1633779582734139100,1.26013916015625,-0.3673645555973053,-0.20811910927295685,1.0246843099594116
1633779582754018300,1.280018310546875,-0.45853179693222046,-0.2660575807094574,1.0679703950881958
1633779582773898200,1.299898193359375,-0.5239056348800659,-0.25837117433547974,0.8815088868141174
1633779582793777200,1.319777099609375,-0.5027394890785217,-0.26767057180404663,0.6213490962982178
1633779582813657300,1.3396572265625,-0.4414222836494446,-0.3344023823738098,0.41337278485298157
1633779582833537300,1.359537353515625,-0.4654921889305115,-0.4147327244281769,0.3583642542362213
1633779582853416200,1.379416259765625,-0.5364622473716736,-0.34742143750190735,0.39373013377189636
1633779582873296400,1.39929638671875,-0.5130293965339661,-0.06706495583057404,0.3990984857082367
1633779582893175300,1.41917529296875,-0.409166544675827,0.1811293214559555,0.3439811170101166
1633779582913055200,1.43905517578125,-0.3982226252555847,0.3077196776866913,0.14893540740013123
1633779582932935200,1.45893505859375,-0.3282918632030487,0.2914732098579407,-0.1590263396501541
1633779582952814300,1.478814453125,-0.26857736706733704,0.2761125862598419,-0.4553162753582001
1633779582972694300,1.4986943359375,-0.4051719605922699,-0.16541630029678345,-0.8565975427627563
1633779582992573200,1.5185732421875,-0.6913474202156067,-0.8411723971366882,-1.354475736618042
1633779583012453400,1.538453369140625,-0.7397849559783936,-0.8089053630828857,-1.4444770812988281
1633779583032332300,1.558332275390625,-0.4386335015296936,0.06919150799512863,-0.9969056844711304
1633779583052212200,1.578212158203125,0.1101306825876236,1.0862797498703003,-0.3812871277332306
1633779583072091400,1.59809130859375,0.5387322306632996,1.2790981531143188,-0.0284389890730381
1633779583091971000,1.61797119140625,0.747677743434906,0.7981263399124146,0.009779887273907661
1633779583111851300,1.637851318359375,0.7218005061149597,0.10893456637859344,-0.05901465564966202
1633779583131730400,1.65773046875,0.6268656253814697,-0.2572033107280731,0.025528788566589355
1633779583151610400,1.6776103515625,0.6186445355415344,-0.13003495335578918,0.3172662854194641
1633779583171489300,1.6974892578125,0.6232337951660156,0.20857025682926178,0.6326393485069275
1633779583191372500,1.71737255859375,0.5637603998184204,0.3522863984107971,0.7150245308876038
1633779583211251700,1.737251708984375,0.4520430862903595,0.23702578246593475,0.5917823314666748
1633779583231131600,1.757131591796875,0.35813260078430176,0.06744205951690674,0.44162115454673767
1633779583251011600,1.777011474609375,0.2998948395252228,0.046203188598155975,0.381822407245636
1633779583270890800,1.796890869140625,0.29689037799835205,0.15829145908355713,0.4067407250404358
1633779583290770400,1.8167705078125,0.2338111400604248,0.1732923537492752,0.4246068596839905
1633779583310649600,1.836649658203125,0.13005970418453217,0.10088862478733063,0.37032338976860046
1633779583330529800,1.85652978515625,0.01979040913283825,-0.0530327633023262,0.3143715262413025
1633779583350408400,1.876408447265625,-0.03763693571090698,-0.026665160432457924,0.25964680314064026
1633779583370288600,1.89628857421875,-0.025810830295085907,0.1551421880722046,0.2554631233215332
1633779583390168600,1.91616845703125,0.12007547169923782,0.5002106428146362,0.3344234228134155
1633779583410047500,1.936047607421875,0.30946651101112366,0.4467666745185852,0.3206719756126404
1633779583429927700,1.955927734375,0.42483681440353394,-0.008426858112215996,0.2117830514907837
1633779583449806600,1.975806640625,0.36620742082595825,-0.6253838539123535,0.0017030868912115693
1633779583469686800,1.995686767578125,0.22039921581745148,-0.9320063591003418,-0.2614425718784332
1633779583489565700,2.015565673828125,0.15205678343772888,-0.8265763521194458,-0.4813154935836792
1633779583509445600,2.035445556640625,0.08392058312892914,-0.5419624447822571,-0.6360307931900024
1633779583529325800,2.055325927734375,0.01142900250852108,-0.4843491315841675,-0.790769636631012
1633779583549204500,2.07520458984375,-0.08117561042308807,-0.44537675380706787,-0.824678897857666
1633779583569084700,2.095084716796875,-0.1406244933605194,-0.19827739894390106,-0.7082480192184448
1633779583588963800,2.1149638671875,-0.11291039735078812,0.1635216325521469,-0.5101439356803894
1633779583608843500,2.134843505859375,-0.038896284997463226,0.3985903263092041,-0.3164597749710083
1633779583628722700,2.15472265625,-0.009261095896363258,0.45427268743515015,-0.18835170567035675
1633779583648602600,2.1746025390625,-0.0826033428311348,0.3001958727836609,-0.1571139544248581
1633779583668482600,2.194482666015625,-0.19437913596630096,-0.05934889242053032,-0.19050906598567963
1633779583688361700,2.21436181640625,-0.2241327166557312,-0.29127615690231323,-0.15001314878463745
1633779583708241700,2.23424169921875,-0.14921100437641144,-0.33536022901535034,0.032005827873945236
1633779583728120600,2.25412060546875,-0.0531168207526207,-0.24301014840602875,0.35144805908203125
1633779583748000500,2.27400048828125,-0.06349970400333405,-0.22723616659641266,0.6266066431999207
1633779583767879700,2.293879638671875,-0.22820916771888733,-0.26139354705810547,0.7335650324821472
1633779583787759600,2.313759521484375,-0.42422574758529663,-0.35335293412208557,0.5922263264656067
1633779583807639600,2.3336396484375,-0.5545626878738403,-0.3708314001560211,0.3122101128101349
1633779583827518700,2.353518798828125,-0.6182146668434143,-0.2549545168876648,0.17570507526397705
1633779583847398700,2.373398681640625,-0.6686481237411499,-0.12441471964120865,0.21113519370555878
1633779583867277600,2.393277587890625,-0.7156761288642883,0.07102411240339279,0.28123292326927185
1633779583887157800,2.41315771484375,-0.7849999070167542,0.1165761649608612,0.08590424805879593
1633779583907036400,2.433036376953125,-0.8246010541915894,-0.04572711139917374,-0.4471357762813568
1633779583926916600,2.45291650390625,-0.6996009349822998,-0.22338426113128662,-0.9588168263435364
1633779583946796500,2.472796630859375,-0.5296078324317932,0.08842086046934128,-0.9897197484970093
1633779583966675700,2.49267578125,-0.47562381625175476,0.5007671117782593,-0.654887318611145
1633779583986555600,2.5125556640625,-0.47778502106666565,0.38663461804389954,-0.46099647879600525
1633779584006434600,2.5324345703125,-0.42462092638015747,0.14837820827960968,-0.5969988703727722
1633779584026314800,2.552314697265625,-0.2895149290561676,0.15263748168945312,-0.8850917816162109
1633779584046193700,2.572193603515625,-0.08621367067098618,0.3960205912590027,-0.9637438654899597
1633779584066073600,2.592073486328125,0.19858811795711517,0.522138774394989,-0.7973222732543945
1633779584085953800,2.611953857421875,0.43368610739707947,0.3839777708053589,-0.4797367453575134
1633779584105832700,2.631832763671875,0.550057053565979,0.1303018182516098,-0.10941974073648453
1633779584125712600,2.651712646484375,0.5769094824790955,-0.05793440714478493,0.2144109606742859
1633779584145591800,2.671591796875,0.5875716805458069,0.013787632808089256,0.4053679406642914
1633779584165471500,2.691471435546875,0.5779786705970764,0.18260391056537628,0.43792402744293213
1633779584185347000,2.71134716796875,0.5564148426055908,0.340533971786499,0.4040279984474182
1633779584205227300,2.731227294921875,0.5093891620635986,0.3928269147872925,0.3540802299976349
1633779584225107200,2.751107177734375,0.44957005977630615,0.3227708637714386,0.3521853983402252
1633779584244986000,2.770986083984375,0.3834189474582672,0.21550965309143066,0.37173324823379517
1633779584264866000,2.790865966796875,0.3784087002277374,0.2943991422653198,0.3850017189979553
1633779584284745200,2.8107451171875,0.42671409249305725,0.5147659778594971,0.36413463950157166
1633779584304625200,2.830625244140625,0.5234860777854919,0.6647084951400757,0.23015239834785461
1633779584324504000,2.850504150390625,0.5892198085784912,0.5441215634346008,-0.019481662660837173
1633779584344384300,2.87038427734375,0.5327275991439819,0.21792052686214447,-0.14724035561084747
1633779584364264200,2.89026416015625,0.3355925679206848,-0.06615061312913895,-0.019510289654135704
1633779584384143000,2.91014306640625,0.20051178336143494,0.16856896877288818,0.2951122522354126
1633779584404023300,2.930023193359375,0.2714240849018097,0.5403183698654175,0.48047110438346863
1633779584423902000,2.94990185546875,0.3619668185710907,0.2738755941390991,0.4061538577079773
1633779584443782100,2.9697822265625,0.19019556045532227,-0.5959151983261108,-0.015411886386573315
1633779584463661300,2.989661376953125,-0.03892689198255539,-0.870361864566803,-0.4756426513195038
1633779584483541200,3.009541259765625,-0.05071958899497986,-0.4336150884628296,-0.6319413781166077
1633779584503421200,3.029421142578125,0.12842565774917603,-0.024502243846654892,-0.4264788031578064
1633779584523300000,3.049300048828125,0.2607516646385193,-0.1929469108581543,-0.14345350861549377
1633779584543180300,3.06918017578125,0.21076315641403198,-0.4125458300113678,-0.0023236481938511133
1633779584563059200,3.08905908203125,0.11011017858982086,-0.17569111287593842,0.06260961294174194
1633779584582939100,3.108939208984375,0.04551547393202782,0.22359901666641235,0.09342877566814423
1633779584602818300,3.128818359375,0.05106470361351967,0.5083507895469666,0.01779220625758171
1633779584622698000,3.148697998046875,0.07253669947385788,0.5380083322525024,-0.1303981989622116
1633779584642578200,3.168578125,0.0994032695889473,0.24715013802051544,-0.20517651736736298
1633779584662457300,3.188457275390625,0.016948865726590157,-0.15001995861530304,-0.10368558764457703
1633779584682337000,3.2083369140625,-0.12633691728115082,-0.40010586380958557,0.08569619804620743
1633779584702216200,3.22821630859375,-0.21230460703372955,-0.44386354088783264,0.19608111679553986
1633779584722096000,3.24809619140625,-0.23718607425689697,-0.37574830651283264,0.21769903600215912
1633779584741975000,3.26797509765625,-0.25166815519332886,-0.4057309627532959,0.36403584480285645
1633779584761855200,3.287855224609375,-0.29851120710372925,-0.3715437948703766,0.5377537608146667
1633779584781735200,3.307735107421875,-0.3669470250606537,-0.3893437683582306,0.49953773617744446
1633779584801614000,3.327614013671875,-0.5309115052223206,-0.63432377576828,0.26022472977638245
1633779584821494000,3.347493896484375,-0.7202434539794922,-0.7745128273963928,0.021468166261911392
1633779584841373200,3.367373291015625,-0.8416886925697327,-0.5938793420791626,-0.09619134664535522
1633779584861253400,3.38725341796875,-0.7921832203865051,-0.1292775571346283,-0.06277550756931305
1633779584881132000,3.407132080078125,-0.6438801884651184,0.13773219287395477,0.0027652219869196415
1633779584901012200,3.42701220703125,-0.5553982257843018,0.042943477630615234,-0.16472217440605164
1633779584920892200,3.44689208984375,-0.5238727927207947,-0.2592143416404724,-0.5205923914909363
1633779584940771000,3.46677099609375,-0.5067732930183411,-0.13115286827087402,-0.7025879621505737
1633779584960651300,3.4866513671875,-0.41694656014442444,0.22653886675834656,-0.6798921227455139
1633779584980530200,3.5065302734375,-0.22345247864723206,0.19960756599903107,-0.7909839153289795
1633779585000410000,3.52641015625,0.10764395445585251,0.03513242304325104,-0.9560307860374451
1633779585020289300,3.546289306640625,0.4653155207633972,0.10811838507652283,-0.8328366875648499
1633779585040169200,3.566169189453125,0.7173129916191101,0.21421270072460175,-0.5898491740226746
1633779585060049200,3.586049072265625,0.9252197742462158,0.08793038129806519,-0.46839743852615356
1633779585079928000,3.605927978515625,1.0651521682739258,-0.08964599668979645,-0.4490959644317627
1633779585099808300,3.625808349609375,1.0910848379135132,-0.2294367551803589,-0.2971898019313812
1633779585119687200,3.645687255859375,1.0535024404525757,-0.10886027663946152,0.04294866323471069
1633779585139567000,3.665567138671875,0.92737877368927,0.11464658379554749,0.38524550199508667
1633779585159446300,3.6854462890625,0.750333309173584,0.27917999029159546,0.56564861536026
1633779585179326000,3.705325927734375,0.5598456263542175,0.35017043352127075,0.5748595595359802
1633779585199206000,3.725205810546875,0.4000735580921173,0.38055703043937683,0.5098205804824829
1633779585219085000,3.7450849609375,0.27796176075935364,0.41440561413764954,0.4521993100643158
1633779585238965000,3.764965087890625,0.1941855102777481,0.433889240026474,0.4247215688228607
1633779585258844000,3.784843994140625,0.14665086567401886,0.41801100969314575,0.4715016484260559
1633779585278723800,3.804723876953125,0.07682956755161285,0.34945374727249146,0.5492374897003174
1633779585298602800,3.824602783203125,-0.050091881304979324,0.22867844998836517,0.5075628757476807
1633779585318483000,3.84448291015625,-0.1363283097743988,0.19733160734176636,0.3547557592391968
1633779585338363000,3.86436279296875,-0.1299910992383957,0.2764028310775757,0.2091393917798996
1633779585358242000,3.884241943359375,0.009088083170354366,0.3944663405418396,0.17321768403053284
1633779585378121700,3.904121826171875,0.1787957102060318,0.4887106716632843,0.2800721228122711
1633779585398001000,3.9240009765625,0.293050616979599,0.582696259021759,0.4779825508594513
1633779585417881000,3.943881103515625,0.3707510828971863,0.6490737795829773,0.584669291973114
1633779585437760000,3.963760009765625,0.4812825918197632,0.524371862411499,0.46104830503463745
1633779585457640000,3.983639892578125,0.546094536781311,0.16377106308937073,0.21052071452140808
1633779585477520000,4.003519775390625,0.40689870715141296,-0.2706984281539917,0.03379341587424278
1633779585497398800,4.023398681640625,0.040328167378902435,-0.6024997234344482,-0.02905106544494629
1633779585517279000,4.043279052734375,-0.2901988625526428,-0.8993423581123352,-0.11670088768005371
1633779585537158000,4.063157958984375,-0.5451540946960449,-1.0170557498931885,-0.18510544300079346
1633779585557037800,4.083037841796875,-0.7122756838798523,-0.8522132039070129,-0.387243390083313
1633779585576917000,4.1029169921875,-0.6584762334823608,-0.430223286151886,-0.7499480843544006
1633779585596797000,4.122796875,-0.5483801364898682,0.08525808900594711,-0.8668115139007568
1633779585616677000,4.142677001953125,-0.39919039607048035,0.3690672516822815,-0.6632221937179565
1633779585636556000,4.16255615234375,-0.2562471926212311,0.378462016582489,-0.3149465322494507
1633779585656436000,4.18243603515625,-0.11177028715610504,0.18312641978263855,-0.03669460490345955
1633779585676315000,4.20231494140625,0.01575358957052231,-0.05562242120504379,0.14285705983638763
1633779585696194800,4.22219482421875,0.07093420624732971,-0.22070805728435516,0.2360205203294754
1633779585716074000,4.242073974609375,0.09427541494369507,-0.23884443938732147,0.3218938410282135
1633779585735954000,4.261953857421875,0.13939331471920013,-0.15017032623291016,0.44424182176589966
1633779585755833900,4.281833740234375,0.1667829155921936,-0.027206936851143837,0.6428196430206299
1633779585775713000,4.301713134765625,0.09399886429309845,-0.011786788702011108,0.7745508551597595
1633779585795593000,4.321593017578125,-0.06045184284448624,-0.12823368608951569,0.7141950130462646
1633779585815471900,4.341471923828125,-0.2633914351463318,-0.2836036682128906,0.4920988380908966
1633779585835352000,4.36135205078125,-0.5660613775253296,-0.38704028725624084,0.2318529337644577
1633779585855231000,4.38123095703125,-0.8907353281974792,-0.43255648016929626,0.023547695949673653
1633779585875111000,4.40111083984375,-1.0461311340332031,-0.3156953752040863,-0.14493565261363983
1633779585894990800,4.420990966796875,-1.075738549232483,-0.1548071652650833,-0.3295401632785797
1633779585914870000,4.4408701171875,-1.076810359954834,-0.1361609399318695,-0.4620317816734314
1633779585934750000,4.46075,-1.082480788230896,-0.2402319461107254,-0.6270892024040222
1633779585954628900,4.48062890625,-0.9224632978439331,-0.09247542172670364,-0.7244216799736023
1633779585974509000,4.500509033203125,-0.6489402651786804,0.37609997391700745,-0.5750383138656616
1633779585994388000,4.520387939453125,-0.23983818292617798,0.738012433052063,-0.41052794456481934
1633779586014268000,4.540267822265625,0.1370927393436432,0.21375073492527008,-0.4591526687145233
1633779586034148000,4.560148193359375,0.3914741575717926,-0.80609130859375,-0.5694311261177063
1633779586054026800,4.58002685546875,0.5038157105445862,-1.2138365507125854,-0.49411991238594055
1633779586073907000,4.599906982421875,0.5732484459877014,-0.8449764251708984,-0.24114514887332916
1633779586093786000,4.6197861328125,0.8031233549118042,-0.18881376087665558,0.02650011144578457
1633779586113665800,4.639665771484375,1.0870343446731567,0.20666085183620453,0.20298932492733002
1633779586133545000,4.659544921875,1.2837287187576294,0.22972561419010162,0.3055136203765869
1633779586153425000,4.6794248046875,1.2531037330627441,0.07127632200717926,0.4593086838722229
1633779586173305000,4.69930517578125,1.0988792181015015,-0.09066484868526459,0.6181221604347229
1633779586193184300,4.719184326171875,0.9386000037193298,-0.15805204212665558,0.6780985593795776
1633779586213064200,4.739064208984375,0.8184289336204529,-0.11847596615552902,0.6759944558143616
1633779586232943400,4.758943359375,0.6839368343353271,-0.02470056712627411,0.6380883455276489
1633779586252823300,4.7788232421875,0.5215293765068054,0.13913419842720032,0.5448718070983887
1633779586272702200,4.7987021484375,0.36872175335884094,0.3110102415084839,0.4000994861125946
1633779586292582400,4.81858251953125,0.22772426903247833,0.3700816333293915,0.24116916954517365
1633779586312462300,4.83846240234375,0.14514005184173584,0.25299373269081116,0.19573518633842468
1633779586332341200,4.85834130859375,0.16129465401172638,0.1913108378648758,0.2519015669822693
1633779586352221200,4.87822119140625,0.24730543792247772,0.3691136837005615,0.31858009099960327
1633779586372100400,4.898100341796875,0.30709925293922424,0.4304077625274658,0.21026211977005005
1633779586391980300,4.917980224609375,0.2364673763513565,0.12146375328302383,-0.049831412732601166
1633779586411859200,4.937859130859375,0.06069508567452431,-0.2097066193819046,-0.22778379917144775
1633779586431739400,4.957739501953125,0.0034995111636817455,-0.21841880679130554,-0.20611202716827393
1633779586451619300,4.977619384765625,0.10316930711269379,-0.19388531148433685,-0.11527802795171738
1633779586471498200,4.997498291015625,0.20352229475975037,-0.46894964575767517,-0.10461833328008652
1633779586491378400,5.01737841796875,0.20710571110248566,-0.771756649017334,-0.1565360575914383
1633779586511257000,5.037257080078125,0.15024568140506744,-0.7873002886772156,-0.25902044773101807
1633779586531137300,5.05713720703125,0.07359524071216583,-0.5393930077552795,-0.4435814321041107
1633779586551016400,5.077016357421875,0.003153296187520027,-0.2278289943933487,-0.6479082107543945
1633779586570896100,5.096896240234375,-0.030335698276758194,0.03247102349996567,-0.7102510929107666
1633779586590776300,5.1167763671875,-0.053536683320999146,0.2310471534729004,-0.5556864142417908
1633779586610655200,5.1366552734375,-0.043169379234313965,0.44815364480018616,-0.2798638641834259
1633779586630535400,5.156535400390625,-0.0431470163166523,0.5072624087333679,-0.07655893266201019
1633779586650414300,5.176414306640625,-0.010732016526162624,0.3607273995876312,0.029228253290057182
1633779586670294300,5.196294189453125,0.01464816089719534,0.04886997863650322,0.18289051949977875
1633779586690173200,5.216173095703125,0.0014846308622509241,-0.2863718271255493,0.36813411116600037
1633779586710053000,5.23605322265625,-0.08730541914701462,-0.45101067423820496,0.530517578125
1633779586729933300,5.255933349609375,-0.27222001552581787,-0.6346808671951294,0.5525925755500793
1633779586749812500,5.2758125,-0.5443382859230042,-0.8940721750259399,0.30196094512939453
1633779586769692200,5.295692138671875,-0.8288640379905701,-1.0037524700164795,-0.04359448701143265
1633779586789571300,5.3155712890625,-1.0007896423339844,-0.8642116189002991,-0.2942490577697754
1633779586809451300,5.335451171875,-1.0123631954193115,-0.39718905091285706,-0.28674906492233276
1633779586829330200,5.355330078125,-0.8302503824234009,0.18203094601631165,-0.04773646220564842
1633779586849210400,5.37521044921875,-0.6435640454292297,0.20597873628139496,0.1813952922821045
1633779586869090300,5.39509033203125,-0.5362885594367981,-0.07350273430347443,0.27058467268943787
1633779586888969200,5.41496923828125,-0.5464633107185364,-0.17060840129852295,0.147390216588974
1633779586908849200,5.43484912109375,-0.5214775800704956,0.1259763091802597,-0.040256284177303314
1633779586928728300,5.454728271484375,-0.3816183805465698,0.6132213473320007,-0.15637801587581635
1633779586948608300,5.474608154296875,-0.20209532976150513,0.7743192911148071,-0.283306747674942
1633779586968487200,5.494487060546875,-0.09774735569953918,0.05930405855178833,-0.6214524507522583
1633779586988367400,5.514367431640625,-0.04330947622656822,-1.0885931253433228,-0.9638803601264954
1633779587008247300,5.534247314453125,-0.16347822546958923,-1.2361221313476562,-0.8946499228477478
1633779587028126200,5.554126220703125,-0.18501047790050507,-0.6671885251998901,-0.6284961700439453
1633779587048006400,5.57400634765625,0.09004619717597961,0.20935508608818054,-0.36399587988853455
1633779587067885000,5.593885009765625,0.4862712025642395,0.793828010559082,-0.14768347144126892
1633779587087765200,5.61376513671875,0.7893630862236023,0.9140114188194275,0.09969723224639893
1633779587107645200,5.633645263671875,0.9373151659965515,0.7190794944763184,0.38937854766845703
1633779587127524400,5.6535244140625,0.9138219952583313,0.507828414440155,0.671227753162384
1633779587147404300,5.673404296875,0.808782160282135,0.3590354025363922,0.8222797513008118
1633779587167283200,5.693283203125,0.6725924611091614,0.20565907657146454,0.8710697889328003
1633779587187166200,5.713166259765625,0.5767087340354919,0.2245543748140335,0.8915291428565979
1633779587207045000,5.733045166015625,0.5503108501434326,0.2084386944770813,0.8006889224052429
1633779587226925000,5.752925048828125,0.5102846026420593,0.24546505510807037,0.6459861397743225
1633779587246805200,5.77280517578125,0.42403945326805115,0.3574847877025604,0.3868424892425537
1633779587266684400,5.792684326171875,0.2514246106147766,0.4064379930496216,0.13281582295894623
1633779587286564000,5.812564208984375,0.11222012341022491,0.38179752230644226,0.12254561483860016
1633779587306443300,5.832443359375,0.11578523367643356,0.33783185482025146,0.36253541707992554
1633779587326323200,5.8523232421875,0.17255742847919464,0.2630423605442047,0.5092192888259888
1633779587346202000,5.8722021484375,0.1380729079246521,0.0021966714411973953,0.387358695268631
1633779587366082300,5.892082275390625,-0.020951762795448303,-0.26533666253089905,0.07072942703962326
1633779587385962200,5.911962158203125,-0.14888781309127808,-0.22453154623508453,-0.29250162839889526
1633779587405841200,5.931841064453125,-0.23864582180976868,-0.11729360371828079,-0.5852601528167725
1633779587425721000,5.95172119140625,-0.3181683421134949,-0.20027388632297516,-0.7298190593719482
1633779587445600300,5.971600341796875,-0.3739100396633148,-0.2953278720378876,-0.7194681167602539
1633779587465480200,5.991480224609375,-0.35984426736831665,-0.13527925312519073,-0.5648885369300842
1633779587485359000,6.011359130859375,-0.21309252083301544,0.2900813817977905,-0.3088938295841217
1633779587505239300,6.0312392578125,-0.015577314421534538,0.5601115226745605,-0.09970998764038086
1633779587525119000,6.051118896484375,0.09680435806512833,0.5003296136856079,-0.004215558059513569
1633779587544998100,6.070998046875,0.08331705629825592,0.21869124472141266,0.03386645019054413
1633779587564878300,6.09087841796875,-0.01936173066496849,-0.1249520480632782,0.053789254277944565
1633779587584757000,6.110757080078125,-0.09995930641889572,-0.44225090742111206,0.1348191648721695
1633779587604637200,6.13063720703125,-0.13803958892822266,-0.6570541858673096,0.2611314356327057
1633779587624516400,6.150516357421875,-0.21439272165298462,-0.7342034578323364,0.34003937244415283
1633779587644396000,6.17039599609375,-0.3920902907848358,-0.7179687023162842,0.36172351241111755
1633779587664275200,6.190275146484375,-0.6119282245635986,-0.7285370230674744,0.2775239944458008
1633779587684155100,6.210155029296875,-0.7456701397895813,-0.8302032351493835,0.09389237314462662
1633779587704035300,6.230035400390625,-0.7862957119941711,-0.845502495765686,-0.07334671914577484
1633779587723914200,6.249914306640625,-0.7534458041191101,-0.6235593557357788,-0.054940253496170044
1633779587743794200,6.269794189453125,-0.6543855667114258,-0.09195691347122192,0.05214288830757141
1633779587763673000,6.289673095703125,-0.5704662799835205,0.27829572558403015,0.06075095757842064
1633779587783553000,6.309552978515625,-0.4920382499694824,0.26352912187576294,-0.07994860410690308
1633779587803432200,6.32943212890625,-0.39408496022224426,0.11180102080106735,-0.2587850093841553
1633779587823312400,6.3493125,-0.2835260033607483,0.21520410478115082,-0.35253748297691345
1633779587843192000,6.369192138671875,-0.2160637378692627,0.5585547089576721,-0.45418229699134827
1633779587863071200,6.3890712890625,-0.21837463974952698,0.40799909830093384,-0.8198175430297852
1633779587882951200,6.408951171875,-0.30626267194747925,-0.18135540187358856,-1.2918130159378052
1633779587902830000,6.428830078125,-0.1774117648601532,-0.4444112777709961,-1.2647939920425415
1633779587922710300,6.448710205078125,0.1616067737340927,-0.1694924533367157,-0.7449858784675598
1633779587942590200,6.468590087890625,0.6735011339187622,0.422751784324646,-0.029277032241225243
1633779587962469000,6.48846923828125,1.0473977327346802,0.8511921763420105,0.5426276922225952
1633779587982349000,6.50834912109375,1.190755844116211,0.8032304048538208,0.7603064775466919
1633779588002228200,6.528228271484375,1.125306248664856,0.5256797671318054,0.687176525592804
1633779588022108200,6.548108154296875,0.8850191831588745,0.11949320137500763,0.5294132828712463
1633779588041987000,6.567987060546875,0.6273270845413208,-0.14548271894454956,0.4868259131908417
1633779588061867300,6.5878671875,0.45575958490371704,-0.04612097144126892,0.5963956713676453
1633779588081747200,6.607747314453125,0.37915757298469543,0.2722238004207611,0.7086642384529114
1633779588101626000,6.627626220703125,0.32109564542770386,0.5307168960571289,0.6381261944770813
1633779588121506300,6.64750634765625,0.21257363259792328,0.500493586063385,0.4167318344116211
1633779588141385000,6.667385009765625,0.10666144639253616,0.21677741408348083,0.22950954735279083
1633779588161265200,6.68726513671875,0.015140842646360397,-0.02890356257557869,0.14805251359939575
1633779588181144300,6.707144287109375,-0.08149661868810654,-0.08708067238330841,0.14716322720050812
1633779588201025000,6.72702490234375,-0.09330999851226807,0.20217537879943848,0.22775492072105408
1633779588220904200,6.746904296875,0.006576726213097572,0.47967785596847534,0.24584302306175232
1633779588240784000,6.766783935546875,0.10205433517694473,0.26867568492889404,0.0714106634259224
1633779588260664000,6.7866640625,0.10209488123655319,-0.2066592574119568,-0.18259960412979126
1633779588280543000,6.80654296875,0.08924010396003723,-0.3499833047389984,-0.32391342520713806
1633779588300423000,6.8264228515625,0.12076368182897568,-0.12433890253305435,-0.3289651870727539
1633779588320302000,6.846302001953125,0.15655702352523804,0.11923105269670486,-0.3128086030483246
1633779588340182000,6.86618212890625,0.12674732506275177,0.0001658191904425621,-0.4662643074989319
1633779588360062200,6.886062255859375,-0.026157183572649956,-0.29783958196640015,-0.6846232414245605
1633779588379940900,6.90594091796875,-0.22310340404510498,-0.5880830883979797,-0.8062723278999329
1633779588399821000,6.925821044921875,-0.3639408349990845,-0.5542364716529846,-0.7877230644226074
1633779588419700000,6.945699951171875,-0.3511309325695038,-0.25199219584465027,-0.6120464205741882
1633779588439580000,6.965579833984375,-0.2596621513366699,0.16608795523643494,-0.35402098298072815
1633779588459459000,6.985458984375,-0.1633179634809494,0.41157975792884827,-0.20117107033729553
1633779588479339000,7.005339111328125,-0.13182157278060913,0.42785704135894775,-0.1862051635980606
1633779588499219000,7.025218994140625,-0.14749440550804138,0.16694369912147522,-0.2183542400598526
1633779588519098000,7.04509814453125,-0.16461586952209473,-0.3433840870857239,-0.14765438437461853
1633779588538978000,7.06497802734375,-0.13078266382217407,-0.7484155297279358,0.10173168033361435
1633779588558857000,7.08485693359375,-0.08145971596240997,-0.7707594633102417,0.4407271146774292
1633779588578737000,7.10473681640625,-0.14005613327026367,-0.5718669295310974,0.6708442568778992
1633779588598616000,7.124615966796875,-0.32799646258354187,-0.36869651079177856,0.5771175026893616
1633779588618496000,7.14449609375,-0.5531814694404602,-0.2640399932861328,0.22074468433856964
1633779588638376000,7.1643759765625,-0.6171649694442749,-0.25713637471199036,-0.06181430071592331
1633779588658255000,7.184255126953125,-0.5548810362815857,-0.15001115202903748,-0.04516085982322693
1633779588678135000,7.204135009765625,-0.4784959852695465,0.06148989498615265,0.14440786838531494
1633779588698014000,7.224013916015625,-0.43061405420303345,0.18385693430900574,0.28222453594207764
1633779588717894100,7.24389404296875,-0.38565394282341003,0.18134555220603943,0.25984176993370056
1633779588737773000,7.26377294921875,-0.2945355176925659,0.17311105132102966,0.08541842550039291
1633779588757653000,7.283653076171875,-0.1107274666428566,0.2601408362388611,-0.11720892041921616
1633779588777533000,7.303532958984375,0.001591548090800643,0.3364153802394867,-0.21021531522274017
1633779588797411800,7.323411865234375,0.04238918051123619,0.36005261540412903,-0.2631953954696655
1633779588817292000,7.3432919921875,0.01736268773674965,0.011047416366636753,-0.48610901832580566
1633779588837171200,7.363171142578125,0.07754410803318024,-0.563891589641571,-0.7135558128356934
1633779588857051100,7.383051025390625,0.327227383852005,-0.8351438641548157,-0.5864538550376892
1633779588876930000,7.402929931640625,0.5758514404296875,-0.5068734884262085,-0.15783783793449402
1633779588896810000,7.42281005859375,0.690634548664093,0.09997312724590302,0.1505100429058075
1633779588916690200,7.442690185546875,0.6855483651161194,0.5456335544586182,0.08816806972026825
1633779588936569000,7.462569091796875,0.682561457157135,0.8049236536026001,-0.11186694353818893
1633779588956449000,7.482448974609375,0.7125012278556824,0.830547034740448,-0.14290545880794525
1633779588976328200,7.502328125,0.7483633160591125,0.6556210517883301,0.031644243746995926
1633779588996207900,7.522207763671875,0.7122030854225159,0.37045860290527344,0.2595573663711548
1633779589016087000,7.542087158203125,0.5399549603462219,0.13912318646907806,0.44046926498413086
1633779589035967200,7.56196728515625,0.3000756502151489,0.07409099489450455,0.4457758069038391
1633779589055847000,7.581846923828125,0.14949765801429749,0.11284159868955612,0.34029480814933777
1633779589075726000,7.60172607421875,0.13279597461223602,0.1819310039281845,0.31590601801872253
1633779589095606000,7.62160595703125,0.17663514614105225,0.18494810163974762,0.42737439274787903
1633779589115485000,7.64148486328125,0.1925712376832962,0.18915173411369324,0.6087503433227539
1633779589135365000,7.661365234375,0.2017696648836136,0.2299415022134781,0.6505590677261353
1633779589155244000,7.681244140625,0.24576620757579803,0.31881555914878845,0.6686012148857117
1633779589175124000,7.7011240234375,0.2894350588321686,0.18086032569408417,0.5699384212493896
1633779589194999800,7.720999755859375,0.28388676047325134,-0.30520331859588623,0.28085461258888245
1633779589214878700,7.740878662109375,0.14566530287265778,-0.6174598336219788,0.017280379310250282
1633779589234759000,7.760759033203125,0.02611914649605751,-0.31777387857437134,-0.13762466609477997
1633779589254637800,7.780637939453125,0.019438188523054123,0.2081999033689499,-0.23985177278518677
1633779589274517800,7.800517822265625,0.11781170964241028,0.432830274105072,-0.3366856276988983
1633779589294397000,7.82039697265625,0.040030550211668015,0.14538419246673584,-0.5008479356765747
1633779589314276600,7.840276611328125,-0.10927318036556244,-0.22308731079101562,-0.677408754825592
1633779589334156800,7.86015673828125,-0.24664223194122314,-0.4148661494255066,-0.7262372970581055
1633779589354036000,7.880035888671875,-0.30473753809928894,-0.26477572321891785,-0.6174194812774658
1633779589373915600,7.89991552734375,-0.20770195126533508,0.1351267695426941,-0.43097230792045593
1633779589393794800,7.919794921875,-0.0460226871073246,0.46254581212997437,-0.24177385866641998
1633779589413674800,7.9396748046875,0.05147689953446388,0.6133495569229126,-0.12371755391359329
1633779589433553700,7.9595537109375,0.15706782042980194,0.5142822265625,-0.085614874958992
1633779589453433900,7.979433837890625,0.15883737802505493,0.2797466218471527,-0.06969469785690308
1633779589473313800,7.999313720703125,0.08344854414463043,-0.010333500802516937,0.04585889354348183
1633779589493192700,8.019192626953124,0.056600674986839294,-0.20442068576812744,0.29061976075172424
1633779589513072600,8.03907275390625,0.029735304415225983,-0.2000630497932434,0.5681601762771606
1633779589532951800,8.058951904296874,0.00026277266442775726,-0.13196787238121033,0.6729360818862915
1633779589552831700,8.078831787109374,-0.12656262516975403,-0.2515462338924408,0.43443945050239563
1633779589572710700,8.098710693359376,-0.3371199369430542,-0.5388829708099365,-0.05421214550733566
1633779589592590800,8.1185908203125,-0.5603180527687073,-0.8443834781646729,-0.48207318782806396
1633779589612470800,8.138470703125,-0.6411885023117065,-0.7205068469047546,-0.6178126931190491
1633779589632349700,8.158349609375,-0.6161274313926697,-0.18723781406879425,-0.47523266077041626
1633779589652230000,8.17822998046875,-0.7310642004013062,-0.0318654403090477,-0.415762335062027
1633779589672108500,8.198108642578125,-0.9132901430130005,-0.47723448276519775,-0.6232250332832336
1633779589691988700,8.21798876953125,-0.8832868337631226,-0.6533547043800354,-0.7367369532585144
1633779589711868000,8.237867919921875,-0.6337225437164307,-0.20830854773521423,-0.49595439434051514
1633779589731747800,8.257747802734375,-0.2888651192188263,0.3617694079875946,-0.0375000424683094
1633779589751627800,8.277627685546875,-0.10406936705112457,0.44287577271461487,0.3047305643558502
1633779589771506700,8.297506591796875,-0.13197492063045502,-0.10996700823307037,0.28549331426620483
1633779589791387000,8.317386962890625,-0.2533190846443176,-1.0603809356689453,-0.14990301430225372
1633779589811265800,8.337265869140625,-0.32978516817092896,-1.4402594566345215,-0.6072359681129456
1633779589831145700,8.357145751953125,-0.30142438411712646,-1.134056568145752,-0.7059584259986877
1633779589851025000,8.37702490234375,-0.2513560950756073,-0.4328055679798126,-0.4837683439254761
1633779589870904600,8.396904541015624,-0.2662501335144043,0.2692769169807434,-0.2241479903459549
1633779589890784800,8.41678466796875,-0.2831211984157562,0.4484061002731323,-0.09221149235963821
1633779589910664000,8.436663818359374,-0.2751544117927551,0.2621738314628601,-0.07231531292200089
1633779589930543600,8.456543701171874,-0.1898861974477768,0.18744739890098572,-0.06004483252763748
1633779589950422800,8.4764228515625,-0.08407026529312134,0.25852441787719727,-0.021626999601721764
1633779589970302700,8.496302734375,-0.024770356714725494,0.3560652434825897,0.006728009786456823
1633779589990181600,8.516181640625,-0.02281292900443077,0.19636063277721405,-0.013504029251635075
1633779590010061800,8.536061767578126,-0.02123679406940937,-0.16164889931678772,-0.011519543826580048
1633779590029941800,8.555941650390626,0.03601478040218353,-0.3686458468437195,0.10147345811128616
1633779590049820700,8.575820556640625,0.14277435839176178,-0.15862517058849335,0.3158601224422455
1633779590069700600,8.59570068359375,0.2781996428966522,0.32506632804870605,0.5633034110069275
1633779590089579800,8.615579833984375,0.4041297137737274,0.6725542545318604,0.7225587368011475
1633779590109460000,8.6354599609375,0.4514589309692383,0.6432238817214966,0.7516253590583801
1633779590129338600,8.655338623046875,0.4011450707912445,0.4484899044036865,0.6857851147651672
1633779590149218800,8.67521875,0.3289833068847656,0.26118651032447815,0.5519995093345642
1633779590169098800,8.6950986328125,0.28201282024383545,0.1289290487766266,0.46384724974632263
1633779590188981800,8.714981689453126,0.29586929082870483,0.32917994260787964,0.4008108079433441
1633779590208862000,8.734862060546876,0.3821781873703003,0.6144697666168213,0.13377541303634644
1633779590228740600,8.75474072265625,0.3578327000141144,0.516964316368103,-0.317192941904068
1633779590248620800,8.774620849609375,0.09404478967189789,-0.10035305470228195,-0.7627701163291931
1633779590268500000,8.7945,-0.1519678384065628,-0.41432827711105347,-0.8332563638687134
1633779590288380000,8.8143798828125,-0.23374499380588531,-0.45722097158432007,-0.6010052561759949
1633779590308259800,8.834259765625,-0.1424010545015335,-0.33557963371276855,-0.28696346282958984
1633779590328138800,8.854138671875,0.01140157412737608,-0.05124383419752121,-0.06440672278404236
1633779590348019000,8.87401904296875,0.011014350689947605,0.02658199332654476,0.0180753655731678
1633779590367897900,8.89389794921875,-0.05443444103002548,-0.0955849438905716,0.013035204261541367
1633779590387777800,8.91377783203125,-0.37537556886672974,-0.39758241176605225,-0.04977085813879967
1633779590407657000,8.933656982421875,-0.9354608058929443,-0.7039498686790466,-0.17867590487003326
1633779590427536600,8.95353662109375,-1.0262556076049805,-0.8850093483924866,-0.6899716258049011
1633779590447415800,8.973415771484374,-0.7674534320831299,-0.2994488477706909,-0.880210816860199
1633779590467296000,8.9932958984375,-0.5118469595909119,0.16424337029457092,-0.8137319087982178
1633779590487175700,9.01317578125,-0.26965925097465515,0.17397606372833252,-0.41372522711753845
1633779590507054800,9.033054931640624,-0.30173638463020325,-0.35505127906799316,0.25722283124923706
1633779590526934800,9.052934814453126,-0.2499535232782364,-1.065243124961853,0.8625781536102295
1633779590546813700,9.072813720703126,-0.19152209162712097,-1.0377329587936401,1.3018337488174438
1633779590566694000,9.09269384765625,-0.16171589493751526,-0.3400590419769287,1.4586679935455322
1633779590586572800,9.11257275390625,-0.1517578661441803,0.27862390875816345,1.3508886098861694
1633779590606452700,9.13245263671875,-0.2742505967617035,0.4157584309577942,1.021640419960022
1633779590626332700,9.152332763671875,-0.39856064319610596,0.3545295000076294,0.6046600341796875
1633779590646211800,9.1722119140625,-0.5497872829437256,0.4401649534702301,0.2929168939590454
1633779590666092000,9.192092041015625,-0.3749734163284302,0.7363844513893127,0.1905641108751297
1633779590685970700,9.211970703125,0.00986618921160698,1.0216460227966309,0.042715832591056824
1633779590705851000,9.231850830078125,-0.05057331547141075,0.749269962310791,-0.3568322956562042
1633779590725729800,9.251729736328125,-0.6317281723022461,0.5544830560684204,-0.3795691132545471
1633779590745609700,9.271609619140625,-0.9377194046974182,0.5182995200157166,0.02952645905315876
1633779590765490000,9.291489990234375,-0.5483300089836121,0.7355567812919617,0.2909686267375946
1633779590785368800,9.311368896484375,0.02238406613469124,0.9992409944534302,0.13899533450603485
1633779590805248800,9.331248779296875,0.4327208697795868,0.22068409621715546,-0.5972225666046143
1633779590825128000,9.3511279296875,0.6007492542266846,-0.6710212230682373,-1.1291515827178955
1633779590845008000,9.3710078125,0.8032951354980469,-0.7440342903137207,-0.8597313165664673
1633779590864886800,9.39088671875,1.1746082305908203,0.06420225650072098,0.11652560532093048
1633779590884766700,9.4107666015625,1.31991708278656,0.75807785987854,0.9656099677085876
1633779590904647000,9.43064697265625,1.118431568145752,0.7469732165336609,1.0757895708084106
1633779590924525800,9.45052587890625,0.8641948103904724,0.4400755763053894,0.6977043747901917
1633779590944405800,9.47040576171875,0.760366678237915,0.25005006790161133,0.23309370875358582
1633779590964285000,9.490284912109376,0.8491696715354919,0.41875359416007996,0.09084741026163101
1633779590984164600,9.51016455078125,0.8978195786476135,0.6344010233879089,0.305267870426178
1633779591004043800,9.530043701171875,0.6902954578399658,0.5265636444091797,0.47721341252326965
1633779591023924000,9.549924072265625,0.39867594838142395,0.2507389187812805,0.4858093559741974
1633779591043803600,9.5698037109375,0.27201130986213684,-0.032500866800546646,0.314197301864624
1633779591063682800,9.589682861328125,0.4072447717189789,0.14502227306365967,0.19781090319156647
1633779591083562800,9.609562744140625,0.5178900957107544,0.2400706559419632,0.2350805550813675
1633779591103441700,9.629441650390625,0.5155682563781738,0.3018400967121124,0.4354436695575714
1633779591123321900,9.64932177734375,0.3792685270309448,0.5236141681671143,0.6411178708076477
1633779591143200800,9.66920068359375,0.2914183735847473,0.7186449766159058,0.6604297161102295
1633779591163080700,9.689080810546875,0.1722913235425949,0.8522635698318481,0.5737946629524231
1633779591182960600,9.708960693359375,0.12967488169670105,0.6570540070533752,0.41133421659469604
1633779591202836700,9.728836669921876,0.1373099833726883,0.39928126335144043,0.17876558005809784
1633779591222716700,9.748716552734376,-0.08059592545032501,-0.015329508110880852,-0.2524258494377136
1633779591242595600,9.768595703125,-0.4948060214519501,-0.9481912851333618,-0.9195652008056641
1633779591262475800,9.788475830078125,-0.8691623210906982,-0.9200310707092285,-1.2543203830718994
1633779591282354700,9.808354736328125,-0.9533872604370117,-0.4414764642715454,-1.1537655591964722
1633779591302234600,9.828234619140625,-0.7154108285903931,0.32613202929496765,-0.934719979763031
1633779591322114800,9.84811474609375,-0.42056912183761597,0.6737892627716064,-0.771575391292572
1633779591341993500,9.867993408203125,-0.04526616632938385,0.21241630613803864,-0.7348580360412598
1633779591361873700,9.887873779296875,0.12046533823013306,-0.23739586770534515,-0.749933660030365
1633779591381752800,9.9077529296875,0.26927852630615234,-0.6835702061653137,-0.7835918664932251
1633779591401632800,9.9276328125,0.479597806930542,-0.7588664889335632,-0.7334162592887878
1633779591421511700,9.94751171875,0.4176003038883209,-0.644804835319519,-0.3993023931980133
1633779591441391600,9.9673916015625,0.17738088965415955,-0.3465117812156677,0.17217396199703217
1633779591461270500,9.9872705078125,0.014310888014733791,0.07985933125019073,0.7645017504692078
1633779591481150700,10.007150634765624,-0.06533089280128479,0.13644181191921234,0.9924269914627075
1633779591501030700,10.02703076171875,-0.08510558307170868,0.012801645323634148,0.8733919858932495
1633779591520909800,10.046909912109374,-0.08562470972537994,0.09124975651502609,0.44584569334983826
1633779591540789500,10.06678955078125,-0.12256628274917603,0.41631171107292175,-0.10470525175333023
1633779591560668700,10.086668701171876,-0.13469423353672028,0.7052998542785645,-0.3857121169567108
1633779591580548900,10.106548828125,-0.11685916781425476,0.7777667045593262,-0.2647467255592346
1633779591600427500,10.126427490234375,-0.11538825184106827,0.698424220085144,-0.010342922993004322
1633779591620307700,10.1463076171875,-0.04445189982652664,0.7178158164024353,0.0694194808602333
1633779591640187000,10.166186767578125,0.028506407514214516,0.6193537712097168,-0.12206262350082397
1633779591660066600,10.186066650390625,0.07216998189687729,0.30874186754226685,-0.23273761570453644
1633779591679946800,10.20594677734375,0.2091064602136612,0.054050371050834656,-0.16306497156620026
1633779591699825700,10.22582568359375,0.45347410440444946,-0.1874099224805832,-0.14620408415794373
1633779591719705600,10.24570556640625,0.4887532889842987,-0.3240240514278412,-0.3569452166557312
1633779591739584800,10.265584716796875,0.297457754611969,-0.14554032683372498,-0.7103527784347534
1633779591759464700,10.285464599609375,0.19893264770507812,0.25620028376579285,-0.93680739402771
1633779591779343600,10.305343505859375,0.3398248553276062,0.5729435086250305,-0.7716057300567627
1633779591799223600,10.3252236328125,0.5904704332351685,0.511009931564331,-0.30184969305992126
1633779591819103700,10.345103759765625,0.817207932472229,0.38229286670684814,0.12897053360939026
1633779591838982700,10.364982666015624,0.8551197052001953,0.3900943994522095,0.2804258465766907
1633779591858862600,10.384862548828124,0.7689715027809143,0.45001769065856934,0.15663160383701324
1633779591878741800,10.40474169921875,0.5902872681617737,0.642440140247345,-0.03324800729751587
1633779591898621700,10.42462158203125,0.3381442725658417,0.5995217561721802,-0.03908645361661911
1633779591918500600,10.44450048828125,0.30333876609802246,0.5914923548698425,0.1408214569091797
1633779591938380800,10.464380859375,0.5271028280258179,0.42518350481987,0.32090237736701965
1633779591958260700,10.4842607421875,0.7391284704208374,0.014417028054594994,0.33191412687301636
1633779591978139600,10.5041396484375,0.6991426348686218,-0.23006419837474823,0.2406238466501236
1633779591998019600,10.52401953125,0.6655371189117432,0.49708667397499084,0.20821763575077057
1633779592017898800,10.543898681640625,0.5530348420143127,0.2699872851371765,0.23297439515590668
1633779592037778700,10.56377880859375,0.54952472448349,0.2784668803215027,0.642677366733551
1633779592057657600,10.58365771484375,0.5180311799049377,0.11203404515981674,0.9087663888931274
1633779592077537800,10.603537841796875,0.48299503326416016,0.09431026130914688,0.9378693103790283
1633779592097416700,10.623416748046875,0.45496535301208496,0.24030303955078125,0.7673428058624268
1633779592117296600,10.643296630859375,0.5138224959373474,0.5802408456802368,0.4741480350494385
1633779592137176800,10.6631767578125,0.5853525996208191,0.848307192325592,0.27742618322372437
1633779592157055700,10.6830556640625,0.5031508803367615,0.6902531385421753,0.2987142503261566
1633779592176935700,10.702935791015625,0.21311230957508087,-0.179995596408844,0.20448532700538635
1633779592196814300,10.722814453125,-0.08013711869716644,-0.9667219519615173,-0.07240352779626846
1633779592216694300,10.7426943359375,-0.16453996300697327,-1.1598719358444214,-0.25309985876083374
1633779592236573200,10.7625732421875,-0.2005741000175476,-1.269020438194275,-0.451873779296875
1633779592256453400,10.782453369140624,-0.3172191083431244,-1.361116886138916,-0.870118260383606
1633779592276332300,10.802332275390626,-0.47615256905555725,-0.9891149401664734,-1.1988885402679443
1633779592296212200,10.822212158203126,-0.5649657249450684,-0.43766140937805176,-1.121996283531189
1633779592316091400,10.84209130859375,-0.6012897491455078,0.0566413551568985,-0.8574551939964294
1633779592335971300,10.861971435546875,-0.5682910084724426,0.008531443774700165,-0.7024921178817749
1633779592355851500,10.8818515625,-0.5421497225761414,0.06082012504339218,-0.620028018951416
1633779592375730200,10.901730224609375,-0.45440614223480225,0.07348397374153137,-0.5126721858978271
1633779592395610400,10.9216103515625,-0.40518757700920105,0.03901318460702896,-0.23093201220035553
1633779592415489300,10.9414892578125,-0.5767576098442078,-0.13409343361854553,0.28991493582725525
1633779592435369200,10.961369140625,-0.6304180026054382,-0.42499035596847534,0.7961946129798889
1633779592455248400,10.981248291015625,-0.6447457075119019,-0.5392044186592102,1.1055278778076172
1633779592475128300,11.00112841796875,-0.6100977063179016,-0.43677818775177,1.1962106227874756
1633779592495008300,11.02100830078125,-0.5160242915153503,-0.13341176509857178,1.0384776592254639
1633779592514887400,11.040887451171875,-0.44761013984680176,0.03627430275082588,0.7217095494270325
1633779592534767400,11.060767333984375,-0.45571860671043396,0.024567045271396637,0.4014925956726074
1633779592554646300,11.080646240234374,-0.4548375606536865,0.00816116388887167,0.2803361117839813
1633779592574526200,11.100526123046874,-0.41538700461387634,0.05362052842974663,0.2740885317325592
1633779592594405400,11.1204052734375,-0.39997076988220215,-0.013080469332635403,0.20510970056056976
1633779592614285300,11.140285400390624,-0.3610306978225708,-0.005167862866073847,0.11528535187244415
1633779592634164200,11.160164306640626,-0.2450931817293167,0.05006637051701546,0.04775117337703705
1633779592654044400,11.18004443359375,-0.058274805545806885,-0.007408473640680313,-0.027697768062353134
1633779592673924000,11.199924072265626,0.09516700357198715,-0.11060134321451187,-0.12997950613498688
1633779592693803300,11.21980322265625,0.3571908175945282,0.03726508840918541,-0.16143667697906494
1633779592713683500,11.239683349609376,0.5006846785545349,-0.28554368019104004,-0.3606399893760681
1633779592733562000,11.25956201171875,0.3615468442440033,-0.9587665796279907,-1.1337647438049316
1633779592753442300,11.2794423828125,0.22053077816963196,-0.9348869323730469,-1.647843599319458
1633779592773321500,11.299321533203125,0.10115005075931549,-0.4596171975135803,-1.3827890157699585
1633779592793201200,11.319201171875,-0.03610088676214218,0.1082715317606926,-0.6887236833572388
1633779592813080300,11.339080322265625,-0.024271925911307335,0.47959020733833313,-0.09231648594141006
1633779592832960300,11.358960205078125,-0.014949055388569832,0.6778326630592346,0.16710586845874786
1633779592852839200,11.378839111328125,0.07102172076702118,0.7651739716529846,0.19820116460323334
1633779592872719400,11.39871923828125,0.22190050780773163,0.6434152126312256,0.18760035932064056
1633779592892599300,11.418599365234375,0.36840060353279114,0.4229196608066559,0.17116272449493408
1633779592912478200,11.438478271484374,0.4812503755092621,0.10574126243591309,0.17029595375061035
1633779592932358100,11.458358154296874,0.4922008216381073,-0.10673744976520538,0.17832928895950317
1633779592952237300,11.4782373046875,0.43760496377944946,-0.10019353032112122,0.2478170245885849
1633779592972117500,11.498117431640624,0.32811084389686584,0.06291602551937103,0.484550416469574
1633779592991996400,11.517996337890626,0.19294248521327972,0.15310540795326233,0.7843942642211914
1633779593011876400,11.53787646484375,0.0635283887386322,0.05970488116145134,0.9572344422340393
1633779593031756300,11.55775634765625,-0.040900640189647675,0.006523597054183483,0.8237670063972473
1633779593051635200,11.57763525390625,0.01928742602467537,0.06675790250301361,0.4076170027256012
1633779593071515400,11.597515380859376,0.1434670239686966,0.23690424859523773,-0.005299162585288286
1633779593091394300,11.617394287109375,0.22615496814250946,0.27920112013816833,-0.07419487833976746
1633779593111274200,11.637274169921875,0.241635262966156,0.2501484155654907,0.10161630809307098
1633779593131153400,11.6571533203125,0.24059975147247314,-0.07747738808393478,0.2004401832818985
1633779593151033300,11.677033447265625,0.09563622623682022,-0.5105573534965515,0.23098307847976685
1633779593170912300,11.696912353515625,-0.12453746795654297,-0.6197279691696167,0.2665562331676483
1633779593190795800,11.716795654296876,-0.12633758783340454,-0.3504221737384796,0.21409231424331665
1633779593210675000,11.736675048828126,-0.06402319669723511,-0.28122925758361816,-0.06065649539232254
1633779593230555000,11.756554931640625,-0.20342521369457245,-0.49220311641693115,-0.46645453572273254
1633779593250434800,11.776434814453125,-0.31517165899276733,-0.46365848183631897,-0.7846360802650452
1633779593270314000,11.79631396484375,-0.31692415475845337,-0.17818118631839752,-0.8893693685531616
1633779593290194000,11.81619384765625,-0.2508675158023834,0.22324445843696594,-0.7255027294158936
1633779593310072800,11.83607275390625,-0.124113067984581,0.4735657870769501,-0.32390713691711426
1633779593329953000,11.855953125,-0.07385732233524323,0.5281446576118469,0.14611099660396576
1633779593349832000,11.87583203125,-0.07659798860549927,0.4293496012687683,0.47066670656204224
1633779593369711900,11.8957119140625,-0.09719212353229523,0.16824138164520264,0.5653350949287415
1633779593389591000,11.915591064453125,-0.14901937544345856,-0.2667708694934845,0.497917115688324
1633779593409470700,11.935470703125,-0.2854573130607605,-0.7476567625999451,0.37407952547073364
1633779593429350000,11.955349853515624,-0.4672307074069977,-0.8205626606941223,0.3568776845932007
1633779593449230000,11.97522998046875,-0.565096378326416,-0.454019159078598,0.5178521275520325
1633779593469110000,11.995110107421874,-0.5484085083007812,0.07397818565368652,0.6833707690238953
1633779593488989000,12.014989013671874,-0.4966937303543091,0.2837664783000946,0.6830415725708008
1633779593508868900,12.034868896484374,-0.4523051083087921,0.19313430786132812,0.5164064764976501
1633779593528747800,12.054747802734376,-0.3508555591106415,0.04727235808968544,0.3439134657382965
1633779593548628000,12.0746279296875,-0.23986545205116272,-0.002484639175236225,0.29844754934310913
1633779593568507000,12.0945068359375,-0.1173168420791626,-0.02389032393693924,0.36063170433044434
1633779593588386800,12.11438671875,-0.1214754730463028,-0.08312924951314926,0.3823492228984833
1633779593608266000,12.134265869140625,-0.23957975208759308,-0.2352922409772873,0.2749119699001312
1633779593628146000,12.15414599609375,-0.3115859627723694,-0.181004136800766,0.15127022564411163
1633779593648026000,12.174026123046875,-0.2961203157901764,-0.01501063909381628,0.04578273743391037
1633779593667904800,12.19390478515625,-0.12655708193778992,0.2936170697212219,-0.03306983783841133
1633779593687785000,12.213784912109375,0.19826124608516693,0.481231689453125,0.005915518384426832
1633779593707664000,12.233663818359375,0.08163480460643768,-0.3693309724330902,-0.6140843629837036
1633779593727543800,12.253543701171875,-0.35209107398986816,-1.410310983657837,-1.8742938041687012
1633779593747423000,12.273423095703125,-0.44033607840538025,-1.0697627067565918,-2.3058862686157227
1633779593767303000,12.293302978515625,-0.341602087020874,-0.0019065653905272484,-1.678573489189148
1633779593787181800,12.313181884765624,-0.10364188998937607,0.7668746113777161,-0.4752207398414612
1633779593807062000,12.33306201171875,0.05943397805094719,1.032829999923706,0.5658352375030518
1633779593826940700,12.352940673828124,0.18421000242233276,0.9811522960662842,1.0061854124069214
1633779593846820900,12.37282080078125,0.3953525722026825,0.7115822434425354,0.8211608529090881
1633779593866700800,12.39270068359375,0.609821081161499,0.40513259172439575,0.31125757098197937
1633779593886580000,12.412580078125,0.7507450580596924,0.15729765594005585,-0.07231571525335312
1633779593906460000,12.4324599609375,0.7274224162101746,0.09454888105392456,-0.14428111910820007
1633779593926338800,12.4523388671875,0.6045379638671875,0.180360808968544,-0.008076807484030724
1633779593946219000,12.472218994140626,0.48912060260772705,0.25466248393058777,0.16933846473693848
1633779593966098000,12.492097900390625,0.38504737615585327,0.25837641954421997,0.2771010994911194
1633779593985977900,12.511977783203125,0.25204041600227356,0.16682955622673035,0.2672179937362671
1633779594005857000,12.53185693359375,0.21566587686538696,0.23303937911987305,0.16871392726898193
1633779594025736700,12.55173681640625,0.245986670255661,0.21085692942142487,0.04341002181172371
1633779594045617000,12.571616943359375,0.23876523971557617,-0.0034729326143860817,-0.0533926859498024
1633779594065496000,12.59149609375,0.20510540902614594,-0.061305250972509384,0.01987466961145401
1633779594085375700,12.611375732421875,0.2314155101776123,0.12755858898162842,0.255571573972702
1633779594105255000,12.6312548828125,0.25586700439453125,0.2700839340686798,0.48400792479515076
1633779594125134800,12.651134765625,0.25292864441871643,0.1426278054714203,0.5248551368713379
1633779594145013800,12.671013671875,0.19960886240005493,-0.1043902337551117,0.34482115507125854
1633779594164894000,12.69089404296875,0.10906489938497543,-0.4431672990322113,-0.005883293226361275
1633779594184772900,12.71077294921875,-0.02344260737299919,-0.6591019630432129,-0.2740285098552704
1633779594204648700,12.730648681640625,-0.18268638849258423,-0.6577618718147278,-0.43462538719177246
1633779594224528000,12.75052783203125,-0.33717241883277893,-0.4993159770965576,-0.5089667439460754
1633779594244407600,12.770407470703125,-0.45469433069229126,-0.13107261061668396,-0.4129105806350708
1633779594264287700,12.790287841796875,-0.45799368619918823,0.19716615974903107,-0.19829824566841125
1633779594284167000,12.8101669921875,-0.41412481665611267,0.3499663472175598,-0.024918384850025177
1633779594304046800,12.830046875,-0.34272685647010803,0.3198530077934265,-0.004175693262368441
1633779594323925800,12.84992578125,-0.22074387967586517,0.18508587777614594,-0.1028313934803009
1633779594343805700,12.8698056640625,-0.11845939606428146,0.031766366213560104,-0.241020068526268
1633779594363684600,12.8896845703125,-0.0694851279258728,-0.09650345146656036,-0.2924520671367645
1633779594383564800,12.909564697265624,-0.05200967192649841,-0.16704793274402618,-0.26514187455177307
1633779594403443700,12.929443603515624,-0.04651923105120659,-0.20592057704925537,-0.1865699142217636
1633779594423324000,12.949323974609374,-0.030748263001441956,-0.22264620661735535,-0.11237145215272903
1633779594443202800,12.969202880859376,-0.0016725114546716213,-0.21467190980911255,-0.013492732308804989
1633779594463082800,12.989082763671876,0.016960561275482178,-0.20735514163970947,0.08677315711975098
1633779594482963000,13.008962890625,0.011653203517198563,-0.15714700520038605,0.1635972559452057
1633779594502841600,13.028841552734375,-0.015589946880936623,-0.12239141762256622,0.165755033493042
1633779594522721800,13.0487216796875,-0.06229671463370323,-0.13960902392864227,0.11374205350875854
1633779594542601000,13.06860107421875,-0.11455025523900986,-0.12455205619335175,0.03313739225268364
1633779594562480600,13.088480712890625,-0.13729678094387054,-0.09417177736759186,-0.06767440587282181
1633779594582359800,13.10835986328125,-0.1417486071586609,-0.04210484027862549,-0.0740874782204628
1633779594602239700,13.12823974609375,-0.1187245100736618,-0.012927688658237457,-0.013339575380086899
1633779594622118700,13.14811865234375,-0.0779256746172905,-0.0062911007553339005,0.03154628351330757
1633779594641998800,13.167998779296875,-0.032938770949840546,-0.023619215935468674,0.02852664887905121
1633779594661877800,13.187877685546875,-0.005889074876904488,-0.04630475863814354,0.025087829679250717
1633779594681757700,13.2077578125,0.016895920038223267,-0.05662280693650246,0.011331696063280106
1633779594701636900,13.227636962890625,0.030163312330842018,-0.02102024294435978,0.01490768138319254
1633779594721516800,13.247516845703124,0.026197519153356552,-0.01595889776945114,-0.003547665197402239
1633779594741396700,13.267396728515624,0.009509309194982052,-0.04178864508867264,-0.06145372986793518
1633779594761275600,13.287275634765624,-0.010768288746476173,-0.06013159453868866,-0.11125938594341278
1633779594781155800,13.30715576171875,-0.01567922532558441,-0.04323747754096985,-0.11135329306125641
1633779594801034800,13.32703466796875,-0.018472954630851746,-0.020615877583622932,-0.0755910649895668
1633779594820914700,13.346914794921876,-0.007060379255563021,-0.003174392506480217,-0.014005802571773529
1633779594840793900,13.3667939453125,0.0032666909974068403,0.021051762625575066,0.02944493293762207
1633779594860673800,13.386673828125,0.014282486401498318,0.022658614441752434,0.023874081671237946
1633779594880552700,13.406552734375,0.0258296187967062,-0.00789361260831356,0.012855350971221924
1633779594900433000,13.426432861328125,0.03572212904691696,-0.042960960417985916,0.041276704519987106
1633779594920311800,13.446311767578125,0.04489557445049286,-0.037530504167079926,0.08118746429681778
1633779594940191700,13.466191650390625,0.05436897277832031,-0.009767315350472927,0.09277913719415665
1633779594960071700,13.48607177734375,0.060768868774175644,0.017565064132213593,0.04325436055660248
1633779594979950600,13.50595068359375,0.05588126555085182,0.022312398999929428,-0.01608055643737316
1633779594999830800,13.525830810546875,0.056582335382699966,0.013353799469769001,-0.05721861124038696
1633779595019710000,13.5457099609375,0.057010821998119354,0.0007032593712210655,-0.03550759702920914
1633779595039590000,13.56558984375,0.06539459526538849,0.006706820800900459,0.02521400898694992
1633779595059468800,13.58546875,0.07080722600221634,0.04026734083890915,0.051458679139614105
1633779595079348700,13.6053486328125,0.06316414475440979,0.04118684306740761,0.03845202550292015
1633779595099227600,13.6252275390625,0.05773521214723587,0.05916425958275795,-0.015527758747339249
1633779595119107800,13.64510791015625,0.05910853296518326,0.038403499871492386,-0.04258018359541893
1633779595138986800,13.66498681640625,0.04846921190619469,0.012535499408841133,-0.022375576198101044
1633779595158867000,13.684866943359374,0.046413127332925797,0.007612907327711582,0.006922862958163023
1633779595178746600,13.70474658203125,0.05361748859286308,0.020626280456781387,0.03431639075279236
1633779595198626000,13.7246259765625,0.05743579566478729,0.02932637929916382,0.02768545411527157
1633779595218506000,13.744506103515626,0.05111854523420334,0.011677415110170841,-0.009770689532160759
1633779595238385200,13.76438525390625,0.04096435010433197,-0.013335596770048141,-0.053281333297491074
1633779595258265300,13.784265380859376,0.028538653627038002,-0.02128567360341549,-0.06385762989521027
1633779595278144000,13.80414404296875,0.035858821123838425,-0.007269193883985281,-0.054489731788635254
1633779595298024200,13.824024169921875,0.030711794272065163,-0.009612771682441235,-0.046597953885793686
1633779595317903000,13.843903076171875,0.02193421870470047,0.0019434792920947075,-0.05331793799996376
1633779595337783000,13.863782958984375,0.01699906773865223,0.007600107230246067,-0.07751623541116714
1633779595357662200,13.883662109375,0.027578840032219887,0.01001011487096548,-0.09493646770715714
1633779595377542100,13.903542236328125,0.03868740797042847,-0.0000716308131814003,-0.05253495275974274
1633779595397421000,13.923421142578125,0.03645395487546921,-0.02398575469851494,-0.015165538527071476
1633779595417301200,13.94330126953125,0.03404518589377403,-0.01695580780506134,0.006222073454409838
1633779595437181200,13.96318115234375,0.024503488093614578,-0.023988954722881317,-0.015979431569576263
1633779595457060000,13.98306005859375,0.028781460598111153,-0.0012353500351309776,-0.034715764224529266
1633779595476940000,14.00293994140625,0.027272498235106468,0.019827593117952347,-0.02629685588181019
1633779595496819200,14.022819091796874,0.02641737088561058,0.014282889664173126,-0.002198836300522089
1633779595516699100,14.04269921875,0.03408394753932953,0.004892495460808277,0.01996871642768383
1633779595536578300,14.062578369140626,0.042000263929367065,0.0038201259449124336,0.025488154962658882
1633779595556458200,14.082458251953126,0.04041741043329239,0.010992731899023056,0.021011844277381897
1633779595576337200,14.102337158203126,0.031259577721357346,0.012652507983148098,0.013867906294763088
1633779595596217000,14.122217041015626,0.028577066957950592,-0.0038084094412624836,0.01125099416822195
1633779595616096300,14.14209619140625,0.03617260605096817,-0.010290812700986862,0.014123182743787766
1633779595635976200,14.16197607421875,0.04486534371972084,-0.01530544739216566,0.030127141624689102
1633779595655855000,14.181855224609375,0.040597379207611084,-0.000014116987586021423,0.031878575682640076
1633779595675735300,14.2017353515625,0.03990834206342697,0.010827885940670967,0.00648809177801013
1633779595695615000,14.221614990234375,0.03191571310162544,0.0160454623401165,-0.00490568159148097
1633779595715494100,14.241494140625,0.027066340669989586,0.014531877823174,0.005999288056045771
1633779595735374300,14.261374267578125,0.02169831283390522,0.010581630282104015,0.014327706769108772
1633779595755253000,14.2812529296875,0.017757289111614227,0.007896102033555508,0.0029869969002902508
1633779595775133200,14.30113330078125,0.018200747668743134,0.00927816890180111,-0.000262967252638191
1633779595795012400,14.321012451171875,0.018971513956785202,0.023087384179234505,0.006636238191276789
1633779595814892000,14.34089208984375,0.019418815150856972,0.037344954907894135,0.02383887767791748
1633779595834771200,14.360771240234374,0.02946070209145546,0.0364852175116539,0.035143010318279266
1633779595854651100,14.380651123046874,0.037907663732767105,0.03233351930975914,0.050558559596538544
1633779595874530000,14.400530029296876,0.0338011234998703,-0.0010861260816454887,0.04989052936434746
1633779595894410200,14.42041015625,0.02883092127740383,-0.007318095304071903,0.04560166969895363
1633779595914289200,14.4402890625,0.020899344235658646,0.0031179478392004967,0.038574449717998505
1633779595934169000,14.460169189453126,0.0146687813103199,0.03374623879790306,0.02641826681792736
1633779595954049000,14.480049072265626,0.016011785715818405,0.041754819452762604,0.026314787566661835
1633779595973928200,14.49992822265625,0.0074090491980314255,-0.0005914820358157158,0.025133181363344193
1633779595993808100,14.51980810546875,0.007265138439834118,-0.00934194028377533,0.008601028472185135
1633779596013687000,14.53968701171875,0.02085910178720951,0.03253893926739693,-0.007117421366274357
1633779596033567200,14.559567138671875,0.020721150562167168,0.06678186357021332,-0.005643893964588642
1633779596053446100,14.579446044921875,0.0114516019821167,0.04849989339709282,-0.006409894675016403
1633779596073326000,14.599326171875,-0.009836114011704922,0.012713225558400154,0.000824978924356401
1633779596093205200,14.619205322265625,-0.00946132279932499,-0.025755170732736588,-0.0120044881477952
1633779596113085000,14.6390849609375,0.0005337938200682402,-0.029962792992591858,-0.009790732525289059
1633779596132964000,14.658964111328125,0.009060412645339966,-0.010082722641527653,0.014377973042428493
1633779596152844300,14.67884423828125,0.006203912198543549,-0.009553378447890282,0.028586605563759804
1633779596172723000,14.698722900390624,0.00914069451391697,-0.004249244462698698,0.028387991711497307
1633779596192604200,14.718604248046875,0.004243137314915657,0.0008273627609014511,0.0319754034280777
1633779596212484000,14.738484130859375,0.0034650606103241444,0.006203917786478996,0.03834693133831024
1633779596232363300,14.75836328125,-0.0008063951972872019,0.013653495348989964,0.06444323807954788
1633779596252243000,14.778242919921874,-0.010290426202118397,0.0040708985179662704,0.0707113966345787
1633779596272122000,14.7981220703125,-0.014914564788341522,0.012869643047451973,0.05739115551114082
1633779596292002300,14.818002197265624,-0.010601421818137169,0.01108913030475378,0.04901785030961037
1633779596311881000,14.837880859375,-0.01736336387693882,0.026089543476700783,0.06107376515865326
1633779596331761200,14.85776123046875,-0.01891694962978363,0.06413548439741135,0.056617140769958496
1633779596351640300,14.877640380859376,-0.02912130579352379,0.09121929109096527,0.03484091907739639
1633779596371520000,14.89752001953125,-0.03442053496837616,0.11408430337905884,0.02316451445221901
1633779596391399200,14.917399169921875,-0.030636778101325035,0.10602904856204987,-0.0076962243765592575
1633779596411279000,14.937279052734375,-0.02814062125980854,0.09014631807804108,-0.054948702454566956
1633779596431158000,14.957157958984375,-0.01703382283449173,0.20219393074512482,-0.01932142674922943
1633779596451038200,14.9770380859375,-0.007936314679682255,0.44117045402526855,0.13297125697135925
1633779596470918100,14.996918212890625,-0.04382720962166786,0.08428273350000381,-0.07767746597528458
1633779596490797000,15.016797119140625,-0.01345868594944477,-0.02449512854218483,-0.14951039850711823
1633779596510677000,15.036677001953125,0.004582216031849384,-0.1488243043422699,-0.13132134079933167
1633779596530556200,15.05655615234375,0.015584353357553482,-0.13281600177288055,-0.0850915014743805
