time,seconds_elapsed,z,y,x
1633779581501605000,0.027605224609375,15.617279052734375,-23.816146850585938,3.6150856018066406
1633779581521485000,0.047485107421875,15.620635986328125,-23.65808868408203,3.509143829345703
1633779581541364000,0.067364013671875,15.3267822265625,-23.57168197631836,3.7291603088378906
1633779581561244000,0.087243896484375,15.079132080078125,-23.6590576171875,3.4366188049316406
1633779581581124000,0.1071240234375,15.1607666015625,-23.87512969970703,3.6307640075683594
1633779581601003000,0.1270029296875,15.176513671875,-23.866539001464844,3.7418174743652344
1633779581620883000,0.146883056640625,15.208984375,-23.90560531616211,3.6781082153320312
1633779581640762000,0.16676220703125,15.510498046875,-23.818126678466797,3.6736488342285156
1633779581660641800,0.186641845703125,15.19854736328125,-23.934799194335938,3.9001541137695312
1633779581680521000,0.20652099609375,14.675628662109375,-23.981529235839844,3.653118133544922
1633779581700401200,0.226401123046875,14.5623779296875,-24.07823944091797,3.8582382202148438
1633779581720281000,0.246281005859375,14.3516845703125,-24.155872344970703,4.0540313720703125
1633779581740160000,0.266159912109375,14.35870361328125,-24.256954193115234,3.8208465576171875
1633779581760040000,0.2860400390625,14.35784912109375,-24.40322494506836,3.6456451416015625
1633779581779918800,0.3059189453125,14.383758544921875,-24.302734375,3.865215301513672
1633779581799799000,0.325799072265625,14.852569580078125,-23.903064727783203,4.1573638916015625
1633779581819679000,0.345678955078125,14.601806640625,-23.82110595703125,4.0660400390625
1633779581839558100,0.36555810546875,15.312713623046875,-24.096233367919922,4.062049865722656
1633779581859437800,0.385437744140625,15.936676025390625,-23.81377410888672,4.030250549316406
1633779581879317000,0.40531689453125,15.683013916015625,-23.720184326171875,3.928333282470703
1633779581899197200,0.425197265625,15.14556884765625,-24.038501739501953,4.1988372802734375
1633779581919075800,0.445075927734375,13.900604248046875,-24.517528533935547,4.204708099365234
1633779581938956000,0.4649560546875,13.886444091796875,-24.715320587158203,4.197856903076172
1633779581958836000,0.4848359375,13.550628662109375,-24.77972412109375,4.167819976806641
1633779581978715000,0.50471484375,12.902252197265625,-25.30596923828125,4.184040069580078
1633779581998595000,0.524594970703125,12.84271240234375,-25.548160552978516,3.6071205139160156
1633779582018474000,0.544473876953125,12.80511474609375,-25.42401885986328,3.802776336669922
1633779582038354000,0.56435400390625,12.580657958984375,-25.363056182861328,3.810894012451172
1633779582058233000,0.584233154296875,12.799835205078125,-25.628292083740234,3.5595054626464844
1633779582078113000,0.604113037109375,13.680633544921875,-25.191314697265625,3.313751220703125
1633779582097993200,0.6239931640625,14.05682373046875,-25.048385620117188,2.9016494750976562
1633779582117871900,0.643871826171875,14.444061279296875,-24.512954711914062,2.4495315551757812
1633779582137752000,0.663751953125,14.7496337890625,-24.16803741455078,2.2136383056640625
1633779582157631000,0.683630859375,14.34979248046875,-24.078960418701172,1.7175025939941406
1633779582177511000,0.703510986328125,15.485626220703125,-23.847530364990234,1.6008415222167969
1633779582197390300,0.723390380859375,15.578826904296875,-23.898075103759766,1.1948928833007812
1633779582217270300,0.743270263671875,15.35418701171875,-23.572460174560547,0.7359580993652344
1633779582237150200,0.763150146484375,15.76751708984375,-23.369548797607422,0.4336433410644531
1633779582257029400,0.783029296875,15.787139892578125,-23.118038177490234,0.001789093017578125
1633779582276909300,0.802909423828125,16.1287841796875,-22.807456970214844,-0.3487815856933594
1633779582296788200,0.822788330078125,16.255828857421875,-22.308361053466797,-0.3795738220214844
1633779582316668200,0.842668212890625,16.462158203125,-22.01889419555664,-0.8008308410644531
1633779582336547300,0.86254736328125,16.487335205078125,-21.802227020263672,-1.3887786865234375
1633779582356427300,0.88242724609375,16.502227783203125,-21.451610565185547,-1.5610275268554688
1633779582376307200,0.90230712890625,16.38226318359375,-21.30770492553711,-1.7860641479492188
1633779582396186400,0.922186279296875,16.277313232421875,-21.171249389648438,-2.0181198120117188
1633779582416066000,0.942066162109375,15.9254150390625,-21.117633819580078,-2.2404632568359375
1633779582435945200,0.9619453125,15.794097900390625,-20.81756591796875,-2.2710189819335938
1633779582455825400,0.981825439453125,15.65008544921875,-21.020992279052734,-2.40301513671875
1633779582475704300,1.001704345703125,15.273651123046875,-20.9488525390625,-2.7136306762695312
1633779582495584300,1.021584228515625,15.3250732421875,-20.714611053466797,-2.4841537475585938
1633779582515463400,1.04146337890625,15.25225830078125,-20.53022003173828,-2.574726104736328
1633779582535343000,1.061343017578125,15.108978271484375,-20.41064453125,-2.412700653076172
1633779582555223300,1.081223388671875,14.945831298828125,-20.09035873413086,-2.4640464782714844
1633779582575102200,1.101102294921875,14.818084716796875,-20.24158477783203,-2.4709205627441406
1633779582594982400,1.120982421875,14.491241455078125,-19.687728881835938,-2.2391510009765625
1633779582614861300,1.140861328125,14.877716064453125,-19.167308807373047,-2.4490127563476562
1633779582634741200,1.1607412109375,14.9190673828125,-19.097187042236328,-2.498157501220703
1633779582654620200,1.1806201171875,14.60205078125,-18.65884017944336,-2.390033721923828
1633779582674500400,1.200500244140625,14.621978759765625,-18.532535552978516,-2.48077392578125
1633779582694380300,1.22038037109375,14.472686767578125,-18.325443267822266,-2.5214195251464844
1633779582714259500,1.240259521484375,14.73175048828125,-17.828994750976562,-2.5023460388183594
1633779582734139100,1.26013916015625,15.245849609375,-17.474048614501953,-2.424297332763672
1633779582754018300,1.280018310546875,15.910552978515625,-16.72185516357422,-2.3104248046875
1633779582773898200,1.299898193359375,15.727569580078125,-16.336856842041016,-2.4894752502441406
1633779582793777200,1.319777099609375,15.911956787109375,-15.789020538330078,-2.2408294677734375
1633779582813657300,1.3396572265625,16.08294677734375,-15.284969329833984,-2.2036361694335938
1633779582833537300,1.359537353515625,16.1693115234375,-14.963665008544922,-2.0369186401367188
1633779582853416200,1.379416259765625,15.7506103515625,-14.553421020507812,-2.006134033203125
1633779582873296400,1.39929638671875,15.795562744140625,-14.43570327758789,-1.8430900573730469
1633779582893175300,1.41917529296875,15.46966552734375,-14.170913696289062,-1.6834487915039062
1633779582913055200,1.43905517578125,15.56988525390625,-14.032909393310547,-1.8911247253417969
1633779582932935200,1.45893505859375,15.132354736328125,-13.886356353759766,-1.8104362487792969
1633779582952814300,1.478814453125,14.735992431640625,-13.751644134521484,-1.6517448425292969
1633779582972694300,1.4986943359375,14.10137939453125,-13.768489837646484,-1.8384819030761719
1633779582992573200,1.5185732421875,13.848876953125,-14.307605743408203,-1.6435585021972656
1633779583012453400,1.538453369140625,12.851470947265625,-14.398983001708984,-1.3371810913085938
1633779583032332300,1.558332275390625,12.07318115234375,-14.37789535522461,-0.9280738830566406
1633779583052212200,1.578212158203125,11.676116943359375,-14.37283706665039,-0.5288276672363281
1633779583072091400,1.59809130859375,11.6226806640625,-14.241077423095703,-0.9663734436035156
1633779583091971000,1.61797119140625,11.5157470703125,-14.094772338867188,-0.8610916137695312
1633779583111851300,1.637851318359375,11.360870361328125,-14.159008026123047,-0.9452133178710938
1633779583131730400,1.65773046875,10.9073486328125,-13.881610870361328,-0.9117012023925781
1633779583151610400,1.6776103515625,10.636993408203125,-13.756664276123047,-0.6727561950683594
1633779583171489300,1.6974892578125,10.73968505859375,-13.454177856445312,-0.7028007507324219
1633779583191372500,1.71737255859375,11.137176513671875,-12.949966430664062,-0.4412078857421875
1633779583211251700,1.737251708984375,11.36346435546875,-12.38491439819336,-0.5770759582519531
1633779583231131600,1.757131591796875,11.004547119140625,-12.044593811035156,-0.4148750305175781
1633779583251011600,1.777011474609375,10.700531005859375,-11.921504974365234,-0.4198265075683594
1633779583270890800,1.796890869140625,10.503326416015625,-11.47745132446289,-0.14561843872070312
1633779583290770400,1.8167705078125,10.27099609375,-11.038524627685547,-0.29035186767578125
1633779583310649600,1.836649658203125,10.345672607421875,-10.917778015136719,0.110015869140625
1633779583330529800,1.85652978515625,10.4527587890625,-10.352508544921875,0.28736114501953125
1633779583350408400,1.876408447265625,9.821136474609375,-10.13983154296875,0.4830665588378906
1633779583370288600,1.89628857421875,9.965606689453125,-10.270736694335938,0.677001953125
1633779583390168600,1.91616845703125,9.669097900390625,-9.777908325195312,0.9167327880859375
1633779583410047500,1.936047607421875,9.417816162109375,-10.075183868408203,0.7577667236328125
1633779583429927700,1.955927734375,9.516754150390625,-9.507423400878906,1.2491302490234375
1633779583449806600,1.975806640625,9.137786865234375,-9.4215087890625,1.3910064697265625
1633779583469686800,1.995686767578125,8.891632080078125,-9.379745483398438,1.4418449401855469
1633779583489565700,2.015565673828125,8.7322998046875,-9.326271057128906,1.7589187622070312
1633779583509445600,2.035445556640625,8.06561279296875,-9.121421813964844,1.6899261474609375
1633779583529325800,2.055325927734375,7.64703369140625,-8.880760192871094,2.122821807861328
1633779583549204500,2.07520458984375,7.17620849609375,-9.099227905273438,2.3160400390625
1633779583569084700,2.095084716796875,6.5665283203125,-9.251781463623047,2.32440185546875
1633779583588963800,2.1149638671875,6.583831787109375,-9.007225036621094,2.4525222778320312
1633779583608843500,2.134843505859375,6.594207763671875,-8.70901107788086,2.688323974609375
1633779583628722700,2.15472265625,6.557037353515625,-8.401466369628906,2.9613304138183594
1633779583648602600,2.1746025390625,6.5189208984375,-7.951511383056641,3.0450096130371094
1633779583668482600,2.194482666015625,6.246307373046875,-8.018001556396484,3.1145401000976562
1633779583688361700,2.21436181640625,5.935791015625,-8.05173110961914,3.337726593017578
1633779583708241700,2.23424169921875,5.94183349609375,-7.656063079833984,3.705272674560547
1633779583728120600,2.25412060546875,5.2825927734375,-7.535636901855469,4.040477752685547
1633779583748000500,2.27400048828125,5.3424072265625,-7.320346832275391,4.332302093505859
1633779583767879700,2.293879638671875,5.420501708984375,-7.407613754272461,4.558200836181641
1633779583787759600,2.313759521484375,4.80792236328125,-7.211132049560547,4.714179992675781
1633779583807639600,2.3336396484375,4.6181640625,-6.6198272705078125,5.384944915771484
1633779583827518700,2.353518798828125,4.19903564453125,-6.462400436401367,5.828800201416016
1633779583847398700,2.373398681640625,3.664703369140625,-6.584922790527344,6.108726501464844
1633779583867277600,2.393277587890625,3.64581298828125,-6.605461120605469,6.595317840576172
1633779583887157800,2.41315771484375,3.564544677734375,-6.326873779296875,7.045021057128906
1633779583907036400,2.433036376953125,3.552276611328125,-6.172857284545898,7.744052886962891
1633779583926916600,2.45291650390625,2.915374755859375,-6.341682434082031,8.444805145263672
1633779583946796500,2.472796630859375,2.515960693359375,-6.207267761230469,8.840778350830078
1633779583966675700,2.49267578125,2.2716064453125,-6.172811508178711,9.079116821289062
1633779583986555600,2.5125556640625,2.045623779296875,-6.314085006713867,9.730594635009766
1633779584006434600,2.5324345703125,1.75897216796875,-6.351213455200195,10.172538757324219
1633779584026314800,2.552314697265625,1.718048095703125,-6.23982048034668,10.603492736816406
1633779584046193700,2.572193603515625,1.956939697265625,-6.103725433349609,11.397605895996094
1633779584066073600,2.592073486328125,1.752655029296875,-6.0072479248046875,11.896656036376953
1633779584085953800,2.611953857421875,1.61602783203125,-5.98316764831543,12.264701843261719
1633779584105832700,2.631832763671875,1.67181396484375,-6.420385360717773,12.695846557617188
1633779584125712600,2.651712646484375,1.97216796875,-6.491186141967773,12.997161865234375
1633779584145591800,2.671591796875,1.810089111328125,-6.659387588500977,13.533199310302734
1633779584165471500,2.691471435546875,1.626312255859375,-6.510660171508789,13.82077407836914
1633779584185347000,2.71134716796875,2.217437744140625,-6.448431015014648,14.321624755859375
1633779584205227300,2.731227294921875,2.02374267578125,-6.455997467041016,14.690345764160156
1633779584225107200,2.751107177734375,2.09783935546875,-6.836633682250977,15.042312622070312
1633779584244986000,2.770986083984375,2.7115478515625,-6.743776321411133,15.449111938476562
1633779584264866000,2.790865966796875,2.611175537109375,-6.867643356323242,16.07678985595703
1633779584284745200,2.8107451171875,2.375732421875,-6.723615646362305,16.343788146972656
1633779584304625200,2.830625244140625,2.85833740234375,-7.126094818115234,16.666248321533203
1633779584324504000,2.850504150390625,2.9556884765625,-7.483303070068359,17.29070281982422
1633779584344384300,2.87038427734375,2.99957275390625,-7.783000946044922,17.57271957397461
1633779584364264200,2.89026416015625,2.73309326171875,-8.000362396240234,17.687686920166016
1633779584384143000,2.91014306640625,2.69488525390625,-8.362754821777344,17.835628509521484
1633779584404023300,2.930023193359375,2.759735107421875,-8.389442443847656,18.211837768554688
1633779584423902000,2.94990185546875,3.331939697265625,-8.447059631347656,18.800270080566406
1633779584443782100,2.9697822265625,3.048492431640625,-8.701194763183594,19.11774444580078
1633779584463661300,2.989661376953125,2.69879150390625,-8.835411071777344,19.505149841308594
1633779584483541200,3.009541259765625,2.464752197265625,-9.033226013183594,20.176876068115234
1633779584503421200,3.029421142578125,1.89892578125,-9.124099731445312,20.35034942626953
1633779584523300000,3.049300048828125,2.031982421875,-9.296512603759766,20.989349365234375
1633779584543180300,3.06918017578125,1.76104736328125,-9.696895599365234,20.928382873535156
1633779584563059200,3.08905908203125,1.7398681640625,-9.552623748779297,21.55278778076172
1633779584582939100,3.108939208984375,1.80462646484375,-9.233047485351562,21.782127380371094
1633779584602818300,3.128818359375,1.478729248046875,-9.41592788696289,22.14501190185547
1633779584622698000,3.148697998046875,1.954742431640625,-9.448745727539062,22.476465225219727
1633779584642578200,3.168578125,1.936431884765625,-9.348152160644531,22.433671951293945
1633779584662457300,3.188457275390625,2.140350341796875,-9.412673950195312,22.693967819213867
1633779584682337000,3.2083369140625,1.86590576171875,-9.631752014160156,22.748048782348633
1633779584702216200,3.22821630859375,1.9949951171875,-9.448810577392578,22.98406982421875
1633779584722096000,3.24809619140625,1.627227783203125,-9.319343566894531,23.792993545532227
1633779584741975000,3.26797509765625,1.5789794921875,-9.5147705078125,24.131458282470703
1633779584761855200,3.287855224609375,1.20074462890625,-9.451160430908203,24.35007095336914
1633779584781735200,3.307735107421875,1.247161865234375,-9.34628677368164,24.651138305664062
1633779584801614000,3.327614013671875,0.6876220703125,-9.423160552978516,25.441078186035156
1633779584821494000,3.347493896484375,0.706085205078125,-9.067787170410156,25.841663360595703
1633779584841373200,3.367373291015625,0.193511962890625,-8.914436340332031,26.53740119934082
1633779584861253400,3.38725341796875,-0.226165771484375,-8.483383178710938,27.128690719604492
1633779584881132000,3.407132080078125,-0.197235107421875,-8.287803649902344,27.29619789123535
1633779584901012200,3.42701220703125,0.091644287109375,-7.984333038330078,28.030372619628906
1633779584920892200,3.44689208984375,-0.76556396484375,-7.766986846923828,28.268770217895508
1633779584940771000,3.46677099609375,-0.3267822265625,-7.931690216064453,28.753435134887695
1633779584960651300,3.4866513671875,-0.707183837890625,-7.708126068115234,29.369823455810547
1633779584980530200,3.5065302734375,-0.933319091796875,-8.01613998413086,29.6918888092041
1633779585000410000,3.52641015625,-0.702392578125,-7.847866058349609,30.151548385620117
1633779585020289300,3.546289306640625,-0.810272216796875,-8.133411407470703,30.239370346069336
1633779585040169200,3.566169189453125,-0.46551513671875,-9.013729095458984,30.43311309814453
1633779585060049200,3.586049072265625,-0.465057373046875,-9.59365463256836,30.770326614379883
1633779585079928000,3.605927978515625,-0.50823974609375,-10.600509643554688,30.6763973236084
1633779585099808300,3.625808349609375,-0.622772216796875,-11.209636688232422,30.509521484375
1633779585119687200,3.645687255859375,-0.969940185546875,-12.336044311523438,30.665966033935547
1633779585139567000,3.665567138671875,-0.509552001953125,-13.113025665283203,30.988168716430664
1633779585159446300,3.6854462890625,-0.217742919921875,-13.633232116699219,30.804685592651367
1633779585179326000,3.705325927734375,0.2420654296875,-14.263248443603516,31.083154678344727
1633779585199206000,3.725205810546875,0.65435791015625,-14.56014633178711,31.342254638671875
1633779585219085000,3.7450849609375,1.21466064453125,-15.249618530273438,31.44253921508789
1633779585238965000,3.764965087890625,1.8310546875,-15.13698959350586,31.60072898864746
1633779585258844000,3.784843994140625,2.556488037109375,-15.553611755371094,31.82624626159668
1633779585278723800,3.804723876953125,2.49761962890625,-15.477771759033203,32.03278350830078
1633779585298602800,3.824602783203125,3.221893310546875,-15.724258422851562,32.2404670715332
1633779585318483000,3.84448291015625,3.31793212890625,-15.394111633300781,32.606773376464844
1633779585338363000,3.86436279296875,3.691497802734375,-15.618804931640625,32.82386016845703
1633779585358242000,3.884241943359375,3.99359130859375,-15.610065460205078,33.08730697631836
1633779585378121700,3.904121826171875,4.188262939453125,-15.806766510009766,33.31964874267578
1633779585398001000,3.9240009765625,4.55487060546875,-16.30379867553711,33.87910461425781
1633779585417881000,3.943881103515625,5.749053955078125,-16.310611724853516,33.775001525878906
1633779585437760000,3.963760009765625,6.43975830078125,-16.655982971191406,33.55848693847656
1633779585457640000,3.983639892578125,6.743743896484375,-17.19863510131836,33.52605438232422
1633779585477520000,4.003519775390625,6.7222900390625,-17.589527130126953,33.55570602416992
1633779585497398800,4.023398681640625,6.45758056640625,-18.032344818115234,33.610618591308594
1633779585517279000,4.043279052734375,6.4495849609375,-18.210952758789062,33.81909942626953
1633779585537158000,4.063157958984375,5.512298583984375,-18.108013153076172,34.24137878417969
1633779585557037800,4.083037841796875,5.125152587890625,-17.87204360961914,35.01564025878906
1633779585576917000,4.1029169921875,4.71392822265625,-17.347675323486328,35.465736389160156
1633779585596797000,4.122796875,4.1131591796875,-16.98409652709961,36.01658248901367
1633779585616677000,4.142677001953125,3.624114990234375,-16.826213836669922,36.23625183105469
1633779585636556000,4.16255615234375,4.063629150390625,-16.43828582763672,36.303367614746094
1633779585656436000,4.18243603515625,4.322296142578125,-16.307205200195312,36.7007942199707
1633779585676315000,4.20231494140625,4.432647705078125,-16.314952850341797,36.7044677734375
1633779585696194800,4.22219482421875,4.67669677734375,-16.38787841796875,36.962547302246094
1633779585716074000,4.242073974609375,4.598297119140625,-16.458641052246094,37.1099739074707
1633779585735954000,4.261953857421875,4.44610595703125,-16.750049591064453,37.33407974243164
1633779585755833900,4.281833740234375,5.0167236328125,-16.8671875,37.0777587890625
1633779585775713000,4.301713134765625,5.174835205078125,-17.000377655029297,37.23704147338867
1633779585795593000,4.321593017578125,5.33209228515625,-16.950439453125,37.71075439453125
1633779585815471900,4.341471923828125,5.30035400390625,-16.911052703857422,37.865875244140625
1633779585835352000,4.36135205078125,5.38818359375,-16.74352264404297,38.089359283447266
1633779585855231000,4.38123095703125,5.503082275390625,-16.5101318359375,38.68217086791992
1633779585875111000,4.40111083984375,4.731109619140625,-15.867263793945312,38.78508758544922
1633779585894990800,4.420990966796875,4.77801513671875,-15.348365783691406,39.33270263671875
1633779585914870000,4.4408701171875,4.806549072265625,-14.670848846435547,39.885623931884766
1633779585934750000,4.46075,4.12188720703125,-14.114936828613281,40.18571853637695
1633779585954628900,4.48062890625,3.805206298828125,-13.109790802001953,40.832359313964844
1633779585974509000,4.500509033203125,3.847137451171875,-13.057975769042969,40.98147964477539
1633779585994388000,4.520387939453125,4.271087646484375,-12.584606170654297,41.376949310302734
1633779586014268000,4.540267822265625,4.497039794921875,-12.573677062988281,41.52463150024414
1633779586034148000,4.560148193359375,3.993804931640625,-12.9178466796875,41.735877990722656
1633779586054026800,4.58002685546875,3.05706787109375,-13.352493286132812,41.902732849121094
1633779586073907000,4.599906982421875,2.0457763671875,-13.590145111083984,41.66223907470703
1633779586093786000,4.6197861328125,1.554229736328125,-14.333328247070312,41.713932037353516
1633779586113665800,4.639665771484375,1.389617919921875,-14.7972412109375,41.670326232910156
1633779586133545000,4.659544921875,2.008575439453125,-15.932518005371094,41.359737396240234
1633779586153425000,4.6794248046875,1.80279541015625,-17.19709014892578,41.131744384765625
1633779586173305000,4.69930517578125,2.3399658203125,-18.099777221679688,40.6090202331543
1633779586193184300,4.719184326171875,2.504119873046875,-18.73752212524414,40.42245864868164
1633779586213064200,4.739064208984375,2.6253662109375,-19.597484588623047,40.48904800415039
1633779586232943400,4.758943359375,3.10565185546875,-20.352210998535156,40.213401794433594
1633779586252823300,4.7788232421875,2.903106689453125,-20.984241485595703,39.82733154296875
1633779586272702200,4.7987021484375,3.481658935546875,-21.201980590820312,39.83021545410156
1633779586292582400,4.81858251953125,3.791229248046875,-21.440773010253906,39.809940338134766
1633779586312462300,4.83846240234375,4.57073974609375,-21.833576202392578,39.59959411621094
1633779586332341200,4.85834130859375,4.56085205078125,-21.81000518798828,39.779380798339844
1633779586352221200,4.87822119140625,5.048919677734375,-22.09383773803711,39.25409698486328
1633779586372100400,4.898100341796875,5.600677490234375,-22.64993667602539,39.23241424560547
1633779586391980300,4.917980224609375,5.170257568359375,-22.698951721191406,39.16963577270508
1633779586411859200,4.937859130859375,5.510528564453125,-23.216838836669922,38.84852600097656
1633779586431739400,4.957739501953125,4.91888427734375,-23.073741912841797,39.141353607177734
1633779586451619300,4.977619384765625,4.951080322265625,-23.222938537597656,39.06129837036133
1633779586471498200,4.997498291015625,4.73760986328125,-23.116382598876953,39.28742218017578
1633779586491378400,5.01737841796875,4.166656494140625,-23.235191345214844,39.09590530395508
1633779586511257000,5.037257080078125,3.57269287109375,-23.534069061279297,38.84444046020508
1633779586531137300,5.05713720703125,2.970123291015625,-23.75635528564453,39.0377311706543
1633779586551016400,5.077016357421875,1.996002197265625,-23.488643646240234,39.06336975097656
1633779586570896100,5.096896240234375,1.67974853515625,-23.916217803955078,38.9589729309082
1633779586590776300,5.1167763671875,1.595703125,-23.854442596435547,39.01155471801758
1633779586610655200,5.1366552734375,1.4908447265625,-23.8985595703125,38.96137619018555
1633779586630535400,5.156535400390625,1.42742919921875,-23.735458374023438,39.00102996826172
1633779586650414300,5.176414306640625,2.28350830078125,-23.657196044921875,39.090789794921875
1633779586670294300,5.196294189453125,2.359222412109375,-23.855304718017578,38.983177185058594
1633779586690173200,5.216173095703125,2.117950439453125,-24.050098419189453,39.04392623901367
1633779586710053000,5.23605322265625,2.26043701171875,-23.863475799560547,39.29802322387695
1633779586729933300,5.255933349609375,2.0008544921875,-23.891754150390625,39.14373016357422
1633779586749812500,5.2758125,1.782440185546875,-23.42374038696289,39.48177719116211
1633779586769692200,5.295692138671875,1.034393310546875,-22.878196716308594,39.57928466796875
1633779586789571300,5.3155712890625,0.22930908203125,-22.31317901611328,39.71867752075195
1633779586809451300,5.335451171875,-0.691986083984375,-21.545589447021484,40.30754470825195
1633779586829330200,5.355330078125,-1.26641845703125,-20.592941284179688,40.76533126831055
1633779586849210400,5.37521044921875,-1.3338623046875,-20.136676788330078,41.31227493286133
1633779586869090300,5.39509033203125,-1.069549560546875,-19.55148696899414,41.344688415527344
1633779586888969200,5.41496923828125,-1.12847900390625,-19.299522399902344,41.82101058959961
1633779586908849200,5.43484912109375,-0.823211669921875,-18.895893096923828,42.23521423339844
1633779586928728300,5.454728271484375,-0.905731201171875,-18.26694107055664,42.511131286621094
1633779586948608300,5.474608154296875,-0.838226318359375,-18.05382537841797,42.5728645324707
1633779586968487200,5.494487060546875,-0.482269287109375,-17.853374481201172,42.93593978881836
1633779586988367400,5.514367431640625,-0.7176513671875,-17.729198455810547,42.93758010864258
1633779587008247300,5.534247314453125,-1.947021484375,-17.524730682373047,42.96625900268555
1633779587028126200,5.554126220703125,-3.5074462890625,-17.45697784423828,42.64086151123047
1633779587048006400,5.57400634765625,-4.524078369140625,-17.511451721191406,42.91239929199219
1633779587067885000,5.593885009765625,-4.10504150390625,-17.524898529052734,42.9831657409668
1633779587087765200,5.61376513671875,-3.575592041015625,-17.950653076171875,42.99541473388672
1633779587107645200,5.633645263671875,-2.8858642578125,-18.342796325683594,43.07320785522461
1633779587127524400,5.6535244140625,-2.343902587890625,-19.041812896728516,42.95716857910156
1633779587147404300,5.673404296875,-1.766204833984375,-20.015640258789062,42.73670959472656
1633779587167283200,5.693283203125,-1.256805419921875,-20.596412658691406,42.637149810791016
1633779587187166200,5.713166259765625,-0.8743896484375,-21.018268585205078,42.59687423706055
1633779587207045000,5.733045166015625,-0.09735107421875,-21.617904663085938,42.41975402832031
1633779587226925000,5.752925048828125,0.4122314453125,-22.104602813720703,42.012107849121094
1633779587246805200,5.77280517578125,0.6688232421875,-22.43792724609375,41.45807647705078
1633779587266684400,5.792684326171875,0.957794189453125,-22.8863525390625,41.48480224609375
1633779587286564000,5.812564208984375,1.421478271484375,-23.01641845703125,41.40053176879883
1633779587306443300,5.832443359375,1.726837158203125,-23.344524383544922,41.344818115234375
1633779587326323200,5.8523232421875,1.246551513671875,-23.464584350585938,41.367225646972656
1633779587346202000,5.8722021484375,1.940185546875,-23.501327514648438,41.35102081298828
1633779587366082300,5.892082275390625,1.878814697265625,-23.434890747070312,41.389244079589844
1633779587385962200,5.911962158203125,1.51153564453125,-23.617843627929688,41.232627868652344
1633779587405841200,5.931841064453125,1.183441162109375,-23.35110855102539,41.51124572753906
1633779587425721000,5.95172119140625,0.7552490234375,-23.26071548461914,41.6099853515625
1633779587445600300,5.971600341796875,-0.159637451171875,-23.329208374023438,41.87887954711914
1633779587465480200,5.991480224609375,-0.511138916015625,-22.730545043945312,42.108482360839844
1633779587485359000,6.011359130859375,-0.65814208984375,-22.14130401611328,42.51579666137695
1633779587505239300,6.0312392578125,-0.77825927734375,-22.425071716308594,42.8057861328125
1633779587525119000,6.051118896484375,-0.1588134765625,-22.207416534423828,42.415069580078125
1633779587544998100,6.070998046875,0.154693603515625,-22.194263458251953,42.83485412597656
1633779587564878300,6.09087841796875,-0.034820556640625,-21.93811798095703,42.87527084350586
1633779587584757000,6.110757080078125,-0.419189453125,-21.99721908569336,43.05419158935547
1633779587604637200,6.13063720703125,-0.7899169921875,-21.987960815429688,42.986812591552734
1633779587624516400,6.150516357421875,-1.3780517578125,-21.953433990478516,43.19545364379883
1633779587644396000,6.17039599609375,-1.86083984375,-21.650169372558594,43.384708404541016
1633779587664275200,6.190275146484375,-2.294403076171875,-20.957748413085938,43.43178176879883
1633779587684155100,6.210155029296875,-2.918792724609375,-20.272422790527344,43.93183135986328
1633779587704035300,6.230035400390625,-4.099853515625,-20.051429748535156,44.07914733886719
1633779587723914200,6.249914306640625,-5.318145751953125,-19.161102294921875,44.26351547241211
1633779587743794200,6.269794189453125,-5.908538818359375,-18.52981948852539,44.50849914550781
1633779587763673000,6.289673095703125,-5.79608154296875,-18.01534652709961,45.15570068359375
1633779587783553000,6.309552978515625,-5.8648681640625,-17.53411865234375,45.29894256591797
1633779587803432200,6.32943212890625,-6.04547119140625,-17.02660369873047,45.6195182800293
1633779587823312400,6.3493125,-5.917572021484375,-16.707637786865234,45.764739990234375
1633779587843192000,6.369192138671875,-6.0987548828125,-16.319698333740234,45.76176071166992
1633779587863071200,6.3890712890625,-5.8804931640625,-16.141277313232422,46.150390625
1633779587882951200,6.408951171875,-6.2607421875,-15.930419921875,46.17477798461914
1633779587902830000,6.428830078125,-7.08648681640625,-15.375099182128906,46.496429443359375
1633779587922710300,6.448710205078125,-7.609954833984375,-15.557727813720703,46.36446762084961
1633779587942590200,6.468590087890625,-7.984832763671875,-15.113353729248047,46.23506164550781
1633779587962469000,6.48846923828125,-7.63043212890625,-15.829124450683594,46.589378356933594
1633779587982349000,6.50834912109375,-6.648162841796875,-16.690425872802734,46.470401763916016
1633779588002228200,6.528228271484375,-5.4024658203125,-17.86229705810547,46.200950622558594
1633779588022108200,6.548108154296875,-5.02386474609375,-18.975341796875,46.06072235107422
1633779588041987000,6.567987060546875,-4.915771484375,-19.613605499267578,45.77690887451172
1633779588061867300,6.5878671875,-4.792694091796875,-20.218734741210938,45.459754943847656
1633779588081747200,6.607747314453125,-4.9063720703125,-20.96942138671875,45.389892578125
1633779588101626000,6.627626220703125,-4.538177490234375,-21.07918930053711,45.36385726928711
1633779588121506300,6.64750634765625,-3.367767333984375,-21.38766860961914,45.42821502685547
1633779588141385000,6.667385009765625,-2.758575439453125,-21.579246520996094,45.32965087890625
1633779588161265200,6.68726513671875,-2.894287109375,-21.688709259033203,45.59977340698242
1633779588181144300,6.707144287109375,-2.735809326171875,-21.58712387084961,45.64200973510742
1633779588201025000,6.72702490234375,-3.053192138671875,-21.70724105834961,45.50852584838867
1633779588220904200,6.746904296875,-2.95001220703125,-21.581371307373047,45.66116714477539
1633779588240784000,6.766783935546875,-2.606719970703125,-21.504241943359375,45.74259567260742
1633779588260664000,6.7866640625,-2.5736083984375,-21.610923767089844,45.76836395263672
1633779588280543000,6.80654296875,-2.636016845703125,-21.582275390625,45.867897033691406
1633779588300423000,6.8264228515625,-2.912139892578125,-21.569686889648438,45.86732482910156
1633779588320302000,6.846302001953125,-3.831634521484375,-21.522022247314453,45.72511291503906
1633779588340182000,6.86618212890625,-3.871978759765625,-21.933700561523438,45.69298553466797
1633779588360062200,6.886062255859375,-4.1873779296875,-21.86579132080078,45.738304138183594
1633779588379940900,6.90594091796875,-5.058685302734375,-21.942806243896484,45.900184631347656
1633779588399821000,6.925821044921875,-5.747161865234375,-21.229778289794922,45.638545989990234
1633779588419700000,6.945699951171875,-6.91302490234375,-20.917190551757812,45.62753677368164
1633779588439580000,6.965579833984375,-7.004241943359375,-20.407733917236328,45.87537384033203
1633779588459459000,6.985458984375,-7.332855224609375,-20.539196014404297,46.099205017089844
1633779588479339000,7.005339111328125,-7.051483154296875,-20.378894805908203,46.19641876220703
1633779588499219000,7.025218994140625,-6.90924072265625,-19.8431396484375,46.59261703491211
1633779588519098000,7.04509814453125,-6.924224853515625,-19.67913055419922,46.65467071533203
1633779588538978000,7.06497802734375,-7.591644287109375,-19.229373931884766,46.40301513671875
1633779588558857000,7.08485693359375,-8.36181640625,-19.160953521728516,46.503055572509766
1633779588578737000,7.10473681640625,-9.28338623046875,-19.174823760986328,46.47904968261719
1633779588598616000,7.124615966796875,-9.337249755859375,-18.881980895996094,46.563419342041016
1633779588618496000,7.14449609375,-9.615692138671875,-18.402904510498047,46.860897064208984
1633779588638376000,7.1643759765625,-9.9581298828125,-18.086078643798828,47.239891052246094
1633779588658255000,7.184255126953125,-10.242767333984375,-17.372909545898438,47.2575798034668
1633779588678135000,7.204135009765625,-10.808624267578125,-16.738807678222656,47.35567092895508
1633779588698014000,7.224013916015625,-10.680145263671875,-16.268756866455078,47.54679870605469
1633779588717894100,7.24389404296875,-10.450042724609375,-15.890800476074219,47.502811431884766
1633779588737773000,7.26377294921875,-10.436004638671875,-15.400238037109375,48.09175491333008
1633779588757653000,7.283653076171875,-10.44677734375,-15.24917984008789,47.937217712402344
1633779588777533000,7.303532958984375,-10.13037109375,-15.118690490722656,48.10649108886719
1633779588797411800,7.323411865234375,-9.834259033203125,-15.026546478271484,48.17044448852539
1633779588817292000,7.3432919921875,-10.34844970703125,-14.772216796875,48.03243637084961
1633779588837171200,7.363171142578125,-10.492034912109375,-14.919769287109375,48.11310577392578
1633779588857051100,7.383051025390625,-11.583587646484375,-14.72549819946289,48.236507415771484
1633779588876930000,7.402929931640625,-12.8388671875,-15.047298431396484,47.945350646972656
1633779588896810000,7.42281005859375,-13.208953857421875,-15.482765197753906,47.753726959228516
1633779588916690200,7.442690185546875,-12.84765625,-16.13565444946289,47.863433837890625
1633779588936569000,7.462569091796875,-12.2911376953125,-16.64580535888672,47.62165832519531
1633779588956449000,7.482448974609375,-11.51055908203125,-17.353412628173828,47.780757904052734
1633779588976328200,7.502328125,-10.9722900390625,-17.94225311279297,47.86274337768555
1633779588996207900,7.522207763671875,-10.750396728515625,-18.588668823242188,47.715633392333984
1633779589016087000,7.542087158203125,-10.544342041015625,-19.364177703857422,47.701072692871094
1633779589035967200,7.56196728515625,-10.058135986328125,-19.573055267333984,47.65501022338867
1633779589055847000,7.581846923828125,-9.8349609375,-19.866851806640625,47.84110641479492
1633779589075726000,7.60172607421875,-9.747039794921875,-19.823104858398438,47.673187255859375
1633779589095606000,7.62160595703125,-9.24774169921875,-20.030208587646484,47.889320373535156
1633779589115485000,7.64148486328125,-9.52069091796875,-20.325298309326172,47.62348937988281
1633779589135365000,7.661365234375,-8.969970703125,-20.640296936035156,47.75235366821289
1633779589155244000,7.681244140625,-8.24444580078125,-20.84747314453125,47.596771240234375
1633779589175124000,7.7011240234375,-7.7919921875,-21.019168853759766,47.61748123168945
1633779589194999800,7.720999755859375,-7.83221435546875,-21.353954315185547,47.68930435180664
1633779589214878700,7.740878662109375,-8.3671875,-21.468082427978516,47.360599517822266
1633779589234759000,7.760759033203125,-8.965057373046875,-21.615882873535156,47.212066650390625
1633779589254637800,7.780637939453125,-9.370269775390625,-21.256919860839844,47.11830520629883
1633779589274517800,7.800517822265625,-9.57281494140625,-21.668663024902344,47.20207977294922
1633779589294397000,7.82039697265625,-9.045074462890625,-21.424034118652344,47.62903594970703
1633779589314276600,7.840276611328125,-9.50457763671875,-21.271976470947266,47.54149627685547
1633779589334156800,7.86015673828125,-9.82122802734375,-21.135791778564453,48.05695724487305
1633779589354036000,7.880035888671875,-10.953582763671875,-20.749629974365234,48.12203598022461
1633779589373915600,7.89991552734375,-11.278564453125,-20.327186584472656,48.4099006652832
1633779589393794800,7.919794921875,-11.33099365234375,-19.965171813964844,48.65125274658203
1633779589413674800,7.9396748046875,-10.58477783203125,-19.754058837890625,49.04109191894531
1633779589433553700,7.9595537109375,-10.08599853515625,-19.770416259765625,49.124393463134766
1633779589453433900,7.979433837890625,-9.76214599609375,-20.022796630859375,49.068397521972656
1633779589473313800,7.999313720703125,-9.786163330078125,-19.845718383789062,49.25114440917969
1633779589493192700,8.019192626953124,-9.804229736328125,-19.882827758789062,48.956512451171875
1633779589513072600,8.03907275390625,-9.87127685546875,-20.103355407714844,48.906517028808594
1633779589532951800,8.058951904296874,-9.5860595703125,-20.172710418701172,49.0340461730957
1633779589552831700,8.078831787109374,-9.56927490234375,-19.88161849975586,49.310306549072266
1633779589572710700,8.098710693359376,-9.81463623046875,-20.112869262695312,49.3066291809082
1633779589592590800,8.1185908203125,-10.63494873046875,-19.535446166992188,49.44619369506836
1633779589612470800,8.138470703125,-11.465850830078125,-18.979373931884766,49.342437744140625
1633779589632349700,8.158349609375,-12.59332275390625,-17.96209716796875,49.66938781738281
1633779589652230000,8.17822998046875,-13.0518798828125,-17.48715591430664,49.83707809448242
1633779589672108500,8.198108642578125,-13.2529296875,-16.423492431640625,50.16907501220703
1633779589691988700,8.21798876953125,-13.877838134765625,-15.249263763427734,50.463844299316406
1633779589711868000,8.237867919921875,-14.345184326171875,-14.236072540283203,50.51850509643555
1633779589731747800,8.257747802734375,-14.579376220703125,-13.599185943603516,50.55213165283203
1633779589751627800,8.277627685546875,-14.099090576171875,-13.10809326171875,50.87749099731445
1633779589771506700,8.297506591796875,-13.605072021484375,-13.49551773071289,51.04515075683594
1633779589791387000,8.317386962890625,-14.650390625,-12.873931884765625,51.05010223388672
1633779589811265800,8.337265869140625,-15.614654541015625,-12.505718231201172,50.74721908569336
1633779589831145700,8.357145751953125,-17.01776123046875,-12.052223205566406,50.324954986572266
1633779589851025000,8.37702490234375,-17.677459716796875,-11.552120208740234,50.24936294555664
1633779589870904600,8.396904541015624,-18.234527587890625,-11.219257354736328,50.06184387207031
1633779589890784800,8.41678466796875,-18.39739990234375,-10.473747253417969,50.486568450927734
1633779589910664000,8.436663818359374,-17.5496826171875,-10.262264251708984,50.6146240234375
1633779589930543600,8.456543701171874,-17.518707275390625,-9.906970977783203,50.67079162597656
1633779589950422800,8.4764228515625,-17.540679931640625,-9.517906188964844,50.97709274291992
1633779589970302700,8.496302734375,-17.376220703125,-9.523880004882812,51.010128021240234
1633779589990181600,8.516181640625,-16.875335693359375,-9.60809326171875,51.450721740722656
1633779590010061800,8.536061767578126,-16.943511962890625,-9.527965545654297,51.20951843261719
1633779590029941800,8.555941650390626,-17.217315673828125,-9.485477447509766,51.199275970458984
1633779590049820700,8.575820556640625,-17.093475341796875,-9.671863555908203,51.11333084106445
1633779590069700600,8.59570068359375,-17.156951904296875,-9.841659545898438,51.06195068359375
1633779590089579800,8.615579833984375,-16.746826171875,-10.549846649169922,50.91901397705078
1633779590109460000,8.6354599609375,-15.95745849609375,-10.968143463134766,51.159324645996094
1633779590129338600,8.655338623046875,-15.678955078125,-11.758544921875,51.09025192260742
1633779590149218800,8.67521875,-14.7099609375,-12.553287506103516,50.9784049987793
1633779590169098800,8.6950986328125,-14.598602294921875,-12.92269515991211,50.84492492675781
1633779590188981800,8.714981689453126,-14.51727294921875,-13.255794525146484,50.57016372680664
1633779590208862000,8.734862060546876,-13.450042724609375,-13.440536499023438,50.58019256591797
1633779590228740600,8.75474072265625,-13.232177734375,-13.91729736328125,50.57303237915039
1633779590248620800,8.774620849609375,-12.834503173828125,-14.166423797607422,50.347530364990234
1633779590268500000,8.7945,-13.2584228515625,-14.117752075195312,50.22765350341797
1633779590288380000,8.8143798828125,-13.788421630859375,-14.068279266357422,49.9526252746582
1633779590308259800,8.834259765625,-14.7015380859375,-13.409992218017578,50.07238006591797
1633779590328138800,8.854138671875,-15.46087646484375,-13.63486099243164,49.74705123901367
1633779590348019000,8.87401904296875,-15.26153564453125,-13.537822723388672,50.0428352355957
1633779590367897900,8.89389794921875,-15.365509033203125,-13.528202056884766,49.81770324707031
1633779590387777800,8.91377783203125,-15.5523681640625,-13.286048889160156,49.8550910949707
1633779590407657000,8.933656982421875,-16.16693115234375,-12.724822998046875,49.67521286010742
1633779590427536600,8.95353662109375,-16.65411376953125,-11.331256866455078,49.841278076171875
1633779590447415800,8.973415771484374,-17.671051025390625,-10.39584732055664,50.294734954833984
1633779590467296000,8.9932958984375,-18.303955078125,-9.647056579589844,50.249019622802734
1633779590487175700,9.01317578125,-18.05291748046875,-8.872386932373047,49.77996063232422
1633779590507054800,9.033054931640624,-17.638671875,-8.791679382324219,49.965850830078125
1633779590526934800,9.052934814453126,-18.647369384765625,-8.508068084716797,49.692420959472656
1633779590546813700,9.072813720703126,-19.3802490234375,-8.963142395019531,49.13020324707031
1633779590566694000,9.09269384765625,-19.679412841796875,-9.017913818359375,49.06814956665039
1633779590586572800,9.11257275390625,-19.539947509765625,-9.440959930419922,48.87307357788086
1633779590606452700,9.13245263671875,-19.2431640625,-9.647193908691406,48.85438919067383
1633779590626332700,9.152332763671875,-19.06561279296875,-9.509834289550781,49.02116394042969
1633779590646211800,9.1722119140625,-18.296356201171875,-9.582157135009766,49.265716552734375
1633779590666092000,9.192092041015625,-17.86328125,-9.376335144042969,49.22188949584961
1633779590685970700,9.211970703125,-17.12646484375,-9.119823455810547,49.398441314697266
1633779590705851000,9.231850830078125,-15.571044921875,-8.939022064208984,49.57566452026367
1633779590725729800,9.251729736328125,-15.1405029296875,-8.936790466308594,49.5981559753418
1633779590745609700,9.271609619140625,-15.16082763671875,-8.172321319580078,49.905548095703125
1633779590765490000,9.291489990234375,-14.284027099609375,-7.183488845825195,49.96015548706055
1633779590785368800,9.311368896484375,-13.68841552734375,-6.953014373779297,50.05678176879883
1633779590805248800,9.331248779296875,-12.332550048828125,-6.807895660400391,50.30815505981445
1633779590825128000,9.3511279296875,-12.582305908203125,-7.248264312744141,50.24497604370117
1633779590845008000,9.3710078125,-13.570892333984375,-7.846248626708984,49.99892807006836
1633779590864886800,9.39088671875,-14.553558349609375,-8.402347564697266,49.401248931884766
1633779590884766700,9.4107666015625,-14.419525146484375,-9.643592834472656,49.230411529541016
1633779590904647000,9.43064697265625,-13.95452880859375,-11.15646743774414,48.88938903808594
1633779590924525800,9.45052587890625,-12.932098388671875,-12.408863067626953,48.8352165222168
1633779590944405800,9.47040576171875,-11.96405029296875,-13.336250305175781,48.959781646728516
1633779590964285000,9.490284912109376,-11.6094970703125,-13.96466064453125,48.42014694213867
1633779590984164600,9.51016455078125,-10.744140625,-15.084480285644531,48.03739929199219
1633779591004043800,9.530043701171875,-10.28717041015625,-15.856796264648438,47.89674377441406
1633779591023924000,9.549924072265625,-9.901885986328125,-16.51776885986328,47.34530258178711
1633779591043803600,9.5698037109375,-9.921539306640625,-17.041942596435547,47.178611755371094
1633779591063682800,9.589682861328125,-9.814727783203125,-17.561626434326172,46.9050407409668
1633779591083562800,9.609562744140625,-9.5030517578125,-17.861038208007812,46.605918884277344
1633779591103441700,9.629441650390625,-9.45703125,-18.559486389160156,46.037662506103516
1633779591123321900,9.64932177734375,-9.08795166015625,-18.848648071289062,45.59618377685547
1633779591143200800,9.66920068359375,-7.9625244140625,-19.60687255859375,45.352569580078125
1633779591163080700,9.689080810546875,-7.502349853515625,-19.983985900878906,45.26119613647461
1633779591182960600,9.708960693359375,-6.087982177734375,-19.93301773071289,45.440853118896484
1633779591202836700,9.728836669921876,-5.4508056640625,-20.173145294189453,45.224308013916016
1633779591222716700,9.748716552734376,-5.312713623046875,-20.433956146240234,44.64930725097656
1633779591242595600,9.768595703125,-5.84625244140625,-19.977764129638672,44.713172912597656
1633779591262475800,9.788475830078125,-7.3170166015625,-19.26346206665039,44.41133117675781
1633779591282354700,9.808354736328125,-8.57220458984375,-18.494834899902344,44.46595001220703
1633779591302234600,9.828234619140625,-8.74774169921875,-17.636367797851562,44.77116012573242
1633779591322114800,9.84811474609375,-8.634246826171875,-16.80087661743164,44.83258056640625
1633779591341993500,9.867993408203125,-8.64959716796875,-16.618865966796875,45.01026916503906
1633779591361873700,9.887873779296875,-8.70648193359375,-16.379161834716797,45.03120803833008
1633779591381752800,9.9077529296875,-9.55474853515625,-16.21048355102539,44.85420227050781
1633779591401632800,9.9276328125,-9.828338623046875,-16.633960723876953,44.45579528808594
1633779591421511700,9.94751171875,-11.201263427734375,-16.89300537109375,43.67298889160156
1633779591441391600,9.9673916015625,-11.525482177734375,-16.911869049072266,43.31404113769531
1633779591461270500,9.9872705078125,-11.756011962890625,-17.321346282958984,43.310333251953125
1633779591481150700,10.007150634765624,-11.13677978515625,-17.561687469482422,43.20948791503906
1633779591501030700,10.02703076171875,-10.670654296875,-17.468814849853516,43.18277359008789
1633779591520909800,10.046909912109374,-10.52227783203125,-17.685699462890625,43.0845947265625
1633779591540789500,10.06678955078125,-10.340789794921875,-17.655925750732422,42.97056579589844
1633779591560668700,10.086668701171876,-10.112884521484375,-17.327373504638672,43.19664764404297
1633779591580548900,10.106548828125,-9.32098388671875,-17.362350463867188,43.25997543334961
1633779591600427500,10.126427490234375,-8.47857666015625,-17.36410903930664,43.42491912841797
1633779591620307700,10.1463076171875,-8.656524658203125,-17.20187759399414,43.11115264892578
1633779591640187000,10.166186767578125,-8.16387939453125,-17.112422943115234,43.14151382446289
1633779591660066600,10.186066650390625,-7.528778076171875,-17.223552703857422,43.13728332519531
1633779591679946800,10.20594677734375,-7.51495361328125,-17.145790100097656,42.88930130004883
1633779591699825700,10.22582568359375,-7.895660400390625,-17.353469848632812,42.69035339355469
1633779591719705600,10.24570556640625,-8.26019287109375,-17.88158416748047,42.2711296081543
1633779591739584800,10.265584716796875,-8.828765869140625,-18.252914428710938,41.75410079956055
1633779591759464700,10.285464599609375,-9.387725830078125,-18.28821563720703,41.64741897583008
1633779591779343600,10.305343505859375,-8.659271240234375,-18.14588165283203,41.55908203125
1633779591799223600,10.3252236328125,-9.12530517578125,-18.605785369873047,41.53866195678711
1633779591819103700,10.345103759765625,-8.779052734375,-18.80089569091797,41.21876525878906
1633779591838982700,10.364982666015624,-8.303466796875,-19.493408203125,41.00311279296875
1633779591858862600,10.384862548828124,-8.039154052734375,-20.219783782958984,40.69319534301758
1633779591878741800,10.40474169921875,-7.398651123046875,-20.205291748046875,40.84613800048828
1633779591898621700,10.42462158203125,-7.156341552734375,-20.82137680053711,40.74203109741211
1633779591918500600,10.44450048828125,-6.37835693359375,-20.88996124267578,40.30636978149414
1633779591938380800,10.464380859375,-5.94091796875,-21.199878692626953,40.116065979003906
1633779591958260700,10.4842607421875,-5.732574462890625,-21.66977310180664,39.95153045654297
1633779591978139600,10.5041396484375,-5.461883544921875,-22.147567749023438,39.6890983581543
1633779591998019600,10.52401953125,-5.470184326171875,-22.578350067138672,39.437232971191406
1633779592017898800,10.543898681640625,-4.97760009765625,-23.463035583496094,38.92973327636719
1633779592037778700,10.56377880859375,-4.918365478515625,-23.709033966064453,38.546688079833984
1633779592057657600,10.58365771484375,-4.247344970703125,-24.269134521484375,38.47256088256836
1633779592077537800,10.603537841796875,-3.575408935546875,-24.40457534790039,37.86466598510742
1633779592097416700,10.623416748046875,-3.517242431640625,-24.725021362304688,37.737098693847656
1633779592117296600,10.643296630859375,-2.6966552734375,-24.914459228515625,37.44661331176758
1633779592137176800,10.6631767578125,-1.929290771484375,-25.286884307861328,36.86614227294922
1633779592157055700,10.6830556640625,-0.87139892578125,-25.60916519165039,36.361572265625
1633779592176935700,10.702935791015625,-0.591888427734375,-25.889564514160156,36.04619216918945
1633779592196814300,10.722814453125,-1.00653076171875,-26.08199691772461,35.94514846801758
1633779592216694300,10.7426943359375,-1.82305908203125,-26.27411651611328,35.73349380493164
1633779592236573200,10.7625732421875,-2.326416015625,-25.89422607421875,35.60167694091797
1633779592256453400,10.782453369140624,-3.587646484375,-25.56578826904297,35.47998809814453
1633779592276332300,10.802332275390626,-4.78558349609375,-25.14110565185547,35.37458038330078
1633779592296212200,10.822212158203126,-6.126190185546875,-24.694725036621094,35.32721710205078
1633779592316091400,10.84209130859375,-6.94573974609375,-24.122501373291016,35.63056182861328
1633779592335971300,10.861971435546875,-7.336883544921875,-23.73706817626953,36.14202880859375
1633779592355851500,10.8818515625,-7.32952880859375,-23.191852569580078,35.803443908691406
1633779592375730200,10.901730224609375,-7.553802490234375,-22.652462005615234,36.13835906982422
1633779592395610400,10.9216103515625,-7.69390869140625,-22.406574249267578,36.3762092590332
1633779592415489300,10.9414892578125,-7.75030517578125,-21.84613800048828,36.48400115966797
1633779592435369200,10.961369140625,-7.972564697265625,-21.48342514038086,36.8663330078125
1633779592455248400,10.981248291015625,-7.5555419921875,-20.85222625732422,36.97764205932617
1633779592475128300,11.00112841796875,-7.74371337890625,-20.4359130859375,36.97854995727539
1633779592495008300,11.02100830078125,-7.085784912109375,-19.9822998046875,37.5627326965332
1633779592514887400,11.040887451171875,-6.531036376953125,-19.68807601928711,37.37696838378906
1633779592534767400,11.060767333984375,-6.33135986328125,-19.29738998413086,37.246986389160156
1633779592554646300,11.080646240234374,-6.443267822265625,-18.85052490234375,37.54585647583008
1633779592574526200,11.100526123046874,-6.404632568359375,-18.735198974609375,37.82508850097656
1633779592594405400,11.1204052734375,-6.203277587890625,-18.45962142944336,37.7867431640625
1633779592614285300,11.140285400390624,-5.788818359375,-17.904102325439453,37.78379440307617
1633779592634164200,11.160164306640626,-5.664154052734375,-17.553020477294922,37.89659118652344
1633779592654044400,11.18004443359375,-5.36126708984375,-17.50063705444336,37.59616470336914
1633779592673924000,11.199924072265626,-5.609222412109375,-17.08892822265625,37.294219970703125
1633779592693803300,11.21980322265625,-5.85040283203125,-17.02761459350586,37.292362213134766
1633779592713683500,11.239683349609376,-5.539642333984375,-17.44607162475586,37.136962890625
1633779592733562000,11.25956201171875,-5.994415283203125,-17.597644805908203,36.771270751953125
1633779592753442300,11.2794423828125,-7.018218994140625,-17.676189422607422,36.54823684692383
1633779592773321500,11.299321533203125,-8.406707763671875,-17.31857681274414,36.10102844238281
1633779592793201200,11.319201171875,-9.298492431640625,-17.460025787353516,35.83030700683594
1633779592813080300,11.339080322265625,-9.0428466796875,-16.89199447631836,36.053245544433594
1633779592832960300,11.358960205078125,-8.542877197265625,-17.06542205810547,36.36116409301758
1633779592852839200,11.378839111328125,-7.806243896484375,-16.833011627197266,36.64828109741211
1633779592872719400,11.39871923828125,-7.268798828125,-16.974651336669922,36.1798095703125
1633779592892599300,11.418599365234375,-6.327117919921875,-17.14029312133789,36.15485763549805
1633779592912478200,11.438478271484374,-5.873748779296875,-17.291873931884766,36.20972442626953
1633779592932358100,11.458358154296874,-5.810333251953125,-17.65511703491211,35.865596771240234
1633779592952237300,11.4782373046875,-6.21221923828125,-17.995426177978516,35.79490280151367
1633779592972117500,11.498117431640624,-6.09600830078125,-18.371257781982422,35.43000793457031
1633779592991996400,11.517996337890626,-5.300537109375,-18.390869140625,35.31909942626953
1633779593011876400,11.53787646484375,-5.45208740234375,-18.366710662841797,35.54341125488281
1633779593031756300,11.55775634765625,-4.662322998046875,-18.401832580566406,35.35742950439453
1633779593051635200,11.57763525390625,-4.562652587890625,-18.42931365966797,35.305267333984375
1633779593071515400,11.597515380859376,-4.433624267578125,-18.27053451538086,35.15467071533203
1633779593091394300,11.617394287109375,-3.889129638671875,-18.206405639648438,34.895530700683594
1633779593111274200,11.637274169921875,-3.421234130859375,-18.380935668945312,34.95679473876953
1633779593131153400,11.6571533203125,-3.609527587890625,-18.201839447021484,34.74767303466797
1633779593151033300,11.677033447265625,-3.26690673828125,-18.56562042236328,34.56848907470703
1633779593170912300,11.696912353515625,-3.796844482421875,-18.434146881103516,34.49169921875
1633779593190795800,11.716795654296876,-4.220458984375,-18.131759643554688,34.48427963256836
1633779593210675000,11.736675048828126,-3.952606201171875,-17.875518798828125,34.547393798828125
1633779593230555000,11.756554931640625,-4.146453857421875,-17.952518463134766,34.72882080078125
1633779593250434800,11.776434814453125,-4.836212158203125,-17.624656677246094,34.778839111328125
1633779593270314000,11.79631396484375,-5.44793701171875,-17.25210952758789,34.795501708984375
1633779593290194000,11.81619384765625,-6.0189208984375,-16.930736541748047,34.680999755859375
1633779593310072800,11.83607275390625,-6.07867431640625,-16.694637298583984,34.978981018066406
1633779593329953000,11.855953125,-5.67108154296875,-16.43163299560547,35.07451629638672
1633779593349832000,11.87583203125,-4.93878173828125,-16.319664001464844,35.091163635253906
1633779593369711900,11.8957119140625,-4.509185791015625,-16.248035430908203,35.21833038330078
1633779593389591000,11.915591064453125,-4.526214599609375,-16.26468276977539,35.30707550048828
1633779593409470700,11.935470703125,-4.201690673828125,-15.890884399414062,35.09523391723633
1633779593429350000,11.955349853515624,-4.5947265625,-15.675830841064453,35.26039505004883
1633779593449230000,11.97522998046875,-5.19696044921875,-15.488594055175781,35.374000549316406
1633779593469110000,11.995110107421874,-4.615966796875,-15.021102905273438,35.50333023071289
1633779593488989000,12.014989013671874,-4.6337890625,-14.364521026611328,35.73338317871094
1633779593508868900,12.034868896484374,-3.9813232421875,-14.134685516357422,35.897972106933594
1633779593528747800,12.054747802734376,-3.917938232421875,-13.711357116699219,35.9580192565918
1633779593548628000,12.0746279296875,-3.345367431640625,-13.015609741210938,35.911197662353516
1633779593568507000,12.0945068359375,-2.982452392578125,-12.85513687133789,36.15483093261719
1633779593588386800,12.11438671875,-2.92681884765625,-12.896892547607422,36.081504821777344
1633779593608266000,12.134265869140625,-2.78875732421875,-12.690372467041016,36.30419921875
1633779593628146000,12.15414599609375,-2.846435546875,-12.234207153320312,36.282073974609375
1633779593648026000,12.174026123046875,-3.33929443359375,-11.935443878173828,36.66686248779297
1633779593667904800,12.19390478515625,-3.29119873046875,-11.529605865478516,36.3841552734375
1633779593687785000,12.213784912109375,-2.74176025390625,-11.278423309326172,36.28407287597656
1633779593707664000,12.233663818359375,-2.263916015625,-11.393318176269531,36.47209167480469
1633779593727543800,12.253543701171875,-2.990081787109375,-11.15435791015625,36.47069549560547
1633779593747423000,12.273423095703125,-4.56982421875,-10.74374771118164,36.32965087890625
1633779593767303000,12.293302978515625,-5.73455810546875,-10.085811614990234,36.14070129394531
1633779593787181800,12.313181884765624,-6.122100830078125,-9.950916290283203,36.105262756347656
1633779593807062000,12.33306201171875,-5.568328857421875,-9.734474182128906,36.10514831542969
1633779593826940700,12.352940673828124,-4.743316650390625,-9.816455841064453,36.256752014160156
1633779593846820900,12.37282080078125,-3.847747802734375,-9.975421905517578,36.403385162353516
1633779593866700800,12.39270068359375,-3.352203369140625,-10.383392333984375,36.51531219482422
1633779593886580000,12.412580078125,-2.63665771484375,-11.012603759765625,36.322078704833984
1633779593906460000,12.4324599609375,-2.773193359375,-11.353572845458984,36.37232971191406
1633779593926338800,12.4523388671875,-3.0289306640625,-11.850959777832031,36.1950798034668
1633779593946219000,12.472218994140626,-2.7144775390625,-12.406631469726562,35.58069610595703
1633779593966098000,12.492097900390625,-2.47637939453125,-12.81912612915039,35.706207275390625
1633779593985977900,12.511977783203125,-2.159088134765625,-12.827472686767578,35.54078674316406
1633779594005857000,12.53185693359375,-2.004669189453125,-13.119136810302734,35.66254425048828
1633779594025736700,12.55173681640625,-1.977783203125,-13.066097259521484,35.461036682128906
1633779594045617000,12.571616943359375,-1.737640380859375,-13.182235717773438,35.56367492675781
1633779594065496000,12.59149609375,-1.972625732421875,-13.480972290039062,34.983917236328125
1633779594085375700,12.611375732421875,-1.799224853515625,-13.518184661865234,35.20878982543945
1633779594105255000,12.6312548828125,-1.649444580078125,-14.035114288330078,35.400001525878906
1633779594125134800,12.651134765625,-1.265289306640625,-13.963848114013672,35.42610168457031
1633779594145013800,12.671013671875,-0.96551513671875,-14.511367797851562,35.22248077392578
1633779594164894000,12.69089404296875,-1.065216064453125,-14.491462707519531,35.16034698486328
1633779594184772900,12.71077294921875,-1.333709716796875,-14.30520248413086,35.16375732421875
1633779594204648700,12.730648681640625,-2.018707275390625,-14.419303894042969,35.061668395996094
1633779594224528000,12.75052783203125,-2.760467529296875,-14.123294830322266,34.979820251464844
1633779594244407600,12.770407470703125,-2.63360595703125,-13.803535461425781,35.22110366821289
1633779594264287700,12.790287841796875,-2.9609375,-13.358356475830078,35.348838806152344
1633779594284167000,12.8101669921875,-2.464935302734375,-13.027889251708984,35.497901916503906
1633779594304046800,12.830046875,-2.2427978515625,-12.677417755126953,35.605411529541016
1633779594323925800,12.84992578125,-2.3594970703125,-12.341323852539062,35.72822952270508
1633779594343805700,12.8698056640625,-2.5675048828125,-12.431053161621094,35.84100341796875
1633779594363684600,12.8896845703125,-2.496246337890625,-12.314178466796875,36.01300048828125
1633779594383564800,12.909564697265624,-2.66632080078125,-12.200874328613281,36.016475677490234
1633779594403443700,12.929443603515624,-3.029296875,-12.229412078857422,36.05110549926758
1633779594423324000,12.949323974609374,-3.01275634765625,-11.903800964355469,36.05834197998047
1633779594443202800,12.969202880859376,-3.112274169921875,-11.816604614257812,36.14825439453125
1633779594463082800,12.989082763671876,-3.526153564453125,-12.011966705322266,36.277061462402344
1633779594482963000,13.008962890625,-3.458038330078125,-11.86313247680664,36.061187744140625
1633779594502841600,13.028841552734375,-3.640869140625,-11.780792236328125,36.00725555419922
1633779594522721800,13.0487216796875,-3.548248291015625,-12.059982299804688,35.99687194824219
1633779594542601000,13.06860107421875,-3.742156982421875,-11.918903350830078,36.239898681640625
1633779594562480600,13.088480712890625,-4.0006103515625,-11.640296936035156,36.32228469848633
1633779594582359800,13.10835986328125,-4.15899658203125,-11.806316375732422,36.249446868896484
1633779594602239700,13.12823974609375,-4.084747314453125,-11.469120025634766,36.316986083984375
1633779594622118700,13.14811865234375,-3.72637939453125,-11.444686889648438,36.361515045166016
1633779594641998800,13.167998779296875,-3.998779296875,-11.6536865234375,36.685546875
1633779594661877800,13.187877685546875,-4.249298095703125,-11.449073791503906,36.35420608520508
1633779594681757700,13.2077578125,-4.311492919921875,-11.297012329101562,36.30448532104492
1633779594701636900,13.227636962890625,-4.14581298828125,-11.408489227294922,36.41618347167969
1633779594721516800,13.247516845703124,-4.462158203125,-11.43575668334961,36.338829040527344
1633779594741396700,13.267396728515624,-4.7039794921875,-11.520973205566406,36.106468200683594
1633779594761275600,13.287275634765624,-4.631683349609375,-11.130165100097656,36.329627990722656
1633779594781155800,13.30715576171875,-3.97198486328125,-11.300834655761719,36.33491897583008
1633779594801034800,13.32703466796875,-4.19561767578125,-10.991527557373047,36.27674865722656
1633779594820914700,13.346914794921876,-4.240203857421875,-11.491252899169922,36.322914123535156
1633779594840793900,13.3667939453125,-4.3414306640625,-11.113636016845703,36.35922622680664
1633779594860673800,13.386673828125,-4.11346435546875,-11.165660858154297,36.4235954284668
1633779594880552700,13.406552734375,-4.4130859375,-10.81552505493164,36.23453903198242
1633779594900433000,13.426432861328125,-4.502197265625,-11.200557708740234,36.236106872558594
1633779594920311800,13.446311767578125,-4.634033203125,-11.043285369873047,36.37737274169922
1633779594940191700,13.466191650390625,-4.462982177734375,-11.298942565917969,36.3636474609375
1633779594960071700,13.48607177734375,-4.335296630859375,-11.562881469726562,36.270294189453125
1633779594979950600,13.50595068359375,-4.459503173828125,-11.37991714477539,36.20998764038086
1633779594999830800,13.525830810546875,-4.309295654296875,-11.118061065673828,36.0825309753418
1633779595019710000,13.5457099609375,-4.36468505859375,-11.194343566894531,36.06403732299805
1633779595039590000,13.56558984375,-4.344696044921875,-11.549381256103516,35.94506072998047
1633779595059468800,13.58546875,-4.40155029296875,-11.67184829711914,35.777645111083984
1633779595079348700,13.6053486328125,-4.471527099609375,-11.391441345214844,36.06224060058594
1633779595099227600,13.6252275390625,-4.080902099609375,-11.748085021972656,35.90081024169922
1633779595119107800,13.64510791015625,-4.389984130859375,-11.640190124511719,35.78201675415039
1633779595138986800,13.66498681640625,-3.945068359375,-11.571800231933594,35.795936584472656
1633779595158867000,13.684866943359374,-3.837890625,-11.438018798828125,35.91611099243164
1633779595178746600,13.70474658203125,-4.04168701171875,-11.58810806274414,36.08406066894531
1633779595198626000,13.7246259765625,-4.079010009765625,-11.667011260986328,36.06883239746094
1633779595218506000,13.744506103515626,-3.7618408203125,-11.846931457519531,35.7877197265625
1633779595238385200,13.76438525390625,-4.191650390625,-11.776840209960938,35.8367919921875
1633779595258265300,13.784265380859376,-4.044403076171875,-11.701309204101562,35.906211853027344
1633779595278144000,13.80414404296875,-4.144561767578125,-11.718597412109375,35.81989288330078
1633779595298024200,13.824024169921875,-3.785675048828125,-11.737049102783203,35.95513153076172
1633779595317903000,13.843903076171875,-3.66009521484375,-12.06582260131836,35.77509307861328
1633779595337783000,13.863782958984375,-3.91497802734375,-11.906272888183594,35.901519775390625
1633779595357662200,13.883662109375,-4.391876220703125,-11.82290267944336,35.75271224975586
1633779595377542100,13.903542236328125,-4.18389892578125,-11.585639953613281,35.86011505126953
1633779595397421000,13.923421142578125,-3.83770751953125,-11.684276580810547,35.89991760253906
1633779595417301200,13.94330126953125,-3.798675537109375,-11.893722534179688,35.91533660888672
1633779595437181200,13.96318115234375,-3.809600830078125,-11.963356018066406,35.828128814697266
1633779595457060000,13.98306005859375,-4.32440185546875,-11.95981216430664,35.85706329345703
1633779595476940000,14.00293994140625,-4.2669677734375,-11.974609375,36.01068878173828
1633779595496819200,14.022819091796874,-3.943206787109375,-12.258831024169922,35.90045166015625
1633779595516699100,14.04269921875,-4.255279541015625,-11.953105926513672,35.89111328125
1633779595536578300,14.062578369140626,-3.8184814453125,-11.812076568603516,35.948097229003906
1633779595556458200,14.082458251953126,-3.878173828125,-12.01885986328125,35.87704086303711
1633779595576337200,14.102337158203126,-4.277618408203125,-12.158138275146484,35.82417297363281
1633779595596217000,14.122217041015626,-4.302581787109375,-12.216693878173828,35.97114562988281
1633779595616096300,14.14209619140625,-4.0169677734375,-12.501449584960938,35.864418029785156
1633779595635976200,14.16197607421875,-3.984375,-12.165233612060547,35.81103515625
1633779595655855000,14.181855224609375,-3.84912109375,-12.556365966796875,35.5704231262207
1633779595675735300,14.2017353515625,-4.203216552734375,-12.726245880126953,35.51270294189453
1633779595695615000,14.221614990234375,-4.512054443359375,-12.458179473876953,35.56622314453125
1633779595715494100,14.241494140625,-4.175689697265625,-12.320903778076172,35.901954650878906
1633779595735374300,14.261374267578125,-4.458526611328125,-12.507041931152344,35.58399200439453
1633779595755253000,14.2812529296875,-4.2667236328125,-12.460796356201172,35.754432678222656
1633779595775133200,14.30113330078125,-4.38995361328125,-12.297740936279297,35.85517883300781
1633779595795012400,14.321012451171875,-4.10699462890625,-12.390079498291016,35.54053497314453
1633779595814892000,14.34089208984375,-4.2479248046875,-12.614444732666016,35.75755310058594
1633779595834771200,14.360771240234374,-3.93060302734375,-12.385848999023438,35.77417755126953
1633779595854651100,14.380651123046874,-3.88433837890625,-12.49008560180664,35.79494094848633
1633779595874530000,14.400530029296876,-3.958648681640625,-12.55532455444336,35.8757438659668
1633779595894410200,14.42041015625,-4.021209716796875,-12.592716217041016,35.913177490234375
1633779595914289200,14.4402890625,-3.94854736328125,-12.443607330322266,35.892608642578125
1633779595934169000,14.460169189453126,-4.1844482421875,-12.597515106201172,35.9987907409668
1633779595954049000,14.480049072265626,-4.019989013671875,-12.555030822753906,35.925777435302734
1633779595973928200,14.49992822265625,-4.04107666015625,-12.52740478515625,35.784446716308594
1633779595993808100,14.51980810546875,-3.667999267578125,-12.683605194091797,35.74950408935547
1633779596013687000,14.53968701171875,-4.267242431640625,-12.917488098144531,35.611000061035156
1633779596033567200,14.559567138671875,-3.941253662109375,-12.99404525756836,35.460533142089844
1633779596053446100,14.579446044921875,-4.0850830078125,-12.69564437866211,35.80939483642578
1633779596073326000,14.599326171875,-4.085205078125,-12.730842590332031,35.76097869873047
1633779596093205200,14.619205322265625,-4.285186767578125,-13.058349609375,35.90761947631836
1633779596113085000,14.6390849609375,-4.0328369140625,-12.904136657714844,35.87400817871094
1633779596132964000,14.658964111328125,-3.758514404296875,-12.86700439453125,35.63724899291992
1633779596152844300,14.67884423828125,-3.51544189453125,-12.726428985595703,35.644229888916016
1633779596172723000,14.698722900390624,-3.856719970703125,-12.69375228881836,35.53370666503906
1633779596192604200,14.718604248046875,-3.96759033203125,-12.874874114990234,35.55095672607422
1633779596212484000,14.738484130859375,-4.175750732421875,-12.875804901123047,35.497955322265625
1633779596232363300,14.75836328125,-3.888214111328125,-12.716716766357422,35.76495361328125
1633779596252243000,14.778242919921874,-3.715545654296875,-12.68582534790039,35.740272521972656
1633779596272122000,14.7981220703125,-4.229095458984375,-12.680007934570312,35.55146789550781
1633779596292002300,14.818002197265624,-4.243560791015625,-12.628219604492188,35.716102600097656
1633779596311881000,14.837880859375,-3.803558349609375,-12.8387451171875,35.792236328125
1633779596331761200,14.85776123046875,-3.489410400390625,-12.641986846923828,35.58148193359375
1633779596351640300,14.877640380859376,-3.720550537109375,-12.734996795654297,35.500762939453125
1633779596371520000,14.89752001953125,-3.33984375,-12.707881927490234,35.54063415527344
1633779596391399200,14.917399169921875,-3.558807373046875,-12.573726654052734,35.742225646972656
1633779596411279000,14.937279052734375,-3.141998291015625,-12.52829360961914,35.51639175415039
1633779596431158000,14.957157958984375,-3.0904541015625,-12.516620635986328,35.76036834716797
1633779596451038200,14.9770380859375,-3.025726318359375,-12.395034790039062,35.535484313964844
1633779596470918100,14.996918212890625,-2.795074462890625,-12.478141784667969,35.75001525878906
1633779596490797000,15.016797119140625,-2.65081787109375,-12.56137466430664,35.9122314453125
1633779596510677000,15.036677001953125,-2.9422607421875,-12.521896362304688,35.995506286621094
1633779596530556200,15.05655615234375,-3.049560546875,-12.541500091552734,35.65199279785156
