time,seconds_elapsed,z,y,x
1637056713492673000,0.027673095703125,-10.95184326171875,18.972354888916016,-24.634140014648438
1637056713512552000,0.047552001953125,-10.6865234375,19.125946044921875,-24.615684509277344
1637056713532432100,0.06743212890625,-10.884002685546875,19.218914031982422,-24.59612274169922
1637056713552311000,0.08731103515625,-10.937744140625,19.3411865234375,-24.337806701660156
1637056713572191000,0.10719091796875,-10.748291015625,19.41002655029297,-24.349220275878906
1637056713592071200,0.1270712890625,-10.45635986328125,19.252731323242188,-24.461692810058594
1637056713611949800,0.14694970703125,-10.828765869140625,18.967357635498047,-24.69139862060547
1637056713631830000,0.166830078125,-11.113739013671875,18.97091293334961,-24.45397186279297
1637056713651709200,0.186709228515625,-11.24273681640625,19.052738189697266,-24.23529052734375
1637056713671588900,0.2065888671875,-11.326751708984375,19.01447296142578,-24.384010314941406
1637056713691468000,0.226468017578125,-11.14263916015625,19.102130889892578,-24.59466552734375
1637056713711348000,0.246347900390625,-10.930511474609375,19.203784942626953,-24.508132934570312
1637056713731227000,0.266226806640625,-10.98895263671875,19.197601318359375,-24.410804748535156
1637056713751107000,0.286107177734375,-10.750091552734375,19.11300277709961,-24.746047973632812
1637056713770986000,0.305986083984375,-10.514617919921875,18.90951156616211,-24.341636657714844
1637056713790866200,0.3258662109375,-10.830413818359375,19.05646514892578,-24.681808471679688
1637056713810745000,0.3457451171875,-10.809173583984375,19.160263061523438,-24.701927185058594
1637056713830625000,0.365625,-10.695159912109375,19.23443603515625,-24.531539916992188
1637056713850504200,0.385504150390625,-11.09649658203125,19.242053985595703,-24.563796997070312
1637056713870383900,0.4053837890625,-11.0386962890625,18.93292999267578,-24.65564727783203
1637056713890263000,0.425262939453125,-10.93572998046875,19.033763885498047,-24.651077270507812
1637056713910143200,0.445143310546875,-11.082061767578125,19.31855010986328,-24.465042114257812
1637056713930022000,0.46502197265625,-11.07550048828125,19.373146057128906,-24.511825561523438
1637056713949902000,0.484902099609375,-10.944366455078125,18.92764663696289,-24.724952697753906
1637056713969782000,0.504781982421875,-10.759490966796875,19.148395538330078,-24.834205627441406
1637056713989661000,0.524660888671875,-11.527069091796875,19.22486114501953,-24.826705932617188
1637056714009541000,0.544541015625,-11.228240966796875,19.100502014160156,-24.681785583496094
1637056714029420000,0.564419921875,-11.076202392578125,19.229476928710938,-24.633079528808594
1637056714049300200,0.58430029296875,-11.455352783203125,19.008831024169922,-24.517608642578125
1637056714069179100,0.60417919921875,-11.35150146484375,19.327808380126953,-24.377037048339844
1637056714089059000,0.62405908203125,-11.050628662109375,19.255531311035156,-24.32300567626953
1637056714108938000,0.64393798828125,-11.284942626953125,19.488178253173828,-24.672645568847656
1637056714128818000,0.66381787109375,-11.1795654296875,19.40365982055664,-24.491256713867188
1637056714148697000,0.683697021484375,-11.221832275390625,19.47127914428711,-24.603187561035156
1637056714168577300,0.703577392578125,-10.95733642578125,19.240386962890625,-24.41839599609375
1637056714188456000,0.7234560546875,-11.42034912109375,19.503910064697266,-24.47760772705078
1637056714208336100,0.743336181640625,-11.09381103515625,19.41714859008789,-24.371002197265625
1637056714228215000,0.763215087890625,-11.05218505859375,19.339927673339844,-24.214317321777344
1637056714248095000,0.783094970703125,-11.059600830078125,19.297225952148438,-24.408950805664062
1637056714267974100,0.80297412109375,-10.98565673828125,19.05022430419922,-24.404434204101562
1637056714287854000,0.82285400390625,-10.94464111328125,19.056373596191406,-24.411720275878906
1637056714307734000,0.842734130859375,-11.02154541015625,19.202373504638672,-24.679229736328125
1637056714327613200,0.86261328125,-10.40765380859375,19.037574768066406,-24.480148315429688
1637056714347493000,0.8824931640625,-10.582733154296875,19.014633178710938,-24.38384246826172
1637056714367372000,0.9023720703125,-10.843963623046875,19.009601593017578,-24.365684509277344
1637056714387252000,0.922251953125,-10.938262939453125,18.83599853515625,-24.513442993164062
1637056714407131100,0.942131103515625,-10.846221923828125,19.100963592529297,-24.412734985351562
1637056714427011000,0.962010986328125,-10.796630859375,19.042827606201172,-24.547653198242188
1637056714446890200,0.98189013671875,-10.897125244140625,18.994029998779297,-24.472511291503906
1637056714466770200,1.001770263671875,-11.1575927734375,19.25326919555664,-24.339950561523438
1637056714486649000,1.021649169921875,-11.123504638671875,19.182010650634766,-24.403663635253906
1637056714506529000,1.041529052734375,-10.925079345703125,19.27031707763672,-24.73912811279297
1637056714526408200,1.061408203125,-10.882720947265625,19.271244049072266,-24.838584899902344
1637056714546288000,1.0812880859375,-11.018707275390625,19.214366912841797,-24.33623504638672
1637056714566167000,1.1011669921875,-10.932464599609375,19.21114730834961,-24.572647094726562
1637056714586047200,1.121047119140625,-11.039398193359375,19.450180053710938,-24.5533447265625
1637056714605927000,1.140927001953125,-11.25830078125,19.405933380126953,-24.51061248779297
1637056714625806000,1.16080615234375,-11.009979248046875,19.474891662597656,-24.48395538330078
1637056714645686300,1.180686279296875,-11.266448974609375,19.096092224121094,-24.37989044189453
1637056714665565000,1.20056494140625,-10.6177978515625,19.280311584472656,-24.595230102539062
1637056714685445000,1.220445068359375,-10.8143310546875,18.975303649902344,-24.48925018310547
1637056714705324300,1.24032421875,-10.99810791015625,19.372737884521484,-24.509506225585938
1637056714725204000,1.260203857421875,-10.943817138671875,19.47988510131836,-24.68817901611328
1637056714745083100,1.280083251953125,-10.7137451171875,19.259990692138672,-24.56092071533203
1637056714764963000,1.299963134765625,-10.74664306640625,19.160873413085938,-24.3375244140625
1637056714784842000,1.319842041015625,-10.576171875,19.281078338623047,-24.51575469970703
1637056714804726300,1.339726318359375,-10.806549072265625,19.147048950195312,-24.287078857421875
1637056714824605200,1.359605224609375,-10.237762451171875,19.394943237304688,-24.556922912597656
1637056714844485400,1.3794853515625,-10.333892822265625,19.238067626953125,-24.570098876953125
1637056714864364300,1.3993642578125,-10.37713623046875,19.29150390625,-24.57292938232422
1637056714884244500,1.419244384765625,-10.77642822265625,19.253719329833984,-24.422943115234375
1637056714904123400,1.439123291015625,-11.07537841796875,19.27747344970703,-24.597564697265625
1637056714924003300,1.45900341796875,-10.796051025390625,19.056472778320312,-24.51019287109375
1637056714943882200,1.47888232421875,-10.680206298828125,19.144378662109375,-24.476280212402344
1637056714963762200,1.49876220703125,-10.564056396484375,19.12555694580078,-24.480880737304688
1637056714983642400,1.518642333984375,-10.92584228515625,19.36673355102539,-24.675010681152344
1637056715003521500,1.538521484375,-10.97039794921875,19.222164154052734,-24.433486938476562
1637056715023401200,1.558401123046875,-10.946136474609375,19.188865661621094,-24.68437957763672
1637056715043280400,1.5782802734375,-11.04925537109375,19.163623809814453,-24.753982543945312
1637056715063160300,1.598160400390625,-10.76043701171875,19.375587463378906,-24.661903381347656
1637056715083039200,1.618039306640625,-10.73431396484375,19.269161224365234,-24.24726104736328
1637056715102919400,1.63791943359375,-11.01397705078125,19.19183349609375,-24.394622802734375
1637056715122798300,1.65779833984375,-10.645477294921875,19.248336791992188,-24.447227478027344
1637056715142678300,1.67767822265625,-10.874908447265625,19.225399017333984,-24.176109313964844
1637056715162557400,1.697557373046875,-10.865692138671875,18.917484283447266,-24.412460327148438
1637056715182437400,1.717437255859375,-11.251190185546875,19.023216247558594,-24.441726684570312
1637056715202316300,1.73731640625,-11.0517578125,19.122859954833984,-24.480941772460938
1637056715222196200,1.7571962890625,-10.878662109375,18.92768096923828,-24.46892547607422
1637056715242075400,1.777075439453125,-10.76031494140625,18.89307403564453,-24.694091796875
1637056715261955300,1.796955322265625,-10.390899658203125,19.100284576416016,-24.77642822265625
1637056715281834200,1.816834228515625,-10.574310302734375,19.228649139404297,-24.56170654296875
1637056715301714400,1.83671435546875,-10.800262451171875,19.09502410888672,-24.545860290527344
1637056715321593300,1.85659326171875,-10.81561279296875,19.026302337646484,-24.49536895751953
1637056715341473300,1.876473388671875,-10.475494384765625,19.005874633789062,-24.56810760498047
1637056715361353500,1.896353515625,-10.583099365234375,19.158973693847656,-24.73529815673828
1637056715381232400,1.916232421875,-10.69573974609375,19.04827117919922,-24.70844268798828
1637056715401112300,1.9361123046875,-10.725341796875,19.17963409423828,-24.62841033935547
1637056715420991500,1.955991455078125,-10.2767333984375,19.234397888183594,-24.799270629882812
1637056715440871200,1.97587109375,-9.9019775390625,19.1505126953125,-24.55492401123047
1637056715460750300,1.995750244140625,-10.0513916015625,18.99200439453125,-24.44976043701172
1637056715480630300,2.01563037109375,-10.323089599609375,19.002124786376953,-24.647476196289062
1637056715500509200,2.03550927734375,-10.209808349609375,19.02898406982422,-24.797958374023438
1637056715520389400,2.055389404296875,-10.71112060546875,19.032306671142578,-24.738525390625
1637056715540268500,2.0752685546875,-10.6424560546875,19.083232879638672,-24.622596740722656
1637056715560148200,2.095148193359375,-10.41949462890625,19.085006713867188,-24.612106323242188
1637056715580027400,2.11502734375,-10.477325439453125,19.191207885742188,-24.74590301513672
1637056715599907300,2.1349072265625,-10.372344970703125,19.096569061279297,-24.75989532470703
1637056715619786200,2.1547861328125,-10.267852783203125,19.175357818603516,-24.443603515625
1637056715639666400,2.17466650390625,-10.503448486328125,19.274494171142578,-24.651283264160156
1637056715659546400,2.19454638671875,-10.278839111328125,19.198055267333984,-24.415817260742188
1637056715679425300,2.21442529296875,-10.484832763671875,18.9805908203125,-24.29962921142578
1637056715699305200,2.23430517578125,-10.33355712890625,18.887775421142578,-24.295608520507812
1637056715719184400,2.254184326171875,-10.198089599609375,19.024120330810547,-24.804481506347656
1637056715739064600,2.274064697265625,-10.278472900390625,19.038249969482422,-24.667701721191406
1637056715758943200,2.293943115234375,-10.240814208984375,19.019718170166016,-24.63939666748047
1637056715778823400,2.313823486328125,-10.186859130859375,18.994075775146484,-24.45496368408203
1637056715798697700,2.33369775390625,-10.141357421875,19.083599090576172,-24.597793579101562
1637056715818577700,2.35357763671875,-10.65625,18.932292938232422,-24.743446350097656
1637056715838456600,2.37345654296875,-10.336944580078125,18.938987731933594,-24.6295166015625
1637056715858336800,2.393336669921875,-10.399261474609375,18.950176239013672,-24.796829223632812
1637056715878215700,2.413215576171875,-10.759674072265625,19.001544952392578,-24.647003173828125
1637056715898095600,2.433095703125,-10.8089599609375,19.19866180419922,-24.525962829589844
1637056715917974800,2.452974853515625,-10.88946533203125,19.166339874267578,-24.603851318359375
1637056715937854700,2.472854736328125,-10.91558837890625,18.942523956298828,-24.45635223388672
1637056715957733600,2.492733642578125,-10.88006591796875,19.12572479248047,-24.814186096191406
1637056715977613600,2.512613525390625,-10.662506103515625,19.23733901977539,-24.429367065429688
1637056715997493800,2.53249365234375,-10.637786865234375,19.239177703857422,-24.38538360595703
1637056716017372700,2.55237255859375,-10.738494873046875,19.02021026611328,-24.478195190429688
1637056716037252600,2.572252685546875,-10.748931884765625,19.216522216796875,-24.452735900878906
1637056716057131800,2.5921318359375,-10.979644775390625,19.32553482055664,-24.609649658203125
1637056716077011700,2.61201171875,-10.718170166015625,19.137393951416016,-24.53443145751953
1637056716096890600,2.631890625,-10.94036865234375,18.881649017333984,-24.40099334716797
1637056716116770800,2.651770751953125,-11.154998779296875,19.05667495727539,-24.42644500732422
1637056716136649700,2.671649658203125,-11.036956787109375,19.354000091552734,-24.31989288330078
1637056716156529700,2.69152978515625,-10.742645263671875,19.42540740966797,-24.124107360839844
1637056716176408800,2.711408935546875,-10.873138427734375,19.234813690185547,-24.40777587890625
1637056716196288800,2.731288818359375,-10.968902587890625,19.37807846069336,-24.367477416992188
1637056716216167700,2.751167724609375,-10.973358154296875,19.287715911865234,-24.34160614013672
1637056716236048000,2.7710478515625,-10.7528076171875,19.509864807128906,-24.12140655517578
1637056716255926500,2.790926513671875,-10.935699462890625,19.133522033691406,-24.31774139404297
1637056716275806700,2.810806640625,-10.750701904296875,19.210468292236328,-24.449867248535156
1637056716295686000,2.830685791015625,-10.617706298828125,19.08917236328125,-24.223587036132812
1637056716315565800,2.85056591796875,-10.65863037109375,19.284191131591797,-24.624755859375
1637056716335445800,2.87044580078125,-10.69482421875,19.226619720458984,-24.499267578125
1637056716355324700,2.89032470703125,-10.809173583984375,19.35675811767578,-24.48552703857422
1637056716375204900,2.910204833984375,-10.606109619140625,19.321086883544922,-24.57953643798828
1637056716395083800,2.930083740234375,-10.750732421875,19.024703979492188,-24.57512664794922
1637056716414963700,2.949963623046875,-11.048828125,19.037277221679688,-24.406776428222656
1637056716434843000,2.9698427734375,-10.60028076171875,18.75188446044922,-24.63762664794922
1637056716454722600,2.98972265625,-9.730316162109375,19.289501190185547,-24.519325256347656
1637056716474601700,3.009601806640625,-9.963531494140625,19.23938751220703,-24.390792846679688
1637056716494482000,3.02948193359375,-10.60552978515625,19.114177703857422,-24.56879425048828
1637056716514360600,3.049360595703125,-10.8717041015625,19.14458465576172,-24.410179138183594
1637056716534240800,3.06924072265625,-10.50946044921875,19.331226348876953,-24.39825439453125
1637056716554120000,3.089119873046875,-10.67071533203125,19.217018127441406,-24.354347229003906
1637056716573999600,3.10899951171875,-10.640625,19.071575164794922,-24.208648681640625
1637056716593878800,3.128878662109375,-10.70697021484375,19.056182861328125,-24.413047790527344
1637056716613758700,3.1487587890625,-10.650665283203125,18.925086975097656,-24.483482360839844
1637056716633637600,3.1686376953125,-10.346343994140625,19.156620025634766,-24.132003784179688
1637056716653517800,3.188517822265625,-10.842529296875,19.193260192871094,-24.388450622558594
1637056716673397800,3.208397705078125,-10.677978515625,19.158504486083984,-24.3065185546875
1637056716693276700,3.228276611328125,-10.657318115234375,19.19952392578125,-24.456459045410156
1637056716713156600,3.248156494140625,-10.944793701171875,19.221145629882812,-24.400558471679688
1637056716733035800,3.268035888671875,-10.6766357421875,19.27816390991211,-24.47846221923828
1637056716752915700,3.287915771484375,-10.658843994140625,19.080230712890625,-24.309486389160156
1637056716772794600,3.307794677734375,-10.690093994140625,19.11478042602539,-24.196556091308594
1637056716792678400,3.327678466796875,-10.551483154296875,19.076675415039062,-24.431228637695312
1637056716812557600,3.3475576171875,-10.890167236328125,19.09903335571289,-24.207618713378906
1637056716832437500,3.3674375,-11.067596435546875,18.937572479248047,-24.345542907714844
1637056716852316400,3.38731640625,-10.72735595703125,19.088756561279297,-24.34203338623047
1637056716872196400,3.4071962890625,-10.578277587890625,19.099384307861328,-24.32806396484375
1637056716892075500,3.427075439453125,-10.513397216796875,19.143054962158203,-24.636245727539062
1637056716911955500,3.44695556640625,-10.83831787109375,18.959392547607422,-24.5804443359375
1637056716931834400,3.46683447265625,-10.6907958984375,19.090065002441406,-24.5230712890625
1637056716951714600,3.486714599609375,-10.678070068359375,19.00908660888672,-24.34478759765625
1637056716971593500,3.506593505859375,-10.999542236328125,19.09392547607422,-24.517669677734375
1637056716991473400,3.526473388671875,-10.80963134765625,19.090530395507812,-24.42767333984375
1637056717011353600,3.546353515625,-10.891876220703125,19.181655883789062,-24.501876831054688
1637056717031232300,3.566232177734375,-10.37921142578125,19.16748809814453,-24.5362548828125
1637056717051112400,3.586112548828125,-10.64697265625,19.191478729248047,-24.499954223632812
1637056717070991600,3.60599169921875,-10.808074951171875,19.275508880615234,-24.4063720703125
1637056717090871600,3.62587158203125,-11.14068603515625,19.408023834228516,-24.395423889160156
1637056717110750500,3.64575048828125,-11.1224365234375,19.454010009765625,-24.398208618164062
1637056717130630400,3.66563037109375,-10.8780517578125,19.23084259033203,-24.287559509277344
1637056717150509300,3.68550927734375,-11.006378173828125,19.253246307373047,-24.166236877441406
1637056717170389500,3.705389404296875,-10.971710205078125,19.22524642944336,-24.424697875976562
1637056717190268400,3.725268310546875,-10.56292724609375,19.24029541015625,-24.50135040283203
1637056717210148600,3.745148681640625,-10.2913818359375,19.202198028564453,-24.141754150390625
1637056717230027500,3.765027587890625,-10.88018798828125,19.32404327392578,-24.373390197753906
1637056717249907500,3.784907470703125,-10.74224853515625,19.474205017089844,-24.49274444580078
1637056717269786400,3.804786376953125,-10.665283203125,19.163227081298828,-24.46692657470703
1637056717289666300,3.824666259765625,-11.03125,19.215991973876953,-24.68285369873047
1637056717309545500,3.84454541015625,-10.9547119140625,19.34756851196289,-24.470718383789062
1637056717329425700,3.86442578125,-10.97772216796875,19.585994720458984,-24.48358154296875
1637056717349304300,3.88430419921875,-11.003326416015625,19.37557601928711,-24.52214813232422
1637056717369184500,3.9041845703125,-11.113006591796875,19.380203247070312,-24.446685791015625
1637056717389063400,3.9240634765625,-11.06854248046875,19.30759048461914,-24.214988708496094
1637056717408943400,3.943943359375,-11.14862060546875,19.516910552978516,-24.359779357910156
1637056717428822500,3.963822509765625,-11.04534912109375,19.445308685302734,-24.42462158203125
1637056717448702500,3.983702392578125,-11.289886474609375,19.121723175048828,-24.480186462402344
1637056717468582400,4.00358251953125,-11.08795166015625,19.296981811523438,-24.460098266601562
1637056717488461600,4.023461669921875,-11.161529541015625,19.138721466064453,-24.367965698242188
1637056717508341500,4.043341552734375,-11.07568359375,19.162708282470703,-24.37982177734375
1637056717528220400,4.063220458984375,-10.338226318359375,19.286468505859375,-24.40094757080078
1637056717548100400,4.083100341796875,-10.76025390625,19.31052017211914,-24.529953002929688
1637056717567979500,4.1029794921875,-11.133453369140625,18.98194122314453,-24.696670532226562
1637056717587859500,4.122859375,-10.590179443359375,18.981670379638672,-24.621253967285156
1637056717607738400,4.14273828125,-10.629425048828125,19.232925415039062,-24.619277954101562
1637056717627618600,4.16261865234375,-10.89935302734375,19.118812561035156,-24.76984405517578
1637056717647497500,4.18249755859375,-11.122802734375,19.308086395263672,-24.581253051757812
1637056717667377400,4.20237744140625,-10.863983154296875,19.047618865966797,-24.493080139160156
1637056717687256600,4.222256591796875,-10.9072265625,18.945045471191406,-24.566848754882812
1637056717707136500,4.242136474609375,-10.83990478515625,18.933895111083984,-24.54619598388672
1637056717727015400,4.262015380859375,-10.9005126953125,19.235626220703125,-24.329605102539062
1637056717746895600,4.2818955078125,-10.66619873046875,19.026416778564453,-24.67737579345703
1637056717766774500,4.3017744140625,-10.9918212890625,18.940135955810547,-24.466880798339844
1637056717786654500,4.321654541015625,-10.903839111328125,19.064537048339844,-24.645294189453125
1637056717806534400,4.341534423828125,-10.960601806640625,18.85407257080078,-24.21135711669922
1637056717826414300,4.361414306640625,-10.669281005859375,19.127994537353516,-24.57549285888672
1637056717846293200,4.381293212890625,-10.71746826171875,18.9638671875,-24.566871643066406
1637056717866173200,4.401173095703125,-10.726776123046875,18.995586395263672,-24.538284301757812
1637056717886052400,4.42105224609375,-10.924102783203125,19.239948272705078,-24.559799194335938
1637056717905932300,4.440932373046875,-11.129486083984375,19.18505859375,-24.52875518798828
1637056717925812200,4.460812255859375,-11.1287841796875,19.242938995361328,-24.315032958984375
1637056717945691400,4.48069140625,-10.7794189453125,19.064903259277344,-24.438491821289062
1637056717965571000,4.500571044921875,-10.90850830078125,19.221675872802734,-24.620880126953125
1637056717985450200,4.5204501953125,-10.808074951171875,19.22005844116211,-24.47032928466797
1637056718005330400,4.540330322265625,-10.775665283203125,19.19049835205078,-24.432518005371094
1637056718025209000,4.560208984375,-10.96453857421875,19.156509399414062,-24.449913024902344
1637056718045089300,4.58008935546875,-10.819976806640625,19.111778259277344,-24.449203491210938
1637056718064968400,4.599968505859375,-11.132049560546875,19.254840850830078,-24.62207794189453
1637056718084848000,4.61984814453125,-11.301971435546875,19.051544189453125,-24.691627502441406
1637056718104727300,4.639727294921875,-11.457000732421875,19.342132568359375,-24.650718688964844
1637056718124607200,4.659607177734375,-10.946685791015625,19.20946502685547,-24.556640625
1637056718144486100,4.679486083984375,-10.756134033203125,19.057861328125,-24.621559143066406
1637056718164366300,4.699366455078125,-11.258453369140625,18.94223403930664,-24.6099853515625
1637056718184245200,4.719245361328125,-11.0111083984375,19.176254272460938,-24.689537048339844
1637056718204125200,4.739125244140625,-10.74652099609375,19.016860961914062,-24.60120391845703
1637056718224004400,4.75900439453125,-10.698638916015625,19.211143493652344,-24.554550170898438
1637056718243884300,4.77888427734375,-10.5902099609375,19.369686126708984,-24.31537628173828
1637056718263763200,4.79876318359375,-10.514312744140625,19.308170318603516,-24.608558654785156
1637056718283643100,4.81864306640625,-10.765167236328125,19.21633529663086,-24.586570739746094
1637056718303522300,4.838522216796875,-10.48046875,19.17668914794922,-24.50415802001953
1637056718323402200,4.85840234375,-10.63873291015625,19.254745483398438,-24.493377685546875
1637056718343281200,4.87828125,-10.78411865234375,19.12677764892578,-24.294403076171875
1637056718363161300,4.898161376953125,-10.704925537109375,19.477283477783203,-24.2755126953125
1637056718383041000,4.918041015625,-10.42938232421875,19.543987274169922,-24.611099243164062
1637056718402920200,4.937920166015625,-10.71246337890625,19.444164276123047,-24.592193603515625
1637056718422799400,4.95779931640625,-11.134918212890625,19.202255249023438,-24.541763305664062
1637056718442679000,4.977678955078125,-10.69635009765625,19.065414428710938,-24.355979919433594
1637056718462559200,4.997559326171875,-11.178863525390625,19.223514556884766,-24.309127807617188
1637056718482438400,5.0174384765625,-11.138092041015625,19.24347686767578,-24.40691375732422
1637056718502318000,5.037318115234375,-10.662841796875,19.211132049560547,-24.20195770263672
1637056718522197200,5.057197265625,-10.631683349609375,19.370040893554688,-24.197799682617188
1637056718542077200,5.0770771484375,-10.31121826171875,19.356796264648438,-24.246726989746094
1637056718561956000,5.0969560546875,-10.254791259765625,19.272228240966797,-24.271888732910156
1637056718581836300,5.116836181640625,-10.5804443359375,19.152263641357422,-24.288803100585938
1637056718601715200,5.136715087890625,-10.8245849609375,19.17603302001953,-24.43609619140625
1637056718621595100,5.15659521484375,-10.981292724609375,19.26642608642578,-24.405677795410156
1637056718641474300,5.176474365234375,-11.084259033203125,19.250598907470703,-24.539199829101562
1637056718661354200,5.196354248046875,-11.13287353515625,19.13498306274414,-24.400779724121094
1637056718681233200,5.216233154296875,-11.063262939453125,19.285568237304688,-24.413841247558594
1637056718701113300,5.23611328125,-10.811553955078125,19.33068084716797,-24.458282470703125
1637056718720992300,5.2559921875,-10.907928466796875,18.817611694335938,-24.362220764160156
1637056718740872200,5.2758720703125,-10.8089599609375,18.897441864013672,-24.277381896972656
1637056718760751400,5.29575146484375,-10.547454833984375,19.18802261352539,-24.270523071289062
1637056718780631300,5.31563134765625,-10.463470458984375,19.091800689697266,-24.64466094970703
1637056718800505600,5.335505615234375,-10.911163330078125,19.14990234375,-24.70849609375
1637056718820385800,5.3553857421875,-10.88385009765625,18.97983169555664,-24.566390991210938
1637056718840264700,5.3752646484375,-10.691497802734375,19.13257598876953,-24.586341857910156
1637056718860144600,5.39514453125,-10.713958740234375,19.46103286743164,-24.290565490722656
1637056718880024600,5.415024658203125,-10.607269287109375,19.528160095214844,-24.239273071289062
1637056718899903700,5.43490380859375,-10.742279052734375,19.296504974365234,-24.365699768066406
1637056718919784000,5.454783935546875,-10.84576416015625,18.964786529541016,-24.29389190673828
1637056718939662600,5.47466259765625,-10.689239501953125,19.07050323486328,-24.521194458007812
1637056718959542800,5.494542724609375,-10.65631103515625,18.85124969482422,-24.44904327392578
1637056718979421700,5.514421630859375,-10.956817626953125,18.976543426513672,-24.44390106201172
1637056718999301600,5.534301513671875,-10.868011474609375,19.34380340576172,-24.363929748535156
1637056719019180800,5.554180908203125,-10.66552734375,19.206493377685547,-24.34044647216797
1637056719039060700,5.574060791015625,-10.931610107421875,19.39138412475586,-24.1060791015625
1637056719058939600,5.593939697265625,-10.3660888671875,19.19418716430664,-24.45342254638672
1637056719078819800,5.61381982421875,-10.440826416015625,19.202388763427734,-24.335617065429688
1637056719098698500,5.633698486328125,-10.764373779296875,19.21267318725586,-24.514083862304688
1637056719118578700,5.65357861328125,-10.56829833984375,19.025745391845703,-24.53662109375
1637056719138457900,5.673457763671875,-10.50531005859375,18.948158264160156,-24.353790283203125
1637056719158337800,5.693337890625,-10.544677734375,19.253158569335938,-24.259384155273438
1637056719178216700,5.713216796875,-10.636627197265625,19.034225463867188,-24.401214599609375
1637056719198096600,5.7330966796875,-10.5179443359375,18.86803436279297,-24.520370483398438
1637056719217975600,5.7529755859375,-10.59442138671875,18.786968231201172,-24.827354431152344
1637056719237855700,5.772855712890625,-10.540618896484375,19.00920867919922,-24.68329620361328
1637056719257734700,5.792734619140625,-10.746734619140625,19.208141326904297,-24.625564575195312
1637056719277614800,5.81261474609375,-10.4166259765625,19.29302215576172,-24.49932098388672
1637056719297493800,5.83249365234375,-10.58087158203125,19.236892700195312,-24.54742431640625
1637056719317373700,5.852373779296875,-10.68603515625,18.87425994873047,-24.53038787841797
1637056719337252600,5.872252685546875,-10.860137939453125,19.17818832397461,-24.531654357910156
1637056719357132800,5.8921328125,-10.624053955078125,19.330581665039062,-24.447219848632812
1637056719377012700,5.9120126953125,-10.714202880859375,19.368297576904297,-24.52239227294922
1637056719396892000,5.931891845703125,-10.442352294921875,19.367752075195312,-24.4171142578125
1637056719416771600,5.951771484375,-10.2772216796875,19.2691650390625,-24.571556091308594
1637056719436650800,5.971650634765625,-10.2374267578125,19.29177474975586,-24.53327178955078
1637056719456530700,5.99153076171875,-10.79986572265625,19.328895568847656,-24.67382049560547
1637056719476409600,6.01140966796875,-10.80035400390625,19.437236785888672,-24.56127166748047
1637056719496289800,6.031289794921875,-10.763336181640625,19.37398910522461,-24.353927612304688
1637056719516169000,6.0511689453125,-10.5343017578125,19.412063598632812,-24.38056182861328
1637056719536048600,6.071048583984375,-10.755645751953125,19.461902618408203,-24.469871520996094
1637056719555927800,6.090927734375,-10.76470947265625,19.32614517211914,-24.457984924316406
1637056719575807700,6.110807861328125,-10.87811279296875,19.161636352539062,-24.46551513671875
1637056719595686700,6.130686767578125,-10.743377685546875,19.370731353759766,-24.322463989257812
1637056719615566800,6.15056689453125,-10.52581787109375,19.380496978759766,-24.372940063476562
1637056719635445800,6.17044580078125,-10.8887939453125,18.981494903564453,-24.54033660888672
1637056719655325700,6.19032568359375,-10.542572021484375,18.845741271972656,-24.520851135253906
1637056719675204900,6.210204833984375,-10.809783935546875,19.011615753173828,-24.350379943847656
1637056719695084800,6.230084716796875,-10.97027587890625,18.93463134765625,-24.267532348632812
1637056719714963700,6.249963623046875,-10.66265869140625,19.129188537597656,-24.2525634765625
1637056719734843600,6.26984375,-10.529296875,18.948863983154297,-24.343299865722656
1637056719754722800,6.289722900390625,-10.713104248046875,18.7354736328125,-24.319061279296875
1637056719774602800,6.309602783203125,-10.5557861328125,18.901023864746094,-24.393028259277344
1637056719794483700,6.329483642578125,-10.596527099609375,19.017932891845703,-24.609375
1637056719814362600,6.349362548828125,-10.6046142578125,19.17029571533203,-24.481491088867188
1637056719834242600,6.36924267578125,-10.811614990234375,19.017642974853516,-24.29981231689453
1637056719854121700,6.389121826171875,-10.93548583984375,19.22765350341797,-24.298355102539062
1637056719874001400,6.40900146484375,-11.0670166015625,19.178573608398438,-24.386474609375
1637056719893880600,6.428880615234375,-10.981170654296875,19.419036865234375,-24.531585693359375
1637056719913760800,6.4487607421875,-10.66839599609375,19.277973175048828,-24.42449188232422
1637056719933639400,6.468639404296875,-10.5888671875,19.355594635009766,-24.444007873535156
1637056719953519600,6.48851953125,-10.2913818359375,19.21499252319336,-24.411178588867188
1637056719973398800,6.508398681640625,-10.735687255859375,19.2391357421875,-24.307899475097656
1637056719993278500,6.528278564453125,-10.865570068359375,19.316120147705078,-24.66486358642578
1637056720013157600,6.54815771484375,-10.943450927734375,19.496784210205078,-24.299835205078125
1637056720033037600,6.56803759765625,-11.090301513671875,19.233436584472656,-24.463851928710938
1637056720052916500,6.58791650390625,-11.030029296875,18.987743377685547,-24.29792022705078
1637056720072796700,6.607796630859375,-10.6636962890625,19.26329803466797,-24.41156768798828
1637056720092675600,6.627675537109375,-10.809722900390625,18.890277862548828,-24.451927185058594
1637056720112555500,6.647555419921875,-10.786956787109375,19.253219604492188,-24.41289520263672
1637056720132434700,6.6674345703125,-10.458251953125,19.274776458740234,-24.730361938476562
1637056720152314600,6.687314697265625,-11.012481689453125,19.13332748413086,-24.617950439453125
1637056720172194600,6.707194580078125,-11.177581787109375,19.026214599609375,-24.7080078125
1637056720192073500,6.727073486328125,-11.234161376953125,19.177566528320312,-24.89043426513672
1637056720211953700,6.74695361328125,-11.317596435546875,19.213459014892578,-24.753379821777344
1637056720231832600,6.76683251953125,-10.890655517578125,19.212310791015625,-24.753578186035156
1637056720251712500,6.78671240234375,-10.962432861328125,19.299049377441406,-24.611000061035156
1637056720271591700,6.806591796875,-11.051239013671875,18.975322723388672,-24.49755096435547
1637056720291471400,6.826471435546875,-11.03973388671875,19.02587127685547,-24.516830444335938
1637056720311350500,6.8463505859375,-11.027099609375,18.945098876953125,-24.617691040039062
1637056720331230700,6.866230712890625,-11.18121337890625,18.991748809814453,-24.69379425048828
1637056720351109600,6.886109619140625,-11.270782470703125,19.21245574951172,-24.402481079101562
1637056720370989600,6.905989501953125,-10.891998291015625,19.19158935546875,-24.361968994140625
1637056720390868700,6.92586865234375,-10.555572509765625,19.006988525390625,-24.627914428710938
1637056720410748400,6.94574853515625,-11.001495361328125,19.32709503173828,-24.591400146484375
1637056720430627600,6.965627685546875,-10.929595947265625,19.362728118896484,-24.410293579101562
1637056720450507500,6.985507568359375,-11.23077392578125,19.470447540283203,-24.80834197998047
1637056720470386400,7.005386474609375,-10.695831298828125,18.984817504882812,-24.656478881835938
1637056720490266600,7.0252666015625,-10.889404296875,19.197643280029297,-24.547561645507812
1637056720510145800,7.045145751953125,-10.770538330078125,19.138458251953125,-24.449073791503906
1637056720530025500,7.065025390625,-11.23077392578125,19.28607940673828,-24.47844696044922
1637056720549905700,7.08490576171875,-10.801666259765625,18.87091064453125,-24.744712829589844
1637056720569784600,7.10478466796875,-10.721649169921875,19.385883331298828,-24.692947387695312
1637056720589664800,7.124664794921875,-10.86883544921875,19.089580535888672,-24.55760955810547
1637056720609543700,7.144543701171875,-11.01995849609375,19.133567810058594,-24.465164184570312
1637056720629423600,7.164423583984375,-10.971588134765625,19.000537872314453,-24.41362762451172
1637056720649302500,7.184302490234375,-10.78338623046875,19.026504516601562,-24.408836364746094
1637056720669182500,7.204182373046875,-10.87847900390625,19.131908416748047,-24.383644104003906
1637056720689061600,7.2240615234375,-11.2994384765625,19.262710571289062,-24.60907745361328
1637056720708941800,7.24394189453125,-10.792144775390625,19.10507583618164,-24.44493865966797
1637056720728820500,7.263820556640625,-10.58685302734375,19.166057586669922,-24.271713256835938
1637056720748700700,7.28370068359375,-11.01220703125,19.207195281982422,-24.28874969482422
1637056720768579600,7.30357958984375,-11.15582275390625,19.034671783447266,-24.63060760498047
1637056720788459500,7.32345947265625,-10.94915771484375,19.126964569091797,-24.3929443359375
1637056720808338400,7.34333837890625,-11.03460693359375,18.931804656982422,-24.473548889160156
1637056720828218400,7.36321826171875,-11.033599853515625,19.007980346679688,-24.441268920898438
1637056720848097500,7.38309765625,-11.111602783203125,19.05156707763672,-24.595733642578125
1637056720867977500,7.4029775390625,-10.727386474609375,18.948688507080078,-24.630569458007812
1637056720887856400,7.4228564453125,-11.30145263671875,18.977920532226562,-24.408279418945312
1637056720907736600,7.442736572265625,-10.971954345703125,19.256614685058594,-24.25879669189453
1637056720927616300,7.4626162109375,-11.054595947265625,19.050987243652344,-24.43560791015625
1637056720947495400,7.482495361328125,-11.064697265625,18.820812225341797,-24.50078582763672
1637056720967375600,7.502375732421875,-11.402130126953125,19.012454986572266,-24.414710998535156
1637056720987254300,7.522254150390625,-11.24468994140625,19.02753448486328,-24.63520050048828
1637056721007134500,7.542134521484375,-11.130859375,19.154273986816406,-24.524581909179688
1637056721027013600,7.562013671875,-10.783782958984375,19.118911743164062,-24.746620178222656
1637056721046893300,7.581893310546875,-10.950225830078125,18.96578598022461,-24.506240844726562
1637056721066772500,7.6017724609375,-10.721527099609375,18.959640502929688,-24.370994567871094
1637056721086652400,7.62165234375,-11.04339599609375,19.327316284179688,-24.514022827148438
1637056721106531300,7.64153125,-11.167083740234375,19.16857147216797,-24.385108947753906
1637056721126411500,7.66141162109375,-11.117706298828125,19.04775619506836,-24.583473205566406
1637056721146290400,7.68129052734375,-10.9276123046875,19.150821685791016,-24.477806091308594
1637056721166170400,7.70117041015625,-10.59344482421875,19.221176147460938,-24.579322814941406
1637056721186049500,7.721049560546875,-10.547882080078125,19.070777893066406,-24.31488800048828
1637056721205929500,7.740929443359375,-10.897552490234375,18.99753189086914,-24.535240173339844
1637056721225808400,7.760808349609375,-10.490081787109375,19.099658966064453,-24.58550262451172
1637056721245688300,7.780688232421875,-10.5606689453125,19.25897979736328,-24.453468322753906
1637056721265568500,7.800568603515625,-10.35205078125,18.990013122558594,-24.494163513183594
1637056721285447400,7.820447509765625,-10.748291015625,19.146648406982422,-24.43939971923828
1637056721305327400,7.840327392578125,-10.529571533203125,19.136123657226562,-24.58063507080078
1637056721325206500,7.86020654296875,-10.95928955078125,19.18178939819336,-24.547157287597656
1637056721345086500,7.88008642578125,-10.920623779296875,18.956401824951172,-24.53467559814453
1637056721364965400,7.89996533203125,-11.119537353515625,19.008399963378906,-24.741241455078125
1637056721384845600,7.919845458984375,-10.664764404296875,19.119747161865234,-24.472694396972656
1637056721404724500,7.939724365234375,-10.726043701171875,18.91262435913086,-24.402793884277344
1637056721424604400,7.9596044921875,-10.902496337890625,19.305416107177734,-24.573402404785156
1637056721444483600,7.979483642578125,-10.442535400390625,19.13359832763672,-24.52373504638672
1637056721464363500,7.999363525390625,-10.512176513671875,19.20574188232422,-24.62835693359375
1637056721484242400,8.019242431640626,-10.44976806640625,19.01028060913086,-24.508773803710938
1637056721504122400,8.039122314453126,-10.117523193359375,19.188705444335938,-24.663307189941406
1637056721524001300,8.059001220703125,-10.3616943359375,19.1785888671875,-24.5772705078125
1637056721543881500,8.078881591796875,-10.293792724609375,19.358604431152344,-24.5416259765625
1637056721563760600,8.0987607421875,-10.117523193359375,19.06900405883789,-24.635055541992188
1637056721583640600,8.118640625,-10.477691650390625,19.18929672241211,-24.690841674804688
1637056721603520500,8.1385205078125,-10.347015380859375,19.24050521850586,-24.808631896972656
1637056721623399400,8.1583994140625,-10.25341796875,19.41238021850586,-24.875473022460938
1637056721643279600,8.178279541015625,-9.960723876953125,19.45245361328125,-24.732398986816406
1637056721663158500,8.198158447265625,-10.08245849609375,19.219158172607422,-24.627174377441406
1637056721683038500,8.21803857421875,-10.21533203125,19.504539489746094,-24.80054473876953
1637056721702917600,8.237917724609375,-10.228973388671875,19.183895111083984,-24.583450317382812
1637056721722797300,8.25779736328125,-9.96337890625,19.353561401367188,-24.342567443847656
1637056721742676500,8.277676513671874,-10.31182861328125,19.4234619140625,-24.467926025390625
1637056721762556700,8.297556640625,-10.4666748046875,19.465988159179688,-24.377593994140625
1637056721782435300,8.317435302734374,-10.558990478515625,19.417903900146484,-24.797515869140625
1637056721802315300,8.337315185546874,-10.6551513671875,19.414169311523438,-24.720619201660156
1637056721822194200,8.357194091796876,-10.61053466796875,19.33462142944336,-25.066490173339844
1637056721842074000,8.37707421875,-10.8880615234375,19.212406158447266,-24.403228759765625
1637056721861953000,8.396953125,-10.791748046875,19.39133071899414,-24.585250854492188
1637056721881833000,8.4168330078125,-10.86212158203125,19.207698822021484,-24.395797729492188
1637056721901713200,8.436713134765625,-10.655029296875,19.354385375976562,-24.719581604003906
1637056721921592300,8.45659228515625,-10.360321044921875,19.01573944091797,-24.545059204101562
1637056721941472000,8.476471923828125,-10.585845947265625,19.513492584228516,-24.23841094970703
1637056721961351200,8.49635107421875,-10.584442138671875,19.416812896728516,-24.265670776367188
1637056721981231000,8.516231201171875,-10.40557861328125,19.246841430664062,-24.35912322998047
1637056722001110000,8.536110107421875,-10.329864501953125,19.28571319580078,-24.341705322265625
1637056722020990200,8.555990234375,-10.9295654296875,19.191028594970703,-24.469207763671875
1637056722040869000,8.575869140625,-10.999114990234375,19.430553436279297,-24.431610107421875
1637056722060749000,8.5957490234375,-10.5191650390625,19.328102111816406,-24.58490753173828
1637056722080628200,8.615628173828124,-10.7752685546875,19.08704376220703,-24.615585327148438
1637056722100508200,8.635508056640624,-10.925323486328125,19.25824737548828,-24.67425537109375
1637056722120387000,8.655386962890624,-11.03094482421875,19.113933563232422,-24.595558166503906
1637056722140267000,8.67526708984375,-10.62786865234375,19.164657592773438,-24.397254943847656
1637056722160146200,8.695146240234376,-10.719512939453125,19.406448364257812,-24.538345336914062
1637056722180026000,8.715026123046876,-10.729156494140625,19.023242950439453,-24.529808044433594
1637056722199905300,8.7349052734375,-10.9630126953125,19.22844696044922,-24.46453094482422
1637056722219785200,8.75478515625,-11.21771240234375,19.013748168945312,-24.531265258789062
1637056722239665200,8.7746650390625,-11.04150390625,19.038555145263672,-24.635055541992188
1637056722259544000,8.7945439453125,-10.94842529296875,19.223609924316406,-24.69184112548828
1637056722279424300,8.81442431640625,-10.955596923828125,19.20738983154297,-24.674819946289062
1637056722299303200,8.83430322265625,-10.828643798828125,19.25445556640625,-24.487403869628906
1637056722319183000,8.85418310546875,-10.962493896484375,19.190311431884766,-24.55529022216797
1637056722339062300,8.874062255859375,-10.838531494140625,19.485164642333984,-24.555526733398438
1637056722358942000,8.89394189453125,-11.048431396484375,19.431758880615234,-24.372474670410156
1637056722378821000,8.913821044921875,-10.79022216796875,19.30931854248047,-24.302337646484375
1637056722398701300,8.933701416015625,-10.8367919921875,19.2239990234375,-24.334274291992188
1637056722418580000,8.953580078125,-10.91204833984375,19.239402770996094,-24.435531616210938
1637056722438460200,8.973460205078124,-10.508056640625,19.22553253173828,-24.215911865234375
1637056722458339300,8.99333935546875,-10.390899658203125,19.238658905029297,-24.492843627929688
1637056722478219000,9.013218994140624,-10.94482421875,19.204299926757812,-24.440391540527344
1637056722498099200,9.03309912109375,-11.22857666015625,19.190780639648438,-24.45685577392578
1637056722517978000,9.05297802734375,-11.37646484375,19.587833404541016,-24.52710723876953
1637056722537858300,9.0728583984375,-10.94976806640625,19.407760620117188,-24.406402587890625
1637056722557737200,9.0927373046875,-10.84356689453125,19.332141876220703,-24.48259735107422
1637056722577617200,9.1126171875,-11.131805419921875,19.343109130859375,-24.500396728515625
1637056722597496000,9.13249609375,-10.8756103515625,19.1158447265625,-24.556747436523438
1637056722617376000,9.1523759765625,-11.02545166015625,19.23969268798828,-24.546920776367188
1637056722637255200,9.172255126953125,-10.78155517578125,19.205493927001953,-24.611228942871094
1637056722657135400,9.19213525390625,-10.879791259765625,19.23868179321289,-24.50830078125
1637056722677014000,9.212013916015625,-10.896148681640625,19.421592712402344,-24.349044799804688
1637056722696894200,9.231894287109375,-11.06829833984375,19.29647445678711,-24.141143798828125
1637056722716773000,9.251773193359375,-11.46630859375,19.23107147216797,-24.405349731445312
1637056722736653000,9.271653076171875,-10.844818115234375,19.173816680908203,-24.308563232421875
1637056722756533200,9.291533203125,-10.931793212890625,19.03076934814453,-24.427047729492188
1637056722776412200,9.311412109375,-10.669952392578125,18.93151092529297,-24.462120056152344
1637056722796292000,9.3312919921875,-10.8409423828125,19.26275634765625,-24.412010192871094
1637056722816174300,9.35117431640625,-10.85125732421875,19.31578826904297,-24.288909912109375
1637056722836054300,9.37105419921875,-10.685882568359375,19.351478576660156,-24.5343017578125
1637056722855933400,9.390933349609375,-10.47589111328125,19.159873962402344,-24.392913818359375
1637056722875813400,9.4108134765625,-10.7734375,19.209903717041016,-24.416160583496094
1637056722895692300,9.4306923828125,-10.471435546875,18.913318634033203,-24.358383178710938
1637056722915572500,9.450572509765625,-10.6007080078125,18.845497131347656,-24.341651916503906
1637056722935451400,9.470451416015624,-10.77105712890625,18.904266357421875,-24.2587890625
1637056722955331300,9.490331298828124,-10.8365478515625,18.9991455078125,-24.22667694091797
1637056722975210500,9.51021044921875,-10.77880859375,19.026874542236328,-24.438507080078125
1637056722995090400,9.53009033203125,-10.532257080078125,19.03432846069336,-24.73485565185547
1637056723014970400,9.549970458984374,-10.74896240234375,19.171215057373047,-24.427452087402344
1637056723034849300,9.569849365234376,-10.70391845703125,19.05243682861328,-24.361610412597656
1637056723054729500,9.5897294921875,-11.018707275390625,19.340579986572266,-24.243698120117188
1637056723074608400,9.6096083984375,-10.9307861328125,19.420352935791016,-24.395034790039062
1637056723094488300,9.62948828125,-10.67950439453125,19.353191375732422,-24.540565490722656
1637056723114367500,9.649367431640625,-11.097259521484375,19.12261199951172,-24.265113830566406
1637056723134247400,9.669247314453125,-10.73480224609375,19.234600067138672,-24.307960510253906
1637056723154126300,9.689126220703125,-11.06195068359375,19.33652114868164,-24.423583984375
1637056723174006500,9.709006591796875,-10.931396484375,19.152667999267578,-24.46747589111328
1637056723193885400,9.728885498046875,-11.077239990234375,19.108253479003906,-24.28704071044922
1637056723213765400,9.748765380859375,-10.755401611328125,19.015411376953125,-24.340469360351562
1637056723233644500,9.76864453125,-10.753997802734375,19.37488555908203,-24.323753356933594
1637056723253524200,9.788524169921875,-10.772064208984375,19.341323852539062,-24.187271118164062
1637056723273404400,9.808404296875,-10.912384033203125,19.314876556396484,-24.140968322753906
1637056723293283600,9.82828369140625,-10.687591552734375,19.117557525634766,-24.221717834472656
1637056723313163300,9.848163330078124,-11.11065673828125,19.341949462890625,-24.237579345703125
1637056723333042400,9.86804248046875,-11.154693603515625,19.291866302490234,-24.212936401367188
1637056723352922400,9.88792236328125,-11.4150390625,19.544116973876953,-23.97466278076172
1637056723372801300,9.90780126953125,-10.962432861328125,19.332298278808594,-24.00861358642578
1637056723392681500,9.927681396484376,-11.37396240234375,19.384063720703125,-24.342254638671875
1637056723412560400,9.947560302734376,-11.29864501953125,19.42007064819336,-24.339027404785156
1637056723432440300,9.9674404296875,-11.01824951171875,19.424915313720703,-24.362571716308594
1637056723452319500,9.987319580078125,-11.26434326171875,19.430416107177734,-24.057052612304688
1637056723472199400,10.007199462890625,-11.358734130859375,19.382633209228516,-24.387046813964844
1637056723492079600,10.02707958984375,-11.041046142578125,19.392162322998047,-24.283462524414062
1637056723511958300,10.046958251953125,-11.352081298828125,19.273723602294922,-24.234100341796875
1637056723531838500,10.06683837890625,-11.12542724609375,19.196369171142578,-24.148048400878906
1637056723551717400,10.08671728515625,-11.406768798828125,19.301082611083984,-24.522193908691406
1637056723571597300,10.106597412109375,-11.031829833984375,19.208251953125,-24.463905334472656
1637056723591476500,10.1264765625,-11.033355712890625,19.232601165771484,-24.513267517089844
1637056723611356400,10.1463564453125,-11.400970458984375,19.280731201171875,-24.392852783203125
1637056723631235300,10.1662353515625,-10.439605712890625,19.383838653564453,-24.284317016601562
1637056723651115500,10.186115478515624,-11.111053466796875,19.212024688720703,-24.329673767089844
1637056723670994200,10.205994140625,-10.816192626953125,19.22827911376953,-24.23339080810547
1637056723690874400,10.225874267578124,-11.169097900390625,19.188838958740234,-24.26044464111328
1637056723710753500,10.24575341796875,-11.346832275390625,19.352489471435547,-24.1473388671875
1637056723730633500,10.265633544921876,-11.181121826171875,19.535072326660156,-24.454612731933594
1637056723750513400,10.285513427734376,-10.84637451171875,19.230487823486328,-24.33995819091797
1637056723770392300,10.305392333984376,-11.2108154296875,19.618587493896484,-24.414703369140625
1637056723790272500,10.3252724609375,-11.1539306640625,19.689727783203125,-24.432960510253906
1637056723810148600,10.345148681640625,-11.125457763671875,19.258617401123047,-24.364547729492188
1637056723830028800,10.36502880859375,-11.4991455078125,19.156944274902344,-24.158584594726562
1637056723849908000,10.384907958984375,-11.1541748046875,19.396987915039062,-24.314300537109375
1637056723869787600,10.40478759765625,-11.04150390625,19.330795288085938,-24.187652587890625
1637056723889666800,10.424666748046874,-11.193756103515625,19.349613189697266,-24.24701690673828
1637056723909546800,10.444546630859374,-11.11328125,19.518474578857422,-24.321685791015625
1637056723929425700,10.46442578125,-10.972625732421875,19.40888214111328,-24.235702514648438
1637056723949305900,10.484305908203124,-10.538787841796875,19.054370880126953,-24.29578399658203
1637056723969185800,10.504185791015624,-10.790679931640625,19.148555755615234,-24.228736877441406
1637056723989064700,10.524064697265626,-11.176239013671875,19.00162124633789,-24.378387451171875
1637056724008944600,10.543944580078126,-10.886444091796875,19.28253173828125,-24.316116333007812
1637056724028823800,10.56382373046875,-10.9658203125,19.289382934570312,-24.285377502441406
1637056724048703700,10.583703857421876,-11.1822509765625,19.331432342529297,-24.387184143066406
1637056724068582700,10.603582763671875,-11.552154541015625,19.332717895507812,-24.454818725585938
1637056724088462800,10.623462890625,-11.17559814453125,19.364238739013672,-24.548484802246094
1637056724108341800,10.643341796875,-11.10205078125,19.244091033935547,-24.615745544433594
1637056724128221700,10.6632216796875,-10.863800048828125,19.38031005859375,-24.53412628173828
1637056724148100900,10.683100830078125,-10.938018798828125,19.371971130371094,-24.57526397705078
1637056724167980500,10.70298046875,-10.776153564453125,19.288166046142578,-24.362510681152344
1637056724187860700,10.72286083984375,-10.753997802734375,19.225414276123047,-24.554031372070312
1637056724207740000,10.742739990234375,-10.78753662109375,19.246440887451172,-24.476478576660156
1637056724227619600,10.76261962890625,-10.64581298828125,19.334980010986328,-24.379837036132812
1637056724247498800,10.782498779296875,-10.92034912109375,19.246803283691406,-24.47107696533203
1637056724267378700,10.802378662109374,-10.671783447265625,18.86837387084961,-24.32268524169922
1637056724287257600,10.822257568359374,-10.616241455078125,19.135204315185547,-24.120445251464844
1637056724307137800,10.8421376953125,-10.909210205078125,19.02245330810547,-24.380661010742188
1637056724327016700,10.8620166015625,-10.770263671875,19.36880874633789,-24.588226318359375
1637056724346896600,10.881896728515626,-10.796966552734375,19.229801177978516,-24.29767608642578
1637056724366775800,10.90177587890625,-10.493621826171875,19.325759887695312,-24.1160888671875
1637056724386655700,10.92165576171875,-10.267822265625,19.173160552978516,-24.34259796142578
1637056724406536000,10.941535888671876,-10.568817138671875,19.171005249023438,-24.376304626464844
1637056724426414800,10.961414794921875,-11.169677734375,19.475788116455078,-24.287757873535156
1637056724446294800,10.981294677734375,-10.947021484375,18.97092056274414,-24.142623901367188
1637056724466173700,11.001173583984375,-11.2779541015625,19.064212799072266,-24.133941650390625
1637056724486053600,11.0210537109375,-10.985443115234375,19.24007797241211,-24.320785522460938
1637056724505932800,11.040932861328125,-10.78753662109375,19.221126556396484,-24.24897003173828
1637056724525813000,11.06081298828125,-10.65240478515625,19.20673370361328,-24.346824645996094
1637056724545691600,11.080691650390625,-10.689422607421875,19.249828338623047,-24.300155639648438
1637056724565571800,11.10057177734375,-11.14385986328125,19.280067443847656,-24.407920837402344
1637056724585451800,11.12045166015625,-11.05633544921875,18.896343231201172,-24.173377990722656
1637056724605330700,11.14033056640625,-10.73138427734375,19.167251586914062,-24.64154052734375
1637056724625211000,11.1602109375,-10.593231201171875,18.87279510498047,-24.68358612060547
1637056724645089800,11.18008984375,-10.929290771484375,18.901092529296875,-24.322418212890625
1637056724664969700,11.1999697265625,-10.726531982421875,19.306888580322266,-24.329696655273438
1637056724684849000,11.219848876953124,-10.717926025390625,19.086528778076172,-24.39661407470703
1637056724704728800,11.239728759765624,-10.598846435546875,19.218204498291016,-24.555519104003906
1637056724724607700,11.259607666015626,-10.344696044921875,19.09215545654297,-24.310470581054688
1637056724744487700,11.27948779296875,-10.8187255859375,19.112945556640625,-24.408767700195312
1637056724764366800,11.299366943359376,-10.77252197265625,18.88764190673828,-24.32860565185547
1637056724784246800,11.319246826171875,-11.003021240234375,18.93252944946289,-24.275787353515625
1637056724804125700,11.339125732421875,-10.49884033203125,19.118579864501953,-24.40447998046875
1637056724824004900,11.3590048828125,-10.83135986328125,19.36322784423828,-24.126197814941406
1637056724843885000,11.378885009765625,-10.926788330078125,19.22547149658203,-24.26793670654297
1637056724863763700,11.398763671875,-10.811614990234375,19.351055145263672,-24.339881896972656
1637056724883644000,11.418643798828125,-10.818206787109375,19.251724243164062,-24.38378143310547
1637056724903522800,11.438522705078125,-11.0224609375,18.99988555908203,-24.450111389160156
1637056724923402800,11.45840283203125,-11.13299560546875,19.155895233154297,-24.32952880859375
1637056724943282000,11.478281982421874,-10.944061279296875,19.172767639160156,-24.562042236328125
1637056724963161900,11.498161865234374,-11.125213623046875,19.247467041015625,-24.722549438476562
1637056724983041800,11.518041748046874,-10.8341064453125,19.437789916992188,-24.73271942138672
1637056725002921000,11.5379208984375,-10.7132568359375,19.087642669677734,-24.515052795410156
1637056725022801000,11.55780078125,-10.79974365234375,19.29163360595703,-24.362586975097656
1637056725042679800,11.5776796875,-10.78900146484375,19.38391876220703,-24.650665283203125
1637056725062559700,11.597559814453126,-10.912445068359375,19.43622589111328,-24.37628936767578
1637056725082439000,11.61743896484375,-11.306671142578125,19.359695434570312,-24.36688995361328
1637056725102318800,11.63731884765625,-11.145660400390625,19.050273895263672,-24.498519897460938
1637056725122197800,11.65719775390625,-11.08465576171875,19.353015899658203,-24.339431762695312
1637056725142078000,11.677077880859375,-10.687469482421875,19.285812377929688,-24.35419464111328
1637056725161957600,11.69695751953125,-10.599151611328125,19.467899322509766,-24.360031127929688
1637056725181836800,11.7168369140625,-10.62921142578125,19.366973876953125,-24.436546325683594
1637056725201717000,11.736717041015625,-10.745574951171875,19.423511505126953,-24.234664916992188
1637056725221595600,11.756595703125,-10.675201416015625,19.56098175048828,-24.48194122314453
1637056725241475800,11.776475830078125,-10.8851318359375,19.570236206054688,-24.344757080078125
1637056725261355000,11.79635498046875,-10.80224609375,19.338897705078125,-23.95684051513672
1637056725281234700,11.816234619140625,-11.04425048828125,19.4368896484375,-24.025054931640625
1637056725301113900,11.83611376953125,-10.650238037109375,19.20654296875,-24.173126220703125
1637056725320993800,11.855993896484375,-10.914520263671875,19.294475555419922,-24.190773010253906
1637056725340874000,11.8758740234375,-10.883026123046875,19.04656219482422,-24.07294464111328
1637056725360753000,11.8957529296875,-10.792327880859375,19.253612518310547,-24.148086547851562
1637056725380632800,11.9156328125,-10.918487548828125,19.139217376708984,-24.183364868164062
1637056725400511700,11.93551171875,-10.610260009765625,19.465717315673828,-24.337059020996094
1637056725420391700,11.9553916015625,-10.53955078125,19.114280700683594,-24.41094970703125
1637056725440270800,11.975270751953126,-10.66790771484375,19.27379608154297,-24.338356018066406
1637056725460151000,11.995151123046876,-10.72119140625,19.1754150390625,-24.67766571044922
1637056725480029700,12.01502978515625,-10.65203857421875,19.102577209472656,-24.478919982910156
1637056725499910000,12.034909912109375,-10.607269287109375,19.24612045288086,-24.652481079101562
1637056725519788800,12.054788818359375,-10.650115966796875,19.171390533447266,-24.585983276367188
1637056725539668700,12.074668701171875,-10.4935302734375,19.272357940673828,-24.51422882080078
1637056725559549000,12.094548828125,-10.977752685546875,19.189170837402344,-24.53265380859375
1637056725579427800,12.114427734375,-10.395843505859375,19.304481506347656,-24.383087158203125
1637056725599307800,12.134307861328125,-10.750640869140625,19.20020294189453,-24.51856231689453
1637056725619187000,12.15418701171875,-10.8035888671875,19.212684631347656,-24.363609313964844
1637056725639067000,12.17406689453125,-10.649322509765625,19.197917938232422,-24.498611450195312
1637056725658945800,12.19394580078125,-10.7943115234375,19.242923736572266,-24.707107543945312
1637056725678825700,12.21382568359375,-10.5992431640625,19.406330108642578,-24.594863891601562
1637056725698705000,12.233704833984374,-11.03271484375,19.27518081665039,-24.52997589111328
1637056725718584800,12.253584716796874,-10.6046142578125,19.45095443725586,-24.36272430419922
1637056725738464800,12.27346484375,-10.9095458984375,19.560684204101562,-24.433212280273438
1637056725758344000,12.293343994140624,-10.77984619140625,19.411510467529297,-24.52893829345703
1637056725778223900,12.313223876953124,-10.93597412109375,19.594036102294922,-24.466506958007812
1637056725798102800,12.333102783203126,-10.83203125,19.52139663696289,-24.447532653808594
1637056725817983000,12.35298291015625,-10.9840087890625,19.43592071533203,-24.461257934570312
1637056725837862000,12.37286181640625,-10.966400146484375,19.378215789794922,-24.09588623046875
1637056725857742000,12.3927421875,-11.020782470703125,19.371795654296875,-24.268592834472656
1637056725877621000,12.41262109375,-10.960113525390625,19.351417541503906,-24.416748046875
1637056725897501000,12.4325009765625,-10.73529052734375,19.39468002319336,-24.41291046142578
1637056725917381000,12.452381103515625,-10.7921142578125,19.395675659179688,-24.486068725585938
1637056725937260000,12.472260009765625,-10.919769287109375,19.621166229248047,-24.5091552734375
1637056725957140000,12.492139892578125,-11.066986083984375,19.413516998291016,-24.570236206054688
1637056725977019100,12.51201904296875,-10.705413818359375,19.384140014648438,-24.646316528320312
1637056725996898800,12.53189892578125,-10.643798828125,19.657421112060547,-24.64391326904297
1637056726016778000,12.551778076171875,-10.841949462890625,19.507057189941406,-24.584083557128906
1637056726036658200,12.571658203125,-10.77069091796875,19.169952392578125,-24.565773010253906
1637056726056536800,12.591536865234374,-10.757171630859375,19.420089721679688,-24.29345703125
1637056726076417000,12.6114169921875,-10.6822509765625,19.316669464111328,-24.380874633789062
1637056726096297000,12.631296875,-10.52105712890625,19.42792510986328,-24.299705505371094
1637056726116176000,12.65117578125,-10.895965576171875,19.527503967285156,-24.58135986328125
1637056726136056000,12.67105615234375,-10.75640869140625,19.43109130859375,-24.3876953125
1637056726155935000,12.69093505859375,-11.068939208984375,19.323490142822266,-24.64940643310547
1637056726175815000,12.71081494140625,-11.14959716796875,19.339035034179688,-24.592697143554688
1637056726195694000,12.730694091796876,-11.061431884765625,19.414649963378906,-24.686866760253906
1637056726215574000,12.750573974609376,-10.95916748046875,19.417266845703125,-24.524696350097656
1637056726235453000,12.770452880859375,-10.533843994140625,19.108287811279297,-24.711181640625
1637056726255332900,12.790332763671875,-10.83892822265625,19.154075622558594,-24.506393432617188
1637056726275213000,12.810213134765625,-10.8096923828125,19.18328094482422,-24.232009887695312
1637056726295092000,12.830092041015625,-10.733734130859375,19.377098083496094,-24.586219787597656
1637056726314972000,12.849971923828125,-10.7784423828125,19.349388122558594,-24.4493408203125
1637056726334851000,12.86985107421875,-10.801910400390625,19.312469482421875,-24.52935028076172
1637056726354731000,12.88973095703125,-10.9239501953125,19.371334075927734,-24.778335571289062
1637056726374610000,12.90960986328125,-10.649078369140625,19.438770294189453,-24.703567504882812
1637056726394490000,12.929489990234375,-10.826812744140625,19.524185180664062,-24.59345245361328
1637056726414370000,12.9493701171875,-10.598785400390625,19.529064178466797,-24.42272186279297
1637056726434249000,12.9692490234375,-11.129638671875,19.394397735595703,-24.44415283203125
1637056726454129000,12.98912890625,-10.76458740234375,19.349441528320312,-24.62065887451172
1637056726474008000,13.009008056640624,-10.750732421875,19.551040649414062,-24.764419555664062
1637056726493888000,13.028887939453124,-11.024261474609375,19.174304962158203,-24.543167114257812
1637056726513767000,13.048766845703126,-10.949066162109375,19.387744903564453,-24.438377380371094
1637056726533647000,13.068647216796874,-10.992919921875,19.57015609741211,-24.50653839111328
1637056726553526000,13.088526123046876,-11.363861083984375,19.462196350097656,-24.47643280029297
1637056726573406000,13.108406005859376,-10.840362548828125,19.641963958740234,-24.472557067871094
1637056726593286100,13.1282861328125,-10.636474609375,19.364505767822266,-24.459327697753906
1637056726613164800,13.148164794921875,-11.239410400390625,19.245880126953125,-24.424118041992188
1637056726633045000,13.168044921875,-10.95196533203125,19.283546447753906,-24.574066162109375
1637056726652924200,13.187924072265625,-11.109405517578125,19.277515411376953,-24.360679626464844
1637056726672803800,13.207803955078125,-10.766143798828125,19.289386749267578,-24.273300170898438
1637056726692683000,13.22768310546875,-10.398040771484375,19.294322967529297,-24.332504272460938
1637056726712563000,13.24756298828125,-10.4580078125,19.335067749023438,-24.45165252685547
1637056726732441900,13.26744189453125,-10.96051025390625,19.45868682861328,-24.427268981933594
1637056726752322000,13.287322021484375,-10.626953125,19.269805908203125,-24.23858642578125
1637056726772202000,13.307201904296875,-10.64398193359375,19.401081085205078,-24.36754608154297
1637056726792081000,13.327080810546875,-10.348419189453125,19.225173950195312,-24.59099578857422
1637056726811965200,13.346965087890625,-10.447906494140625,19.243553161621094,-24.340843200683594
1637056726831844400,13.36684423828125,-10.811126708984375,19.148906707763672,-24.37232208251953
1637056726851724000,13.38672412109375,-10.720550537109375,19.248104095458984,-24.36292266845703
1637056726871603200,13.406603271484375,-10.696990966796875,19.129840850830078,-24.450729370117188
1637056726891483400,13.4264833984375,-10.823028564453125,19.31653594970703,-24.55559539794922
1637056726911363300,13.44636328125,-10.989044189453125,19.379032135009766,-24.471900939941406
1637056726931242200,13.4662421875,-11.225921630859375,19.266769409179688,-24.439544677734375
1637056726951122200,13.4861220703125,-10.878387451171875,19.217437744140625,-24.40265655517578
1637056726971001000,13.5060009765625,-10.88848876953125,19.378826141357422,-24.398300170898438
1637056726990881300,13.52588134765625,-10.834808349609375,19.448184967041016,-24.364479064941406
1637056727010760200,13.54576025390625,-10.9466552734375,19.727584838867188,-24.467208862304688
1637056727030640400,13.565640380859374,-11.177154541015625,19.68791961669922,-24.419692993164062
1637056727050519300,13.585519287109374,-11.016448974609375,19.466861724853516,-24.44123077392578
1637056727070399200,13.605399169921874,-10.896728515625,19.43846893310547,-24.333152770996094
1637056727090279400,13.625279541015624,-10.930572509765625,19.661361694335938,-24.49156951904297
1637056727110158000,13.645157958984376,-10.75518798828125,19.289440155029297,-24.333084106445312
1637056727130038300,13.665038330078126,-10.679168701171875,19.426891326904297,-24.48760986328125
1637056727149917400,13.68491748046875,-10.912139892578125,19.491073608398438,-24.596725463867188
1637056727169797000,13.704797119140625,-11.05657958984375,19.436466217041016,-24.366806030273438
1637056727189676300,13.72467626953125,-10.61065673828125,19.357524871826172,-24.495391845703125
1637056727209556200,13.74455615234375,-10.715972900390625,19.361358642578125,-24.77855682373047
1637056727229435100,13.76443505859375,-10.559234619140625,19.441268920898438,-24.59825897216797
1637056727249315300,13.7843154296875,-10.64813232421875,19.55828094482422,-24.445419311523438
1637056727269195300,13.8041953125,-10.664764404296875,19.36300277709961,-24.447471618652344
1637056727289074200,13.82407421875,-10.80438232421875,19.321823120117188,-24.34296417236328
1637056727308954000,13.8439541015625,-10.39141845703125,19.453941345214844,-24.317916870117188
1637056727328833300,13.863833251953125,-10.530731201171875,19.480545043945312,-24.462081909179688
1637056727348713200,13.883713134765625,-10.69036865234375,19.316123962402344,-24.598655700683594
1637056727368592400,13.90359228515625,-10.552947998046875,19.387653350830078,-24.328224182128906
1637056727388472300,13.923472412109374,-10.68402099609375,19.422576904296875,-24.344505310058594
1637056727408352300,13.943352294921874,-10.720184326171875,19.442584991455078,-24.51457977294922
1637056727428231200,13.963231201171874,-10.5745849609375,19.2926025390625,-24.650672912597656
1637056727448111400,13.983111328125,-10.677520751953125,19.58620834350586,-24.655349731445312
1637056727467990300,14.002990234375,-10.619293212890625,19.553993225097656,-24.47540283203125
1637056727487870200,14.0228701171875,-10.581695556640625,19.715587615966797,-24.674636840820312
1637056727507749400,14.042749267578126,-10.752227783203125,19.700145721435547,-24.471031188964844
1637056727527629300,14.06262939453125,-10.708953857421875,19.60617446899414,-24.629608154296875
1637056727547509200,14.08250927734375,-10.666290283203125,19.410564422607422,-24.516464233398438
1637056727567388400,14.102388427734375,-10.021270751953125,19.296249389648438,-24.548507690429688
1637056727587268400,14.122268310546875,-10.630859375,19.495281219482422,-24.57891082763672
1637056727607147300,14.142147216796875,-10.665924072265625,19.298099517822266,-24.616348266601562
1637056727627027200,14.162027099609375,-10.5802001953125,19.26345443725586,-24.387046813964844
1637056727646906400,14.18190625,-10.956756591796875,19.519432067871094,-24.669273376464844
1637056727666786300,14.201786376953125,-10.19512939453125,19.12468719482422,-24.56102752685547
1637056727686665200,14.221665283203125,-10.50885009765625,19.69521713256836,-24.31348419189453
1637056727706545400,14.24154541015625,-10.515960693359375,19.507980346679688,-24.31554412841797
1637056727726425000,14.261425048828125,-10.515380859375,19.452499389648438,-24.45684051513672
1637056727746304300,14.28130419921875,-10.514129638671875,19.51604461669922,-24.75304412841797
1637056727766184400,14.301184326171875,-10.44537353515625,19.66524887084961,-24.380172729492188
1637056727786063000,14.32106298828125,-10.651336669921875,19.502212524414062,-24.393966674804688
1637056727805939700,14.340939697265625,-10.3929443359375,19.29625701904297,-24.407608032226562
1637056727825819000,14.36081884765625,-10.597259521484375,19.362640380859375,-24.53864288330078
1637056727845698800,14.38069873046875,-10.984283447265625,19.42318344116211,-24.473487854003906
1637056727865577700,14.40057763671875,-10.82763671875,19.53093719482422,-24.400230407714844
1637056727885457700,14.420457763671875,-10.6783447265625,19.53888702392578,-24.51911163330078
1637056727905337900,14.440337890625,-10.51348876953125,19.708778381347656,-24.52373504638672
1637056727925216800,14.460216796875,-10.465972900390625,19.74640655517578,-24.616165161132812
1637056727945096700,14.4800966796875,-10.439849853515625,19.545394897460938,-24.41179656982422
1637056727964975900,14.499975830078125,-10.479949951171875,19.50829315185547,-24.50458526611328
1637056727984855600,14.51985546875,-10.211944580078125,19.521862030029297,-24.50360870361328
1637056728004734700,14.539734619140624,-10.51104736328125,19.63849639892578,-24.647132873535156
1637056728024615000,14.559614990234374,-11.000457763671875,19.688129425048828,-24.650238037109375
1637056728044494600,14.57949462890625,-10.87109375,19.417186737060547,-24.63817596435547
1637056728064373800,14.599373779296876,-10.873321533203125,19.41619873046875,-24.487106323242188
1637056728084253700,14.619253662109376,-10.43524169921875,19.340984344482422,-24.529319763183594
1637056728104132600,14.639132568359376,-10.57354736328125,19.335556030273438,-24.515769958496094
1637056728124012800,14.6590126953125,-10.460693359375,19.373939514160156,-24.604660034179688
1637056728143891700,14.6788916015625,-10.702239990234375,19.526065826416016,-24.35803985595703
1637056728163771600,14.698771728515625,-10.264251708984375,19.599502563476562,-24.32586669921875
1637056728183651600,14.718651611328125,-10.51800537109375,19.70276641845703,-24.383689880371094
1637056728203530800,14.73853076171875,-10.585845947265625,19.532936096191406,-24.37810516357422
1637056728223410700,14.75841064453125,-10.771026611328125,19.36220932006836,-24.422210693359375
1637056728243289600,14.77828955078125,-10.677459716796875,19.347774505615234,-24.328750610351562
1637056728263169800,14.798169677734375,-10.494171142578125,19.577117919921875,-24.306678771972656
1637056728283048700,14.818048583984375,-10.521728515625,19.346141815185547,-24.415443420410156
1637056728302928600,14.8379287109375,-10.872833251953125,19.368831634521484,-24.387771606445312
1637056728322807800,14.857807861328125,-10.644073486328125,19.528675079345703,-24.61334991455078
1637056728342687500,14.8776875,-10.958892822265625,19.40753173828125,-24.50312042236328
1637056728362567700,14.897567626953125,-10.8612060546875,19.297679901123047,-24.44012451171875
1637056728382446800,14.91744677734375,-11.078887939453125,19.396167755126953,-24.45996856689453
1637056728402326800,14.937326904296874,-10.750213623046875,19.37991714477539,-24.42359161376953
1637056728422205700,14.957205810546874,-11.17633056640625,19.31283950805664,-24.261550903320312
1637056728442085600,14.977085693359374,-11.09967041015625,19.508071899414062,-24.505882263183594
1637056728461964500,14.996964599609376,-10.82232666015625,19.429706573486328,-24.544219970703125
1637056728481844700,15.0168447265625,-10.79473876953125,19.454002380371094,-24.76336669921875
1637056728501724700,15.036724609375,-11.15423583984375,19.346370697021484,-24.83118438720703
1637056728521603800,15.056603759765625,-11.11126708984375,19.549915313720703,-24.745643615722656
1637056728541483500,15.0764833984375,-10.89984130859375,19.53726577758789,-24.49530029296875
1637056728561362700,15.09636279296875,-10.855010986328125,19.66486358642578,-24.564437866210938
1637056728581243000,15.116242919921875,-10.429931640625,19.498260498046875,-24.452171325683594
1637056728601121800,15.136121826171875,-10.969818115234375,19.394283294677734,-24.63555145263672
1637056728621001700,15.156001708984375,-10.602783203125,19.329753875732422,-24.556381225585938
1637056728640881700,15.175881591796875,-10.390045166015625,19.560935974121094,-24.476776123046875
1637056728660760600,15.195760498046875,-10.414642333984375,19.288761138916016,-24.70429229736328
1637056728680640800,15.215640869140625,-10.717742919921875,19.542831420898438,-24.48785400390625
1637056728700519700,15.235519775390625,-10.25927734375,19.383438110351562,-24.66309356689453
1637056728720399600,15.255399658203125,-10.7027587890625,19.22710418701172,-24.659194946289062
1637056728740278800,15.27527880859375,-10.520751953125,19.51971435546875,-24.714141845703125
1637056728760158700,15.29515869140625,-11.0775146484375,19.47719955444336,-24.646530151367188
1637056728780037600,15.31503759765625,-11.039581298828125,19.326061248779297,-24.51739501953125
1637056728799917800,15.334917724609374,-10.583038330078125,19.022315979003906,-24.635414123535156
1637056728819796500,15.35479638671875,-11.046844482421875,19.25905990600586,-24.607261657714844
1637056728839675600,15.374675537109376,-10.613433837890625,19.464542388916016,-24.375350952148438
1637056728859555800,15.394555908203126,-10.700042724609375,19.143878936767578,-24.51099395751953
1637056728879434500,15.4144345703125,-11.01324462890625,19.456954956054688,-24.535049438476562
1637056728899314700,15.434314697265625,-11.130615234375,19.35824203491211,-24.36865997314453
1637056728919193900,15.45419384765625,-11.008331298828125,19.325363159179688,-24.523544311523438
1637056728939073500,15.474073486328125,-10.815185546875,19.278640747070312,-24.643653869628906
1637056728958953700,15.49395361328125,-10.855316162109375,19.151470184326172,-24.836204528808594
1637056728978832600,15.51383251953125,-11.274383544921875,19.275585174560547,-24.507659912109375
1637056728998712600,15.533712646484375,-11.198944091796875,19.553775787353516,-24.72107696533203
1637056729018591700,15.553591796875,-11.27728271484375,19.353763580322266,-24.722862243652344
1637056729038471700,15.5734716796875,-11.438079833984375,19.566635131835938,-24.387542724609375
1637056729058350600,15.5933505859375,-11.2178955078125,19.484485626220703,-24.698997497558594
1637056729078230500,15.61323046875,-11.6884765625,19.448322296142578,-24.53156280517578
1637056729098109700,15.633109619140624,-11.383270263671875,19.428199768066406,-24.436355590820312
1637056729117989600,15.65298974609375,-11.28936767578125,19.650924682617188,-24.53478240966797
1637056729137869600,15.67286962890625,-11.1468505859375,19.39666748046875,-24.441009521484375
1637056729157748700,15.692748779296876,-11.150177001953125,19.37281036376953,-24.340309143066406
1637056729177628400,15.71262841796875,-11.145111083984375,19.376556396484375,-24.462448120117188
1637056729197507600,15.732507568359376,-11.125823974609375,19.284591674804688,-24.38690948486328
1637056729217387800,15.7523876953125,-11.138397216796875,19.46985626220703,-24.38544464111328
1637056729237266400,15.772266357421875,-10.561431884765625,19.423240661621094,-24.5758056640625
1637056729257146600,15.792146728515625,-11.14312744140625,19.498233795166016,-24.471473693847656
1637056729277026600,15.812026611328125,-10.70404052734375,19.561767578125,-24.476539611816406
1637056729296905500,15.831905517578125,-10.750762939453125,19.64183807373047,-24.371742248535156
1637056729316785700,15.85178564453125,-11.165740966796875,19.514137268066406,-24.584861755371094
1637056729336664600,15.87166455078125,-10.798187255859375,19.633975982666016,-24.630393981933594
1637056729356544800,15.891544677734375,-10.9981689453125,19.642581939697266,-24.464248657226562
1637056729376423700,15.911423583984375,-11.241119384765625,19.767528533935547,-24.514549255371094
1637056729396303600,15.9313037109375,-10.898956298828125,19.531517028808594,-24.296401977539062
1637056729416183800,15.951183837890625,-11.015594482421875,19.31088638305664,-24.529647827148438
1637056729436062500,15.9710625,-11.300689697265625,19.125835418701172,-24.469818115234375
1637056729455942700,15.990942626953125,-11.620361328125,19.081241607666016,-24.442955017089844
1637056729475821800,16.01082177734375,-11.460205078125,19.348255157470703,-24.67119598388672
1637056729495701500,16.030701416015624,-11.3402099609375,19.31106948852539,-24.49231719970703
1637056729515580700,16.05058056640625,-11.409393310546875,19.371448516845703,-24.342376708984375
1637056729535460600,16.070460693359376,-11.036041259765625,19.479488372802734,-24.41254425048828
1637056729555340500,16.090340576171876,-11.04071044921875,19.42737579345703,-24.408103942871094
1637056729575219700,16.1102197265625,-11.325592041015625,19.370758056640625,-24.456138610839844
1637056729595099600,16.130099609375,-11.17620849609375,19.29678726196289,-24.53070831298828
1637056729614978600,16.149978515625,-11.487457275390625,19.095504760742188,-24.5299072265625
1637056729634858500,16.1698583984375,-11.38848876953125,19.233562469482422,-24.459304809570312
1637056729654737700,16.189737548828123,-11.10211181640625,19.179092407226562,-24.554771423339844
1637056729674617600,16.20961767578125,-11.3575439453125,19.1640625,-24.854286193847656
1637056729694497500,16.22949755859375,-10.953826904296875,19.244731903076172,-24.826507568359375
1637056729714376700,16.249376708984375,-11.07159423828125,19.060653686523438,-24.622337341308594
1637056729734256600,16.269256591796875,-10.827667236328125,19.204269409179688,-24.750823974609375
1637056729754135600,16.289135498046875,-11.22955322265625,18.98278045654297,-24.510177612304688
1637056729774015700,16.309015625,-11.262237548828125,18.900924682617188,-24.890045166015625
1637056729793894700,16.328894775390626,-11.058624267578125,19.343616485595703,-24.705406188964844
1637056729813776000,16.34877587890625,-10.6466064453125,19.23151397705078,-24.606239318847656
1637056729833655800,16.36865576171875,-10.93548583984375,19.42864990234375,-24.641639709472656
1637056729853534700,16.38853466796875,-11.126251220703125,19.35439682006836,-24.608978271484375
1637056729873414700,16.40841455078125,-10.858978271484375,19.402366638183594,-24.81822967529297
1637056729893293800,16.4282939453125,-10.980194091796875,19.524974822998047,-24.621612548828125
1637056729913173800,16.448173828125,-11.052947998046875,19.30352020263672,-24.697738647460938
1637056729933052700,16.468052734375,-10.895721435546875,19.54123306274414,-24.68988800048828
1637056729952932900,16.487932861328126,-10.99444580078125,19.46676254272461,-24.715316772460938
1637056729972811800,16.507811767578126,-10.844757080078125,19.32052993774414,-24.618385314941406
1637056729992691700,16.527691650390626,-10.81787109375,19.24551773071289,-24.572158813476562
1637056730012572000,16.547572021484374,-11.1517333984375,19.244766235351562,-24.449142456054688
1637056730032450600,16.567450439453125,-11.153289794921875,19.460716247558594,-24.490707397460938
1637056730052330800,16.587330810546874,-10.984130859375,19.255874633789062,-24.561935424804688
1637056730072210000,16.6072099609375,-10.955078125,19.238868713378906,-24.665679931640625
1637056730092089600,16.627089599609373,-10.873291015625,19.2213134765625,-24.757095336914062
1637056730111969800,16.6469697265625,-10.658721923828125,19.34680938720703,-24.860069274902344
1637056730131848700,16.6668486328125,-10.54345703125,19.341468811035156,-24.565223693847656
1637056730151729000,16.68672900390625,-10.96661376953125,19.428394317626953,-24.583282470703125
1637056730171607800,16.70660791015625,-10.8548583984375,19.416645050048828,-24.674148559570312
1637056730191487700,16.72648779296875,-10.759552001953125,19.467037200927734,-24.439002990722656
1637056730211366700,16.74636669921875,-10.868438720703125,19.296367645263672,-24.57312774658203
1637056730231246600,16.76624658203125,-10.805389404296875,19.23522186279297,-24.359947204589844
1637056730251125800,16.786125732421876,-10.564453125,19.321868896484375,-24.791488647460938
1637056730271006000,16.806005859375,-10.59173583984375,19.197792053222656,-24.43901824951172
1637056730290885600,16.8258857421875,-10.92633056640625,19.330577850341797,-24.92022705078125
1637056730310764800,16.845764892578124,-10.3253173828125,19.314910888671875,-24.655250549316406
1637056730330644700,16.865644775390624,-10.552032470703125,19.395915985107422,-24.653907775878906
1637056730350523600,16.885523681640624,-10.6435546875,19.253498077392578,-24.806503295898438
1637056730370403800,16.90540380859375,-10.7703857421875,19.510967254638672,-24.723098754882812
1637056730390282800,16.92528271484375,-10.998291015625,19.03459930419922,-24.500213623046875
1637056730410162700,16.94516259765625,-11.27886962890625,19.458389282226562,-24.75836944580078
1637056730430042600,16.965042724609376,-11.16571044921875,19.375446319580078,-24.676734924316406
1637056730449921800,16.984921875,-10.891998291015625,19.483829498291016,-24.565704345703125
1637056730469801700,17.0048017578125,-10.97894287109375,19.33858871459961,-24.5357666015625
1637056730489680600,17.0246806640625,-10.868408203125,19.229759216308594,-24.50037384033203
1637056730509560800,17.044560791015623,-11.06378173828125,19.38296890258789,-24.457565307617188
1637056730529439700,17.064439697265627,-11.049102783203125,19.58173370361328,-24.597747802734375
1637056730549319700,17.084319580078127,-10.8203125,19.171390533447266,-24.4996337890625
1637056730569199900,17.104199951171875,-10.88482666015625,19.201797485351562,-24.675567626953125
1637056730589078800,17.124078857421875,-10.879547119140625,19.410083770751953,-24.612274169921875
1637056730608958700,17.143958740234375,-10.970489501953125,19.314525604248047,-24.43364715576172
1637056730628838000,17.163837890625,-11.0513916015625,19.366825103759766,-24.732826232910156
1637056730648717600,17.183717529296874,-11.007049560546875,19.135391235351562,-24.555587768554688
1637056730668596700,17.2035966796875,-10.850921630859375,19.34726333618164,-24.68102264404297
1637056730688477000,17.223476806640626,-10.424407958984375,19.01877212524414,-24.48455810546875
1637056730708356900,17.24335693359375,-11.126129150390625,19.366931915283203,-24.573974609375
1637056730728235800,17.26323583984375,-11.207611083984375,19.615161895751953,-24.49781036376953
1637056730748115700,17.28311572265625,-10.98297119140625,19.361591339111328,-24.79662322998047
1637056730767994600,17.30299462890625,-10.80096435546875,19.34402847290039,-24.639305114746094
1637056730787874800,17.322874755859374,-11.06854248046875,19.339916229248047,-24.796585083007812
1637056730807753700,17.342753662109374,-10.84283447265625,19.34716033935547,-24.73316192626953
1637056730827633700,17.362633544921874,-10.66717529296875,19.636837005615234,-24.51471710205078
1637056730847513600,17.382513671875,-10.828460693359375,19.370895385742188,-24.691940307617188
1637056730867392800,17.402392822265625,-10.694915771484375,19.675418853759766,-24.62946319580078
1637056730887273000,17.42227294921875,-10.496337890625,19.38735580444336,-24.728851318359375
1637056730907151600,17.442151611328125,-10.65399169921875,19.420265197753906,-24.791236877441406
1637056730927031800,17.46203173828125,-10.887939453125,19.447681427001953,-24.683631896972656
1637056730946910700,17.48191064453125,-10.856658935546875,19.5313720703125,-24.86767578125
1637056730966790700,17.501790771484377,-11.087371826171875,19.44689178466797,-24.970298767089844
1637056730986670800,17.5216708984375,-10.700042724609375,19.73381805419922,-24.626693725585938
1637056731006549800,17.5415498046875,-10.35369873046875,19.597434997558594,-24.88282012939453
1637056731026429700,17.5614296875,-10.650421142578125,19.89482879638672,-24.583358764648438
1637056731046308900,17.581308837890624,-10.622161865234375,19.49654769897461,-24.482826232910156
1637056731066188800,17.601188720703124,-10.661956787109375,19.597476959228516,-24.619895935058594
1637056731086067700,17.621067626953124,-10.789215087890625,19.674293518066406,-24.635467529296875
1637056731105947600,17.64094775390625,-10.614166259765625,19.513011932373047,-24.666595458984375
1637056731125827800,17.660827880859376,-11.030853271484375,19.233184814453125,-24.77118682861328
1637056731145706800,17.680706787109376,-11.18878173828125,19.417652130126953,-24.656356811523438
1637056731165586700,17.700586669921876,-11.134857177734375,19.298233032226562,-24.51483154296875
1637056731185465900,17.7204658203125,-11.145843505859375,19.23946762084961,-24.54931640625
1637056731205345500,17.740345458984375,-11.228668212890625,19.375186920166016,-24.474449157714844
1637056731225224700,17.760224609375,-11.128204345703125,19.09429168701172,-24.503639221191406
1637056731245105000,17.78010498046875,-10.7310791015625,19.227176666259766,-24.45252227783203
1637056731264984600,17.799984619140623,-10.592437744140625,19.562442779541016,-24.644874572753906
1637056731284863700,17.81986376953125,-10.527557373046875,19.45313262939453,-24.62286376953125
1637056731304743700,17.83974365234375,-10.282470703125,19.526290893554688,-24.410842895507812
1637056731324622600,17.85962255859375,-10.579345703125,19.238521575927734,-24.55340576171875
1637056731344502800,17.879502685546875,-11.1181640625,19.167816162109375,-24.71379852294922
1637056731364381700,17.899381591796875,-10.602691650390625,19.441184997558594,-24.52783966064453
1637056731384261600,17.91926171875,-10.816741943359375,19.557941436767578,-24.28624725341797
1637056731404141600,17.9391416015625,-10.801788330078125,19.491313934326172,-24.500999450683594
1637056731424020700,17.959020751953126,-10.625,19.573692321777344,-24.358474731445312
1637056731443901000,17.97890087890625,-10.600433349609375,19.42810821533203,-24.2137451171875
1637056731463779600,17.998779541015626,-10.51800537109375,19.230690002441406,-24.212791442871094
1637056731483659800,18.01865966796875,-10.895599365234375,19.402381896972656,-24.39366912841797
1637056731503538700,18.03853857421875,-11.0625,19.333568572998047,-24.541465759277344
1637056731523418600,18.058418701171874,-11.18731689453125,19.393795013427734,-24.420555114746094
1637056731543298800,18.078298828125,-10.869415283203125,19.285259246826172,-24.43560028076172
1637056731563177700,18.098177734375,-10.664947509765625,19.444141387939453,-24.306434631347656
1637056731583057700,18.1180576171875,-10.718353271484375,19.383338928222656,-24.45203399658203
1637056731602936800,18.137936767578125,-10.4127197265625,19.137752532958984,-24.380455017089844
1637056731622816800,18.157816650390625,-11.0311279296875,19.45374298095703,-24.695556640625
1637056731642695700,18.17769580078125,-10.655242919921875,19.321029663085938,-24.456886291503906
1637056731662575600,18.19757568359375,-11.291259765625,19.365943908691406,-24.486541748046875
1637056731682455800,18.217455810546873,-11.04986572265625,19.432697296142578,-24.570655822753906
1637056731702334700,18.237334716796877,-11.30450439453125,19.639122009277344,-24.461448669433594
1637056731722214700,18.257214599609377,-11.13311767578125,19.214244842529297,-24.526649475097656
1637056731742093800,18.27709375,-11.12255859375,19.168128967285156,-24.580520629882812
1637056731761973500,18.296973388671876,-10.737030029296875,19.431377410888672,-24.284286499023438
1637056731781852700,18.316852783203124,-11.012908935546875,19.147846221923828,-24.555709838867188
1637056731801732900,18.33673291015625,-10.7637939453125,19.308643341064453,-24.507614135742188
1637056731821611800,18.35661181640625,-11.101837158203125,19.47266387939453,-24.632347106933594
1637056731841490700,18.37649072265625,-11.047943115234375,19.484355926513672,-24.489547729492188
1637056731861371000,18.396370849609376,-10.878082275390625,19.265300750732422,-24.305267333984375
1637056731881249800,18.416249755859376,-11.387237548828125,19.161449432373047,-24.670745849609375
1637056731901129700,18.436129638671876,-11.041015625,19.267902374267578,-24.79009246826172
1637056731921009000,18.4560087890625,-11.065948486328125,19.29013442993164,-24.582069396972656
1637056731940888800,18.475888916015624,-10.991790771484375,19.226818084716797,-24.533226013183594
1637056731960769000,18.49576904296875,-10.814788818359375,19.431079864501953,-24.3006591796875
1637056731980647700,18.515647705078123,-11.186126708984375,19.25257110595703,-24.511131286621094
1637056732000528000,18.53552783203125,-11.013397216796875,19.238094329833984,-24.51520538330078
1637056732020406800,18.55540673828125,-11.21258544921875,19.304950714111328,-24.877098083496094
1637056732040286700,18.57528662109375,-11.131439208984375,19.312007904052734,-24.5545654296875
1637056732060166000,18.595165771484375,-10.794158935546875,19.129013061523438,-24.5308837890625
1637056732080045800,18.6150458984375,-10.919921875,19.380428314208984,-24.573585510253906
1637056732099925800,18.63492578125,-10.40948486328125,19.283584594726562,-24.623268127441406
1637056732119805000,18.654804931640626,-10.889068603515625,19.158512115478516,-24.714271545410156
1637056732139684900,18.674684814453126,-10.69622802734375,19.37326431274414,-24.676467895507812
1637056732159563800,18.694563720703126,-11.01226806640625,19.180286407470703,-24.46544647216797
1637056732179443700,18.714443603515626,-10.861785888671875,19.123027801513672,-24.34717559814453
1637056732199323000,18.734322998046874,-10.90362548828125,19.145641326904297,-24.50969696044922
1637056732219202800,18.754202880859374,-10.93121337890625,19.31573486328125,-24.341270446777344
1637056732239082800,18.774082763671874,-11.16705322265625,19.40536880493164,-24.426681518554688
1637056732258962000,18.7939619140625,-11.39471435546875,19.21746826171875,-24.67864227294922
1637056732278841900,18.813841796875,-11.50762939453125,19.255413055419922,-24.833892822265625
1637056732298720800,18.833720703125,-11.479766845703125,19.30154800415039,-24.51923370361328
1637056732318601000,18.85360107421875,-11.304290771484375,19.185283660888672,-24.570846557617188
1637056732338479900,18.87347998046875,-11.620849609375,19.181766510009766,-24.587562561035156
1637056732358359800,18.89335986328125,-10.971466064453125,19.511676788330078,-24.696136474609375
1637056732378239700,18.91323974609375,-11.454376220703125,19.36959457397461,-24.851303100585938
1637056732398118700,18.93311865234375,-11.1834716796875,19.534568786621094,-24.59876251220703
1637056732417998800,18.952998779296873,-10.89801025390625,19.321487426757812,-24.806739807128906
1637056732437878000,18.9728779296875,-11.295013427734375,19.33798599243164,-24.635536193847656
1637056732457758000,18.992758056640625,-10.98565673828125,19.38168716430664,-24.572509765625
1637056732477636900,19.012636962890625,-10.8370361328125,19.260231018066406,-24.42914581298828
1637056732497516800,19.032516845703125,-11.242156982421875,19.157100677490234,-24.47869873046875
1637056732517397000,19.05239697265625,-10.67633056640625,19.275638580322266,-24.351219177246094
1637056732537276000,19.07227587890625,-11.0799560546875,19.341304779052734,-24.48754119873047
1637056732557155800,19.09215576171875,-10.696380615234375,19.298416137695312,-24.44867706298828
1637056732577035000,19.112034912109376,-11.00518798828125,18.917449951171875,-24.676177978515625
1637056732596914700,19.131914794921876,-11.080078125,18.86562728881836,-24.404327392578125
1637056732616793900,19.1517939453125,-11.238006591796875,19.069259643554688,-24.402793884277344
1637056732636674000,19.171674072265624,-11.033111572265625,19.069496154785156,-24.489883422851562
1637056732656553700,19.1915537109375,-11.275177001953125,19.225975036621094,-24.778366088867188
1637056732676433000,19.211432861328124,-10.606048583984375,19.080589294433594,-24.802078247070312
1637056732696312800,19.231312744140624,-10.880859375,19.26285171508789,-24.75018310546875
1637056732716191700,19.251191650390624,-11.04595947265625,19.15603256225586,-24.753517150878906
1637056732736072000,19.271072021484375,-10.80206298828125,19.027862548828125,-24.924331665039062
1637056732755950800,19.290950927734375,-10.847015380859375,19.153873443603516,-24.504966735839844
1637056732775830800,19.310830810546875,-11.0703125,19.210464477539062,-24.485435485839844
1637056732795710700,19.330710693359375,-10.872589111328125,18.972980499267578,-24.872512817382812
1637056732815593700,19.35059375,-11.169830322265625,19.187236785888672,-24.589614868164062
1637056732835473700,19.3704736328125,-11.53057861328125,18.993900299072266,-24.3677978515625
1637056732855352600,19.3903525390625,-11.26190185546875,19.15243148803711,-24.445823669433594
1637056732875232800,19.410232666015624,-11.172760009765625,19.154144287109375,-24.768463134765625
1637056732895111700,19.430111572265623,-11.333831787109375,19.19024658203125,-24.31958770751953
1637056732914991600,19.44999169921875,-11.187530517578125,18.993488311767578,-24.361839294433594
1637056732934871600,19.46987158203125,-11.00177001953125,19.274646759033203,-24.23773956298828
1637056732954750700,19.489750732421875,-11.12835693359375,19.289417266845703,-24.386306762695312
1637056732974631000,19.509630859375,-11.108795166015625,18.990741729736328,-24.339111328125
1637056732994509800,19.529509765625,-10.64593505859375,19.12183380126953,-24.3756103515625
1637056733014389800,19.5493896484375,-10.691131591796875,19.249069213867188,-24.335189819335938
1637056733034269700,19.569269775390627,-10.71966552734375,19.352394104003906,-24.34827423095703
1637056733054148600,19.589148681640626,-11.091766357421875,19.34076690673828,-24.477203369140625
1637056733074028800,19.60902880859375,-10.782073974609375,19.372547149658203,-24.488296508789062
1637056733093907700,19.62890771484375,-10.898162841796875,19.172382354736328,-24.41216278076172
1637056733113787600,19.64878759765625,-11.19537353515625,19.199039459228516,-24.511390686035156
1637056733133666800,19.668666748046874,-10.55419921875,19.442386627197266,-24.59808349609375
1637056733153546800,19.688546630859374,-11.00115966796875,19.288230895996094,-24.525497436523438
1637056733173425700,19.70842578125,-11.0606689453125,19.258716583251953,-24.357276916503906
1637056733193305900,19.728305908203126,-10.930999755859375,19.23062515258789,-24.482215881347656
1637056733213185800,19.748185791015626,-11.29010009765625,19.136165618896484,-24.503517150878906
1637056733233064700,19.768064697265626,-11.091949462890625,19.238601684570312,-24.474632263183594
1637056733252944600,19.787944580078126,-11.169525146484375,19.328914642333984,-24.51580810546875
1637056733272823800,19.80782373046875,-10.75067138671875,19.604503631591797,-24.5384521484375
1637056733292703700,19.827703857421874,-10.686614990234375,19.375347137451172,-24.516571044921875
1637056733312582700,19.847582763671873,-10.97119140625,19.324024200439453,-24.425186157226562
1637056733332462800,19.867462890625,-10.876190185546875,19.023876190185547,-24.481002807617188
1637056733352342500,19.887342529296873,-10.878021240234375,19.03057861328125,-24.52021026611328
1637056733372221700,19.9072216796875,-10.557708740234375,18.96393585205078,-24.507614135742188
1637056733392102000,19.927101806640625,-10.57086181640625,19.092304229736328,-24.23387908935547
1637056733411980500,19.94698046875,-10.971435546875,19.092891693115234,-24.3984375
1637056733431860700,19.96686083984375,-11.123138427734375,18.957618713378906,-24.419517517089844
1637056733451740700,19.98674072265625,-10.772705078125,19.09328842163086,-24.565101623535156
1637056733471619600,20.00661962890625,-10.735626220703125,18.969478607177734,-24.36455535888672
1637056733491499800,20.026499755859376,-10.751953125,18.97671890258789,-24.30877685546875
1637056733511378700,20.046378662109376,-10.3319091796875,18.925899505615234,-24.457305908203125
1637056733531259000,20.0662587890625,-10.603179931640625,19.059356689453125,-24.44841766357422
1637056733551137800,20.0861376953125,-10.306854248046875,18.964954376220703,-24.332008361816406
1637056733571017700,20.106017822265624,-10.686431884765625,19.102645874023438,-24.471435546875
1637056733590898000,20.12589794921875,-10.75433349609375,18.993778228759766,-24.380477905273438
1637056733610776600,20.145776611328124,-10.495849609375,19.065101623535156,-24.56403350830078
1637056733630656800,20.16565673828125,-10.6883544921875,19.097583770751953,-24.41399383544922
1637056733650536000,20.185535888671875,-10.804473876953125,19.048480987548828,-24.572799682617188
1637056733670415600,20.20541552734375,-10.929534912109375,19.166831970214844,-24.728981018066406
1637056733690294800,20.225294677734375,-10.73797607421875,19.523048400878906,-24.469802856445312
1637056733710174700,20.2451748046875,-10.6572265625,19.440567016601562,-24.775848388671875
1637056733730054700,20.2650546875,-10.52587890625,19.255413055419922,-24.68988037109375
1637056733749933800,20.284933837890627,-10.555511474609375,19.17724609375,-24.728912353515625
1637056733769813800,20.304813720703127,-10.8341064453125,19.351364135742188,-24.40472412109375
1637056733789692700,20.324692626953127,-10.7625732421875,19.15746307373047,-24.537376403808594
1637056733809570000,20.344570068359374,-10.882415771484375,19.32647705078125,-24.3902587890625
1637056733829449200,20.36444921875,-10.72833251953125,19.603927612304688,-24.271820068359375
1637056733849329000,20.384328857421874,-10.727874755859375,19.342063903808594,-24.206390380859375
1637056733869209000,20.404208984375,-10.961578369140625,19.251270294189453,-24.446884155273438
1637056733889088300,20.424088134765626,-11.055755615234375,19.485153198242188,-24.166183471679688
1637056733908968200,20.44396826171875,-10.532684326171875,19.38650894165039,-24.2689208984375
1637056733928847000,20.46384716796875,-10.76031494140625,19.29104232788086,-24.22303009033203
1637056733948727000,20.48372705078125,-10.316650390625,19.301876068115234,-24.316482543945312
1637056733968606000,20.50360595703125,-10.557891845703125,19.38384246826172,-24.29449462890625
1637056733988486100,20.523486083984373,-10.18310546875,19.094650268554688,-24.319908142089844
1637056734008365000,20.543364990234377,-10.7469482421875,19.206100463867188,-24.610511779785156
1637056734028245200,20.563245361328125,-10.863983154296875,18.943824768066406,-24.495132446289062
1637056734048125000,20.583125,-11.093780517578125,19.122882843017578,-24.362213134765625
1637056734068004000,20.603004150390625,-10.8038330078125,19.384502410888672,-24.612815856933594
1637056734087884300,20.62288427734375,-10.768157958984375,19.461666107177734,-24.902801513671875
1637056734107763000,20.642762939453124,-10.477813720703125,19.30335235595703,-24.449859619140625
1637056734127643100,20.66264306640625,-10.88641357421875,19.329875946044922,-24.497764587402344
1637056734147523000,20.682523193359376,-10.56182861328125,19.02755355834961,-24.77080535888672
1637056734167402000,20.702402099609376,-11.14276123046875,19.117794036865234,-24.78113555908203
1637056734187282200,20.7222822265625,-10.703369140625,18.949329376220703,-24.551605224609375
1637056734207161000,20.7421611328125,-10.4677734375,19.00115203857422,-24.56829071044922
1637056734227041000,20.762041015625,-10.92437744140625,19.34511947631836,-24.75499725341797
1637056734246920200,20.781920166015624,-10.7484130859375,19.58295440673828,-24.618003845214844
1637056734266800000,20.801800048828124,-10.730865478515625,19.291061401367188,-24.47692108154297
1637056734286680000,20.82168017578125,-10.751495361328125,19.169353485107422,-24.514678955078125
1637056734306559000,20.84155908203125,-10.901153564453125,19.222702026367188,-24.42431640625
1637056734326439200,20.861439208984375,-10.644256591796875,19.124832153320312,-24.640769958496094
1637056734346318000,20.881318115234375,-10.7210693359375,19.307979583740234,-24.571754455566406
1637056734366198000,20.901197998046875,-10.720611572265625,19.150577545166016,-24.471481323242188
1637056734386077200,20.9210771484375,-10.7506103515625,19.23165512084961,-24.668487548828125
1637056734405956900,20.940956787109375,-10.664703369140625,18.975784301757812,-24.573623657226562
1637056734425837000,20.960837158203127,-11.025665283203125,19.251033782958984,-24.731918334960938
1637056734445716200,20.98071630859375,-10.495147705078125,19.083396911621094,-24.788070678710938
1637056734465596200,21.00059619140625,-10.629669189453125,19.10336685180664,-24.71063995361328
1637056734485475000,21.02047509765625,-10.67791748046875,19.699016571044922,-24.9014892578125
1637056734505355000,21.04035498046875,-10.9539794921875,19.282554626464844,-24.581161499023438
1637056734525234000,21.06023388671875,-10.735321044921875,19.163002014160156,-24.657485961914062
1637056734545114000,21.080114013671874,-10.804779052734375,19.518863677978516,-24.794219970703125
1637056734564994000,21.099994140625,-10.759063720703125,19.20313262939453,-24.48937225341797
1637056734584873200,21.119873291015626,-10.681304931640625,19.40292739868164,-24.419639587402344
1637056734604753000,21.1397529296875,-10.9410400390625,19.221176147460938,-24.77704620361328
1637056734624632000,21.159632080078126,-10.960845947265625,19.29332733154297,-24.568748474121094
1637056734644512300,21.17951220703125,-10.904571533203125,19.423664093017578,-24.280105590820312
1637056734664391200,21.19939111328125,-11.043731689453125,19.44002914428711,-24.440109252929688
1637056734684271000,21.21927099609375,-10.95672607421875,19.376354217529297,-24.645896911621094
1637056734704151000,21.239151123046874,-10.66455078125,19.179553985595703,-24.82073211669922
1637056734724030000,21.259030029296873,-10.92822265625,19.19430923461914,-24.722129821777344
1637056734743910100,21.27891015625,-10.734283447265625,19.25434112548828,-24.59217071533203
1637056734763789000,21.2987890625,-10.884063720703125,19.376068115234375,-24.69476318359375
1637056734783669000,21.3186689453125,-10.393463134765625,19.251747131347656,-24.44073486328125
1637056734803548200,21.338548095703125,-10.6405029296875,19.159542083740234,-24.58441925048828
1637056734823427300,21.35842724609375,-10.634368896484375,19.232894897460938,-24.6719970703125
1637056734843307500,21.3783076171875,-10.977813720703125,19.076122283935547,-24.76677703857422
1637056734863186700,21.398186767578125,-11.02935791015625,19.30023193359375,-24.575454711914062
1637056734883066400,21.41806640625,-10.843841552734375,19.357845306396484,-24.729248046875
1637056734902945500,21.437945556640624,-11.053192138671875,19.327213287353516,-24.810028076171875
1637056734922825500,21.457825439453124,-10.5167236328125,19.2041015625,-24.734588623046875
1637056734942704400,21.477704345703124,-10.76873779296875,19.221210479736328,-24.723648071289062
1637056734962584600,21.49758447265625,-10.8013916015625,19.30968475341797,-24.941665649414062
1637056734982464500,21.517464599609376,-10.938140869140625,19.177066802978516,-24.884765625
1637056735002343400,21.537343505859376,-10.975006103515625,19.341678619384766,-24.70635223388672
1637056735022223400,21.557223388671876,-11.136932373046875,19.039630889892578,-24.97179412841797
1637056735042102500,21.5771025390625,-10.98291015625,19.168365478515625,-24.744857788085938
1637056735061982500,21.596982421875,-11.005828857421875,19.05388641357422,-24.787521362304688
1637056735081861400,21.616861328125,-10.84814453125,19.204872131347656,-24.704071044921875
1637056735101741600,21.636741455078123,-10.849151611328125,19.19891357421875,-24.72002410888672
1637056735121621500,21.65662158203125,-11.099700927734375,19.127079010009766,-25.028579711914062
1637056735141500400,21.67650048828125,-11.0628662109375,19.26714324951172,-24.94806671142578
1637056735161380600,21.696380615234375,-10.79376220703125,19.479488372802734,-24.816482543945312
1637056735181259500,21.716259521484375,-11.065765380859375,19.20675277709961,-24.753814697265625
1637056735201139500,21.736139404296875,-10.905853271484375,19.238338470458984,-24.711647033691406
1637056735221018600,21.7560185546875,-11.10101318359375,19.24571990966797,-24.55866241455078
1637056735240898600,21.775898681640626,-10.625274658203125,19.364673614501953,-24.79914093017578
1637056735260778500,21.795778564453126,-10.6419677734375,19.205768585205078,-24.540191650390625
1637056735280657400,21.815657470703126,-10.983489990234375,19.24808120727539,-24.807662963867188
1637056735300537600,21.83553759765625,-10.892120361328125,19.21771240234375,-24.87151336669922
1637056735320416500,21.85541650390625,-10.843505859375,19.395843505859375,-24.70471954345703
1637056735340296400,21.87529638671875,-10.568328857421875,19.22232437133789,-24.71771240234375
1637056735360175600,21.895175537109374,-10.73040771484375,19.00217056274414,-24.790794372558594
1637056735380055600,21.9150556640625,-10.78985595703125,19.014923095703125,-24.654708862304688
1637056735399935500,21.934935546875,-10.8609619140625,19.13018798828125,-24.749923706054688
1637056735419814700,21.954814697265626,-10.653106689453125,19.03189468383789,-24.45288848876953
1637056735439694300,21.9746943359375,-11.352020263671875,18.985015869140625,-24.634414672851562
1637056735459573500,21.994573486328125,-10.7520751953125,18.926132202148438,-24.725372314453125
1637056735479453400,22.014453369140625,-10.786163330078125,18.927410125732422,-24.6544189453125
1637056735499332400,22.034332275390625,-10.791839599609375,19.003273010253906,-24.62639617919922
1637056735519212500,22.054212646484373,-11.101898193359375,19.124683380126953,-24.976791381835938
1637056735539092500,22.074092529296873,-10.9444580078125,18.89199447631836,-24.666885375976562
1637056735558971400,22.093971435546877,-10.9608154296875,19.228599548339844,-24.840553283691406
1637056735578851600,22.1138515625,-10.704833984375,19.316970825195312,-24.807571411132812
1637056735598730500,22.13373046875,-10.661834716796875,19.230926513671875,-24.960403442382812
1637056735618610700,22.153610595703125,-10.920013427734375,19.12090301513672,-24.845001220703125
1637056735638489600,22.173489501953124,-11.0858154296875,18.991413116455078,-24.634674072265625
1637056735658369500,22.19336962890625,-11.3323974609375,19.24500274658203,-24.734779357910156
1637056735678249500,22.21324951171875,-11.576812744140625,19.349361419677734,-24.86041259765625
1637056735698128400,22.23312841796875,-11.097900390625,18.902183532714844,-24.888992309570312
1637056735718008600,22.253008544921876,-11.0587158203125,19.193416595458984,-24.681594848632812
1637056735737887700,22.2728876953125,-10.89874267578125,19.288951873779297,-24.848472595214844
1637056735757767400,22.292767333984376,-10.584564208984375,19.318119049072266,-24.75006103515625
1637056735777646600,22.312646484375,-11.2940673828125,19.360382080078125,-24.95384979248047
1637056735797526500,22.332526611328124,-10.867828369140625,19.179725646972656,-24.782012939453125
1637056735817406500,22.352406494140624,-10.668853759765625,19.345447540283203,-24.943626403808594
1637056735837285400,22.372285400390624,-10.94683837890625,19.255992889404297,-24.761978149414062
1637056735857165300,22.392165283203123,-11.208251953125,19.503738403320312,-24.592758178710938
1637056735877044500,22.41204443359375,-10.83935546875,19.247859954833984,-24.92261505126953
1637056735896924400,22.43192431640625,-11.00177001953125,19.22991943359375,-24.50091552734375
1637056735916803300,22.45180322265625,-11.1387939453125,19.140178680419922,-24.90253448486328
1637056735936683500,22.47168359375,-11.04766845703125,19.060409545898438,-24.93059539794922
1637056735956563500,22.4915634765625,-10.82598876953125,19.00122833251953,-24.801956176757812
1637056735976442400,22.5114423828125,-10.928619384765625,18.99032974243164,-24.60022735595703
1637056735996322300,22.531322265625,-10.98382568359375,18.986873626708984,-24.809326171875
1637056736016201500,22.551201416015626,-10.974334716796875,19.044700622558594,-24.89008331298828
1637056736036081400,22.571081298828126,-10.796875,19.1854248046875,-24.66515350341797
1637056736055960300,22.590960205078126,-11.235443115234375,19.141460418701172,-24.913894653320312
1637056736075840500,22.610840576171874,-11.19915771484375,18.99502182006836,-24.78778076171875
1637056736095720200,22.63072021484375,-10.984222412109375,19.10699462890625,-24.84416961669922
1637056736115599400,22.650599365234374,-11.335906982421875,19.036354064941406,-24.911529541015625
1637056736135479600,22.6704794921875,-10.806640625,18.99970245361328,-24.715599060058594
1637056736155358200,22.690358154296874,-10.9534912109375,19.17757797241211,-24.938629150390625
1637056736175238400,22.71023828125,-11.117828369140625,18.90274429321289,-24.764617919921875
1637056736195117600,22.73011767578125,-11.084442138671875,18.949447631835938,-24.731239318847656
1637056736214997200,22.749997314453125,-11.092987060546875,19.07205581665039,-24.58362579345703
1637056736234877400,22.76987744140625,-11.121124267578125,19.02004623413086,-24.619064331054688
1637056736254756400,22.78975634765625,-11.196563720703125,19.267642974853516,-24.455474853515625
1637056736274636300,22.80963623046875,-10.892608642578125,19.282020568847656,-24.36463165283203
1637056736294515500,22.829515380859377,-11.202667236328125,19.224334716796875,-24.490501403808594
1637056736314395400,22.8493955078125,-11.081451416015625,19.163192749023438,-24.720413208007812
1637056736334275600,22.869275634765625,-11.13763427734375,19.289047241210938,-24.712265014648438
1637056736354154200,22.889154296875,-11.11871337890625,19.24703598022461,-24.818511962890625
1637056736374034400,22.909034423828125,-11.031524658203125,19.016197204589844,-24.77020263671875
1637056736393913300,22.928913330078124,-11.176177978515625,19.260440826416016,-24.902557373046875
1637056736413793300,22.948793212890624,-11.14251708984375,18.91710662841797,-24.776885986328125
1637056736433672400,22.96867236328125,-11.05731201171875,19.08281707763672,-24.620826721191406
1637056736453552400,22.988552490234376,-11.0557861328125,19.256580352783203,-24.561378479003906
1637056736473432300,23.008432373046876,-10.894744873046875,18.858097076416016,-24.74950408935547
1637056736493311500,23.0283115234375,-10.7318115234375,18.99740982055664,-24.770004272460938
1637056736513191400,23.04819140625,-10.802581787109375,18.862640380859375,-24.74736785888672
1637056736533070300,23.0680703125,-10.9901123046875,18.99163055419922,-24.562393188476562
1637056736552950300,23.0879501953125,-11.085296630859375,19.212574005126953,-24.725723266601562
1637056736572829400,23.107829345703124,-11.0753173828125,19.338085174560547,-24.78923797607422
1637056736592709400,23.12770947265625,-11.285736083984375,19.113109588623047,-24.753555297851562
1637056736612588300,23.14758837890625,-11.231201171875,19.19717788696289,-24.31206512451172
1637056736632468500,23.167468505859375,-10.863983154296875,19.018558502197266,-24.442184448242188
1637056736652348200,23.18734814453125,-10.60540771484375,19.126262664794922,-24.461227416992188
1637056736672227300,23.207227294921875,-11.1942138671875,19.247787475585938,-24.3648681640625
1637056736692107500,23.227107421875,-11.308074951171875,19.269332885742188,-24.50170135498047
1637056736711986200,23.246986083984375,-11.222076416015625,19.370281219482422,-24.641983032226562
1637056736731866400,23.266866455078127,-11.31011962890625,19.307636260986328,-24.156593322753906
1637056736751745500,23.28674560546875,-11.37225341796875,19.403522491455078,-24.213882446289062
1637056736771625200,23.306625244140626,-10.8802490234375,19.680503845214844,-24.373252868652344
1637056736791505400,23.32650537109375,-11.18084716796875,19.58535385131836,-24.525466918945312
1637056736811383800,23.3463837890625,-11.049652099609375,19.38006591796875,-24.358985900878906
1637056736831263700,23.366263671875,-11.014739990234375,19.28765106201172,-24.521804809570312
1637056736851142700,23.386142578125,-10.7015380859375,19.569469451904297,-24.529541015625
1637056736871022600,23.406022705078126,-10.72808837890625,19.212825775146484,-24.419395446777344
1637056736890902800,23.42590283203125,-10.75079345703125,19.40381622314453,-24.457626342773438
1637056736910781700,23.44578173828125,-10.54473876953125,19.497451782226562,-24.624771118164062
1637056736930661600,23.46566162109375,-10.77410888671875,19.304290771484375,-24.678611755371094
1637056736950540800,23.485540771484374,-10.9444580078125,19.009624481201172,-24.61016082763672
1637056736970420500,23.50542041015625,-11.11566162109375,19.199748992919922,-24.439292907714844
1637056736990299600,23.525299560546873,-10.860015869140625,19.159042358398438,-24.369041442871094
1637056737010179800,23.545179931640625,-11.13031005859375,19.507740020751953,-24.66083526611328
1637056737030058500,23.56505859375,-10.528167724609375,19.297664642333984,-24.45069122314453
1637056737049938700,23.584938720703125,-11.027008056640625,19.220340728759766,-24.485397338867188
1637056737069818600,23.604818603515625,-10.830841064453125,19.16763687133789,-24.503631591796875
1637056737089697500,23.624697509765625,-10.515350341796875,19.141193389892578,-24.420883178710938
1637056737109577700,23.64457763671875,-10.77838134765625,19.450878143310547,-24.686492919921875
1637056737129456600,23.66445654296875,-11.20220947265625,19.251575469970703,-24.427322387695312
1637056737149336800,23.6843369140625,-11.270843505859375,19.288745880126953,-24.30193328857422
1637056737169215700,23.7042158203125,-11.1783447265625,19.256061553955078,-24.489601135253906
1637056737189095700,23.724095703125,-11.082550048828125,19.151119232177734,-24.54747772216797
1637056737208976000,23.743975830078124,-10.998931884765625,19.56417465209961,-24.552352905273438
1637056737228854800,23.763854736328124,-10.77142333984375,19.30113983154297,-24.42071533203125
1637056737248734700,23.783734619140624,-10.571075439453125,19.234825134277344,-24.70049285888672
1637056737268614000,23.80361376953125,-11.04541015625,19.225067138671875,-24.549560546875
1637056737288493600,23.82349365234375,-11.25048828125,19.574466705322266,-24.6151123046875
1637056737308372700,23.843372802734375,-10.920928955078125,19.357101440429688,-24.561981201171875
1637056737328252700,23.863252685546875,-11.05718994140625,19.012134552001953,-24.429100036621094
1637056737348132600,23.883132568359375,-11.104827880859375,19.177059173583984,-24.718345642089844
1637056737368011800,23.90301171875,-11.091827392578125,19.07845687866211,-24.646560668945312
1637056737387891700,23.9228916015625,-11.447479248046875,19.063121795654297,-24.611114501953125
1637056737407770600,23.9427705078125,-11.175811767578125,19.051734924316406,-24.414146423339844
1637056737427650800,23.96265087890625,-10.972869873046875,19.06238555908203,-24.27989959716797
1637056737447530800,23.98253076171875,-10.919891357421875,19.16815185546875,-24.424705505371094
1637056737467409700,24.00240966796875,-10.760833740234375,19.436664581298828,-24.46680450439453
1637056737487289600,24.02228955078125,-10.5931396484375,19.008438110351562,-24.480377197265625
1637056737507168800,24.042168701171875,-10.808135986328125,19.413196563720703,-24.49890899658203
1637056737527048700,24.062048583984375,-11.005950927734375,19.04202651977539,-24.392547607421875
1637056737546927600,24.081927734375,-11.081085205078125,19.30986785888672,-24.648826599121094
1637056737566807800,24.101807861328126,-10.881927490234375,19.242149353027344,-24.3006591796875
1637056737586686700,24.121686767578126,-11.066253662109375,19.22573471069336,-24.405914306640625
1637056737606566700,24.141566650390626,-11.07354736328125,19.469722747802734,-23.991600036621094
1637056737626446800,24.16144677734375,-11.222412109375,19.294574737548828,-24.313674926757812
1637056737646325800,24.18132568359375,-11.134979248046875,19.018863677978516,-24.425582885742188
1637056737666205700,24.201205810546874,-11.231536865234375,19.069961547851562,-24.38024139404297
1637056737686084900,24.2210849609375,-11.145904541015625,19.2532958984375,-24.355636596679688
1637056737705964800,24.24096484375,-11.1168212890625,19.259445190429688,-24.156829833984375
1637056737725843700,24.26084375,-11.07366943359375,19.03601837158203,-24.511398315429688
1637056737745723600,24.2807236328125,-10.922454833984375,19.111873626708984,-24.305343627929688
1637056737765603800,24.300603759765625,-10.888946533203125,19.255260467529297,-24.50684356689453
1637056737785482800,24.320482666015625,-10.95489501953125,19.545063018798828,-24.374710083007812
1637056737805362700,24.34036279296875,-10.969696044921875,19.428207397460938,-24.440528869628906
1637056737825243000,24.360242919921873,-11.068511962890625,18.971038818359375,-24.606002807617188
1637056737845122800,24.380122802734373,-10.815277099609375,18.976154327392578,-24.435409545898438
1637056737865002000,24.400001953125,-11.086212158203125,19.247020721435547,-24.362205505371094
1637056737884881700,24.419881591796877,-11.317962646484375,19.386260986328125,-24.303421020507812
1637056737904761900,24.439761962890625,-11.2412109375,19.111587524414062,-24.256301879882812
1637056737924640800,24.459640869140625,-10.662353515625,19.334503173828125,-24.35132598876953
1637056737944521000,24.47952099609375,-10.808502197265625,19.20323944091797,-24.467697143554688
1637056737964399900,24.49939990234375,-11.16217041015625,19.317092895507812,-24.399078369140625
1637056737984279800,24.51927978515625,-11.584564208984375,19.426780700683594,-24.422096252441406
1637056738004158700,24.53915869140625,-11.228057861328125,19.211246490478516,-24.462005615234375
1637056738024039000,24.559038818359376,-10.846588134765625,19.32642364501953,-24.150802612304688
1637056738043918800,24.5789189453125,-10.820648193359375,19.425586700439453,-24.429542541503906
1637056738063798000,24.598798095703124,-11.1290283203125,19.24209213256836,-24.357666015625
1637056738083677700,24.618677734375,-10.9683837890625,19.1923828125,-24.594833374023438
1637056738103556900,24.638556884765624,-11.217529296875,19.092914581298828,-24.3270263671875
1637056738123436800,24.658436767578124,-10.7308349609375,19.29375457763672,-24.493255615234375
1637056738143315700,24.678315673828124,-10.938140869140625,19.309749603271484,-24.66138458251953
1637056738163196000,24.69819580078125,-11.081939697265625,19.362499237060547,-24.42266082763672
1637056738183075800,24.718075927734375,-11.043914794921875,19.43405532836914,-24.11243438720703
1637056738202954800,24.737954833984375,-10.655364990234375,19.390037536621094,-24.22833251953125
1637056738222835000,24.7578349609375,-10.973480224609375,19.364219665527344,-24.32683563232422
1637056738242713900,24.7777138671875,-10.8736572265625,19.22533416748047,-24.44927978515625
1637056738262593800,24.79759375,-10.804443359375,19.213687896728516,-24.46441650390625
1637056738282473000,24.817472900390626,-11.337799072265625,19.107730865478516,-24.49927520751953
1637056738302353000,24.837352783203126,-11.42596435546875,19.124889373779297,-24.416465759277344
1637056738322232800,24.85723291015625,-11.106689453125,19.003108978271484,-24.408775329589844
1637056738342111700,24.87711181640625,-11.2188720703125,19.15050506591797,-24.387901306152344
1637056738361992000,24.896991943359374,-11.370758056640625,19.191028594970703,-24.416580200195312
1637056738381870800,24.916870849609374,-11.016143798828125,19.195533752441406,-24.322708129882812
1637056738401750800,24.936750732421874,-11.07635498046875,19.124317169189453,-24.48766326904297
1637056738421630000,24.9566298828125,-11.108489990234375,19.235794067382812,-24.520111083984375
1637056738441509600,24.976509521484374,-11.510589599609375,19.23150634765625,-24.586837768554688
1637056738461389800,24.996389892578126,-11.035400390625,19.14794921875,-24.49846649169922
1637056738481269000,25.01626904296875,-11.222991943359375,18.921600341796875,-24.684677124023438
1637056738501149000,25.03614892578125,-11.068572998046875,19.29444122314453,-24.4383544921875
1637056738521027800,25.05602783203125,-11.086090087890625,19.20913314819336,-24.527137756347656
1637056738540907800,25.07590771484375,-10.7269287109375,19.094196319580078,-24.452972412109375
1637056738560786700,25.09578662109375,-11.0733642578125,19.173133850097656,-24.55500030517578
1637056738580667000,25.1156669921875,-11.073577880859375,19.07089614868164,-24.571250915527344
1637056738600546800,25.135546875,-11.1502685546875,19.186317443847656,-24.4532470703125
1637056738620426000,25.155426025390625,-11.383819580078125,19.269657135009766,-24.125831604003906
