Acc_timestamp,Accx,Accy,Accz,Gyro_timestamp,Gyrox,Gyroy,Gyroz,Baro_timestamp,Pressure_Reading
 379236352.000000, 1.624727 , 4.359723, 8.389235, 0.000000, 0.000000,  0.000000,  0.000000, 0.000000,  0.000000
 0.000000, 1.746760 , 4.424329, 8.350951, 0.000000, 0.000000,  0.000000,  0.000000, 0.000000,  0.000000 
 19968.000000, 1.684547 , 4.515256, 7.984849, 3192768256.000000, -58.170002,  -10.080000,  0.910000, 0.000000,  0.000000 
 39936.000000, 1.739582 , 4.661219, 8.082954, 3192788224.000000, -58.170002,  -10.080000,  0.910000, 0.000000,  0.000000 
 59904.000000, 1.797010 , 4.668397, 8.154739, 3192808192.000000, -5.390000,  10.640000,  8.120000, 0.000000,  0.000000 
 82944.000000, 1.935793 , 4.599005, 8.331808, 3192828160.000000, -6.860000,  3.500000,  -4.270000, 0.000000,  0.000000 
 99840.000000, 1.823331 , 4.409972, 8.283953, 3192850688.000000, -11.200000,  5.250000,  4.480000, 0.000000,  0.000000 
 119808.000000, 1.792224 , 4.127619, 8.427521, 3192868096.000000, -12.600000,  7.140000,  4.410000, 0.000000,  0.000000 
 139776.000000, 1.782653 , 4.149154, 8.504091, 3192888064.000000, -14.420000,  8.330000,  9.380000, 0.000000,  0.000000 
 159744.000000, 1.868794 , 4.316652, 8.559127, 3192908032.000000, -9.870000,  8.960000,  12.460000, 0.000000,  0.000000 
 180736.000000, 1.629512 , 4.429115, 8.468199, 3192928000.000000, -3.990000,  9.520000,  16.660000, 0.000000,  0.000000 
 199680.000000, 1.584049 , 4.460221, 8.494520, 3192948992.000000, -3.500000,  10.080000,  17.360001, 0.000000,  0.000000 
 219648.000000, 1.698904 , 4.421937, 8.415558, 3192967936.000000, -7.140000,  10.290000,  19.530001, 0.000000,  0.000000 
 240128.000000, 1.849652 , 4.541577, 8.219346, 3192987904.000000, -10.780000,  8.470000,  20.370001, 0.000000,  0.000000 
 260096.000000, 1.801795 , 4.735396, 8.161918, 3193007872.000000, -8.890000,  7.350000,  21.559999, 0.000000,  0.000000 
 280576.000000, 1.682154 , 4.668397, 8.111670, 3193027840.000000, -7.630000,  8.330000,  21.980000, 0.000000,  0.000000 
 300032.000000, 1.679761 , 4.599005, 8.102098, 3193048832.000000, -11.970000,  8.680000,  23.100000, 0.000000,  0.000000 
 320000.000000, 1.706082 , 4.244867, 8.178668, 3193067776.000000, -21.070000,  8.470000,  24.920000, 0.000000,  0.000000 
 339968.000000, 1.672583 , 4.132405, 8.063812, 3193087744.000000, -28.910000,  8.260000,  27.020000, 0.000000,  0.000000 
 359936.000000, 1.586441 , 4.127619, 7.951349, 3193107712.000000, -24.710001,  9.030000,  31.850000, 0.000000,  0.000000 
 380928.000000, 1.730011 , 4.108476, 8.106883, 3193127680.000000, -22.260000,  8.610000,  35.560001, 0.000000,  0.000000 
 399872.000000, 1.964507 , 3.802195, 7.767102, 3193148672.000000, -29.540001,  7.070000,  37.799999, 5455558144.000000,  1005.980774 
 419840.000000, 2.041078 , 3.596412, 7.515855, 3193167616.000000, -37.099998,  5.670000,  39.340000, 0.000000,  0.000000 
 439808.000000, 2.251646 , 3.129812, 8.202596, 3193187584.000000, -50.959999,  7.700000,  38.990002, 0.000000,  0.000000 
 459776.000000, 2.646462 , 2.679961, 8.652447, 3193207552.000000, -70.699997,  9.100000,  35.700001, 0.000000,  0.000000 
 480768.000000, 2.608176 , 2.653640, 8.382057, 3193228032.000000, -84.980003,  8.680000,  31.080000, 0.000000,  0.000000 
 499712.000000, 2.376073 , 2.153540, 8.341379, 3193248512.000000, -95.970001,  10.360000,  28.700001, 0.000000,  0.000000 
 519680.000000, 2.600998 , 1.036092, 8.621340, 3193267968.000000, -114.379997,  11.340000,  25.059999, 0.000000,  0.000000 
 539648.000000, 2.431108 , -0.157926, 9.265009, 3193287936.000000, -132.229996,  11.620000,  22.680000, 0.000000,  0.000000 
 559616.000000, 2.143969 , -1.304088, 9.499505, 3193307904.000000, -143.080002,  14.140000,  16.870001, 0.000000,  0.000000 
 580608.000000, 1.667797 , -1.763510, 9.734003, 3193327872.000000, -137.059998,  15.680000,  10.780000, 0.000000,  0.000000 
 599552.000000, 0.873380 , -1.663012, 9.162118, 3193348864.000000, -130.899994,  17.219999,  6.160000, 0.000000,  0.000000 
 619520.000000, 0.227318 , -1.081556, 9.097511, 3193367808.000000, -116.690002,  17.850000,  5.460000, 0.000000,  0.000000 
 639488.000000, -0.464208 , -1.009771, 8.398808, 3193387776.000000, -81.900002,  18.340000,  13.720000, 0.000000,  0.000000 
 659456.000000, -0.464208 , -1.627119, 8.350951, 3193407744.000000, -72.099998,  16.379999,  13.020000, 0.000000,  0.000000 
 680448.000000, 0.591027 , -2.280360, 8.293523, 3193427712.000000, -88.550003,  14.350000,  15.470000, 0.000000,  0.000000 
 699392.000000, 1.196411 , -2.402394, 8.815158, 3193448704.000000, -95.550003,  16.170000,  29.680000, 0.000000,  0.000000 
 719872.000000, 1.208375 , -2.926422, 9.932607, 3193467648.000000, -107.379997,  26.460001,  37.730000, 0.000000,  0.000000 
 739840.000000, 0.200997 , -3.275774, 11.102697, 3193487616.000000, -104.160004,  44.520000,  42.070000, 0.000000,  0.000000 
 759808.000000, -1.490728 , -3.113062, 12.983455, 3193507584.000000, -88.340004,  62.299999,  42.139999, 0.000000,  0.000000 
 780288.000000, -3.771089 , 1.911865, 14.627325, 3193527552.000000, -49.490002,  76.440002,  45.849998, 0.000000,  0.000000 
 799744.000000, -3.019742 , 3.486342, 11.681760, 3193548544.000000, 50.889999,  74.830002,  72.730003, 0.000000,  0.000000 
 819712.000000, -2.031506 , -1.974079, 9.513863, 3193567488.000000, 56.700001,  52.009998,  110.180000, 0.000000,  0.000000 
 839680.000000, -1.462015 , -4.496114, 10.387242, 3193587456.000000, -32.480000,  35.279999,  76.930000, 0.000000,  0.000000 
 859648.000000, -0.892523 , -3.948158, 9.717253, 3193607424.000000, -66.709999,  28.350000,  66.360001, 0.000000,  0.000000 
 880640.000000, -1.942972 , -4.232903, 9.396614, 3193627392.000000, -23.240000,  29.960001,  78.820000, 0.000000,  0.000000 
 899584.000000, -2.239682 , -4.644469, 8.848659, 3193648384.000000, -39.900002,  35.279999,  59.500000, 0.000000,  0.000000 
 919552.000000, -1.603191 , -4.512863, 8.216952, 3193667328.000000, -76.090004,  34.369999,  56.490002, 0.000000,  0.000000 
 939520.000000, -1.674976 , -4.036692, 8.956335, 3193687296.000000, -97.230003,  26.950001,  47.320000, 0.000000,  0.000000 
 959488.000000, -2.277967 , -5.185246, 10.150353, 3193707776.000000, -138.600006,  23.100000,  49.910000, 0.000000,  0.000000 
 980480.000000, -1.533799 , -4.969893, 10.356135, 3193727744.000000, -144.970001,  14.210000,  53.619999, 0.000000,  0.000000 
 999424.000000, -0.440279 , -3.661019, 9.250652, 3193748224.000000, -91.000000,  -6.020000,  75.669998, 0.000000,  0.000000 
 1019392.000000, -0.277567 , -3.486342, 8.717053, 3193767680.000000, -32.340000,  -25.480000,  90.230003, 0.000000,  0.000000 
 1039360.000000, -0.260818 , -3.818945, 8.257630, 3193787648.000000, -24.080000,  -36.540001,  91.769997, 0.000000,  0.000000 
 1059328.000000, -0.988236 , -3.684947, 7.647461, 3193807616.000000, -27.860001,  -41.930000,  102.480003, 0.000000,  0.000000 
 1082368.000000, -0.722632 , -2.871387, 6.893722, 3193827584.000000, -13.370000,  -38.360001,  111.230003, 0.000000,  0.000000 
 1099264.000000, 0.055035 , -3.661019, 6.853044, 3193850112.000000, 12.110000,  -34.860001,  127.540001, 0.000000,  0.000000 
 1119232.000000, -0.416351 , -3.192025, 7.496714, 3193867520.000000, -1.330000,  -34.580002,  119.910004, 0.000000,  0.000000 
 1139200.000000, 0.019143 , -3.804588, 7.740781, 3193887488.000000, -56.000000,  -19.740000,  102.690002, 0.000000,  0.000000 
 1159168.000000, 0.693919 , -4.850252, 8.176274, 3193907456.000000, -57.750000,  -7.280000,  115.570000, 0.000000,  0.000000 
 1180160.000000, 1.339981 , -5.414958, 9.028119, 3193927424.000000, -48.650002,  2.940000,  103.669998, 0.000000,  0.000000 
 1199104.000000, 1.184447 , -6.044270, 10.380065, 3193948416.000000, -47.250000,  17.780001,  94.220001, 0.000000,  0.000000 
 1219584.000000, 0.351745 , -6.276374, 10.877771, 3193967360.000000, -44.450001,  35.770000,  84.139999, 0.000000,  0.000000 
 1239552.000000, 0.287139 , -7.037291, 10.932807, 3193987328.000000, -15.610000,  49.420002,  64.190002, 0.000000,  0.000000 
 1259520.000000, 0.660419 , -7.192825, 11.636297, 3194007296.000000, 9.380000,  53.549999,  45.500000, 0.000000,  0.000000 
 1280000.000000, 0.100499 , -8.657232, 14.117653, 3194027264.000000, -3.010000,  48.299999,  19.180000, 0.000000,  0.000000 
 1299456.000000, -1.141376 , -10.884951, 15.723237, 3194048256.000000, -39.689999,  37.240002,  -4.130000, 0.000000,  0.000000 
 1319424.000000, -0.813560 , -13.684553, 17.175682, 3194067200.000000, -51.029999,  17.430000,  -31.010000, 0.000000,  0.000000 
 1339392.000000, -1.060020 , -13.624733, 17.096718, 3194087168.000000, -36.750000,  -10.780000,  -55.580002, 0.000000,  0.000000 
 1359360.000000, -0.868595 , -11.023734, 15.077175, 3194107136.000000, -12.670000,  -46.970001,  -91.699997, 0.000000,  0.000000 
 1380352.000000, 0.504886 , -9.839286, 14.859427, 3194127104.000000, 2.660000,  -99.540001,  -131.669998, 0.000000,  0.000000 
 1399296.000000, 0.244068 , -10.033106, 14.175081, 3194148096.000000, 1.960000,  -152.389999,  -173.809998, 5456557568.000000,  1005.983093 
 1419264.000000, -0.741775 , -8.657232, 10.975878, 3194167040.000000, 14.770000,  -192.289993,  -231.630005, 0.000000,  0.000000 
 1439232.000000, -0.758525 , -7.578069, 8.006385, 3194187008.000000, 67.830002,  -218.960007,  -266.000000, 0.000000,  0.000000 
 1459200.000000, -0.327817 , -7.477571, 6.266802, 3194207488.000000, 121.520004,  -233.449997,  -260.820007, 0.000000,  0.000000 
 1480192.000000, -0.074178 , -6.999006, 5.623133, 3194227456.000000, 145.460007,  -233.380005,  -234.779999, 0.000000,  0.000000 
 1499136.000000, -0.373280 , -6.139983, 5.312066, 3194247936.000000, 141.399994,  -223.440002,  -209.649994, 0.000000,  0.000000 
 1519104.000000, -0.789631 , -5.400600, 4.177868, 3194267392.000000, 126.419998,  -202.300003,  -183.960007, 0.000000,  0.000000 
 1539072.000000, -1.052842 , -4.697111, 3.096312, 3194287360.000000, 106.610001,  -170.240005,  -154.839996, 0.000000,  0.000000 
 1559040.000000, -1.897508 , -3.510271, 2.031506, 3194307328.000000, 77.489998,  -122.150002,  -120.190002, 0.000000,  0.000000 
 1580032.000000, -2.459821 , -2.629712, 1.165305, 3194327296.000000, 46.759998,  -57.470001,  -86.940002, 0.000000,  0.000000 
 1598976.000000, -4.273581 , -1.804188, -0.014357, 3194348288.000000, 13.020000,  17.850000,  -48.720001, 0.000000,  0.000000 
 1618944.000000, -5.627919 , -1.016950, -0.272782, 3194367232.000000, -23.520000,  96.180000,  -13.860000, 0.000000,  0.000000 
 1638912.000000, -6.640083 , -0.370888, 0.397209, 3194387200.000000, -66.150002,  168.000000,  22.260000, 0.000000,  0.000000 
 1658880.000000, -9.030513 , -0.153141, 0.574277, 3194407168.000000, -94.220001,  227.710007,  63.279999, 0.000000,  0.000000 
 1679872.000000, -10.119246 , -0.066999, 0.983450, 3194427136.000000, -83.090004,  262.360016,  97.510002, 0.000000,  0.000000 
 1699328.000000, -9.276974 , 1.031307, 2.373680, 3194448128.000000, -42.070000,  268.170013,  140.490005, 0.000000,  0.000000 
 1719296.000000, -8.027920 , 1.088734, 3.622734, 3194467072.000000, -1.190000,  258.720001,  179.410004, 0.000000,  0.000000 
 1739264.000000, -9.028119 , -0.686740, 4.773681, 3194487040.000000, -3.220000,  253.050003,  198.029999, 0.000000,  0.000000 
 1759232.000000, -10.700702 , -5.173282, 10.253245, 3194507008.000000, -49.139999,  246.960007,  194.949997, 0.000000,  0.000000 
 1779712.000000, -12.832708 , -11.973685, 18.673588, 3194526976.000000, -83.930000,  234.080002,  198.100006, 0.000000,  0.000000 
 1799168.000000, -13.648660 , -16.649261, 23.815762, 3194547968.000000, -45.009998,  222.460007,  207.970001, 0.000000,  0.000000 
 1819136.000000, -12.461821 , -15.483955, 24.208187, 3194566912.000000, 41.090000,  193.199997,  198.869995, 0.000000,  0.000000 
 1839104.000000, -11.791830 , -15.182461, 24.521645, 3194586880.000000, 42.910000,  154.000000,  174.300003, 0.000000,  0.000000 
 1859072.000000, -8.678767 , -13.560125, 21.276978, 3194606848.000000, -115.570000,  105.769997,  126.139999, 0.000000,  0.000000 
 1880064.000000, -2.864209 , -8.989835, 16.881365, 3194626816.000000, -217.139999,  46.270000,  98.840004, 0.000000,  0.000000 
 1899008.000000, 1.483550 , -5.809773, 13.363914, 3194647808.000000, -157.080002,  14.770000,  104.019997, 0.000000,  0.000000 
 1918976.000000, 3.337988 , -5.479564, 11.255837, 3194666752.000000, -108.919998,  17.360001,  107.940002, 0.000000,  0.000000 
 1938944.000000, 3.751946 , -5.766702, 10.925629, 3194687232.000000, -123.059998,  25.340000,  92.540001, 0.000000,  0.000000 
 1958912.000000, 4.534399 , -6.022735, 9.611969, 3194707200.000000, -151.339996,  26.460001,  76.090004, 0.000000,  0.000000 
 1979904.000000, 7.865208 , -6.338587, 8.997013, 3194727168.000000, -150.289993,  15.190001,  61.389999, 0.000000,  0.000000 
 1998848.000000, 11.322837 , -2.467000, 9.260223, 3194747648.000000, -105.559998,  3.990000,  57.330002, 0.000000,  0.000000 
 2018816.000000, 12.289536 , 1.184447, 10.664811, 3194767104.000000, -54.459999,  -7.000000,  36.750000, 0.000000,  0.000000 
 2038784.000000, 9.135797 , 0.200997, 13.052847, 3194787072.000000, -48.860001,  -21.070000,  -18.480000, 0.000000,  0.000000 
 2058752.000000, 6.575477 , -3.761517, 15.402599, 3194807040.000000, -39.830002,  -46.130001,  -86.309998, 0.000000,  0.000000 
 2081792.000000, 2.301895 , -5.742774, 14.873785, 3194827008.000000, 52.639999,  -80.010002,  -134.680008, 0.000000,  0.000000 
 2098688.000000, -0.995414 , -9.085547, 16.960327, 3194849536.000000, 110.739998,  -112.349998,  -193.970001, 0.000000,  0.000000 
 2118656.000000, -3.842873 , -13.179667, 21.513868, 3194866944.000000, 178.779999,  -129.779999,  -217.070007, 0.000000,  0.000000 
 2138624.000000, -2.787638 , -20.461027, 21.250658, 3194886912.000000, 153.300003,  -170.520004,  -229.949997, 0.000000,  0.000000 
 2158592.000000, -4.448257 , -21.676580, 18.245272, 3194906880.000000, 122.989998,  -226.869995,  -245.279999, 0.000000,  0.000000 
 2179584.000000, -6.996613 , -15.187245, 14.519648, 3194926848.000000, 123.550003,  -270.339996,  -256.200012, 0.000000,  0.000000 
 2199040.000000, -5.996413 , -13.196418, 12.607781, 3194947840.000000, 147.419998,  -301.140015,  -275.519989, 0.000000,  0.000000 
 2219008.000000, -6.886543 , -10.322637, 8.662018, 3194966784.000000, 146.229996,  -305.829987,  -230.790009, 0.000000,  0.000000 
 2238976.000000, -6.616155 , -7.970492, 6.070591, 3194986752.000000, 143.919998,  -285.459991,  -227.990005, 0.000000,  0.000000 
 2258944.000000, -6.654440 , -4.957928, 3.072384, 3195006720.000000, 161.630005,  -247.449997,  -200.970001, 0.000000,  0.000000 
 2279424.000000, -8.085347 , -2.433501, 0.260818, 3195026688.000000, 161.279999,  -200.479996,  -154.490005, 0.000000,  0.000000 
 2298880.000000, -6.742974 , -0.961915, -1.835295, 3195047680.000000, 116.270004,  -122.290001,  -113.400002, 0.000000,  0.000000 
 2318848.000000, -7.635497 , 0.131605, -2.964707, 3195066624.000000, 45.430000,  -37.660000,  -51.170002, 0.000000,  0.000000 
 2338816.000000, -11.085947 , 0.021535, -2.297110, 3195086592.000000, -52.920002,  42.139999,  -29.540001, 0.000000,  0.000000 
 2358784.000000, -11.294124 , -0.492921, -1.744368, 3195106560.000000, -135.729996,  107.309998,  -4.900000, 0.000000,  0.000000 
 2379776.000000, -9.724431 , 0.557528, -1.763510, 3195126528.000000, -149.029999,  136.990005,  54.459999, 0.000000,  0.000000 
 2398720.000000, -9.889536 , 1.667797, 0.078963, 3195147520.000000, -125.300003,  140.490005,  101.500000, 5457557504.000000,  1005.977539 
 2418688.000000, -8.248059 , 0.057428, 3.364309, 3195166976.000000, -136.430008,  141.259995,  121.660004, 0.000000,  0.000000 
 2438656.000000, -6.601797 , -1.684547, 3.878766, 3195186944.000000, -126.980003,  138.809998,  140.559998, 0.000000,  0.000000 
 2458624.000000, -5.704489 , -2.100898, 5.979663, 3195206912.000000, -28.350000,  138.460007,  175.630005, 0.000000,  0.000000 
 2479616.000000, -7.496714 , -5.082355, 12.521641, 3195226880.000000, 59.709999,  148.050003,  220.080002, 0.000000,  0.000000 
 2498560.000000, -10.145569 , -12.624532, 17.888742, 3195247360.000000, 55.230000,  177.380005,  247.800003, 0.000000,  0.000000 
 2518528.000000, -10.310673 , -17.934206, 23.751158, 3195266816.000000, -8.260000,  188.089996,  248.360001, 0.000000,  0.000000 
 2538496.000000, -8.628519 , -18.912870, 24.593431, 3195306752.000000, -145.809998,  135.380005,  204.820007, 0.000000,  0.000000 
 2558464.000000, -5.623133 , -15.577275, 21.681366, 0.000000, 0.000000,  0.000000,  0.000000, 0.000000,  0.000000 
 2579456.000000, -1.098306 , -10.968699, 18.441484, 3195326720.000000, -150.570007,  95.269997,  162.539993, 0.000000,  0.000000 
 2598400.000000, 1.617548 , -9.516255, 16.405191, 3195347712.000000, -104.440002,  82.739998,  143.570007, 0.000000,  0.000000 
 2618368.000000, 2.098505 , -10.451849, 15.467206, 3195366656.000000, -72.239998,  96.879997,  125.650002, 0.000000,  0.000000 
 2638336.000000, 0.729811 , -11.650653, 15.866807, 3195386624.000000, -73.080002,  99.959999,  104.860001, 0.000000,  0.000000 
 2658816.000000, 0.722632 , -10.375278, 13.868800, 3195406592.000000, -74.760002,  80.570000,  76.650002, 0.000000,  0.000000 
 2679296.000000, 2.342573 , -7.527820, 10.511670, 3195426560.000000, -62.020000,  44.590000,  63.700001, 0.000000,  0.000000 
 2698752.000000, 3.692125 , -4.472186, 7.944171, 3195447552.000000, -54.810001,  3.780000,  56.209999, 0.000000,  0.000000 
 2718720.000000, 5.017749 , -1.146162, 6.498906, 3195466496.000000, -53.760002,  -25.969999,  42.490002, 0.000000,  0.000000 
 2738688.000000, 7.152147 , 1.251446, 4.881358, 3195486464.000000, -60.340000,  -43.330002,  26.320000, 0.000000,  0.000000 
 2758656.000000, 9.611969 , 3.364309, 3.069991, 3195506432.000000, -52.639999,  -54.180000,  12.040000, 0.000000,  0.000000 
 2779648.000000, 10.683953 , 6.185446, 2.287539, 3195526400.000000, -24.990000,  -62.299999,  -7.770000, 0.000000,  0.000000 
 2798592.000000, 10.870593 , 6.881758, 0.926022, 3195547392.000000, 9.660000,  -63.209999,  -27.930000, 0.000000,  0.000000 
 2818560.000000, 8.693125 , 6.087341, 1.225125, 3195566336.000000, 65.309998,  -51.310001,  -53.340000, 0.000000,  0.000000 
 2838528.000000, 5.723632 , 0.246461, 5.594419, 3195586304.000000, 50.189999,  -18.480000,  -80.430000, 0.000000,  0.000000 
 2858496.000000, 2.971886 , -14.890535, 14.471791, 3195606272.000000, -54.110001,  8.680000,  -112.770004, 0.000000,  0.000000 
 2879488.000000, -3.385844 , -31.281370, 27.814171, 3195626240.000000, -143.500000,  11.620000,  -152.250000, 0.000000,  0.000000 
 2898432.000000, -6.352944 , -27.376284, 20.882162, 3195647232.000000, -49.070000,  -12.250000,  -180.039993, 0.000000,  0.000000 
 2918400.000000, -1.447658 , -20.193029, 17.218752, 3195666688.000000, 272.579987,  -99.190002,  -236.880005, 0.000000,  0.000000 
 2938368.000000, -4.615755 , -16.694723, 11.693724, 3195686656.000000, 251.930008,  -169.820007,  -206.289993, 0.000000,  0.000000 
 2958336.000000, -3.268596 , -11.222338, 9.724431, 3195706624.000000, 157.850006,  -224.419998,  -273.000000, 0.000000,  0.000000 
 2979328.000000, -2.251646 , -8.740981, 7.834101, 3195726592.000000, 100.590004,  -249.339996,  -257.459991, 0.000000,  0.000000 
 2998272.000000, -1.983650 , -8.839087, 8.238488, 3195747072.000000, 86.940002,  -244.860001,  -263.059998, 0.000000,  0.000000 
 3018240.000000, -3.163311 , -8.061419, 8.535198, 3195766528.000000, 70.769997,  -218.680008,  -248.990005, 0.000000,  0.000000 
 3038208.000000, -3.390630 , -5.982057, 7.075576, 3195786496.000000, 93.590004,  -170.309998,  -207.619995, 0.000000,  0.000000 
 3058176.000000, -5.807381 , -3.273381, 4.788038, 3195806464.000000, 133.699997,  -111.440002,  -140.279999, 0.000000,  0.000000 
 3081216.000000, -8.427521 , -1.462015, 1.596013, 3195826432.000000, 126.000000,  -60.970001,  -82.180000, 0.000000,  0.000000 
 3098112.000000, -7.616355 , 0.279960, 0.437887, 3195849472.000000, 63.070000,  -3.360000,  -48.439999, 0.000000,  0.000000 
 3118080.000000, -6.673582 , 1.103091, 0.540778, 3195866368.000000, -34.580002,  59.779999,  -1.330000, 0.000000,  0.000000 
 3138048.000000, -6.891330 , 0.918844, 1.481157, 3195886336.000000, -146.860001,  122.360001,  9.520000, 0.000000,  0.000000 
 3158528.000000, -7.781459 , -0.351745, 2.359323, 3195906304.000000, -220.500000,  169.399994,  19.879999, 0.000000,  0.000000 
 3179008.000000, -7.987241 , -1.581656, 5.101498, 3195926272.000000, -215.180008,  188.860001,  43.610001, 0.000000,  0.000000 
 3198464.000000, -7.453642 , -2.871387, 7.901100, 3195947264.000000, -154.350006,  180.809998,  76.720001, 0.000000,  0.000000 
 3218432.000000, -6.283553 , -2.325824, 6.419943, 3195966208.000000, -53.970001,  155.539993,  108.500000, 0.000000,  0.000000 
 3238400.000000, -4.558327 , -1.244268, 5.623133, 3195986176.000000, 55.230000,  121.099998,  137.830002, 0.000000,  0.000000 
 3258368.000000, -4.285545 , -3.000600, 7.946564, 3196006144.000000, 72.029999,  101.360001,  156.240005, 0.000000,  0.000000 
 3279360.000000, -5.199604 , -6.077770, 11.150554, 3196026112.000000, 11.410000,  108.360001,  170.589996, 0.000000,  0.000000 
 3298304.000000, -6.886543 , -10.164711, 15.936199, 3196047104.000000, -36.959999,  114.029999,  189.490005, 0.000000,  0.000000 
 3318272.000000, -7.901100 , -12.803994, 19.077974, 3196066048.000000, -48.650002,  114.099998,  194.600006, 0.000000,  0.000000 
 3338240.000000, -6.242875 , -13.232309, 18.687944, 3196086016.000000, -58.660000,  98.840004,  183.050003, 0.000000,  0.000000 
 3358208.000000, -3.687340 , -10.131211, 17.187645, 3196105984.000000, -73.779999,  68.739998,  156.660004, 0.000000,  0.000000 
 3379200.000000, -1.801795 , -7.630712, 15.120246, 3196125952.000000, -60.410000,  37.520000,  134.470001, 0.000000,  0.000000 
 3398144.000000, -0.502493 , -7.826923, 14.194223, 3196147456.000000, -36.680000,  29.610001,  115.570000, 5458556928.000000,  1005.969360 
 3418112.000000, 0.160319 , -8.731410, 13.895120, 3196166400.000000, -30.520000,  40.180000,  100.029999, 0.000000,  0.000000 
 3438080.000000, 0.868595 , -8.645268, 14.098512, 3196186368.000000, -26.950001,  49.840000,  88.900002, 0.000000,  0.000000 
 3458048.000000, 1.308874 , -8.267202, 13.586447, 3196206336.000000, -25.200001,  49.490002,  79.590004, 0.000000,  0.000000 
 3479040.000000, 2.115255 , -7.271788, 11.554940, 3196226304.000000, -29.190001,  37.170002,  67.059998, 0.000000,  0.000000 
 3497984.000000, 3.141776 , -5.534599, 9.317651, 3196247296.000000, -27.299999,  16.309999,  49.840000, 0.000000,  0.000000 
 3517952.000000, 4.153940 , -3.725625, 7.487142, 3196266240.000000, -30.590000,  -4.410000,  31.639999, 0.000000,  0.000000 
 3537920.000000, 5.259424 , -2.081756, 6.209375, 3196286208.000000, -46.759998,  -19.809999,  9.100000, 0.000000,  0.000000 
 3557888.000000, 6.221339 , -1.112662, 5.364708, 3196306176.000000, -61.040001,  -31.219999,  -11.690000, 0.000000,  0.000000 
 3578880.000000, 6.302694 , -0.256032, 4.589434, 3196326144.000000, -57.889999,  -40.250000,  -30.730000, 0.000000,  0.000000 
 3597824.000000, 6.171089 , 0.899701, 4.340580, 3196347136.000000, -44.310001,  -50.259998,  -57.680000, 0.000000,  0.000000 
 3617792.000000, 5.481956 , 1.249053, 3.905087, 3196366080.000000, -12.250000,  -62.020000,  -84.840004, 0.000000,  0.000000 
 3638272.000000, 4.201797 , 1.091127, 3.409772, 3196386048.000000, 33.670002,  -64.400002,  -107.029999, 0.000000,  0.000000 
 3658240.000000, 3.857230 , -0.736989, 4.488935, 3196406016.000000, 55.930000,  -52.849998,  -125.090004, 0.000000,  0.000000 
 3679232.000000, 2.617748 , -6.245267, 9.934999, 3196425984.000000, 39.970001,  -37.450001,  -126.840004, 0.000000,  0.000000 
 3698688.000000, 0.145962 , -15.268601, 15.699310, 3196446976.000000, -12.670000,  -20.860001,  -133.979996, 0.000000,  0.000000 
 3718144.000000, -1.895115 , -21.451654, 20.484955, 3196466944.000000, -15.680000,  -25.830000,  -151.339996, 0.000000,  0.000000 
 3738112.000000, -0.775275 , -18.855442, 17.350357, 3196485888.000000, 47.320000,  -69.860001,  -183.680008, 0.000000,  0.000000 
 3758080.000000, -2.127219 , -14.230117, 15.491134, 3196506368.000000, 141.119995,  -125.230003,  -172.899994, 0.000000,  0.000000 
 3779072.000000, -2.854637 , -9.997212, 12.406786, 3196525824.000000, 126.279999,  -178.919998,  -202.229996, 0.000000,  0.000000 
 3798016.000000, -1.177269 , -6.654440, 9.131011, 3196546816.000000, 107.590004,  -213.710007,  -208.669998, 0.000000,  0.000000 
 3817984.000000, -0.586242 , -4.902894, 7.305287, 3196566272.000000, 111.650002,  -220.919998,  -184.100006, 0.000000,  0.000000 
 3837952.000000, -1.450050 , -4.333402, 7.154540, 3196586240.000000, 100.379997,  -198.309998,  -166.600006, 0.000000,  0.000000 
 3857920.000000, -2.586641 , -3.890730, 6.333801, 3196606208.000000, 69.930000,  -150.779999,  -141.889999, 0.000000,  0.000000 
 3879936.000000, -3.668197 , -2.433501, 4.536791, 3196626176.000000, 48.369999,  -94.849998,  -108.709999, 0.000000,  0.000000 
 3898880.000000, -4.981857 , -1.002593, 2.600998, 3196647680.000000, 37.730000,  -38.009998,  -67.340004, 0.000000,  0.000000 
 3918848.000000, -5.943772 , -0.150748, 1.115055, 3196667136.000000, 28.490000,  19.389999,  -22.889999, 0.000000,  0.000000 
 3938816.000000, -5.903094 , 0.212961, 0.933201, 3196687104.000000, -10.080000,  72.730003,  14.840000, 0.000000,  0.000000 
 3958784.000000, -6.398407 , -0.256032, 1.308874, 3196707072.000000, -75.949997,  118.790001,  40.389999, 0.000000,  0.000000 
 3980288.000000, -7.788638 , -1.052842, 2.615355, 3196727040.000000, -134.470001,  154.559998,  51.869999, 0.000000,  0.000000 
 3999232.000000, -7.173682 , -1.505085, 4.871787, 3196748032.000000, -163.100006,  171.779999,  61.110001, 0.000000,  0.000000 
 4019200.000000, -6.611369 , -2.919244, 5.606383, 3196767488.000000, -129.850006,  168.139999,  91.980003, 0.000000,  0.000000 
 4039168.000000, -7.592427 , -2.797210, 5.391029, 3196787456.000000, -31.850000,  157.570007,  134.470001, 0.000000,  0.000000 
 4059136.000000, -6.077770 , -4.273581, 8.523234, 3196807424.000000, 27.510000,  140.559998,  158.759995, 0.000000,  0.000000 
 4082688.000000, -7.298109 , -7.410572, 11.215159, 3196827392.000000, 7.070000,  127.050003,  183.259995, 0.000000,  0.000000 
 4099584.000000, -7.054041 , -10.325029, 13.631909, 3196850432.000000, -33.670002,  122.779999,  179.550003, 0.000000,  0.000000 
 4119552.000000, -6.750153 , -12.265609, 16.941183, 3196867328.000000, -52.849998,  111.790001,  187.250000, 0.000000,  0.000000 
 4139520.000000, -7.013363 , -13.361522, 18.379271, 3196887808.000000, -75.320000,  98.769997,  174.720001, 0.000000,  0.000000 
 4159488.000000, -6.010770 , -12.009576, 17.611174, 3196907776.000000, -78.190002,  81.970001,  148.259995, 0.000000,  0.000000 
 4180480.000000, -4.230510 , -9.410972, 15.428921, 3196927744.000000, -51.310001,  62.860001,  130.970001, 0.000000,  0.000000 
 4200448.000000, -2.232504 , -8.549555, 13.584054, 3196948224.000000, -17.850000,  53.549999,  122.430000, 0.000000,  0.000000 
 4220416.000000, 0.045464 , -8.683553, 13.557733, 3196968704.000000, -20.230000,  58.869999,  113.190002, 0.000000,  0.000000 
 4240896.000000, 0.260818 , -9.343972, 12.964314, 3196988672.000000, -42.840000,  69.370003,  111.720001, 0.000000,  0.000000 
 4260352.000000, -1.256232 , -10.375278, 11.552547, 3197008640.000000, -64.330002,  72.870003,  103.320000, 0.000000,  0.000000 
 4281344.000000, -1.387837 , -9.616754, 7.393822, 3197028608.000000, -91.419998,  62.650002,  93.660004, 0.000000,  0.000000 
 4300800.000000, 0.212961 , -7.319644, 4.450650, 3197049600.000000, -125.930000,  35.770000,  106.540001, 0.000000,  0.000000 
 4320768.000000, 3.122634 , -2.833102, 5.192425, 3197068544.000000, -180.600006,  14.910000,  118.580002, 0.000000,  0.000000 
 4340736.000000, 7.018148 , 0.732204, 5.754738, 3197088512.000000, -251.860001,  1.890000,  104.650002, 0.000000,  0.000000 
 4360704.000000, 7.901100 , 2.294717, 6.656832, 3197108480.000000, -267.329987,  -9.870000,  92.400002, 0.000000,  0.000000 
 4381696.000000, 7.936993 , 2.629712, 9.157332, 3197149440.000000, -236.180008,  13.650000,  -22.960001, 5459558912.000000,  1005.959290 
 4400640.000000, 6.857830 , -1.086342, 10.743774, 0.000000, 0.000000,  0.000000,  0.000000, 0.000000,  0.000000 
 4420608.000000, 4.744967 , -5.398208, 11.566904, 3197168384.000000, -145.949997,  31.360001,  -17.080000, 0.000000,  0.000000 
 4440576.000000, 3.012564 , -8.800802, 10.399208, 3197188352.000000, -38.290001,  40.810001,  -48.580002, 0.000000,  0.000000 
 4460544.000000, 1.832902 , -9.238688, 10.758131, 3197208832.000000, 117.180000,  -22.120001,  -71.050003, 0.000000,  0.000000 
 4481536.000000, 1.789831 , -13.892728, 10.561919, 3197228288.000000, 120.400002,  -27.510000,  -82.949997, 0.000000,  0.000000 
 4500480.000000, 0.251246 , -18.821943, 9.887143, 3197249280.000000, 92.750000,  -65.099998,  -126.489998, 0.000000,  0.000000 
 4520448.000000, -2.060220 , -19.240686, 7.915457, 3197268736.000000, 92.540001,  -95.059998,  -176.119995, 0.000000,  0.000000 
 4540416.000000, -1.232304 , -17.850456, 6.451050, 3197288704.000000, 79.940002,  -116.690002,  -223.580002, 0.000000,  0.000000 
 4560384.000000, -2.237289 , -18.680767, 6.817152, 3197308672.000000, 54.040001,  -124.599998,  -224.210007, 0.000000,  0.000000 
 4581376.000000, -3.785445 , -16.749758, 5.647062, 3197328640.000000, -14.210000,  -129.850006,  -228.270004, 0.000000,  0.000000 
 4600320.000000, -4.144369 , -14.560326, 3.220739, 3197349632.000000, -11.970000,  -122.989998,  -246.750000, 0.000000,  0.000000 
 4620288.000000, -4.505685 , -14.124832, 2.378466, 3197368576.000000, 51.170002,  -110.040001,  -243.600006, 0.000000,  0.000000 
 4640256.000000, -5.812167 , -13.375877, 0.622134, 3197388544.000000, 64.750000,  -99.470001,  -228.690002, 0.000000,  0.000000 
 4660224.000000, -7.826923 , -12.638889, -0.129212, 3197408512.000000, 44.029999,  -86.309998,  -192.919998, 0.000000,  0.000000 
 4681216.000000, -10.722239 , -10.736595, -1.852045, 3197428480.000000, 24.710001,  -61.740002,  -130.830002, 0.000000,  0.000000 
 4700160.000000, -9.815358 , -7.293324, -1.624727, 3197449472.000000, -5.810000,  -33.180000,  -78.190002, 0.000000,  0.000000 
 4720128.000000, -8.903693 , -4.591826, 0.648455, 3197468416.000000, -47.250000,  16.379999,  -18.270000, 0.000000,  0.000000 
 4740096.000000, -9.576077 , -3.041277, 2.318645, 3197488384.000000, -92.120003,  77.910004,  9.800000, 0.000000,  0.000000 
 4760064.000000, -8.109276 , -3.084348, 3.830909, 3197508352.000000, -100.169998,  136.360001,  17.990000, 0.000000,  0.000000 
 4781056.000000, -7.812566 , -2.227718, 4.192225, 3197528320.000000, -54.529999,  179.619995,  35.560001, 0.000000,  0.000000 
 4800000.000000, -7.611568 , -0.378066, 4.572684, 3197549312.000000, 28.139999,  196.630005,  44.310001, 0.000000,  0.000000 
 4819968.000000, -7.051648 , 0.669990, 4.622933, 3197568256.000000, 93.029999,  187.180008,  47.950001, 0.000000,  0.000000 
 4840448.000000, -5.797810 , 0.655633, 3.242275, 3197588224.000000, 107.099998,  166.320007,  57.049999, 0.000000,  0.000000 
 4860416.000000, -4.615755 , -0.052642, 4.194618, 3197608192.000000, 83.440002,  140.279999,  75.529999, 0.000000,  0.000000 
 4880896.000000, -6.898508 , -2.301895, 7.479963, 3197628160.000000, 36.400002,  121.660004,  112.279999, 0.000000,  0.000000 
 4900352.000000, -9.190832 , -7.936993, 10.894521, 3197649152.000000, -17.570000,  112.629997,  148.119995, 0.000000,  0.000000 
 4920320.000000, -10.925629 , -14.012369, 15.046068, 3197668096.000000, -42.560001,  95.550003,  173.110001, 0.000000,  0.000000 
 4940288.000000, -10.959127 , -18.498911, 18.936798, 3197688064.000000, -45.080002,  73.430000,  181.440002, 0.000000,  0.000000 
 4960256.000000, -9.305687 , -17.458033, 18.283558, 3197708032.000000, -35.840000,  42.000000,  173.949997, 0.000000,  0.000000 
 4981248.000000, -6.484549 , -15.888342, 17.259430, 3197728000.000000, 2.380000,  10.290000,  153.720001, 0.000000,  0.000000 
 5000192.000000, -4.733003 , -17.572889, 18.809978, 3197748992.000000, 29.889999,  -10.220000,  132.020004, 0.000000,  0.000000 
 5020160.000000, -1.938186 , -18.656837, 19.188044, 3197767936.000000, 14.140000,  -16.870001,  100.239998, 0.000000,  0.000000 
 5040128.000000, 1.653440 , -15.732809, 16.960327, 3197787904.000000, -22.049999,  -26.950001,  56.840000, 0.000000,  0.000000 
 5060096.000000, 3.503092 , -10.700702, 12.181859, 3197807872.000000, 0.980000,  -49.910000,  24.290001, 0.000000,  0.000000 
 5083136.000000, 4.376472 , -6.348158, 6.563512, 3197828352.000000, 71.400002,  -87.430000,  -15.890000, 0.000000,  0.000000 
 5100032.000000, 5.094319 , -1.758725, 1.964507, 3197850880.000000, 139.300003,  -112.279999,  -38.150002, 0.000000,  0.000000 
 5120000.000000, 5.178068 , 3.113062, -1.459622, 3197868288.000000, 183.680008,  -113.470001,  -28.559999, 0.000000,  0.000000 
 5139968.000000, 4.943572 , 6.786045, -3.400201, 3197888256.000000, 200.059998,  -98.840004,  -10.290000, 0.000000,  0.000000 
 5159936.000000, 5.130211 , 6.534799, -4.010371, 3197908224.000000, 183.820007,  -77.209999,  10.500000, 0.000000,  0.000000 
 5180928.000000, 4.977071 , 5.290531, -1.775474, 3197928192.000000, 118.090004,  -54.529999,  23.240000, 0.000000,  0.000000 
 5199872.000000, 4.634897 , 3.974478, 0.423530, 3197949184.000000, -6.580000,  -39.549999,  6.300000, 0.000000,  0.000000 
 5219840.000000, 4.613362 , 1.885544, 1.667797, 3197968128.000000, -54.110001,  -24.360001,  -11.830000, 0.000000,  0.000000 
 5239808.000000, 4.632504 , -2.009971, 3.424129, 3197988096.000000, -31.850000,  -14.420000,  -20.090000, 0.000000,  0.000000 
 5259776.000000, 3.153740 , -7.745567, 7.154540, 3198008064.000000, -46.549999,  3.430000,  -43.259998, 0.000000,  0.000000 
 5281280.000000, 0.105284 , -16.835899, 14.550755, 3198028032.000000, -118.720001,  18.200001,  -94.709999, 0.000000,  0.000000 
 5299712.000000, -2.146362 , -24.201006, 21.470798, 3198049024.000000, -137.619995,  16.730000,  -134.680008, 0.000000,  0.000000 
 5320192.000000, -1.899901 , -22.753351, 18.288343, 3198067968.000000, -56.209999,  -11.410000,  -156.449997, 0.000000,  0.000000 
 5340160.000000, -0.179462 , -17.539389, 13.785051, 3198087936.000000, 73.919998,  -74.970001,  -201.039993, 0.000000,  0.000000 
 5360128.000000, -1.196411 , -11.930614, 11.332408, 3198107904.000000, 125.230003,  -130.970001,  -216.440002, 0.000000,  0.000000 
 5380608.000000, -1.442872 , -7.264609, 8.231310, 3198148864.000000, 110.949997,  -186.619995,  -239.610001, 5460558336.000000,  1005.946777 
 5400064.000000, 0.612563 , -4.666004, 6.664011, 0.000000, 0.000000,  0.000000,  0.000000, 0.000000,  0.000000 
 5420032.000000, 2.000400 , -4.342973, 6.991827, 3198167808.000000, 64.470001,  -180.740005,  -209.720001, 0.000000,  0.000000 
 5440000.000000, 1.938186 , -5.254639, 7.345965, 3198187776.000000, 8.890000,  -142.589996,  -189.910004, 0.000000,  0.000000 
 5459968.000000, 2.404787 , -5.393422, 7.640282, 3198207744.000000, -19.530001,  -88.480003,  -170.869995, 0.000000,  0.000000 
 5480960.000000, 0.098106 , -5.513064, 8.461020, 3198227712.000000, -38.360001,  -35.770000,  -130.479996, 0.000000,  0.000000 
 5499904.000000, -4.060620 , -8.927622, 9.561719, 3198248704.000000, -92.959999,  17.290001,  -118.440002, 0.000000,  0.000000 
 5519872.000000, -7.422535 , -11.471190, 10.138390, 3198267648.000000, -147.139999,  52.500000,  -119.000000, 0.000000,  0.000000 
 5539840.000000, -8.494520 , -8.350951, 8.248059, 3198287616.000000, -135.169998,  64.400002,  -109.480003, 0.000000,  0.000000 
 5559808.000000, -8.133204 , -2.801995, 5.826523, 3198307584.000000, -63.560001,  56.349998,  -94.779999, 0.000000,  0.000000 
 5580800.000000, -7.817351 , -0.117248, 4.254438, 3198328064.000000, -22.680000,  49.840000,  -75.879997, 0.000000,  0.000000 
 5599744.000000, -7.759924 , 0.648455, 3.902694, 3198348544.000000, -12.530000,  62.580002,  -50.889999, 0.000000,  0.000000 
 5619712.000000, -7.264609 , 2.340181, 2.641676, 3198368000.000000, 33.880001,  59.920002,  -21.420000, 0.000000,  0.000000 
 5639680.000000, -6.975078 , 4.086941, 0.126820, 3198387968.000000, 98.209999,  42.630001,  17.990000, 0.000000,  0.000000 
 5659648.000000, -5.754738 , 4.697111, -0.705883, 3198407936.000000, 104.160004,  30.030001,  61.670002, 0.000000,  0.000000 
 5680640.000000, -3.424129 , 3.792624, -0.131605, 3198427904.000000, 48.299999,  32.480000,  113.260002, 0.000000,  0.000000 
 5699584.000000, -3.007778 , 0.906880, 2.366502, 3198448896.000000, -16.450001,  46.549999,  165.690002, 0.000000,  0.000000 
 5719552.000000, -6.053841 , -3.160919, 7.221539, 3198467840.000000, -72.800003,  86.519997,  205.100006, 0.000000,  0.000000 
 5739520.000000, -11.155338 , -10.518847, 12.648461, 3198487808.000000, -117.459999,  135.029999,  242.830002, 0.000000,  0.000000 
 5760512.000000, -12.638889 , -21.272192, 20.879770, 3198528768.000000, -124.180000,  156.800003,  256.480011, 0.000000,  0.000000 
 5780480.000000, -8.116454 , -23.193630, 22.487747, 0.000000, 0.000000,  0.000000,  0.000000, 0.000000,  0.000000 
 5800448.000000, -3.572484 , -17.680567, 18.221344, 3198548736.000000, -74.690002,  113.050003,  231.910004, 0.000000,  0.000000 
 5819904.000000, -0.612563 , -15.424134, 16.864614, 3198568192.000000, -39.759998,  71.959999,  206.500000, 0.000000,  0.000000 
 5839872.000000, 2.266003 , -15.969698, 17.333607, 3198588160.000000, -84.349998,  56.349998,  160.930008, 0.000000,  0.000000 
 5860352.000000, 3.400201 , -15.304493, 16.383656, 3198608128.000000, -141.539993,  42.910000,  136.289993, 0.000000,  0.000000 
 5880832.000000, 3.756732 , -12.112469, 13.981262, 3198628096.000000, -125.930000,  12.740000,  105.980003, 0.000000,  0.000000 
 5900800.000000, 4.788038 , -8.331808, 10.554741, 3198649088.000000, -25.059999,  -16.100000,  82.949997, 0.000000,  0.000000 
 5920256.000000, 6.597012 , -4.271189, 7.460821, 3198668544.000000, 75.949997,  -46.200001,  79.029999, 0.000000,  0.000000 
 5940224.000000, 9.616754 , 0.021535, 2.586641, 3198688512.000000, 123.830002,  -73.989998,  80.010002, 0.000000,  0.000000 
 5960704.000000, 11.827723 , 3.144169, 1.727618, 3198708480.000000, 154.770004,  -92.330002,  87.150002, 0.000000,  0.000000 
 5981184.000000, 10.810772 , 6.774081, 4.546363, 3198728448.000000, 163.100006,  -81.550003,  59.639999, 0.000000,  0.000000 
 6000640.000000, 8.700303 , 8.913264, 2.699104, 3198749440.000000, 129.430008,  -66.570000,  -0.350000, 0.000000,  0.000000 
 6020608.000000, 6.486942 , 3.890730, 5.422136, 3198768896.000000, 78.680000,  -64.889999,  -31.430000, 0.000000,  0.000000 
 6040576.000000, 5.422136 , -4.445865, 14.577076, 3198788864.000000, -20.370001,  -70.559998,  -47.389999, 0.000000,  0.000000 
 6060544.000000, 3.735196 , -13.753943, 17.077576, 3198808832.000000, -122.849998,  -115.570000,  -96.809998, 0.000000,  0.000000 
 6083584.000000, 2.230111 , -18.424734, 19.345970, 3198828800.000000, -91.910004,  -158.130005,  -190.119995, 0.000000,  0.000000 
 6100480.000000, 1.124627 , -17.989241, 18.305092, 3198851328.000000, 25.760000,  -211.610001,  -181.020004, 0.000000,  0.000000 
 6121472.000000, 1.545763 , -13.383057, 14.428720, 3198868224.000000, 171.779999,  -261.309998,  -184.940002, 0.000000,  0.000000 
 6141440.000000, 1.067199 , -10.114462, 11.361122, 3198889728.000000, 250.669998,  -300.579987,  -190.750000, 0.000000,  0.000000 
 6161920.000000, 0.533599 , -8.212167, 8.740981, 3198909696.000000, 221.270004,  -314.019989,  -177.240005, 0.000000,  0.000000 
 6182400.000000, 0.667598 , -5.364708, 5.515456, 3198929664.000000, 146.930008,  -296.519989,  -154.419998, 0.000000,  0.000000 
 6201856.000000, 0.624527 , -3.215954, 5.670990, 3198950656.000000, 78.190002,  -262.640015,  -128.869995, 0.000000,  0.000000 
 6221824.000000, -1.890330 , -2.160719, 6.520442, 3198969600.000000, -1.190000,  -198.169998,  -110.040001, 0.000000,  0.000000 
 6241792.000000, -2.797210 , -1.622334, 6.250053, 3198989568.000000, -79.029999,  -106.610001,  -111.160004, 0.000000,  0.000000 
 6261760.000000, -2.634498 , -0.729811, 5.374279, 3199009536.000000, -122.080002,  -16.379999,  -91.910004, 0.000000,  0.000000 
 6282240.000000, -5.809773 , -0.729811, 5.221139, 3199029504.000000, -134.820007,  66.080002,  -65.730003, 0.000000,  0.000000 
 6301696.000000, -8.638089 , -1.768296, 6.381658, 3199050496.000000, -140.210007,  134.119995,  -58.730000, 0.000000,  0.000000 
 6321664.000000, -8.774480 , -1.172483, 6.178268, 3199069440.000000, -128.729996,  185.500000,  -40.880001, 0.000000,  0.000000 
 6341632.000000, -8.779266 , -0.169890, 4.962714, 3199089408.000000, -52.220001,  213.639999,  2.030000, 0.000000,  0.000000 
 6361600.000000, -8.975478 , 0.777667, 4.637290, 3199109376.000000, 8.540000,  220.220001,  15.470000, 0.000000,  0.000000 
 6382592.000000, -7.578069 , 0.033500, 3.857230, 3199150336.000000, -1.540000,  211.470001,  38.920002, 5461559808.000000,  1005.928040 
 6401536.000000, -6.041877 , 0.622134, 3.622734, 0.000000, 0.000000,  0.000000,  0.000000, 0.000000,  0.000000 
 6421504.000000, -5.472386 , 2.321038, 5.816952, 3199169792.000000, 23.870001,  199.710007,  58.590000, 0.000000,  0.000000 
 6441472.000000, -5.192425 , 0.847059, 5.694918, 3199189760.000000, 49.910000,  194.669998,  91.840004, 0.000000,  0.000000 
 6461440.000000, -4.723432 , -0.282353, 8.635696, 3199209216.000000, 46.340000,  198.449997,  106.959999, 0.000000,  0.000000 
 6482432.000000, -7.546963 , -1.328017, 14.864214, 3199250176.000000, -47.250000,  228.899994,  160.509995, 0.000000,  0.000000 
 6501376.000000, -9.786645 , -5.979663, 20.839094, 0.000000, 0.000000,  0.000000,  0.000000, 0.000000,  0.000000 
 6521344.000000, -10.078569 , -10.442278, 23.961727, 3199269632.000000, -84.840004,  211.539993,  152.809998, 0.000000,  0.000000 
 6541312.000000, -7.566105 , -9.020942, 23.164915, 3199289600.000000, -91.980003,  169.330002,  139.860001, 0.000000,  0.000000 
 6561280.000000, -5.000999 , -7.278966, 20.796022, 3199309568.000000, -99.400002,  115.709999,  148.470001, 0.000000,  0.000000 
 6582272.000000, -2.519642 , -6.821937, 20.090139, 3199329536.000000, -126.209999,  78.470001,  139.300003, 0.000000,  0.000000 
 6601216.000000, -0.545564 , -6.218946, 19.214367, 3199350528.000000, -102.970001,  66.779999,  131.949997, 0.000000,  0.000000 
 6621184.000000, 0.722632 , -6.266802, 17.761923, 3199369472.000000, -47.599998,  62.510002,  120.820000, 0.000000,  0.000000 
 6641152.000000, 1.124627 , -5.603990, 15.333207, 3199389440.000000, -10.430000,  46.549999,  97.019997, 0.000000,  0.000000 
 6661632.000000, 1.861616 , -3.586841, 13.103097, 3199409408.000000, 1.610000,  16.660000,  67.059998, 0.000000,  0.000000 
 6682112.000000, 3.153740 , -2.407180, 9.980463, 3199429376.000000, -3.290000,  -15.400000,  49.630001, 0.000000,  0.000000 
 6701568.000000, 3.873980 , -1.213161, 7.554141, 3199450368.000000, 5.880000,  -40.389999,  40.740002, 0.000000,  0.000000 
 6721536.000000, 4.934000 , 0.083749, 4.694718, 3199469312.000000, 6.440000,  -55.299999,  25.900000, 0.000000,  0.000000 
 6740992.000000, 6.652047 , 0.602991, 3.957729, 3199489280.000000, 9.590000,  -65.449997,  18.480000, 0.000000,  0.000000 
 6761472.000000, 6.714260 , 2.397608, 3.598805, 3199509248.000000, 15.260000,  -78.889999,  8.260000, 0.000000,  0.000000 
 6781952.000000, 6.987042 , 4.876573, 2.136791, 3199529216.000000, 25.200001,  -86.099998,  -19.460001, 0.000000,  0.000000 
 6801408.000000, 6.439085 , 4.740182, -0.026321, 3199550208.000000, 49.209999,  -92.959999,  -46.970001, 0.000000,  0.000000 
 6821376.000000, 4.823930 , -0.294317, 4.264010, 3199569152.000000, -2.870000,  -89.320000,  -95.690002, 0.000000,  0.000000 
 6841344.000000, 5.099105 , -7.831708, 14.522040, 3199589120.000000, -151.690002,  -82.669998,  -149.029999, 0.000000,  0.000000 
 6861312.000000, 2.251646 , -16.295122, 19.736000, 3199609088.000000, -199.289993,  -84.489998,  -176.610001, 0.000000,  0.000000 
 6882304.000000, 0.715454 , -15.783059, 18.618553, 3199629056.000000, -127.190002,  -90.650002,  -191.449997, 0.000000,  0.000000 
 6901248.000000, 3.148954 , -15.646667, 18.005989, 3199650048.000000, 10.080000,  -127.120003,  -219.029999, 0.000000,  0.000000 
 6921216.000000, 2.165504 , -15.656239, 18.544376, 3199668992.000000, 90.860001,  -181.160004,  -208.529999, 0.000000,  0.000000 
 6941184.000000, -1.150948 , -12.193825, 16.027126, 3199688960.000000, 72.800003,  -223.509995,  -210.279999, 0.000000,  0.000000 
 6961152.000000, 0.224925 , -8.824730, 11.882757, 3199708928.000000, 83.230003,  -258.299988,  -239.399994, 0.000000,  0.000000 
 6982144.000000, 0.708275 , -6.783652, 8.951550, 3199728896.000000, 115.010002,  -274.260010,  -215.740005, 0.000000,  0.000000 
 7001088.000000, 1.292124 , -5.089533, 7.609176, 3199749888.000000, 112.699997,  -268.029999,  -202.440002, 0.000000,  0.000000 
 7021056.000000, 1.840081 , -4.206582, 7.068398, 3199769344.000000, 71.050003,  -231.630005,  -175.350006, 0.000000,  0.000000 
 7041024.000000, 0.112463 , -3.708875, 6.953543, 3199789312.000000, 22.680000,  -176.750000,  -149.660004, 0.000000,  0.000000 
 7060992.000000, -1.816152 , -2.955136, 5.216353, 3199809280.000000, -16.799999,  -112.629997,  -132.789993, 0.000000,  0.000000 
 7084032.000000, -3.192025 , -1.885544, 4.149154, 3199829248.000000, -61.740002,  -48.509998,  -117.809998, 0.000000,  0.000000 
 7100928.000000, -5.690133 , -1.899901, 4.962714, 3199851776.000000, -106.610001,  13.090000,  -94.919998, 0.000000,  0.000000 
 7120896.000000, -7.642675 , -2.665605, 5.324030, 3199869184.000000, -143.430008,  66.500000,  -85.750000, 0.000000,  0.000000 
 7140864.000000, -6.802795 , -2.249253, 5.816952, 3199889152.000000, -154.699997,  108.639999,  -80.570000, 0.000000,  0.000000 
 7160832.000000, -6.142376 , -1.217947, 5.608776, 3199909120.000000, -116.690002,  137.970001,  -59.150002, 0.000000,  0.000000 
 7181824.000000, -6.771688 , -0.184247, 4.752146, 3199929088.000000, -52.430000,  152.250000,  -46.340000, 0.000000,  0.000000 
 7200768.000000, -5.960521 , 0.662812, 3.938586, 3199969024.000000, 6.090000,  155.610001,  -16.450001, 0.000000,  0.000000 
 7220736.000000, -5.666204 , 0.612563, 3.050849, 0.000000, 0.000000,  0.000000,  0.000000, 0.000000,  0.000000 
 7240704.000000, -4.620540 , 1.069592, 2.634498, 3199988992.000000, 9.520000,  148.539993,  1.680000, 0.000000,  0.000000 
 7261184.000000, -3.921836 , 2.163112, 3.960121, 3200008960.000000, -19.809999,  145.809998,  26.389999, 0.000000,  0.000000 
 7281664.000000, -4.917251 , 1.138984, 7.137790, 3200028928.000000, -48.860001,  153.020004,  66.919998, 0.000000,  0.000000 
 7301120.000000, -5.726025 , -0.650848, 8.697910, 3200049920.000000, -38.009998,  170.729996,  105.559998, 0.000000,  0.000000 
 7321088.000000, -7.446464 , -3.120241, 12.299109, 3200068864.000000, -37.520000,  186.550003,  139.509995, 0.000000,  0.000000 
 7341056.000000, -10.061819 , -7.676175, 18.427128, 3200088832.000000, -84.209999,  196.070007,  161.699997, 0.000000,  0.000000 
 7361024.000000, -9.748360 , -11.856436, 22.305893, 3200108800.000000, -157.080002,  187.110001,  156.520004, 0.000000,  0.000000 
 7382016.000000, -7.712067 , -11.356337, 21.487549, 3200128768.000000, -153.229996,  162.190002,  160.020004, 0.000000,  0.000000 
 7400960.000000, -4.888536 , -7.982457, 19.403399, 3200149760.000000, -75.739998,  130.130005,  152.669998, 5462559232.000000,  1005.909363 
 7420928.000000, -3.527020 , -6.113662, 18.757338, 3200168704.000000, -27.160000,  111.230003,  141.470001, 0.000000,  0.000000 
 7440896.000000, -2.612962 , -6.329016, 18.412771, 3200188672.000000, -34.790001,  106.260002,  121.449997, 0.000000,  0.000000 
 7460864.000000, -2.407180 , -7.893922, 17.599211, 3200208640.000000, -41.790001,  99.190002,  119.559998, 0.000000,  0.000000 
 7481856.000000, -1.316052 , -8.446664, 15.938592, 3200228608.000000, -35.840000,  87.360001,  118.090004, 0.000000,  0.000000 
 7500800.000000, 1.203590 , -7.917850, 13.885550, 3200249600.000000, -44.450001,  67.480003,  121.730003, 0.000000,  0.000000 
 7520768.000000, 2.938386 , -6.496514, 12.346965, 3200269056.000000, -65.449997,  45.639999,  116.480003, 0.000000,  0.000000 
 7540736.000000, 4.015156 , -4.881358, 11.416157, 3200289024.000000, -92.400002,  23.870001,  91.489998, 0.000000,  0.000000 
 7560704.000000, 4.855037 , -3.390630, 10.131211, 3200308992.000000, -87.360001,  1.190000,  63.349998, 0.000000,  0.000000 
 7581696.000000, 6.147161 , -2.132005, 7.542177, 3200328960.000000, -34.090000,  -19.460001,  46.060001, 0.000000,  0.000000 
 7600640.000000, 8.018349 , -0.806381, 5.417351, 3200349952.000000, 31.850000,  -34.720001,  37.380001, 0.000000,  0.000000 
 7620608.000000, 8.571091 , 2.048256, 5.733203, 3200368896.000000, 64.190002,  -44.450001,  31.639999, 0.000000,  0.000000 
 7640576.000000, 8.104490 , 3.706482, 5.376673, 3200388864.000000, 64.400002,  -53.130001,  13.860000, 0.000000,  0.000000 
 7660544.000000, 7.702496 , 2.940779, 2.490928, 3200408832.000000, 89.739998,  -70.699997,  -14.980000, 0.000000,  0.000000 
 7681536.000000, 7.350751 , 1.529014, 2.450250, 3200428800.000000, 96.250000,  -77.070000,  -57.959999, 0.000000,  0.000000 
 7700480.000000, 5.331209 , -1.871187, 5.467600, 3200449792.000000, 36.540001,  -64.610001,  -94.290001, 0.000000,  0.000000 
 7720448.000000, 3.041277 , -9.107083, 12.418750, 3200468736.000000, -58.660000,  -42.349998,  -137.619995, 0.000000,  0.000000 
 7740928.000000, 0.370888 , -21.150160, 20.614168, 3200488704.000000, -97.440002,  -22.680000,  -162.330002, 0.000000,  0.000000 
 7760896.000000, -4.400401 , -22.619350, 20.252851, 3200508672.000000, 27.719999,  -31.850000,  -157.360001, 0.000000,  0.000000 
 7782400.000000, -2.579463 , -19.566111, 17.721243, 3200528640.000000, 192.639999,  -84.209999,  -207.970001, 0.000000,  0.000000 
 7800832.000000, -3.292524 , -16.843079, 15.888342, 3200550144.000000, 217.000000,  -145.600006,  -181.369995, 0.000000,  0.000000 
 7821824.000000, -2.890530 , -12.801601, 12.490535, 3200568576.000000, 168.139999,  -202.860001,  -195.930008, 0.000000,  0.000000 
 7841280.000000, -1.588834 , -9.839286, 10.908878, 3200589568.000000, 147.210007,  -244.720001,  -199.919998, 0.000000,  0.000000 
 7861248.000000, -1.545763 , -9.655040, 10.621738, 3200609536.000000, 105.000000,  -262.149994,  -189.210007, 0.000000,  0.000000 
 7882240.000000, -1.442872 , -10.810772, 11.533404, 3200629504.000000, 38.709999,  -259.489990,  -198.100006, 0.000000,  0.000000 
 7901184.000000, -1.940579 , -10.119246, 11.923435, 3200650496.000000, -21.840000,  -248.639999,  -198.309998, 0.000000,  0.000000 
 7921664.000000, -1.785046 , -8.465806, 10.901700, 3200669440.000000, -45.150002,  -234.220001,  -209.160004, 0.000000,  0.000000 
 7941632.000000, -2.598605 , -6.513263, 9.274581, 3200689920.000000, -45.290001,  -212.169998,  -216.930008, 0.000000,  0.000000 
 7961600.000000, -4.292724 , -4.642076, 7.281359, 3200709888.000000, -61.250000,  -180.460007,  -225.889999, 0.000000,  0.000000 
 7982592.000000, -5.261817 , -2.828316, 5.783452, 3200729856.000000, -93.660004,  -143.779999,  -230.089996, 0.000000,  0.000000 
 8002048.000000, -6.955935 , -1.110270, 4.433900, 3200750848.000000, -118.440002,  -105.910004,  -218.190002, 0.000000,  0.000000 
 8022016.000000, -7.219146 , 0.385244, 2.885744, 3200769792.000000, -119.980003,  -62.369999,  -204.539993, 0.000000,  0.000000 
 8041984.000000, -6.697510 , 1.887937, 2.273181, 3200790272.000000, -100.379997,  -10.360000,  -190.470001, 0.000000,  0.000000 
 8061952.000000, -7.008578 , 2.864209, 1.550549, 3200810240.000000, -74.129997,  41.720001,  -171.919998, 0.000000,  0.000000 
 8084992.000000, -7.728817 , 3.256632, 1.050449, 3200830208.000000, -40.320000,  87.849998,  -153.789993, 0.000000,  0.000000 
 8101888.000000, -6.223732 , 5.379066, 1.672583, 3200853248.000000, -8.540000,  127.120003,  -124.599998, 0.000000,  0.000000 
 8121856.000000, -3.778267 , 5.467600, 0.918844, 3200870144.000000, 30.450001,  151.830002,  -58.450001, 0.000000,  0.000000 
 8143360.000000, -4.575077 , 6.309873, 1.294517, 3200890112.000000, 70.349998,  177.449997,  12.530000, 0.000000,  0.000000 
 8163328.000000, -3.749553 , 8.432307, 0.497707, 3200911104.000000, 47.180000,  207.970001,  56.560001, 0.000000,  0.000000 
 8184320.000000, -3.012564 , 7.389036, 0.904487, 3200931072.000000, -38.080002,  234.290009,  129.430008, 0.000000,  0.000000 
 8203264.000000, -7.015756 , 2.438286, 5.915058, 3200952064.000000, -207.270004,  258.440002,  153.020004, 0.000000,  0.000000 
 8223232.000000, -12.105289 , -6.367301, 14.029119, 3200971008.000000, -370.089996,  276.850006,  180.180008, 0.000000,  0.000000 
 8243200.000000, -15.024533 , -21.332014, 20.946770, 3200991488.000000, -391.230011,  266.420013,  223.369995, 0.000000,  0.000000 
 8263168.000000, -12.306287 , -18.116060, 24.358932, 3201010944.000000, -233.100006,  235.339996,  231.279999, 0.000000,  0.000000 
 8284160.000000, -9.265009 , -14.084153, 21.930218, 3201030912.000000, -40.740002,  169.539993,  228.619995, 0.000000,  0.000000 
 8303104.000000, -9.798609 , -13.320844, 18.953548, 3201051904.000000, 22.120001,  151.830002,  189.070007, 0.000000,  0.000000 
 8323072.000000, -5.814559 , -8.549555, 15.247066, 3201091328.000000, -6.860000,  114.870003,  97.370003, 0.000000,  0.000000 
 8343040.000000, -4.677969 , -5.541777, 13.342380, 0.000000, 0.000000,  0.000000,  0.000000, 0.000000,  0.000000 
 8363008.000000, -6.317052 , -6.360123, 13.107882, 3201111296.000000, -27.860001,  103.459999,  74.269997, 0.000000,  0.000000 
 8384000.000000, -7.389036 , -7.621140, 12.880564, 3201131264.000000, -32.060001,  92.260002,  69.860001, 0.000000,  0.000000 
 8402944.000000, -7.159326 , -8.599805, 11.289338, 3201152256.000000, -24.290001,  70.000000,  93.519997, 5463561728.000000,  1005.890930 
 8422912.000000, -4.570292 , -8.489735, 10.593026, 3201171200.000000, -27.510000,  48.439999,  121.169998, 0.000000,  0.000000 
 8442880.000000, -1.962115 , -8.788837, 9.779467, 3201191168.000000, -69.860001,  33.950001,  148.470001, 0.000000,  0.000000 
 8462848.000000, 0.696311 , -8.592626, 10.604989, 3201211136.000000, -140.350006,  23.030001,  132.930008, 0.000000,  0.000000 
 8483840.000000, 2.127219 , -7.250252, 11.241481, 3201231104.000000, -186.759995,  14.140000,  96.529999, 0.000000,  0.000000 
 8502784.000000, 2.084148 , -5.467600, 9.887143, 3201252096.000000, -140.910004,  2.660000,  60.340000, 0.000000,  0.000000 
 8523264.000000, 2.754139 , -3.572484, 9.111869, 3201271040.000000, -38.220001,  -10.500000,  24.570000, 0.000000,  0.000000 
 8542720.000000, 3.613162 , -2.021935, 9.200402, 3201291008.000000, 33.740002,  -24.290001,  7.910000, 0.000000,  0.000000 
 8562688.000000, 4.259224 , -1.368695, 8.611769, 3201310976.000000, 61.950001,  -43.189999,  -0.350000, 0.000000,  0.000000 
 8583680.000000, 4.752146 , -0.526421, 6.683154, 3201330944.000000, 78.330002,  -58.590000,  -8.540000, 0.000000,  0.000000 
 8603136.000000, 5.702096 , 1.808974, 5.175675, 3201351936.000000, 93.169998,  -66.989998,  -11.690000, 0.000000,  0.000000 
 8623104.000000, 5.874380 , 2.062613, 6.226124, 3201370880.000000, 89.669998,  -69.160004,  -7.280000, 0.000000,  0.000000 
 8643072.000000, 4.677969 , -0.952343, 7.104291, 3201390848.000000, 69.370003,  -56.560001,  -17.080000, 0.000000,  0.000000 
 8663040.000000, 2.632105 , -6.039484, 11.621940, 3201410816.000000, -18.969999,  -38.990002,  -67.900002, 0.000000,  0.000000 
 8684032.000000, 0.679562 , -17.938992, 15.763916, 3201430784.000000, -114.730003,  -31.920000,  -120.050003, 0.000000,  0.000000 
 8702976.000000, -4.333402 , -24.212973, 21.348764, 3201451776.000000, -76.019997,  -39.830002,  -182.630005, 0.000000,  0.000000 
 8722944.000000, -6.963113 , -18.061026, 18.654444, 3201470720.000000, 51.520000,  -52.430000,  -253.190002, 0.000000,  0.000000 
 8742912.000000, -6.252446 , -15.926627, 15.900306, 3201490688.000000, 212.449997,  -102.340004,  -251.860001, 0.000000,  0.000000 
 8762880.000000, -4.919643 , -17.603996, 15.751952, 3201510656.000000, 159.460007,  -188.509995,  -254.169998, 0.000000,  0.000000 
 8783872.000000, -5.180461 , -16.031912, 14.062619, 3201530624.000000, 58.029999,  -232.889999,  -293.230011, 0.000000,  0.000000 
 8802816.000000, -6.061020 , -13.012171, 12.330215, 3201551616.000000, 69.720001,  -235.619995,  -301.140015, 0.000000,  0.000000 
 8822784.000000, -7.389036 , -10.336994, 12.007183, 3201570560.000000, 124.040001,  -221.899994,  -284.410004, 0.000000,  0.000000 
 8842752.000000, -10.236496 , -8.360522, 11.370694, 3201590528.000000, 137.899994,  -194.389999,  -250.949997, 0.000000,  0.000000 
 8862720.000000, -12.557532 , -6.293124, 6.668797, 3201611008.000000, 126.559998,  -150.009995,  -203.559998, 0.000000,  0.000000 
 8883712.000000, -12.177074 , -3.515057, 1.715654, 3201630976.000000, 102.550003,  -110.879997,  -144.970001, 0.000000,  0.000000 
 8902656.000000, -11.076375 , -1.328017, -2.031506, 3201651456.000000, 52.709999,  -67.059998,  -74.059998, 0.000000,  0.000000 
 8922624.000000, -10.791630 , -0.550349, -2.935993, 3201670912.000000, -24.430000,  -14.490000,  -23.030001, 0.000000,  0.000000 
 8942592.000000, -10.482956 , -0.047856, -0.981057, 3201690880.000000, -110.040001,  55.930000,  -22.680000, 0.000000,  0.000000 
 8962560.000000, -11.825329 , 1.631905, 2.337788, 3201710848.000000, -170.940002,  110.110001,  -45.570000, 0.000000,  0.000000 
 8983552.000000, -13.129417 , 2.708675, 2.761317, 3201730816.000000, -181.440002,  142.940002,  -45.220001, 0.000000,  0.000000 
 9002496.000000, -10.217353 , 2.979064, 0.399601, 3201751808.000000, -123.760002,  163.100006,  -17.639999, 0.000000,  0.000000 
 9022464.000000, -6.118448 , 2.112862, -2.132005, 3201770752.000000, -34.020000,  132.089996,  19.040001, 0.000000,  0.000000 
 9042432.000000, -3.778267 , 2.995814, -1.600798, 3201790720.000000, 46.410000,  93.099998,  38.639999, 0.000000,  0.000000 
 9062400.000000, -3.251846 , 4.773681, 0.607777, 3201810688.000000, 67.129997,  95.970001,  78.680000, 0.000000,  0.000000 
 9085440.000000, -4.986642 , 2.837888, 4.553542, 3201830656.000000, 24.360001,  129.009995,  144.410004, 0.000000,  0.000000 
 9102848.000000, -11.239087 , -2.945565, 13.339987, 3201853696.000000, -31.639999,  181.649994,  191.449997, 0.000000,  0.000000 
 9122816.000000, -19.520647 , -14.718252, 23.736801, 3201870592.000000, -91.910004,  217.000000,  215.529999, 0.000000,  0.000000 
 9142784.000000, -13.976478 , -23.260630, 28.761730, 3201890560.000000, -110.739998,  207.830002,  239.470001, 0.000000,  0.000000 
 9162752.000000, -8.449057 , -19.046867, 24.756144, 3201910528.000000, -146.509995,  164.080002,  241.360001, 0.000000,  0.000000 
 9183232.000000, -6.099305 , -15.201601, 20.530416, 3201930496.000000, -159.529999,  92.470001,  223.160004, 0.000000,  0.000000 
 9202688.000000, -0.803988 , -11.767902, 20.824736, 3201951488.000000, -176.750000,  53.549999,  148.539993, 0.000000,  0.000000 
 9222656.000000, 2.720639 , -8.504091, 18.905691, 3201970432.000000, -154.559998,  38.779999,  122.220001, 0.000000,  0.000000 
 9242624.000000, 2.486143 , -7.104291, 13.945370, 3201990400.000000, -80.430000,  20.299999,  112.419998, 0.000000,  0.000000 
 9262592.000000, 2.801995 , -7.578069, 9.245867, 3202030336.000000, -6.720000,  -3.500000,  56.139999, 0.000000,  0.000000 
 9283584.000000, 4.455436 , -7.786245, 6.666404, 0.000000, 0.000000,  0.000000,  0.000000, 0.000000,  0.000000 
 9302528.000000, 5.764310 , -5.764310, 5.161318, 3202051328.000000, -9.450000,  -19.809999,  44.380001, 0.000000,  0.000000 
 9322496.000000, 6.439085 , -4.433900, 6.116055, 3202070272.000000, -25.620001,  -30.450001,  26.180000, 0.000000,  0.000000 
 9342464.000000, 7.640282 , -1.246661, 6.855437, 3202090752.000000, -23.799999,  -34.580002,  2.100000, 0.000000,  0.000000 
 9362432.000000, 8.025528 , 1.318445, 7.295716, 3202110720.000000, -17.430000,  -41.720001,  -19.670000, 0.000000,  0.000000 
 9383424.000000, 7.958528 , 3.591627, 6.056234, 3202130688.000000, 19.809999,  -60.130001,  -56.000000, 0.000000,  0.000000 
 9402368.000000, 6.843473 , 3.239882, 4.735396, 3202151168.000000, 65.590004,  -79.519997,  -100.870003, 5464561152.000000,  1005.868591 
 9422336.000000, 4.522435 , 0.550349, 4.778467, 3202170624.000000, 72.590004,  -97.650002,  -133.979996, 0.000000,  0.000000 
 9442304.000000, 4.500899 , -4.331009, 9.509077, 3202190592.000000, -11.690000,  -103.809998,  -157.430008, 0.000000,  0.000000 
 9462272.000000, 4.110869 , -13.744373, 15.134604, 3202210560.000000, -105.209999,  -112.349998,  -173.250000, 0.000000,  0.000000 
 9483264.000000, 1.928615 , -22.569103, 18.415163, 3202230528.000000, -123.480003,  -107.520004,  -196.000000, 0.000000,  0.000000 
 9502208.000000, -2.280360 , -24.870996, 16.912472, 3202251520.000000, -93.449997,  -110.809998,  -215.740005, 0.000000,  0.000000 
 9522176.000000, -5.271388 , -20.075783, 13.555340, 3202270464.000000, 47.950001,  -123.550003,  -241.360001, 0.000000,  0.000000 
 9542144.000000, -4.862216 , -13.990833, 9.669396, 3202290432.000000, 148.750000,  -153.930008,  -238.139999, 0.000000,  0.000000 
 9562112.000000, -2.313859 , -10.054641, 7.563712, 3202310400.000000, 160.930008,  -184.380005,  -210.910004, 0.000000,  0.000000 
 9583104.000000, -1.940579 , -7.712067, 7.080362, 3202330368.000000, 122.500000,  -187.320007,  -186.830002, 0.000000,  0.000000 
 9602560.000000, -4.194618 , -6.604190, 6.412765, 3202351360.000000, 65.940002,  -148.610001,  -174.930008, 0.000000,  0.000000 
 9622528.000000, -7.054041 , -5.362316, 2.311467, 3202370304.000000, 24.570000,  -67.129997,  -156.940002, 0.000000,  0.000000 
 9642496.000000, -7.683353 , -3.529413, 0.684347, 3202390272.000000, 0.630000,  2.870000,  -116.830002, 0.000000,  0.000000 
 9662464.000000, -6.996613 , -3.328416, 1.442872, 3202410240.000000, -34.299999,  47.529999,  -63.840000, 0.000000,  0.000000 
 9682944.000000, -8.183454 , -2.926422, 1.873580, 3202430208.000000, -84.489998,  83.720001,  -30.170000, 0.000000,  0.000000 
 9702400.000000, -8.968300 , -2.694318, 2.916851, 3202451200.000000, -165.899994,  126.910004,  -35.139999, 0.000000,  0.000000 
 9722368.000000, -8.047063 , -3.842873, 4.163511, 3202470144.000000, -212.309998,  149.520004,  -12.250000, 0.000000,  0.000000 
 9742336.000000, -7.680960 , -3.957729, 6.192625, 3202490112.000000, -185.710007,  148.050003,  18.129999, 0.000000,  0.000000 
 9762304.000000, -7.444071 , -1.849652, 5.831308, 3202510080.000000, -97.930000,  137.690002,  32.060001, 0.000000,  0.000000 
 9783296.000000, -5.673382 , 0.428315, 4.063013, 3202530048.000000, 22.400000,  110.320000,  54.880001, 0.000000,  0.000000 
 9802752.000000, -3.541377 , 1.538585, 2.311467, 3202551040.000000, 109.129997,  76.090004,  78.190002, 0.000000,  0.000000 
 9822208.000000, -2.962314 , 2.191825, 3.019742, 3202571008.000000, 124.599998,  59.290001,  94.779999, 0.000000,  0.000000 
 9842176.000000, -4.192225 , 0.823131, 3.809374, 3202590464.000000, 72.169998,  65.940002,  117.040001, 0.000000,  0.000000 
 9862144.000000, -6.539584 , -3.637090, 6.953543, 3202610432.000000, -14.770000,  87.290001,  154.070007, 0.000000,  0.000000 
 9883136.000000, -9.777073 , -10.219746, 13.256237, 3202630400.000000, -131.110001,  94.779999,  173.529999, 0.000000,  0.000000 
 9902080.000000, -12.516854 , -17.972490, 19.037296, 3202651392.000000, -222.389999,  91.910004,  172.550003, 0.000000,  0.000000 
 9922048.000000, -10.581062 , -18.783657, 18.525232, 3202670336.000000, -213.289993,  75.879997,  183.539993, 0.000000,  0.000000 
 9942016.000000, -6.314659 , -14.988641, 15.208780, 3202690304.000000, -100.800003,  35.700001,  192.289993, 0.000000,  0.000000 
 9962496.000000, -3.282953 , -11.511869, 13.763516, 3202710272.000000, 7.420000,  9.590000,  188.160004, 0.000000,  0.000000 
 9982976.000000, 0.055035 , -9.595219, 14.220546, 3202751232.000000, -22.049999,  24.920000,  159.110001, 0.000000,  0.000000 
 10002432.000000, 1.727618 , -10.277173, 14.995820, 0.000000, 0.000000,  0.000000,  0.000000, 0.000000,  0.000000 
 10022400.000000, 1.318445 , -11.832507, 14.057834, 3202770176.000000, -50.959999,  28.139999,  141.610001, 0.000000,  0.000000 
 10042880.000000, 1.337588 , -10.368099, 11.320443, 3202790144.000000, -45.990002,  21.490000,  113.050003, 0.000000,  0.000000 
 10062848.000000, 3.371487 , -8.023134, 9.446864, 3202811136.000000, -19.740000,  6.090000,  98.559998, 0.000000,  0.000000 
 10085888.000000, 6.044270 , -5.450850, 7.853244, 3202831104.000000, -3.360000,  -21.980000,  93.519997, 0.000000,  0.000000 
 10103296.000000, 8.800802 , -2.742175, 6.809973, 3202854144.000000, -4.200000,  -46.270000,  74.269997, 0.000000,  0.000000 
 10123264.000000, 9.635897 , 0.028714, 9.710074, 3202871040.000000, 21.070000,  -58.869999,  46.340000, 0.000000,  0.000000 
 10143232.000000, 7.022934 , 2.175076, 11.724831, 3202891008.000000, 79.449997,  -52.430000,  7.000000, 0.000000,  0.000000 
 10163200.000000, 4.682754 , 4.912465, 8.714661, 3202911488.000000, 121.660004,  -63.770000,  -61.740002, 0.000000,  0.000000 
 10184192.000000, 2.452643 , 3.416951, 12.382857, 3202931456.000000, 124.320000,  -101.150002,  -86.519997, 0.000000,  0.000000 
 10203648.000000, -0.421137 , -1.454836, 15.065211, 3202952448.000000, 114.590004,  -144.270004,  -69.790001, 0.000000,  0.000000 
 10223104.000000, -1.390230 , -10.576276, 15.905092, 3202971392.000000, -63.420002,  -224.419998,  -105.840004, 0.000000,  0.000000 
 10243584.000000, 1.562513 , -22.887350, 17.395821, 3202991360.000000, -273.000000,  -297.989990,  -141.889999, 0.000000,  0.000000 
 10263552.000000, -3.182454 , -24.246473, 14.053047, 3203011840.000000, -273.769989,  -334.110016,  -105.349998, 0.000000,  0.000000 
 10284544.000000, -5.209175 , -15.984055, 6.975078, 3203031808.000000, -92.120003,  -350.700012,  -171.850006, 0.000000,  0.000000 
 10303488.000000, -1.509871 , -10.731809, 4.390830, 3203052800.000000, 120.959999,  -337.049988,  -187.740005, 0.000000,  0.000000 
 10323456.000000, -1.837688 , -10.269995, 3.247060, 3203071744.000000, 124.110001,  -294.209991,  -161.419998, 0.000000,  0.000000 
 10343424.000000, -1.792224 , -9.626326, 1.957329, 3203091712.000000, 52.849998,  -234.080002,  -197.750000, 0.000000,  0.000000 
 10364928.000000, -1.689333 , -7.544570, 0.248854, 3203111680.000000, 31.219999,  -157.919998,  -203.979996, 0.000000,  0.000000 
 10385408.000000, -1.713261 , -5.060820, 0.459422, 3203153664.000000, 26.320000,  -0.350000,  -149.940002, 5465563136.000000,  1005.847656 
 10404864.000000, -2.562713 , -2.713461, 1.883151, 0.000000, 0.000000,  0.000000,  0.000000, 0.000000,  0.000000 
 10424832.000000, -4.608576 , -1.957329, 3.077170, 3203172608.000000, 21.700001,  69.580002,  -109.199997, 0.000000,  0.000000 
 10444800.000000, -7.460821 , -2.756532, 3.029313, 3203192576.000000, 24.360001,  126.000000,  -72.590004, 0.000000,  0.000000 
 10464768.000000, -8.149954 , -2.651247, 3.414558, 3203212544.000000, 24.360001,  174.160004,  -50.330002, 0.000000,  0.000000 
 10485760.000000, -7.798209 , -2.297110, 4.661219, 3203232512.000000, -47.459999,  208.389999,  -20.650000, 0.000000,  0.000000 
 10504704.000000, -8.633304 , -2.720639, 4.742575, 3203253504.000000, -61.670002,  224.979996,  16.590000, 0.000000,  0.000000 
 10524672.000000, -9.355937 , -1.713261, 5.663811, 3203272960.000000, -68.040001,  224.839996,  25.690001, 0.000000,  0.000000 
 10544640.000000, -7.049256 , -1.174876, 5.797810, 3203292416.000000, -105.209999,  212.029999,  33.740002, 0.000000,  0.000000 
 10564608.000000, -5.950950 , -1.619941, 4.618148, 3203312896.000000, -114.940002,  189.770004,  54.950001, 0.000000,  0.000000 
 10585600.000000, -5.793024 , -0.179462, 5.776274, 3203332864.000000, -90.860001,  172.899994,  54.459999, 0.000000,  0.000000 
 10604544.000000, -4.555934 , -0.028714, 6.936793, 3203353344.000000, -80.080002,  161.979996,  65.239998, 0.000000,  0.000000 
 10624512.000000, -4.522435 , -2.519642, 7.133004, 3203372800.000000, -46.619999,  158.130005,  108.220001, 0.000000,  0.000000 
 10644480.000000, -6.896115 , -4.953143, 10.652846, 3203392768.000000, -18.760000,  156.729996,  132.440002, 0.000000,  0.000000 
 10664448.000000, -9.879964 , -9.590433, 17.355143, 3203412736.000000, -51.240002,  161.979996,  151.339996, 0.000000,  0.000000 
 10685440.000000, -9.406186 , -14.935998, 21.133410, 3203432704.000000, -116.410004,  148.050003,  154.070007, 0.000000,  0.000000 
 10704384.000000, -7.152147 , -14.892928, 19.609182, 3203453696.000000, -118.230003,  116.340004,  149.589996, 0.000000,  0.000000 
 10724352.000000, -5.091926 , -10.880164, 17.017754, 3203472640.000000, -41.369999,  78.959999,  140.559998, 0.000000,  0.000000 
 10744320.000000, -5.051248 , -8.989835, 16.393229, 3203492608.000000, -0.980000,  53.760002,  132.580002, 0.000000,  0.000000 
 10764288.000000, -4.046263 , -10.571491, 16.436298, 3203512576.000000, -31.360001,  44.939999,  111.720001, 0.000000,  0.000000 
 10785280.000000, -2.660819 , -11.444871, 15.617953, 3203532544.000000, -44.939999,  39.689999,  105.910004, 0.000000,  0.000000 
 10804736.000000, -2.275574 , -10.736595, 13.253844, 3203553536.000000, -18.340000,  26.880001,  104.720001, 0.000000,  0.000000 
 10824192.000000, -1.363909 , -9.597611, 10.612168, 3203572480.000000, -0.700000,  9.450000,  96.879997, 0.000000,  0.000000 
 10844160.000000, 0.514457 , -8.169096, 8.367701, 3203592448.000000, -26.460001,  -10.710000,  84.070000, 0.000000,  0.000000 
 10864128.000000, 2.239682 , -6.108876, 6.946364, 3203612416.000000, -62.650002,  -27.510000,  72.379997, 0.000000,  0.000000 
 10885120.000000, 3.658626 , -3.543770, 6.754939, 3203632384.000000, -86.309998,  -36.259998,  54.040001, 0.000000,  0.000000 
 10904576.000000, 5.115855 , -1.806581, 6.245267, 3203653376.000000, -86.379997,  -43.750000,  35.070000, 0.000000,  0.000000 
 10924544.000000, 6.364908 , -0.593420, 6.202196, 3203672320.000000, -56.000000,  -49.209999,  17.219999, 0.000000,  0.000000 
 10944512.000000, 6.821937 , 1.428515, 6.431907, 3203692288.000000, -13.650000,  -51.029999,  -6.090000, 0.000000,  0.000000 
 10964480.000000, 6.994221 , 2.297110, 6.077770, 3203712256.000000, 37.099998,  -54.950001,  -32.410000, 0.000000,  0.000000 
 10985472.000000, 5.400600 , 1.012164, 4.613362, 3203732224.000000, 110.949997,  -62.930000,  -53.130001, 0.000000,  0.000000 
 11004416.000000, 4.027121 , -1.450050, 5.692525, 3203753216.000000, 139.160004,  -60.410000,  -90.720001, 0.000000,  0.000000 
 11024384.000000, 3.242275 , -6.104091, 10.719845, 3203772160.000000, 87.639999,  -49.840000,  -119.840004, 0.000000,  0.000000 
 11044352.000000, 1.954936 , -12.933208, 15.412170, 3203792128.000000, 39.270000,  -47.459999,  -143.570007, 0.000000,  0.000000 
 11064320.000000, -0.248854 , -16.692331, 17.477177, 3203812096.000000, 60.549999,  -65.590004,  -170.729996, 0.000000,  0.000000 
 11087360.000000, -1.835295 , -17.312071, 16.352549, 3203832064.000000, 132.930008,  -100.029999,  -187.949997, 0.000000,  0.000000 
 11104256.000000, -1.993221 , -16.130018, 15.534204, 3203855104.000000, 143.009995,  -145.669998,  -208.320007, 0.000000,  0.000000 
 11124224.000000, -2.687140 , -13.141381, 13.103097, 3203872512.000000, 96.389999,  -183.330002,  -210.839996, 0.000000,  0.000000 
 11144192.000000, -2.043471 , -9.789038, 10.116854, 3203892480.000000, 90.160004,  -211.470001,  -217.000000, 0.000000,  0.000000 
 11164160.000000, -1.172483 , -7.601997, 8.382057, 3203912448.000000, 96.389999,  -224.770004,  -201.809998, 0.000000,  0.000000 
 11185152.000000, -1.232304 , -6.742974, 7.927422, 3203932416.000000, 72.029999,  -213.779999,  -180.110001, 0.000000,  0.000000 
 11204096.000000, -2.857030 , -5.541777, 8.317451, 3203952896.000000, 24.010000,  -181.089996,  -165.410004, 0.000000,  0.000000 
 11224064.000000, -4.668397 , -4.019942, 6.202196, 3203972352.000000, 0.420000,  -125.160004,  -136.009995, 0.000000,  0.000000 
 11244032.000000, -6.675975 , -2.543570, 3.661019, 3203992320.000000, 5.530000,  -72.309998,  -86.800003, 0.000000,  0.000000 
 11264000.000000, -8.456236 , -0.500100, 2.871387, 3204012288.000000, -14.140000,  -15.960000,  -60.060001, 0.000000,  0.000000 
 11284992.000000, -9.164511 , -0.232104, 1.526621, 3204032256.000000, -40.459999,  34.509998,  -15.820000, 0.000000,  0.000000 
 11303936.000000, -7.518249 , -0.217747, 1.201197, 3204053248.000000, -64.680000,  83.370003,  12.460000, 0.000000,  0.000000 
 11323904.000000, -7.312466 , 0.253639, 1.069592, 3204072192.000000, -92.190002,  123.690002,  37.660000, 0.000000,  0.000000 
 11343872.000000, -7.994420 , 1.105484, 2.543570, 3204092160.000000, -113.889999,  154.770004,  53.410000, 0.000000,  0.000000 
 11363840.000000, -6.912865 , 0.452243, 3.912265, 3204112128.000000, -131.529999,  167.020004,  63.420002, 0.000000,  0.000000 
 11384832.000000, -6.494121 , -0.425922, 2.818745, 3204132096.000000, -90.160004,  163.800003,  96.599998, 0.000000,  0.000000 
 11404288.000000, -6.381658 , -0.033500, 2.529213, 3204153088.000000, 1.330000,  155.330002,  126.139999, 5466562560.000000,  1005.820862 
 11424256.000000, -7.836494 , -1.093520, 5.934200, 3204172032.000000, 27.930000,  157.850006,  158.550003, 0.000000,  0.000000 
 11444224.000000, -9.760324 , -5.702096, 8.965906, 3204192000.000000, -39.200001,  166.250000,  186.479996, 0.000000,  0.000000 
 11464192.000000, -10.128819 , -11.143374, 14.268401, 3204211968.000000, -101.360001,  157.710007,  194.250000, 0.000000,  0.000000 
 11485184.000000, -11.325230 , -15.601204, 19.111473, 3204231936.000000, -94.919998,  140.490005,  212.940002, 0.000000,  0.000000 
 11504128.000000, -9.923036 , -15.476776, 18.941584, 3204252928.000000, -70.559998,  116.340004,  196.979996, 0.000000,  0.000000 
 11524096.000000, -7.451250 , -12.825529, 16.273586, 3204271872.000000, -43.470001,  89.320000,  178.710007, 0.000000,  0.000000 
 11544064.000000, -5.761917 , -10.449455, 15.129817, 3204291840.000000, -32.480000,  65.730003,  157.919998, 0.000000,  0.000000 
 11564032.000000, -4.515256 , -10.176675, 14.153545, 3204311808.000000, -54.389999,  51.939999,  134.119995, 0.000000,  0.000000 
 11585024.000000, -3.141776 , -10.356135, 13.780266, 3204331776.000000, -73.779999,  51.799999,  119.699997, 0.000000,  0.000000 
 11603968.000000, -1.957329 , -10.906486, 13.438091, 3204352768.000000, -77.699997,  55.299999,  112.209999, 0.000000,  0.000000 
 11623936.000000, -1.588834 , -10.774881, 12.366108, 3204372224.000000, -58.730000,  53.619999,  99.190002, 0.000000,  0.000000 
 11643904.000000, -0.440279 , -9.547362, 10.518847, 3204392192.000000, -43.330002,  43.259998,  74.970001, 0.000000,  0.000000 
 11663872.000000, 1.414158 , -7.525427, 9.104690, 3204412160.000000, -36.049999,  31.150000,  53.830002, 0.000000,  0.000000 
 11684864.000000, 2.809174 , -5.343173, 8.724231, 3204432128.000000, -34.720001,  21.139999,  36.540001, 0.000000,  0.000000 
 11703808.000000, 3.929015 , -3.175276, 7.819745, 3204453120.000000, -34.650002,  15.960000,  17.780001, 0.000000,  0.000000 
 11723776.000000, 5.649454 , -1.289732, 7.302894, 3204472064.000000, -23.940001,  4.340000,  8.890000, 0.000000,  0.000000 
 11743744.000000, 6.855437 , 0.631705, 8.315059, 3204492032.000000, 4.620000,  -11.970000,  -7.000000, 0.000000,  0.000000 
 11763712.000000, 6.869793 , 1.258625, 8.185846, 3204512000.000000, 38.009998,  -33.320000,  -25.900000, 0.000000,  0.000000 
 11784704.000000, 6.326623 , 0.928415, 3.527020, 3204531968.000000, 81.970001,  -62.090000,  -52.080002, 0.000000,  0.000000 
 11803648.000000, 5.745167 , 0.641276, 2.892922, 3204552960.000000, 129.990005,  -85.330002,  -80.709999, 0.000000,  0.000000 
 11823616.000000, 3.627519 , -0.847059, 4.699504, 3204571904.000000, 121.800003,  -90.440002,  -104.720001, 0.000000,  0.000000 
 11843584.000000, 1.627119 , -5.603990, 8.640482, 3204591872.000000, 41.580002,  -80.709999,  -126.910004, 0.000000,  0.000000 
 11864064.000000, -0.488136 , -13.074384, 14.510076, 3204611840.000000, -37.380001,  -68.809998,  -152.600006, 0.000000,  0.000000 
 11884544.000000, -2.409572 , -18.113668, 18.010777, 3204631808.000000, -51.099998,  -74.690002,  -192.009995, 0.000000,  0.000000 
 11904000.000000, -4.132405 , -19.144974, 16.699509, 3204652800.000000, 21.770000,  -101.500000,  -203.070007, 0.000000,  0.000000 
 11923968.000000, -5.630312 , -17.620745, 14.395222, 3204671744.000000, 92.330002,  -141.750000,  -212.449997, 0.000000,  0.000000 
 11943936.000000, -5.620740 , -12.703495, 9.911072, 3204711680.000000, 130.199997,  -191.869995,  -202.580002, 0.000000,  0.000000 
 11963904.000000, -3.524628 , -7.872386, 7.312466, 0.000000, 0.000000,  0.000000,  0.000000, 0.000000,  0.000000 
 11984896.000000, -3.278167 , -5.714060, 7.020542, 3204731648.000000, 135.169998,  -197.750000,  -177.520004, 0.000000,  0.000000 
 12003840.000000, -6.051448 , -6.092126, 7.195218, 3204752640.000000, 72.660004,  -175.979996,  -167.089996, 0.000000,  0.000000 
 12023808.000000, -7.927422 , -5.544170, 5.965307, 3204771584.000000, 15.400000,  -124.529999,  -160.160004, 0.000000,  0.000000 
 12043776.000000, -7.506285 , -3.093920, 5.194818, 3204791552.000000, -2.520000,  -64.260002,  -129.990005, 0.000000,  0.000000 
 12063744.000000, -8.128418 , -0.815953, 4.441079, 3204811520.000000, -8.260000,  -3.780000,  -80.849998, 0.000000,  0.000000 
 12086784.000000, -8.149954 , -0.586242, 2.768496, 3204831488.000000, -27.440001,  52.570000,  -46.759998, 0.000000,  0.000000 
 12103680.000000, -7.101898 , -0.543171, 2.529213, 3204854528.000000, -39.060001,  98.629997,  -15.330000, 0.000000,  0.000000 
 12123648.000000, -7.348359 , 0.239282, 2.897708, 3204871936.000000, -55.510002,  133.070007,  21.490000, 0.000000,  0.000000 
 12143616.000000, -7.300502 , 0.629312, 3.153740, 3204891904.000000, -70.419998,  155.610001,  55.230000, 0.000000,  0.000000 
 12163584.000000, -6.216553 , 0.318245, 3.359523, 3204911872.000000, -80.989998,  157.500000,  84.629997, 0.000000,  0.000000 
 12184576.000000, -5.752346 , -0.124427, 3.950550, 3204931840.000000, -77.769997,  143.149994,  109.550003, 0.000000,  0.000000 
 12203520.000000, -6.853044 , -1.052842, 4.378866, 3204952832.000000, -56.209999,  127.610001,  133.350006, 0.000000,  0.000000 
 12223488.000000, -7.331609 , -2.964707, 5.986843, 3204971776.000000, -48.020000,  114.239998,  152.389999, 0.000000,  0.000000 
 12243456.000000, -8.166703 , -6.273981, 9.042477, 3204991744.000000, -76.790001,  102.269997,  172.059998, 0.000000,  0.000000 
 12263424.000000, -9.659825 , -10.415956, 12.538391, 3205011712.000000, -100.519997,  84.279999,  183.960007, 0.000000,  0.000000 
 12284416.000000, -9.731609 , -13.555340, 15.022141, 3205031680.000000, -99.959999,  60.060001,  178.639999, 0.000000,  0.000000 
 12303360.000000, -9.394222 , -14.127225, 14.859427, 3205052672.000000, -79.800003,  37.799999,  175.630005, 0.000000,  0.000000 
 12323328.000000, -8.195417 , -13.129417, 14.065011, 3205071616.000000, -56.209999,  12.950000,  156.800003, 0.000000,  0.000000 
 12343808.000000, -6.697510 , -11.370694, 13.990833, 3205091584.000000, -58.029999,  -9.940000,  130.550003, 0.000000,  0.000000 
 12363776.000000, -4.807181 , -10.456635, 13.205987, 3205111552.000000, -74.480003,  -24.500000,  110.040001, 0.000000,  0.000000 
 12384256.000000, -2.285146 , -9.303294, 12.504892, 3205152512.000000, -29.960001,  -24.150000,  94.430000, 5467561984.000000,  1005.795776 
 12403712.000000, -0.485743 , -8.405986, 11.794223, 0.000000, 0.000000,  0.000000,  0.000000, 0.000000,  0.000000 
 12423680.000000, -0.356531 , -8.056634, 10.664811, 3205171456.000000, 5.110000,  -21.000000,  94.919998, 0.000000,  0.000000 
 12443648.000000, -0.361316 , -7.233503, 9.336794, 3205191424.000000, 13.230000,  -20.230000,  81.970001, 0.000000,  0.000000 
 12463616.000000, 0.837488 , -6.300302, 7.630712, 3205211392.000000, 2.380000,  -23.450001,  70.559998, 0.000000,  0.000000 
 12484608.000000, 1.909473 , -5.249853, 6.417551, 3205231360.000000, -16.590000,  -28.910000,  67.900002, 0.000000,  0.000000 
 12503552.000000, 2.344966 , -3.598805, 5.630312, 3205252352.000000, -41.160000,  -30.100000,  59.779999, 0.000000,  0.000000 
 12523520.000000, 2.878566 , -1.514657, 4.555934, 3205271296.000000, -57.959999,  -29.120001,  45.639999, 0.000000,  0.000000 
 12543488.000000, 3.512664 , -0.196211, 3.704089, 3205291264.000000, -70.559998,  -31.639999,  32.200001, 0.000000,  0.000000 
 12563456.000000, 3.043670 , -0.040678, 4.168297, 3205311232.000000, -85.260002,  -34.930000,  16.660000, 0.000000,  0.000000 
 12584448.000000, 1.864009 , -0.734596, 5.300103, 3205331712.000000, -95.410004,  -34.439999,  -12.460000, 0.000000,  0.000000 
 12603392.000000, 1.294517 , -2.007578, 6.283553, 3205352192.000000, -70.279999,  -30.170000,  -34.439999, 0.000000,  0.000000 
 12623360.000000, -0.035892 , -3.845266, 7.563712, 3205371648.000000, -15.260000,  -21.629999,  -47.880001, 0.000000,  0.000000 
 12643328.000000, -1.749153 , -7.200003, 9.834501, 3205391616.000000, 10.360000,  -5.740000,  -61.950001, 0.000000,  0.000000 
 12663296.000000, -3.436093 , -10.633704, 12.787244, 3205411584.000000, -1.050000,  -4.690000,  -83.790001, 0.000000,  0.000000 
 12684288.000000, -4.165904 , -12.823137, 13.682159, 3205431552.000000, -4.270000,  -18.480000,  -98.699997, 0.000000,  0.000000 
 12703232.000000, -4.122833 , -12.397215, 12.160326, 3205452544.000000, 13.300000,  -43.049999,  -110.180000, 0.000000,  0.000000 
 12723200.000000, -3.787838 , -10.119246, 10.650455, 3205471488.000000, 24.780001,  -69.580002,  -115.290001, 0.000000,  0.000000 
 12743168.000000, -2.847459 , -6.951149, 9.327222, 3205491456.000000, 39.480000,  -91.209999,  -120.050003, 0.000000,  0.000000 
 12763136.000000, -2.285146 , -4.156333, 8.662018, 3205511424.000000, 60.830002,  -104.440002,  -118.020004, 0.000000,  0.000000 
 12784128.000000, -2.098505 , -3.622734, 7.776673, 3205531392.000000, 67.199997,  -107.099998,  -113.750000, 0.000000,  0.000000 
 12803072.000000, -1.581656 , -4.405186, 7.195218, 3205552384.000000, 58.590000,  -107.309998,  -112.419998, 0.000000,  0.000000 
 12823040.000000, -2.488536 , -3.251846, 7.812566, 3205571328.000000, 57.820000,  -100.940002,  -110.529999, 0.000000,  0.000000 
 12843520.000000, -2.005185 , -2.670390, 7.369894, 3205591296.000000, 61.740002,  -100.379997,  -110.250000, 0.000000,  0.000000 
 12863488.000000, -1.543371 , -2.605784, 6.369694, 3205611264.000000, 82.599998,  -102.199997,  -85.610001, 0.000000,  0.000000 
 12883968.000000, -1.670190 , -2.524428, 5.469993, 3205631232.000000, 96.879997,  -103.739998,  -67.620003, 0.000000,  0.000000 
 12903424.000000, -1.995614 , -2.610569, 5.099105, 3205652224.000000, 95.059998,  -100.309998,  -48.720001, 0.000000,  0.000000 
 12923392.000000, -2.438286 , -3.134598, 5.350351, 3205671168.000000, 56.840000,  -93.309998,  -34.090000, 0.000000,  0.000000 
 12943360.000000, -2.512464 , -3.818945, 5.120641, 3205691136.000000, 3.150000,  -82.879997,  -24.430000, 0.000000,  0.000000 
 12963328.000000, -2.361716 , -4.211368, 4.843073, 3205711104.000000, -24.850000,  -71.889999,  -15.260000, 0.000000,  0.000000 
 12984320.000000, -2.134398 , -3.955336, 5.340781, 3205731072.000000, -34.509998,  -58.029999,  -7.140000, 0.000000,  0.000000 
 13003264.000000, -1.799403 , -4.103691, 5.991628, 3205752064.000000, -40.740002,  -38.570000,  3.080000, 0.000000,  0.000000 
 13023232.000000, -1.304088 , -4.816752, 6.369694, 3205771008.000000, -30.240000,  -16.100000,  17.430000, 0.000000,  0.000000 
 13043200.000000, -1.356731 , -5.955735, 6.979864, 3205790976.000000, -3.990000,  6.440000,  35.700001, 0.000000,  0.000000 
 13063168.000000, -2.706282 , -6.300302, 8.260024, 3205810944.000000, 25.059999,  31.710001,  59.360001, 0.000000,  0.000000 
 13086208.000000, -3.763910 , -6.008378, 8.513663, 3205831424.000000, 37.869999,  61.040001,  81.900002, 0.000000,  0.000000 
 13103104.000000, -3.349952 , -6.704689, 9.518648, 3205853952.000000, 39.830002,  77.559998,  106.260002, 0.000000,  0.000000 
 13123072.000000, -4.218546 , -7.774280, 11.124231, 3205871360.000000, 28.280001,  90.510002,  129.430008, 0.000000,  0.000000 
 13143040.000000, -5.474778 , -8.221739, 11.229517, 3205911296.000000, -27.160000,  100.870003,  147.350006, 0.000000,  0.000000 
 13163008.000000, -4.232903 , -7.963314, 10.624132, 0.000000, 0.000000,  0.000000,  0.000000, 0.000000,  0.000000 
 13184000.000000, -2.560320 , -7.348359, 9.982857, 3205931264.000000, -64.959999,  93.730003,  155.680008, 0.000000,  0.000000 
 13202944.000000, -2.512464 , -6.955935, 10.045070, 3205952256.000000, -112.419998,  83.440002,  150.009995, 0.000000,  0.000000 
 13222912.000000, -2.811567 , -6.161518, 10.533205, 3205971200.000000, -154.070007,  73.779999,  129.149994, 0.000000,  0.000000 
 13242880.000000, -2.048256 , -5.539384, 9.712467, 3205991168.000000, -149.660004,  64.190002,  117.529999, 0.000000,  0.000000 
 13262848.000000, -1.418944 , -4.883751, 8.803195, 3206011136.000000, -89.529999,  55.580002,  117.879997, 0.000000,  0.000000 
 13283840.000000, -1.899901 , -3.852444, 7.917850, 3206031104.000000, -17.990000,  49.700001,  122.080002, 0.000000,  0.000000 
 13302784.000000, -1.964507 , -3.383451, 6.908078, 3206052096.000000, 29.260000,  44.730000,  125.580002, 0.000000,  0.000000 
 13323264.000000, -1.428515 , -3.292524, 6.400801, 3206071040.000000, 38.290001,  37.660000,  130.619995, 0.000000,  0.000000 
 13343232.000000, -1.466800 , -3.225525, 6.520442, 3206091008.000000, 18.480000,  29.049999,  133.070007, 0.000000,  0.000000 
 13363200.000000, -2.105684 , -3.541377, 6.403193, 3206110976.000000, -14.840000,  18.760000,  127.540001, 0.000000,  0.000000 
 13384192.000000, -1.509871 , -3.967300, 6.489335, 3206151936.000000, -70.699997,  -7.910000,  104.230003, 5468561408.000000,  1005.768921 
 13403136.000000, -1.447658 , -4.225725, 6.448657, 0.000000, 0.000000,  0.000000,  0.000000, 0.000000,  0.000000 
 13423104.000000, -1.861616 , -4.441079, 6.599405, 3206170880.000000, -70.629997,  -21.559999,  94.779999, 0.000000,  0.000000 
 13443072.000000, -2.342573 , -4.572684, 6.805188, 3206190848.000000, -58.310001,  -30.730000,  89.389999, 0.000000,  0.000000 
 13463040.000000, -2.313859 , -4.570292, 6.561120, 3206210816.000000, -37.099998,  -37.590000,  88.620003, 0.000000,  0.000000 
 13484032.000000, -2.364109 , -4.527221, 6.788438, 3206230784.000000, -7.840000,  -43.540001,  89.459999, 0.000000,  0.000000 
 13502976.000000, -2.670390 , -4.314260, 7.123433, 3206251776.000000, 8.260000,  -46.060001,  89.110001, 0.000000,  0.000000 
 13522944.000000, -2.658426 , -4.632504, 7.348359, 3206270720.000000, 7.770000,  -45.430000,  87.290001, 0.000000,  0.000000 
 13542912.000000, -2.768496 , -4.677969, 7.520642, 3206290688.000000, 1.470000,  -43.959999,  86.940002, 0.000000,  0.000000 
 13562880.000000, -3.278167 , -4.565506, 8.133204, 3206311168.000000, -9.380000,  -40.880001,  84.279999, 0.000000,  0.000000 
 13583872.000000, -2.708675 , -4.749753, 8.484949, 3206331136.000000, -21.559999,  -37.310001,  82.389999, 0.000000,  0.000000 
 13602816.000000, -1.808974 , -4.539185, 8.334201, 3206351616.000000, -23.940001,  -35.840000,  83.720001, 0.000000,  0.000000 
 13622784.000000, -1.440479 , -3.893122, 8.049455, 3206371072.000000, -17.500000,  -32.900002,  83.160004, 0.000000,  0.000000 
 13642752.000000, -0.648455 , -3.672983, 8.183454, 3206391040.000000, -16.170000,  -28.630001,  73.709999, 0.000000,  0.000000 
 13662720.000000, -0.165105 , -3.897908, 8.863015, 3206411008.000000, -32.689999,  -25.480000,  55.020000, 0.000000,  0.000000 
 13683712.000000, 0.136391 , -5.149354, 9.755538, 3206430976.000000, -52.779999,  -26.670000,  32.060001, 0.000000,  0.000000 
 13702656.000000, 0.043071 , -5.649454, 10.334601, 3206451968.000000, -57.750000,  -31.150000,  5.880000, 0.000000,  0.000000 
 13722624.000000, -0.681954 , -7.142576, 12.461821, 3206470912.000000, -45.430000,  -31.990000,  -15.960000, 0.000000,  0.000000 
 13742592.000000, -3.225525 , -8.343772, 13.433307, 3206490880.000000, -37.799999,  -27.510000,  -23.100000, 0.000000,  0.000000 
 13762560.000000, -3.661019 , -9.135797, 14.299508, 3206510848.000000, -46.130001,  -33.320000,  -45.290001, 0.000000,  0.000000 
 13783552.000000, -3.151347 , -8.898908, 14.182260, 3206530816.000000, -33.880001,  -50.540001,  -50.330002, 0.000000,  0.000000 
 13803008.000000, -3.316452 , -7.475177, 13.895120, 3206551808.000000, -20.719999,  -74.900002,  -55.369999, 0.000000,  0.000000 
 13822976.000000, -2.950350 , -5.936593, 13.512270, 3206570752.000000, -5.950000,  -94.570000,  -71.750000, 0.000000,  0.000000 
 13842944.000000, -2.232504 , -5.642276, 12.993028, 3206590720.000000, 21.000000,  -113.959999,  -79.239998, 0.000000,  0.000000 
 13862912.000000, -3.862016 , -5.678168, 13.313664, 3206610688.000000, 29.820000,  -124.040001,  -93.660004, 0.000000,  0.000000 
 13883392.000000, -4.077370 , -6.084948, 13.710874, 3206630656.000000, 19.740000,  -133.559998,  -104.650002, 0.000000,  0.000000 
 13902848.000000, -4.424329 , -5.359922, 11.913863, 3206651648.000000, 33.670002,  -132.860001,  -103.949997, 0.000000,  0.000000 
 13922816.000000, -4.287938 , -4.278367, 10.415956, 3206670592.000000, 64.120003,  -139.930008,  -98.000000, 0.000000,  0.000000 
 13942784.000000, -3.579663 , -2.663212, 9.186047, 3206690560.000000, 79.870003,  -143.360001,  -93.800003, 0.000000,  0.000000 
 13962752.000000, -2.926422 , -1.782653, 7.520642, 3206710528.000000, 90.160004,  -143.570007,  -79.239998, 0.000000,  0.000000 
 13983744.000000, -2.129612 , -1.677369, 6.010770, 3206730496.000000, 97.790001,  -143.080002,  -72.660004, 0.000000,  0.000000 
 14002688.000000, -1.368695 , -1.576870, 4.728218, 3206751488.000000, 100.379997,  -139.580002,  -64.889999, 0.000000,  0.000000 
 14022656.000000, -0.832702 , -1.560120, 3.507878, 3206770432.000000, 97.510002,  -131.389999,  -47.180000, 0.000000,  0.000000 
 14042624.000000, -0.471386 , -1.584049, 2.761317, 3206810880.000000, 71.820000,  -99.680000,  -8.260000, 0.000000,  0.000000 
 14062592.000000, -0.184247 , -1.440479, 2.021935, 0.000000, 0.000000,  0.000000,  0.000000, 0.000000,  0.000000 
 14085632.000000, -0.028714 , -1.189233, 1.127020, 3206830848.000000, 58.170002,  -78.680000,  10.570000, 0.000000,  0.000000 
 14102528.000000, -0.277567 , -1.076770, 0.200997, 3206853376.000000, 52.709999,  -53.340000,  31.080000, 0.000000,  0.000000 
 14122496.000000, -1.440479 , -2.366502, 1.048056, 3206870784.000000, 40.250000,  -21.980000,  50.470001, 0.000000,  0.000000 
 14142464.000000, -4.086941 , -4.460221, 2.677568, 3206890752.000000, 9.100000,  14.700000,  69.580002, 0.000000,  0.000000 
 14162432.000000, -5.481956 , -5.568098, 3.668197, 3206910720.000000, -45.920002,  54.389999,  74.550003, 0.000000,  0.000000 
 14183424.000000, -4.237689 , -6.080163, 5.374279, 3206930688.000000, -67.900002,  79.590004,  93.309998, 0.000000,  0.000000 
 14202368.000000, -5.443672 , -7.475177, 6.975078, 3206951680.000000, -56.279999,  95.199997,  124.529999, 0.000000,  0.000000 
 14222336.000000, -7.207181 , -8.539984, 8.078169, 3206970624.000000, -91.559998,  123.690002,  113.190002, 0.000000,  0.000000 
 14242304.000000, -6.833901 , -8.472985, 10.813165, 3206990592.000000, -156.869995,  150.779999,  106.260002, 0.000000,  0.000000 
 14262784.000000, -6.790830 , -10.516455, 14.280365, 3207010560.000000, -186.270004,  167.300003,  129.500000, 0.000000,  0.000000 
 14283264.000000, -8.035098 , -12.739388, 16.201803, 3207030528.000000, -162.259995,  181.509995,  147.279999, 0.000000,  0.000000 
 14302720.000000, -8.233703 , -12.339786, 14.864214, 3207051520.000000, -103.879997,  181.020004,  168.770004, 0.000000,  0.000000 
 14322688.000000, -6.465407 , -10.619347, 14.354543, 3207070464.000000, -44.520000,  158.830002,  187.880005, 0.000000,  0.000000 
 14342656.000000, -5.656632 , -9.006584, 12.875778, 3207090432.000000, -32.970001,  127.820000,  200.339996, 0.000000,  0.000000 
 14362624.000000, -4.668397 , -8.243275, 12.023933, 3207110400.000000, -79.099998,  101.709999,  185.009995, 0.000000,  0.000000 
 14383104.000000, -3.622734 , -7.288538, 11.921042, 3207130368.000000, -121.520004,  78.959999,  163.240005, 0.000000,  0.000000 
 14402560.000000, -2.940779 , -6.912865, 10.825130, 3207151360.000000, -116.620003,  59.010002,  142.589996, 5469560832.000000,  1005.743042 
 14422528.000000, -2.658426 , -6.537192, 9.480364, 3207170304.000000, -68.809998,  46.970001,  129.570007, 0.000000,  0.000000 
 14442496.000000, -2.603391 , -6.041877, 8.216952, 3207190272.000000, -12.600000,  39.900002,  123.970001, 0.000000,  0.000000 
 14462464.000000, -3.101098 , -5.355137, 7.389036, 3207210240.000000, 29.120001,  35.209999,  125.090004, 0.000000,  0.000000 
 14483456.000000, -2.849852 , -4.919643, 7.288538, 3207230208.000000, 17.570000,  31.710001,  112.910004, 0.000000,  0.000000 
 14502400.000000, -2.440679 , -5.063213, 7.080362, 3207251200.000000, -27.370001,  23.030001,  100.099998, 0.000000,  0.000000 
 14522368.000000, -2.254039 , -4.342973, 6.465407, 3207270144.000000, -56.700001,  11.060000,  80.430000, 0.000000,  0.000000 
 14542336.000000, -1.926222 , -3.352344, 5.893522, 3207290624.000000, -51.380001,  -1.330000,  63.420002, 0.000000,  0.000000 
 14562304.000000, -2.208575 , -2.859423, 5.335995, 3207310592.000000, -32.759998,  -11.550000,  53.270000, 0.000000,  0.000000 
 14583296.000000, -2.574677 , -2.938386, 5.154140, 3207330560.000000, -18.969999,  -17.850000,  40.880001, 0.000000,  0.000000 
 14602240.000000, -3.024528 , -2.885744, 4.984250, 3207351040.000000, -0.420000,  -23.520000,  33.459999, 0.000000,  0.000000 
 14622208.000000, -3.761517 , -2.758924, 5.240282, 3207370496.000000, 23.520000,  -29.540001,  32.549999, 0.000000,  0.000000 
 14642176.000000, -4.950750 , -3.029313, 5.474778, 3207390464.000000, 41.650002,  -35.560001,  36.750000, 0.000000,  0.000000 
 14662144.000000, -5.845665 , -3.242275, 5.359922, 3207410432.000000, 54.599998,  -39.830002,  44.099998, 0.000000,  0.000000 
 14683136.000000, -5.862415 , -3.656233, 6.029913, 3207430400.000000, 63.000000,  -45.009998,  56.070000, 0.000000,  0.000000 
 14702080.000000, -5.417351 , -3.878766, 6.845865, 3207451392.000000, 54.250000,  -49.630001,  65.239998, 0.000000,  0.000000 
 14722048.000000, -4.890929 , -4.118048, 7.463214, 3207470336.000000, 24.500000,  -49.630001,  63.420002, 0.000000,  0.000000 
 14742016.000000, -3.615555 , -5.000999, 8.250452, 3207490304.000000, -16.170000,  -48.090000,  52.080002, 0.000000,  0.000000 
 14761984.000000, -2.347359 , -5.714060, 9.604790, 3207510272.000000, -52.220001,  -42.139999,  32.759998, 0.000000,  0.000000 
 14782976.000000, -2.158326 , -5.785845, 11.023734, 3207530240.000000, -70.559998,  -27.790001,  10.710000, 0.000000,  0.000000 
 14802432.000000, -2.321038 , -6.668797, 12.160326, 3207551232.000000, -70.000000,  -13.720000,  -15.400000, 0.000000,  0.000000 
 14822400.000000, -2.045863 , -7.879565, 12.007183, 3207570176.000000, -47.180000,  -6.580000,  -36.889999, 0.000000,  0.000000 
 14842368.000000, -0.823131 , -7.501499, 11.624333, 3207590144.000000, -12.460000,  -7.350000,  -57.750000, 0.000000,  0.000000 
 14862336.000000, -0.717847 , -7.544570, 12.205789, 3207610112.000000, 4.830000,  -14.770000,  -72.309998, 0.000000,  0.000000 
 14883328.000000, -2.165504 , -7.970492, 13.055241, 3207630080.000000, -10.500000,  -21.629999,  -94.849998, 0.000000,  0.000000 
 14902272.000000, -2.385644 , -7.467999, 13.201202, 3207651072.000000, -33.950001,  -27.440001,  -122.430000, 0.000000,  0.000000 
 14922240.000000, -1.308874 , -7.661818, 11.988041, 3207670016.000000, -3.640000,  -42.560001,  -132.020004, 0.000000,  0.000000 
 14942208.000000, -1.478764 , -7.037291, 10.810772, 3207689984.000000, 75.459999,  -72.449997,  -144.059998, 0.000000,  0.000000 
 14962176.000000, -2.512464 , -7.219146, 11.540584, 3207709952.000000, 98.980003,  -102.199997,  -172.479996, 0.000000,  0.000000 
 14983168.000000, -2.708675 , -9.001799, 13.083955, 3207729920.000000, 60.130001,  -125.860001,  -200.410004, 0.000000,  0.000000 
 15002112.000000, -2.746960 , -10.700702, 12.808779, 3207750912.000000, 59.779999,  -146.369995,  -219.309998, 0.000000,  0.000000 
 15022080.000000, -3.371487 , -10.609775, 11.440084, 3207770368.000000, 121.239998,  -166.389999,  -225.190002, 0.000000,  0.000000 
 15042048.000000, -3.141776 , -9.253045, 9.726824, 3207790336.000000, 154.770004,  -188.789993,  -225.190002, 0.000000,  0.000000 
 15062016.000000, -2.773281 , -8.659625, 8.472985, 3207810304.000000, 129.639999,  -207.479996,  -217.490005, 0.000000,  0.000000 
 15085056.000000, -3.220739 , -8.197811, 7.630712, 3207830272.000000, 81.269997,  -213.430008,  -213.850006, 0.000000,  0.000000 
 15101952.000000, -3.297310 , -6.991827, 6.553941, 3207852800.000000, 57.680000,  -203.000000,  -212.029999, 0.000000,  0.000000 
 15121920.000000, -2.761317 , -5.486742, 5.094319, 3207870208.000000, 64.540001,  -180.180008,  -197.820007, 0.000000,  0.000000 
 15141888.000000, -2.464607 , -4.491328, 4.051049, 3207890176.000000, 66.989998,  -153.580002,  -178.289993, 0.000000,  0.000000 
 15161856.000000, -2.596212 , -3.050849, 2.730211, 3207910144.000000, 54.320000,  -119.349998,  -151.759995, 0.000000,  0.000000 
 15182848.000000, -2.629712 , -1.902294, 1.904687, 3207930112.000000, 40.459999,  -75.809998,  -118.090004, 0.000000,  0.000000 
 15201792.000000, -4.764110 , -0.626920, 1.450050, 3207951104.000000, 28.420000,  -24.290001,  -76.230003, 0.000000,  0.000000 
 15221760.000000, -6.082555 , 0.035892, 0.409173, 3207970048.000000, 6.230000,  35.840000,  -46.830002, 0.000000,  0.000000 
 15241728.000000, -5.405386 , 0.251246, 0.023928, 3207990016.000000, -18.059999,  96.320000,  -14.280000, 0.000000,  0.000000 
 15262208.000000, -5.769095 , 0.275175, 0.600598, 3208009984.000000, -53.060001,  153.369995,  18.760000, 0.000000,  0.000000 
 15282688.000000, -7.403394 , 1.081556, 1.428515, 3208029952.000000, -86.870003,  205.520004,  41.930000, 0.000000,  0.000000 
 15302144.000000, -7.623533 , 0.794417, 4.252046, 3208050944.000000, -108.989998,  244.020004,  67.900002, 0.000000,  0.000000 
 15322112.000000, -9.602397 , -2.057827, 6.702296, 3208069888.000000, -111.790001,  264.809998,  106.680000, 0.000000,  0.000000 
 15342080.000000, -12.045469 , -4.582255, 9.667004, 3208089856.000000, -98.910004,  275.380005,  120.610001, 0.000000,  0.000000 
 15362048.000000, -12.016755 , -6.027520, 11.954542, 3208109824.000000, -100.940002,  261.450012,  125.370003, 0.000000,  0.000000 
 15383040.000000, -11.035697 , -7.322037, 12.576675, 3208129792.000000, -86.379997,  226.589996,  145.529999, 0.000000,  0.000000 
 15401984.000000, -9.667004 , -7.463214, 13.055241, 3208150784.000000, -60.760002,  178.080002,  149.309998, 5470560256.000000,  1005.714355 
 15421952.000000, -8.690732 , -6.814759, 13.619946, 3208169728.000000, -68.250000,  139.580002,  141.960007, 0.000000,  0.000000 
 15441920.000000, -7.960921 , -6.778866, 13.339987, 3208189696.000000, -76.440002,  112.489998,  148.820007, 0.000000,  0.000000 
 15461888.000000, -7.020542 , -6.250053, 13.031311, 3208209664.000000, -62.860001,  92.330002,  141.539993, 0.000000,  0.000000 
 15482880.000000, -6.355337 , -5.984450, 12.808779, 3208229632.000000, -58.099998,  77.279999,  142.729996, 0.000000,  0.000000 
 15501824.000000, -4.709075 , -6.821937, 12.253645, 3208250624.000000, -61.180000,  65.940002,  144.479996, 0.000000,  0.000000 
 15521792.000000, -3.043670 , -7.027720, 12.244074, 3208270080.000000, -69.230003,  61.740002,  146.860001, 0.000000,  0.000000 
 15541760.000000, -2.603391 , -7.183254, 13.016955, 3208290048.000000, -74.129997,  57.049999,  153.580002, 0.000000,  0.000000 
 15561728.000000, -2.596212 , -7.740781, 13.919049, 3208310016.000000, -74.760002,  56.700001,  155.960007, 0.000000,  0.000000 
 15582720.000000, -1.540978 , -9.590433, 14.598611, 3208329984.000000, -82.180000,  57.959999,  146.229996, 0.000000,  0.000000 
 15601664.000000, -1.390230 , -9.719646, 14.797215, 3208350464.000000, -83.300003,  51.730000,  128.589996, 0.000000,  0.000000 
 15621632.000000, -2.074577 , -9.655040, 14.392829, 3208369920.000000, -60.689999,  38.220001,  105.419998, 0.000000,  0.000000 
 15641600.000000, -1.674976 , -9.004191, 12.842279, 3208389888.000000, -29.469999,  20.090000,  72.099998, 0.000000,  0.000000 
 15661568.000000, -0.808774 , -7.288538, 11.334801, 3208409856.000000, -2.800000,  -2.030000,  43.959999, 0.000000,  0.000000 
 15682560.000000, -0.406780 , -5.297709, 9.812965, 3208429824.000000, 8.120000,  -23.170000,  21.840000, 0.000000,  0.000000 
 15701504.000000, 0.375673 , -3.749553, 8.264810, 3208450816.000000, 3.150000,  -42.279999,  -0.210000, 0.000000,  0.000000 
 15721472.000000, 0.947558 , -2.749353, 6.573084, 3208469760.000000, -1.610000,  -59.709999,  -13.580000, 0.000000,  0.000000 
 15741440.000000, 0.866202 , -2.333002, 6.293124, 3208489728.000000, -9.100000,  -73.080002,  -30.870001, 0.000000,  0.000000 
 15761920.000000, -0.157926 , -3.060420, 7.281359, 3208509696.000000, -36.400002,  -82.110001,  -54.950001, 0.000000,  0.000000 
 15782400.000000, -0.521635 , -5.503492, 9.221939, 3208529664.000000, -86.870003,  -87.290001,  -92.050003, 0.000000,  0.000000 
 15801856.000000, -1.672583 , -7.922636, 11.234302, 3208550656.000000, -116.830002,  -87.779999,  -120.750000, 0.000000,  0.000000 
 15821824.000000, -3.416951 , -9.695717, 12.268002, 3208569600.000000, -80.500000,  -86.870003,  -145.669998, 0.000000,  0.000000 
 15841792.000000, -4.603791 , -9.688539, 12.117253, 3208589568.000000, 15.960000,  -95.900002,  -157.500000, 0.000000,  0.000000 
 15861760.000000, -4.950750 , -9.997212, 11.909079, 3208609536.000000, 76.650002,  -111.160004,  -165.550003, 0.000000,  0.000000 
 15882752.000000, -5.752346 , -10.344172, 11.499906, 3208629504.000000, 71.750000,  -126.419998,  -168.139999, 0.000000,  0.000000 
 15901696.000000, -6.068198 , -8.537591, 10.162319, 3208650496.000000, 65.449997,  -140.279999,  -173.669998, 0.000000,  0.000000 
 15921664.000000, -5.726025 , -5.946165, 8.786445, 3208669440.000000, 87.570000,  -156.869995,  -170.100006, 0.000000,  0.000000 
 15941632.000000, -5.307281 , -4.594220, 7.133004, 3208689408.000000, 96.949997,  -168.559998,  -159.740005, 0.000000,  0.000000 
 15961600.000000, -4.661219 , -3.780660, 5.656632, 3208709376.000000, 92.959999,  -171.289993,  -149.029999, 0.000000,  0.000000 
 15982592.000000, -3.802195 , -2.914458, 4.268795, 3208729344.000000, 89.879997,  -166.110001,  -135.729996, 0.000000,  0.000000 
 16001536.000000, -2.947958 , -2.148755, 3.275774, 3208750336.000000, 86.590004,  -153.300003,  -116.410004, 0.000000,  0.000000 
 16021504.000000, -2.414358 , -1.433301, 3.270989, 3208769792.000000, 70.279999,  -133.490005,  -99.470001, 0.000000,  0.000000 
 16041472.000000, -2.359323 , -1.442872, 3.249453, 3208789760.000000, 43.889999,  -108.220001,  -87.080002, 0.000000,  0.000000 
 16061440.000000, -3.247060 , -2.266003, 3.335595, 3208809728.000000, 25.200001,  -80.430000,  -76.160004, 0.000000,  0.000000 
 16084480.000000, -3.864408 , -3.029313, 3.823731, 3208829696.000000, 7.910000,  -51.450001,  -69.019997, 0.000000,  0.000000 
 16101376.000000, -4.393222 , -3.218346, 4.996214, 3208852224.000000, 0.140000,  -25.549999,  -60.130001, 0.000000,  0.000000 
 16121344.000000, -4.862216 , -3.414558, 5.075177, 3208869632.000000, 9.730000,  -1.120000,  -46.200001, 0.000000,  0.000000 
 16141312.000000, -4.010371 , -3.885944, 5.118248, 3208889600.000000, 23.520000,  26.110001,  -29.330000, 0.000000,  0.000000 
 16161280.000000, -3.311667 , -4.125226, 6.441479, 3208909568.000000, 28.559999,  55.860001,  -4.970000, 0.000000,  0.000000 
 16182272.000000, -4.591826 , -3.948158, 7.968100, 3208929536.000000, 31.360001,  90.650002,  16.450001, 0.000000,  0.000000 
 16201216.000000, -4.706682 , -4.218546, 8.130811, 3208950528.000000, 15.260000,  126.209999,  25.480000, 0.000000,  0.000000 
 16221184.000000, -3.854837 , -4.716253, 9.272188, 3208969472.000000, -13.090000,  152.809998,  44.869999, 0.000000,  0.000000 
 16241664.000000, -5.474778 , -6.108876, 11.916256, 3208989440.000000, -51.730000,  176.610001,  69.230003, 0.000000,  0.000000 
 16261632.000000, -6.888937 , -7.379465, 12.926028, 3209009408.000000, -107.099998,  187.669998,  80.360001, 0.000000,  0.000000 
 16282112.000000, -5.326423 , -7.532606, 13.172488, 3209029376.000000, -143.779999,  175.979996,  80.290001, 0.000000,  0.000000 
 16301568.000000, -3.792624 , -6.132804, 12.356536, 3209050368.000000, -113.680000,  149.589996,  99.959999, 0.000000,  0.000000 
 16322048.000000, -2.811567 , -4.670790, 11.296515, 3209069312.000000, -74.269997,  126.489998,  101.989998, 0.000000,  0.000000 
 16341504.000000, -2.041078 , -4.165904, 10.327423, 3209090304.000000, -52.920002,  114.099998,  102.550003, 0.000000,  0.000000 
 16361472.000000, -1.959722 , -3.644269, 9.879964, 3209109248.000000, -39.619999,  105.910004,  100.169998, 0.000000,  0.000000 
 16382464.000000, -1.856830 , -3.223132, 9.777073, 3209129728.000000, -35.279999,  98.840004,  95.129997, 0.000000,  0.000000 
 16402432.000000, -1.483550 , -2.878566, 9.415757, 3209150208.000000, -36.330002,  91.419998,  96.110001, 5471559680.000000,  1005.687073 
 16422400.000000, -1.182054 , -3.014957, 9.207582, 3209170176.000000, -40.389999,  82.320000,  98.559998, 0.000000,  0.000000 
 16442368.000000, -1.272982 , -3.168097, 9.087940, 3209190144.000000, -44.660000,  71.190002,  98.489998, 0.000000,  0.000000 
 16462336.000000, -1.208375 , -3.163311, 8.896514, 3209210112.000000, -51.380001,  57.889999,  94.220001, 0.000000,  0.000000 
 16483328.000000, -0.823131 , -3.464807, 8.652447, 3209230592.000000, -54.670002,  42.420002,  88.970001, 0.000000,  0.000000 
 16502784.000000, -0.679562 , -3.773481, 8.508877, 3209270528.000000, -38.709999,  10.220000,  75.250000, 0.000000,  0.000000 
 16522752.000000, -1.036092 , -3.921836, 8.360522, 0.000000, 0.000000,  0.000000,  0.000000, 0.000000,  0.000000 
 16542720.000000, -1.354338 , -4.388437, 8.317451, 3209290496.000000, -16.799999,  -1.120000,  69.019997, 0.000000,  0.000000 
 16562688.000000, -1.718047 , -4.756931, 8.492127, 3209310464.000000, -0.210000,  -8.750000,  61.040001, 0.000000,  0.000000 
 16583680.000000, -2.014757 , -5.455636, 8.827123, 3209330944.000000, 9.450000,  -14.910000,  52.430000, 0.000000,  0.000000 
 16603136.000000, -2.213361 , -5.960521, 9.071191, 3209351424.000000, 10.570000,  -20.510000,  41.650002, 0.000000,  0.000000 
 16623104.000000, -2.483750 , -6.168696, 9.485149, 3209370880.000000, 6.300000,  -24.920000,  30.799999, 0.000000,  0.000000 
 16643072.000000, -2.529213 , -6.099305, 9.611969, 3209390848.000000, 6.230000,  -29.190001,  19.600000, 0.000000,  0.000000 
 16663040.000000, -2.098505 , -6.089733, 9.499505, 3209410816.000000, 7.140000,  -35.349998,  3.990000, 0.000000,  0.000000 
 16684032.000000, -1.701297 , -6.005985, 9.573684, 3209431296.000000, 4.060000,  -42.630001,  -15.050000, 0.000000,  0.000000 
 16702976.000000, -1.414158 , -6.702296, 10.080962, 3209451776.000000, -14.910000,  -46.970001,  -37.450001, 0.000000,  0.000000 
 16723968.000000, -1.292124 , -7.759924, 10.892128, 3209470720.000000, -37.730000,  -45.150002,  -56.840000, 0.000000,  0.000000 
 16743936.000000, -2.349752 , -9.934999, 12.866207, 3209492224.000000, -65.590004,  -35.349998,  -75.669998, 0.000000,  0.000000 
 16763904.000000, -4.804788 , -11.818150, 14.328221, 3209512192.000000, -93.099998,  -23.170000,  -92.750000, 0.000000,  0.000000 
 16784896.000000, -5.142176 , -11.636297, 13.919049, 3209532160.000000, -92.120003,  -13.580000,  -116.550003, 0.000000,  0.000000 
 16803840.000000, -4.115655 , -9.193225, 11.459228, 3209553152.000000, -27.440001,  -21.139999,  -117.669998, 0.000000,  0.000000 
 16823808.000000, -3.304488 , -6.575477, 9.851252, 3209572096.000000, 44.520000,  -39.970001,  -125.650002, 0.000000,  0.000000 
 16843776.000000, -3.634698 , -4.295116, 10.234102, 3209592064.000000, 71.680000,  -55.090000,  -142.449997, 0.000000,  0.000000 
 16863744.000000, -3.270989 , -4.898108, 9.346365, 3209612032.000000, 61.389999,  -65.519997,  -162.330002, 0.000000,  0.000000 
 16884736.000000, -3.299703 , -5.209175, 9.193225, 3209632000.000000, 66.080002,  -75.669998,  -171.779999, 0.000000,  0.000000 
 16904192.000000, -3.019742 , -4.122833, 8.717053, 3209652992.000000, 71.470001,  -86.449997,  -175.630005, 0.000000,  0.000000 
 16924160.000000, -2.419144 , -2.945565, 7.709675, 3209671936.000000, 96.110001,  -98.070000,  -156.100006, 0.000000,  0.000000 
 16944128.000000, -1.555335 , -2.589034, 6.565905, 3209691904.000000, 100.730003,  -108.639999,  -136.570007, 0.000000,  0.000000 
 16964096.000000, -1.519442 , -2.397608, 5.388636, 3209711872.000000, 98.070000,  -117.110001,  -118.370003, 0.000000,  0.000000 
 16984576.000000, -1.636691 , -2.148755, 4.400401, 3209731840.000000, 90.720001,  -121.520004,  -104.650002, 0.000000,  0.000000 
 17004032.000000, -1.050449 , -2.108077, 3.438486, 3209752832.000000, 76.650002,  -120.260002,  -87.989998, 0.000000,  0.000000 
 17024000.000000, -0.351745 , -2.110470, 2.701497, 3209771776.000000, 56.770000,  -112.559998,  -67.830002, 0.000000,  0.000000 
 17043968.000000, 0.208176 , -2.206182, 2.593820, 3209791744.000000, 35.630001,  -97.440002,  -49.139999, 0.000000,  0.000000 
 17063936.000000, -0.404387 , -3.684947, 3.948158, 3209811712.000000, 23.100000,  -74.410004,  -28.420000, 0.000000,  0.000000 
 17086464.000000, -2.507678 , -6.494121, 6.300302, 3209831680.000000, 16.379999,  -42.490002,  -10.640000, 0.000000,  0.000000 
 17104384.000000, -4.496114 , -9.305687, 9.389436, 3209854720.000000, 8.330000,  -6.440000,  -6.090000, 0.000000,  0.000000 
 17123840.000000, -5.508278 , -9.473185, 9.882358, 3209872128.000000, 26.600000,  25.969999,  1.120000, 0.000000,  0.000000 
 17143808.000000, -4.524827 , -5.568098, 5.190032, 3209891584.000000, 85.750000,  57.610001,  20.650000, 0.000000,  0.000000 
 17163776.000000, -1.655833 , -3.443272, 4.800002, 3209912064.000000, 152.250000,  64.120003,  53.340000, 0.000000,  0.000000 
 17184768.000000, -1.820938 , -3.531806, 7.678568, 3209932032.000000, 162.610001,  77.489998,  68.110001, 0.000000,  0.000000 
 17203712.000000, -4.118048 , -3.000600, 9.403792, 3209952512.000000, 92.889999,  118.440002,  28.770000, 0.000000,  0.000000 
 17223680.000000, -3.500700 , -2.043471, 9.466006, 3209971968.000000, -22.960001,  159.110001,  -17.920000, 0.000000,  0.000000 
 17243648.000000, -2.251646 , -2.110470, 10.518847, 3209991936.000000, -100.590004,  177.520004,  -6.370000, 0.000000,  0.000000 
 17263616.000000, -4.206582 , -3.548556, 12.598210, 3210011904.000000, -121.660004,  188.160004,  9.100000, 0.000000,  0.000000 
 17284608.000000, -6.415157 , -4.256832, 13.325629, 3210031872.000000, -101.570000,  195.229996,  19.250000, 0.000000,  0.000000 
 17303552.000000, -5.096712 , -2.866602, 11.724831, 3210052864.000000, -50.750000,  183.889999,  45.430000, 0.000000,  0.000000 
 17323520.000000, -2.773281 , -1.272982, 10.112068, 3210071808.000000, 8.890000,  149.029999,  86.029999, 0.000000,  0.000000 
 17343488.000000, -2.703890 , -0.547956, 9.631111, 3210091776.000000, 30.940001,  118.720001,  107.449997, 0.000000,  0.000000 
 17363456.000000, -3.065206 , -0.988236, 10.097712, 3210111744.000000, -0.280000,  107.800003,  95.550003, 0.000000,  0.000000 
 17384448.000000, -3.723232 , -1.806581, 10.794022, 3210131712.000000, -38.639999,  103.320000,  88.900002, 0.000000,  0.000000 
 17403392.000000, -4.084548 , -2.478964, 10.380065, 3210152704.000000, -51.099998,  95.550003,  88.340004, 5472562176.000000,  1005.659973 
 17423360.000000, -3.483950 , -2.670390, 9.332008, 3210171648.000000, -15.120000,  81.340004,  97.440002, 0.000000,  0.000000 
 17443328.000000, -2.806781 , -1.265803, 8.508877, 3210191616.000000, 33.740002,  66.500000,  111.090004, 0.000000,  0.000000 
 17463808.000000, -2.093720 , -0.291924, 7.283752, 3210211584.000000, 42.630001,  58.450001,  123.059998, 0.000000,  0.000000 
 17484288.000000, -1.892723 , -0.502493, 6.996613, 3210231552.000000, 9.870000,  53.619999,  125.860001, 0.000000,  0.000000 
 17503744.000000, -2.053042 , -1.703690, 7.506285, 3210252544.000000, -47.880001,  51.590000,  107.239998, 0.000000,  0.000000 
 17523712.000000, -1.476372 , -2.572284, 8.035098, 3210271488.000000, -94.709999,  50.119999,  83.370003, 0.000000,  0.000000 
 17543680.000000, -1.579263 , -2.411965, 8.671589, 3210291456.000000, -107.239998,  43.820000,  69.510002, 0.000000,  0.000000 
 17563648.000000, -1.471586 , -2.622534, 9.355937, 3210311424.000000, -91.000000,  39.200001,  59.150002, 0.000000,  0.000000 
 17584640.000000, -1.426122 , -3.170490, 10.344172, 3210331392.000000, -54.110001,  33.040001,  53.410000, 0.000000,  0.000000 
 17603584.000000, -1.552942 , -2.785245, 11.150554, 3210352384.000000, -16.450001,  26.389999,  40.110001, 0.000000,  0.000000 
 17623552.000000, -1.517050 , -2.711068, 11.485549, 3210371328.000000, 16.100000,  18.129999,  30.240000, 0.000000,  0.000000 
 17643520.000000, -1.567299 , -3.527020, 12.002398, 3210391296.000000, 36.189999,  7.770000,  17.990000, 0.000000,  0.000000 
 17663488.000000, -1.576870 , -3.586841, 12.129218, 3210411264.000000, 42.420002,  -6.650000,  -2.380000, 0.000000,  0.000000 
 17684480.000000, -1.220340 , -3.168097, 12.279965, 3210431232.000000, 47.320000,  -28.559999,  -22.260000, 0.000000,  0.000000 
 17703424.000000, -1.361516 , -2.711068, 13.663017, 3210452224.000000, 32.689999,  -52.080002,  -38.990002, 0.000000,  0.000000 
 17723392.000000, -1.856830 , -3.830909, 14.931213, 3210471680.000000, -2.310000,  -68.110001,  -59.080002, 0.000000,  0.000000 
 17743360.000000, -2.675175 , -4.919643, 16.024733, 3210491648.000000, -16.660000,  -78.190002,  -73.360001, 0.000000,  0.000000 
 17763328.000000, -3.393023 , -5.656632, 16.697117, 3210511616.000000, -18.129999,  -90.300003,  -90.510002, 0.000000,  0.000000 
 17784320.000000, -4.431508 , -5.876772, 16.847864, 3210531584.000000, -21.139999,  -104.860001,  -103.669998, 0.000000,  0.000000 
 17803264.000000, -4.433900 , -5.357530, 15.450456, 3210552064.000000, -19.460001,  -124.250000,  -120.470001, 0.000000,  0.000000 
 17823232.000000, -4.149154 , -3.797409, 12.799208, 3210571520.000000, 22.960001,  -149.940002,  -121.449997, 0.000000,  0.000000 
 17843200.000000, -3.766303 , -2.682354, 11.619547, 3210591488.000000, 66.570000,  -174.649994,  -122.570000, 0.000000,  0.000000 
 17863168.000000, -3.967300 , -2.596212, 11.554940, 3210611456.000000, 68.110001,  -187.250000,  -125.230003, 0.000000,  0.000000 
 17884160.000000, -4.474578 , -3.177669, 11.184053, 3210631424.000000, 53.619999,  -189.630005,  -135.240005, 0.000000,  0.000000 
 17903104.000000, -4.654040 , -3.089134, 10.157533, 3210652416.000000, 61.880001,  -186.899994,  -136.009995, 0.000000,  0.000000 
 17923072.000000, -4.828716 , -2.459821, 8.355737, 3210671360.000000, 91.840004,  -181.649994,  -117.320000, 0.000000,  0.000000 
 17943040.000000, -4.244867 , -2.026721, 6.376873, 3210711296.000000, 105.349998,  -169.889999,  -88.059998, 0.000000,  0.000000 
 17963520.000000, -3.215954 , -1.832902, 5.075177, 0.000000, 0.000000,  0.000000,  0.000000, 0.000000,  0.000000 
 17984000.000000, -2.246860 , -1.739582, 4.354938, 3210731264.000000, 80.080002,  -157.919998,  -73.919998, 0.000000,  0.000000 
 18003456.000000, -1.935793 , -1.744368, 3.885944, 3210752256.000000, 46.619999,  -140.279999,  -66.570000, 0.000000,  0.000000 
 18023424.000000, -1.349552 , -2.026721, 3.627519, 3210771200.000000, 21.070000,  -118.650002,  -61.180000, 0.000000,  0.000000 
 18043392.000000, -0.770489 , -2.043471, 3.072384, 3210791168.000000, 10.430000,  -92.050003,  -54.040001, 0.000000,  0.000000 
 18063360.000000, -0.318245 , -1.909473, 2.842674, 3210811136.000000, 14.490000,  -61.110001,  -40.040001, 0.000000,  0.000000 
 18085888.000000, -0.717847 , -2.266003, 4.041477, 3210831104.000000, 17.920000,  -26.460001,  -25.549999, 0.000000,  0.000000 
 18103296.000000, -3.062813 , -3.043670, 5.745167, 3210871040.000000, -8.960000,  63.770000,  -14.420000, 0.000000,  0.000000 
 18123264.000000, -4.773681 , -3.797409, 6.733403, 0.000000, 0.000000,  0.000000,  0.000000, 0.000000,  0.000000 
 18143232.000000, -5.163712 , -4.357330, 7.680960, 3210891008.000000, -12.110000,  100.590004,  -4.130000, 0.000000,  0.000000 
 18163200.000000, -5.910272 , -4.278367, 8.791230, 3210910976.000000, 6.230000,  126.699997,  8.120000, 0.000000,  0.000000 
 18184192.000000, -6.154340 , -2.679961, 9.489935, 3210930944.000000, 13.090000,  146.509995,  3.640000, 0.000000,  0.000000 
 18203136.000000, -5.446064 , -1.203590, 8.338986, 3210951936.000000, 0.070000,  159.180008,  0.280000, 0.000000,  0.000000 
 18223104.000000, -4.476971 , -1.940579, 8.697910, 3210971392.000000, -32.200001,  160.300003,  -9.940000, 0.000000,  0.000000 
 18243072.000000, -5.594419 , -1.442872, 11.447264, 3210991360.000000, -58.029999,  161.770004,  -23.660000, 0.000000,  0.000000 
 18263040.000000, -7.082755 , -0.782453, 11.741580, 3211011328.000000, -78.470001,  173.110001,  -25.270000, 0.000000,  0.000000 
 18284032.000000, -6.719046 , -1.619941, 11.318050, 3211031296.000000, -62.930000,  175.419998,  -1.470000, 0.000000,  0.000000 
 18302976.000000, -6.269196 , -1.172483, 11.538191, 3211051776.000000, -16.309999,  163.449997,  19.809999, 0.000000,  0.000000 
 18324480.000000, -5.663811 , 0.736989, 11.363515, 3211071232.000000, 19.320000,  147.839996,  43.750000, 0.000000,  0.000000 
 18343424.000000, -4.656433 , 1.663012, 10.834702, 3211092224.000000, 19.530001,  134.610001,  77.489998, 0.000000,  0.000000 
 18363392.000000, -4.646862 , 1.275374, 10.277173, 3211111680.000000, -6.440000,  125.580002,  95.900002, 0.000000,  0.000000 
 18384384.000000, -4.409972 , 0.753739, 9.822537, 3211152640.000000, -87.570000,  116.199997,  97.160004, 5473562112.000000,  1005.635010 
 18403328.000000, -3.371487 , 0.421137, 9.638289, 0.000000, 0.000000,  0.000000,  0.000000, 0.000000,  0.000000 
 18423808.000000, -2.751746 , -0.153141, 9.327222, 3211171584.000000, -104.790001,  107.940002,  105.419998, 0.000000,  0.000000 
 18443776.000000, -2.251646 , -1.009771, 9.542577, 3211192064.000000, -105.840004,  100.169998,  106.959999, 0.000000,  0.000000 
 18463744.000000, -1.890330 , -2.167897, 9.580862, 3211212032.000000, -87.430000,  93.169998,  112.770004, 0.000000,  0.000000 
 18484736.000000, -1.627119 , -0.401994, 9.477970, 3211232000.000000, -30.170000,  83.580002,  121.800003, 0.000000,  0.000000 
 18503680.000000, -0.842274 , 1.316052, 8.477771, 3211252992.000000, 52.639999,  65.730003,  140.630005, 0.000000,  0.000000 
 18524160.000000, -0.792024 , 1.136591, 8.477771, 3211271936.000000, 105.139999,  52.360001,  148.330002, 0.000000,  0.000000 
 18544128.000000, -1.524228 , -0.110070, 9.480364, 3211291904.000000, 76.650002,  49.630001,  126.279999, 0.000000,  0.000000 
 18564096.000000, -2.045863 , -0.870987, 10.851451, 3211311872.000000, 16.240000,  46.549999,  104.580002, 0.000000,  0.000000 
 18585088.000000, -2.512464 , -1.117448, 11.657832, 3211331840.000000, -9.520000,  36.889999,  92.400002, 0.000000,  0.000000 
 18604032.000000, -2.837888 , -1.148555, 12.078968, 3211352832.000000, -2.590000,  24.080000,  82.110001, 0.000000,  0.000000 
 18623488.000000, -3.268596 , -0.940379, 12.358929, 3211371776.000000, 4.270000,  9.450000,  67.620003, 0.000000,  0.000000 
 18644992.000000, -3.481557 , -1.076770, 12.954741, 3211391744.000000, -2.170000,  -7.280000,  47.110001, 0.000000,  0.000000 
 18664960.000000, -4.194618 , -1.234696, 13.469198, 3211412736.000000, -17.920000,  -25.480000,  24.430000, 0.000000,  0.000000 
 18685952.000000, -4.261617 , -1.026521, 13.438091, 3211433216.000000, -31.920000,  -45.570000,  -3.850000, 0.000000,  0.000000 
 18704896.000000, -3.708875 , -1.287339, 14.206188, 3211453696.000000, -39.130001,  -65.870003,  -28.420000, 0.000000,  0.000000 
