time,seconds_elapsed,z,y,x
1633781582967940900,0.02994091796875,0.09798632697761059,-0.04084522060751915,0.1633707994274795
1633781582987819800,0.04981982421875,0.023411855247616766,0.08665537014603614,0.23600611978843808
1633781583007698700,0.06969873046875,0.13696984536647797,0.1798942103356123,0.1921392132721841
1633781583027577600,0.08957763671875,0.1434416717290878,0.25600012941658495,0.123075467787683
1633781583047456800,0.109456787109375,0.2196726784944534,0.2728425431460142,0.18237229088693857
1633781583067335700,0.129335693359375,0.2323737546354532,0.3397650388181209,0.1520839739985764
1633781583087214600,0.149214599609375,0.14953589695096015,0.35859482697248457,0.19052023376822472
1633781583107093800,0.16909375,0.2540022335976362,0.30145664321184157,0.15985139312967658
1633781583126972700,0.18897265625,0.20684300753772258,0.23588906928002834,0.3293009279489517
1633781583146851800,0.208851806640625,0.22839900578558445,0.09005611850023269,0.46741176004409785
1633781583166730800,0.228730712890625,0.15446926169991493,0.011200608450174331,0.5262297135852277
1633781583186609700,0.248609619140625,0.07398001296818256,-0.04835281975865364,0.49408568582758305
1633781583206488600,0.268488525390625,0.11691899098455905,-0.09717384155094623,0.39192426512241363
1633781583226367700,0.28836767578125,0.10747779342234134,-0.17304712091982363,0.10977671801447868
1633781583246247000,0.308246826171875,0.1296224052131176,-0.1698556314021349,-0.010994418353587389
1633781583266125600,0.32812548828125,0.10303191992938518,-0.2012999864578247,0.07195113748908043
1633781583286004700,0.348004638671875,0.02695873407423496,-0.06830196733176708,0.08189619292020797
1633781583305883600,0.367883544921875,0.010095277556777,0.01877542761862278,0.06794277863055467
1633781583325762800,0.3877626953125,0.06037175885438919,0.14681728564202784,-0.010780044950544833
1633781583345641700,0.407641845703125,-0.04722410798966884,0.27000468937158584,-0.014897271011024713
1633781583365520600,0.427520751953125,-0.04571428794860839,0.20724925025105476,0.0367734411239624
1633781583385400800,0.44740087890625,-0.011661796221137046,0.28210955318510533,-0.014083178149163721
1633781583405278700,0.46727880859375,-0.025700258445739744,0.2459545362204313,-0.03147051241025328
1633781583425158700,0.48715869140625,-0.053576107364892954,0.13793313744068145,0.0008827741838991641
1633781583445037800,0.507037841796875,-0.029952655193209648,0.06433072561323643,0.06858180718645453
1633781583464916700,0.526916748046875,0.021809680747985838,-0.04274491674900055,0.13988207955136894
1633781583484796000,0.5467958984375,-0.008896423161029815,-0.12574234890937805,0.217809368840605
1633781583504674600,0.566674560546875,0.015014029258489608,-0.09815408475995063,0.20543109491318462
1633781583524553700,0.5865537109375,-0.00019347674548625944,-0.10612813237905502,0.2010442581310868
1633781583544432600,0.6064326171875,0.019789573097229004,-0.1368587862074375,0.22731705576777456
1633781583564311800,0.626311767578125,0.0034440029740333555,-0.14542846163213252,0.19373539642244575
1633781583584190700,0.646190673828125,-0.011003040051460265,-0.16383564046025276,0.15089754069298505
1633781583604069600,0.666069580078125,-0.008372107025980948,-0.13389292213916779,0.11158332904502749
1633781583623948800,0.68594873046875,-0.01550502764582634,-0.1219797815054655,0.11210326126590371
1633781583643827700,0.70582763671875,-0.003933247795701027,-0.04241057022809982,0.04759761747717857
1633781583663707000,0.725706787109375,0.028343466430902478,0.0009165303230285644,-0.003845569512248039
1633781583683585500,0.74558544921875,0.08863689935207367,-0.051285950601100916,-0.07812178894802928
1633781583703464700,0.765464599609375,0.18991817622184753,0.021232173120975494,-0.09876812500506639
1633781583723343600,0.785343505859375,0.1914051999092102,0.07117723050713538,-0.1092550322279334
1633781583743222800,0.805222900390625,0.2002098531335592,0.12808102099001406,-0.1549665436975658
1633781583763101200,0.82510107421875,0.20713760657012462,0.16973346632719039,-0.13387187935113906
1633781583782980000,0.84497998046875,0.1617693555802107,0.17269816135168076,-0.14099544762074948
1633781583802859000,0.86485888671875,0.10635843400359153,0.18528993189930915,-0.1325355161808431
1633781583822738200,0.88473828125,-0.007870002722740172,0.16673194642364977,-0.10156067833304405
1633781583842617000,0.9046171875,-0.04816226562261581,0.10484335326552391,-0.013222323536127805
1633781583862496300,0.924496337890625,-0.10361118112206459,0.09140402597784995,0.010337561880052089
1633781583882375000,0.944375,-0.14829963315427303,0.07296645201146602,-0.032036183468997476
1633781583902254000,0.964254150390625,-0.16023557014167308,-0.029281624063849446,0.03235606307312846
1633781583922133200,0.98413330078125,-0.15226912130713463,-0.0807142896592617,0.10464110869169235
1633781583942012200,1.00401220703125,-0.1257838499635458,-0.11374152999222278,0.11944777880981564
1633781583961891000,1.02389111328125,-0.14796294854581354,-0.09381050259768962,0.13375176010280848
1633781583981770000,1.04377001953125,-0.14500935943722723,-0.0657739101588726,0.16261778910309074
1633781584001649200,1.063649169921875,-0.14578911163806915,-0.022606384083628653,0.1860929188452661
1633781584021528000,1.083528076171875,-0.10660568676292896,0.023693010276556015,0.19800036039054392
1633781584041407200,1.1034072265625,-0.09438158048391342,0.08854045324027537,0.19294804543703795
1633781584061286100,1.1232861328125,-0.06731587890386581,0.14226269107759,0.20440350543111563
1633781584081165000,1.1431650390625,-0.039920506978034974,0.11985212182700633,0.21559066987782716
1633781584101044200,1.163044189453125,0.0013005612045526504,0.07078384727537632,0.1881451751999557
1633781584120923100,1.182923095703125,0.05344225185215473,0.13279343646466732,0.14980068536698818
1633781584140802000,1.202802001953125,0.09775544083118438,0.1398778417676687,0.16007994118854402
1633781584160681000,1.222680908203125,0.1398088681846857,0.1300631347179413,0.19746508447006345
1633781584180560100,1.24256005859375,0.18333529070019722,0.09238193109929561,0.14878054853901265
1633781584200439300,1.262439208984375,0.17517419607639312,0.10069266332685947,0.10283668961822987
1633781584220318000,1.28231787109375,0.17472879039645195,0.023262217643857,0.1459784967303276
1633781584240197000,1.302197021484375,0.13305004157423972,-0.0025385785669088364,0.13029942769184708
1633781584260076000,1.322075927734375,0.07995791833400726,0.015462942069768905,0.0736069418720901
1633781584279955200,1.341955078125,0.06583353139162063,0.0022428104907274244,0.08177344332337379
1633781584299834000,1.361834228515625,0.011035188755393027,-0.06992869175076484,0.10274258159399031
1633781584319713000,1.381713134765625,-0.048149406141042704,-0.03394084804654121,0.133725602748245
1633781584339592200,1.40159228515625,-0.0926654242157936,-0.10292086077034472,0.1157135607175529
1633781584359471000,1.42147119140625,-0.07863046912252902,-0.048288522350788114,0.08217106433883309
1633781584379350300,1.441350341796875,-0.10396657043099403,0.043407764571905136,0.04845072717517614
1633781584399229000,1.46122900390625,-0.10312368986606597,0.0845744722187519,0.06874839592501521
1633781584419108000,1.481108154296875,-0.07864858930110931,0.10016308649480342,0.04610796344131231
1633781584438987000,1.500987060546875,-0.06997311541438102,0.1365150873363018,0.013352818048000335
1633781584458866200,1.5208662109375,-0.0527291351467371,0.16723931142389772,0.00979614847972989
1633781584478745000,1.5407451171875,-0.04220014234781265,0.21984511245191096,-0.05169716175049543
1633781584498624000,1.5606240234375,-0.03304945216476917,0.20805179880559443,-0.1278219316624105
1633781584518503200,1.580503173828125,-0.003353402081131935,0.19716683217585085,-0.14892024927064776
1633781584538382000,1.600382080078125,-0.003036591216921806,0.16631109066307545,-0.14083718831911682
1633781584558261200,1.62026123046875,0.02327741521298885,0.11816869878470897,-0.19560338225141166
1633781584578140000,1.640139892578125,0.017701076385378836,0.023522914406657217,-0.1940206431046128
1633781584598019000,1.66001904296875,0.015150807380676269,-0.04223112200796604,-0.1764770953685045
1633781584617898000,1.67989794921875,0.05275719219744205,-0.09044599460065364,-0.1988978937521577
1633781584637777200,1.699777099609375,0.027438626545667647,-0.1609539475440979,-0.15979659420251846
1633781584657656300,1.71965625,-0.004835165071487427,-0.1906120037049055,-0.11351268967241049
1633781584677535000,1.739534912109375,-0.029276363366842268,-0.16696809326708315,-0.13127601763904093
1633781584697414100,1.7594140625,-0.02223696624934673,-0.2075783360749483,-0.15626330550983547
1633781584717293000,1.77929296875,-0.09179682468771934,-0.16963409760594367,-0.15315920201465485
1633781584737172200,1.799172119140625,-0.10341653533279895,-0.15519114623367786,-0.12939093454480172
1633781584757051400,1.819051513671875,-0.10947393567562103,-0.08616787889003753,-0.12508096239119768
1633781584776930300,1.838930419921875,-0.09829553905725479,-0.0569552284091711,-0.10418547387868166
1633781584796809500,1.8588095703125,-0.07231587914824486,-0.03218377524614334,-0.027719781574606892
1633781584816688400,1.8786884765625,-0.03691021924614906,-0.01061550203859806,0.010426116946339607
1633781584836567300,1.8985673828125,0.012867080357670783,0.025376433318853378,0.011949234860390423
1633781584856446200,1.9184462890625,0.06221300280690193,0.04830722705125808,-0.0070388125956058496
1633781584876325400,1.938325439453125,0.08451718907356262,0.07080372101962566,0.019316402627527714
1633781584896204300,1.958204345703125,0.12354103947281837,0.13501812677681446,0.03561827973946929
1633781584916083500,1.97808349609375,0.14592472071647644,0.17351590747535228,-0.014722352835536003
1633781584935962400,1.99796240234375,0.17988193537592886,0.19980887111723422,-0.0672159256607294
1633781584955841300,2.01784130859375,0.17050269713401794,0.2134989582955837,-0.038513562789559364
1633781584975720400,2.037720458984375,0.15928279946148394,0.21203239287436007,-0.032034137642383574
1633781584995599400,2.057599365234375,0.14134499171078205,0.2088549318820238,-0.08475698917880654
1633781585015478300,2.077478271484375,0.14033961406052112,0.19967735369205475,-0.09251374078541993
1633781585035357200,2.097357177734375,0.17443185327649116,0.148749130487442,-0.04359495770707726
1633781585055236400,2.117236328125,0.1816799247086048,0.1073532902598381,-0.006217413210123777
1633781585075115500,2.137115478515625,0.19524433968067167,0.03060439710021019,-0.032248364914953705
1633781585094994400,2.156994384765625,0.18077917647659777,-0.023315993657708166,-0.025007307745516297
1633781585114873300,2.176873291015625,0.1483054783731699,-0.11048749663233756,0.051041328190267084
1633781585134752300,2.196752197265625,0.09834580793976783,-0.12365852837264538,0.07973726132065058
1633781585154631400,2.21663134765625,0.02951543281972408,-0.10047405214011669,0.039522301440685983
1633781585174510300,2.23651025390625,-0.017292495584487914,-0.0908709420144558,0.04638239646852016
1633781585194389200,2.25638916015625,-0.0716384182780981,-0.04458090000450611,0.057418754267692565
1633781585214268400,2.276268310546875,-0.10634615904390811,0.005403320348262786,0.03830634977966547
1633781585234147300,2.296147216796875,-0.09486673365235328,0.04566694167554378,-0.02873231961801648
1633781585254026500,2.316026611328125,-0.08671616042256355,0.0905044467896223,0.00023629297390580177
1633781585273905200,2.3359052734375,-0.09734043028950691,0.06723872201442718,0.02624386380314827
1633781585293784300,2.355784423828125,-0.04112871372401714,0.08602408650517464,0.024051468325406312
1633781585313663200,2.375663330078125,0.00881517461836338,0.021519173368811605,0.029913346096128224
1633781585333542400,2.39554248046875,0.07019055755734444,-0.001662380254268646,-0.005495236415416002
1633781585353421600,2.415421630859375,0.13713000436425207,-0.03080956428349018,-0.006392039124667644
1633781585373300200,2.43530029296875,0.14814941102862358,-0.07357844642996787,0.030840251682698726
1633781585393179400,2.455179443359375,0.20209844335913657,-0.104934538680315,0.00308130714148283
1633781585413058300,2.475058349609375,0.21262217546105383,-0.12319850964546203,-0.030427579228579995
1633781585432937500,2.4949375,0.1993652190029621,-0.10686755256950854,-0.054480801119655364
1633781585452817400,2.5148173828125,0.18033669340610503,-0.13213701838254927,-0.1507629545278847
1633781585472695300,2.5346953125,0.1603425376474857,-0.1521662454545498,-0.2805113242082298
1633781585492575500,2.554575439453125,0.0945697965323925,-0.18026187460422516,-0.2642757903307676
1633781585512454100,2.5744541015625,0.036195933496952055,-0.1698071160852909,-0.17647358823716638
1633781585532333300,2.594333251953125,0.009871990194916724,-0.13572890539467333,-0.1164028581559658
1633781585552212200,2.614212158203125,-0.006695698246359825,-0.06418225705325603,-0.04544423883557319
1633781585572091400,2.63409130859375,-0.06617080052196979,0.020393968731164933,-0.01158580837547779
1633781585591970600,2.653970458984375,-0.10218027153611182,0.11767653135359286,0.12728724026381968
1633781585611849200,2.67384912109375,-0.18512392768263816,0.1989741738587618,0.36084406720399853
1633781585631728400,2.693728271484375,-0.22187866410613058,0.2821481316298246,0.41353345486223697
1633781585651607300,2.713607177734375,-0.19625322446227073,0.4099374761968851,0.32521760415807366
1633781585671486500,2.733486572265625,-0.1909124479562044,0.474664507651329,0.3422342054106295
1633781585691365000,2.753365234375,-0.14974047961235046,0.42349020073115823,0.4095379554852843
1633781585711244300,2.773244384765625,-0.07811433629393577,0.3505459605515003,0.3485011568509042
1633781585731123500,2.79312353515625,-0.018671967244148255,0.23214462205469608,0.26547099146470426
1633781585751002400,2.81300244140625,0.05226677833199501,0.12681027040183543,0.24742373199015855
1633781585770881300,2.83288134765625,0.10190320816040038,0.0459884287148714,0.19124182604104278
1633781585790760200,2.85276025390625,0.10359715259671211,-0.03006137626469135,0.12949103391841052
1633781585810639000,2.87263916015625,0.1152262155920267,-0.07499941914379596,0.11453779493644833
1633781585830518300,2.892518310546875,0.1196224047243595,-0.06940963631272315,0.05723550665527582
1633781585850397200,2.912397216796875,0.15295885713696478,-0.025428455767035483,0.012503215481340884
1633781585870276000,2.932276123046875,0.11784136652648448,-0.019407295781373977,-0.07068257885798812
1633781585890155300,2.9521552734375,0.10180851561427116,0.001821370208263397,-0.0954508171506226
1633781585910034200,2.9720341796875,0.07764379617273807,-0.038781273815035815,-0.10425094033032654
1633781585929913300,2.991913330078125,0.03091711631119251,-0.12951251509785652,-0.1360343180820346
1633781585949792300,3.011792236328125,0.014456395375728607,-0.10086275919675826,-0.14611995102763176
1633781585969671200,3.031671142578125,-0.012217092016339302,-0.06317629488110542,-0.17147008086144924
1633781585989550000,3.051550048828125,-0.047452656048536296,-0.05650865368545055,-0.13510200566798447
1633781586009429200,3.07142919921875,-0.04669920733273029,-0.04030921403467655,-0.103581516636163
1633781586029308400,3.091308349609375,-0.03394435517787933,-0.03944353711605072,-0.06696735772714019
1633781586049187000,3.11118701171875,-0.025657003825902937,0.01488894157409668,-0.029314795681089162
1633781586069066200,3.131066162109375,-0.03183832280933857,0.06649754825830459,-0.02632935012951493
1633781586088945200,3.150945068359375,0.020029227072000503,0.0706885702073574,-0.001133095683157444
1633781586108824300,3.17082421875,0.047428106129169464,0.10154197363257407,0.010607318732142448
1633781586128703200,3.190703125,0.07200842063426971,0.11103227103352546,0.004965805713832378
1633781586148582100,3.21058203125,0.04965162739753723,0.08308978661894798,0.019702771596610547
1633781586168461300,3.23046142578125,0.04759761747717857,0.03753390410244465,0.010432254426181316
1633781586188340200,3.25034033203125,0.056682256686687464,0.0009802432090044021,0.012278612945228815
1633781586208219400,3.270219482421875,0.04992635268568992,-0.02286532728075981,0.051879532580077645
1633781586228098000,3.29009814453125,0.04238017508983612,0.011125789648294448,0.03893734115958213
1633781586247977200,3.309977294921875,0.01777940231859684,0.02669336113631725,0.012944091116636991
1633781586267856100,3.329856201171875,0.03107785983085632,0.031711481559276576,0.04190232844501734
1633781586287735300,3.3497353515625,-0.014227262794971465,0.0661404053837061,0.055142041507363314
1633781586307614200,3.3696142578125,-0.02025017634630203,0.05438800826966762,0.0484950047083199
1633781586327493000,3.3894931640625,-0.04409808492362499,0.06564882247447967,0.05544073219299316
1633781586347372300,3.409372314453125,-0.04354395817220211,0.08870353484749793,0.06048427931815385
1633781586367251200,3.429251220703125,-0.06139701024889946,0.07439034733474253,0.12394377505481242
1633781586387130400,3.44913037109375,-0.05745850175619125,0.11738602397441864,0.2189746132276952
1633781586407009000,3.469009033203125,-0.04042202675938606,0.12265256620049476,0.19566124991849063
1633781586426888200,3.48888818359375,-0.034250644648075104,0.079715926271677,0.3092136870793998
1633781586446767400,3.508767333984375,-0.12401917837858199,0.0010182371318340302,0.5235968808636069
1633781586466646300,3.528646240234375,-0.27190263194739817,0.09347440251111984,0.7330550393357873
1633781586486525200,3.548525146484375,-0.37439912982583046,0.30348376512527464,0.5691470642916858
1633781586506404000,3.568404052734375,-0.3696247550308704,0.5348655861139298,0.20843524516522882
1633781586526283300,3.588283203125,-0.34837563077509404,0.6721627637386322,-0.046480596145987506
1633781586546162200,3.608162109375,-0.2601239313483238,0.6383131011068821,-0.23792013671621678
1633781586566041300,3.628041259765625,-0.11822305932044982,0.6286322495698928,-0.25736031185388564
1633781586585920300,3.647920166015625,0.015090601626038551,0.47652036465108394,-0.25199045538380743
1633781586605799200,3.667799072265625,0.29155133526921273,0.1666132884800434,-0.14986615181863308
1633781586625678300,3.68767822265625,0.5024292974114418,-0.07311316700577736,-0.07127133853137493
1633781586645557200,3.70755712890625,0.5734019452571869,-0.2833557538539171,-0.01710398727506399
1633781586665436200,3.727436279296875,0.5866910504192113,-0.45546997783780097,0.032201310902833936
1633781586685315000,3.747315185546875,0.5405471388816833,-0.598663227763772,0.10237389441207051
1633781586705194200,3.7671943359375,0.43976562822759147,-0.6683411596238613,0.023792963519692418
1633781586725073400,3.787073486328125,0.3486801666796207,-0.621533815741539,-0.1406777599737048
1633781586744952300,3.806952392578125,0.24974340710937976,-0.5056313083231448,-0.22215061291530727
1633781586764831500,3.82683154296875,0.1479307998418808,-0.36882337552011013,-0.24311785148978232
1633781586784710400,3.84671044921875,0.10864449911415576,-0.2188362276703119,-0.24727029499411582
1633781586804589600,3.866589599609375,0.05957914717197418,-0.12499299184679984,-0.18102409114837645
1633781586824468500,3.886468505859375,-0.018546879559755324,-0.06996317854225635,-0.04196764876618981
1633781586844347400,3.906347412109375,-0.09251695565581321,0.004021510601043701,0.0037388942673802373
1633781586864226600,3.9262265625,-0.11076397548615932,0.06819967600107192,0.10435235487818717
1633781586884105500,3.94610546875,-0.1429588566482067,0.06997779158949852,0.18791048966124652
1633781586903984600,3.965984619140625,-0.14583996504247188,0.08996902473866938,0.17249240964651108
1633781586923863300,3.98586328125,-0.13801964668035507,0.1439911223053932,0.09986790294051169
1633781586943742500,4.005742431640625,-0.12273089213371276,0.15943945132791995,-0.05352130843773484
1633781586963621400,4.025621337890625,-0.09904898777306079,0.15724924780726432,-0.11766893256902694
1633781586983500500,4.04550048828125,-0.03674070789813995,0.14745382997989653,-0.20354294307902454
1633781587003379500,4.06537939453125,0.02930675850510597,0.13924597360491753,-0.296466872100532
1633781587023258400,4.08525830078125,0.12813304343819618,0.08386486264467238,-0.3149053228497505
1633781587043137500,4.105137451171875,0.15009294631183145,0.026947628158330916,-0.33075667971521616
1633781587063016400,4.125016357421875,0.19303543145954608,-0.029440029495954513,-0.3543243100464344
1633781587082896400,4.144896484375,0.1748661530405283,-0.11636544875502586,-0.3414738885626197
1633781587102775600,4.164775634765625,0.16623334925174713,-0.23018588920235633,-0.273057354940474
1633781587122654500,4.184654541015625,0.13219547057151793,-0.2712771935254335,-0.2271742862962186
1633781587142533600,4.20453369140625,0.0841349117577076,-0.27202245893478394,-0.1921823217615485
1633781587162412300,4.224412353515625,0.0031663550764322278,-0.24596155048310755,-0.14970380086377263
1633781587182291500,4.24429150390625,-0.03290741334557533,-0.1368722302109003,-0.1284748426131904
1633781587202170400,4.26417041015625,-0.0346644861459732,-0.06696224316060542,-0.0653141836926341
1633781587222049500,4.284049560546875,-0.11057049874067305,0.017492986592650413,-0.052286652076244354
1633781587241928700,4.3039287109375,-0.10621230353116988,0.06972761622071266,-0.017550123607367275
1633781587261807400,4.323807373046875,-0.08770984763503074,0.07259001991450786,0.03147971863001585
1633781587281686500,4.3436865234375,-0.0336187764853239,0.06207388659715652,0.04441328835263848
1633781587301565400,4.3635654296875,-0.007520458632707595,0.04687281033396721,0.05500950116887688
1633781587321444600,4.383444580078125,-0.018528174859285353,0.04481880041360855,-0.0062036769457161425
1633781587341323300,4.4033232421875,0.016907880181074142,0.009084639209508895,-0.03982786025851965
1633781587361202400,4.423202392578125,0.014612462720274924,0.008230652728676796,-0.05990253390744328
1633781587381081600,4.44308154296875,-0.02517769587635994,0.05038344880342483,-0.1361290106281638
1633781587400960500,4.46296044921875,0.010153729745745658,0.0433960741341114,-0.17857625960484147
1633781587420839400,4.48283935546875,0.01386369017958641,0.05604162069559097,-0.18555398966297507
1633781587440718300,4.50271826171875,0.042293081328272815,0.09049918609261512,-0.22480609586015343
1633781587460597500,4.522597412109375,0.06553776331543922,0.05842062478661537,-0.25106793371140956
1633781587480476400,4.542476318359375,0.13404665139615535,0.025512042397260664,-0.2343571835376322
1633781587500355600,4.56235546875,0.1981593503445387,-0.005690905117988586,-0.21998320574834943
1633781587520234500,4.582234375,0.27959844714701176,0.01362052907347679,-0.2084539498656988
1633781587540113400,4.602113525390625,0.30306875458359717,0.022407646641135214,-0.21986410941332576
1633781587559992600,4.62199267578125,0.3463467552959919,0.06387246045172214,-0.23966727264448998
1633781587579871500,4.64187158203125,0.35425592098534103,0.03119944038391113,-0.16778949265256524
1633781587599750400,4.66175048828125,0.31798809129595756,0.035622517523169514,-0.11625672768354416
1633781587619629300,4.68162939453125,0.3231038268744945,0.04167991786599159,-0.06161357560902834
1633781587639508500,4.701508544921875,0.27706571379899975,0.009368716847896575,0.005635521668940782
1633781587659387600,4.7213876953125,0.2252466792345047,0.0005552957952022552,0.029790158107876778
1633781587679266600,4.7412666015625,0.1567886445581913,-0.03190788091421127,-0.013290566466748715
1633781587699145500,4.7611455078125,0.1077238771378994,-0.05810089131295681,0.015781506499648094
1633781587719024400,4.7810244140625,0.07242576926350593,-0.061438511303067204,0.048330169535428284
1633781587738903600,4.800903564453125,0.06144669460952282,0.0012257424026727675,0.0574007802195847
1633781587758782000,4.820781982421875,-0.01484276434481144,0.01691664800941944,0.09871025733798741
1633781587778661000,4.8406611328125,-0.08819441628158092,0.016477087548375128,0.10733473168984055
1633781587798540000,4.8605400390625,-0.13503975408673285,0.08176058384180068,0.09238353853449224
1633781587818419000,4.8804189453125,-0.2031646112859249,0.1451987445294857,0.06748539025187492
1633781587838298000,4.900298095703125,-0.245427297475934,0.2014905405938625,0.08139628057405351
1633781587858177000,4.920177001953125,-0.2215127534031868,0.26938918782174587,0.0501125229075551
1633781587878056000,4.940055908203125,-0.2379945171266794,0.2775876918464899,0.037911066851764916
1633781587897934800,4.959934814453125,-0.19584289009571074,0.2364619007319212,0.048898617073148486
1633781587917814000,4.97981396484375,-0.1746001955807209,0.1730494590073824,-0.01309577454701066
1633781587937693200,4.999693115234375,-0.12181494633257388,0.11930910099148749,0.028866029000282286
1633781587957572000,5.019572021484375,-0.11986205869913101,0.018541618862748147,0.043495004463940855
1633781587977451000,5.039450927734375,-0.060087681216001505,-0.03351063993573188,-0.001547229442000389
1633781587997330000,5.059329833984375,-0.011646598652005196,-0.0761959354519844,-0.01379617790132761
1633781588017209000,5.079208984375,0.015610826107859611,-0.12034136664867401,0.0025914777979254722
1633781588037088000,5.099087890625,0.05714052184820175,-0.1225157880783081,-0.017449147450923918
1633781588056967000,5.118966796875,0.07245908701121807,-0.10981178932785987,-0.040312867296487094
1633781588076846000,5.13884619140625,0.10557400562763214,-0.1272515844285488,-0.0005126256972551345
1633781588096725000,5.15872509765625,0.09860708922445774,-0.12837562002241612,-0.010697773494571447
1633781588116604200,5.178604248046875,0.09153554340302944,-0.11318915680646896,-0.005406389088183641
1633781588136483000,5.198483154296875,0.05821253499388694,-0.12275368848741054,0.003918927009403705
1633781588156362000,5.218362060546875,0.06195639769732952,-0.10107786325216293,-0.015462649808824062
1633781588176241000,5.238240966796875,0.09543138179779052,-0.08131167103052139,0.0015516133561730384
1633781588196120000,5.2581201171875,0.11329963144361972,-0.07673077298104762,0.053795595334470266
1633781588215999200,5.277999267578125,0.14464578682184218,-0.008254618126153945,0.059221127514541144
1633781588235878000,5.2978779296875,0.2020312233418226,0.059095747569203376,0.050784869211167094
1633781588255757000,5.317757080078125,0.19340718738138674,0.1141150394797325,0.08816869731843471
1633781588275636000,5.337635986328125,0.15997545790076254,0.15014087710678575,0.11302782876491546
1633781588295515100,5.35751513671875,0.1575198814421892,0.12938041315078735,0.09508987488374114
1633781588315394000,5.37739404296875,0.14295768760442734,0.11056991421878337,0.13132146421596408
1633781588335273000,5.39727294921875,0.10552490578889846,0.07764496521651744,0.17915128301382063
1633781588355152100,5.417152099609375,0.09867197115421295,0.0795551827520132,0.1987137693569064
1633781588375031000,5.437031005859375,0.05473287618458271,0.03871113118827343,0.2109166867174208
1633781588394910200,5.45691015625,-0.012118307816982268,0.019594342786073683,0.22512875194326043
1633781588414790000,5.476789794921875,-0.0312619842261076,0.03009060235917568,0.20567147954031822
1633781588434668000,5.49666796875,-0.0992623382627964,0.035709611284732816,0.18439619792997836
1633781588454548200,5.51654833984375,-0.13216449091136453,0.05925941369831562,0.1806383067011833
1633781588474427000,5.536427001953125,-0.14691197818815707,0.06813830120265484,0.11126607978940009
1633781588494306000,5.55630615234375,-0.14049100522994995,0.10051847580373287,0.03525339194983244
1633781588514185000,5.57618505859375,-0.15080781658291817,0.1297270346313715,-0.026655513343960047
1633781588534064000,5.596064208984375,-0.1272036536335945,0.14375380641818045,-0.05525339292734861
1633781588553943000,5.615943115234375,-0.06502747570574283,0.135552379783988,-0.08772358389943838
1633781588573822000,5.635822021484375,0.023539281019568443,0.09529343463182449,-0.11253960685655474
1633781588593701000,5.655701171875,0.08097206381261349,0.046833647367358205,-0.04989215815514326
1633781588613580000,5.675580078125,0.1394119778215885,0.021314006185531614,-0.01745747688785195
1633781588633459200,5.695459228515625,0.1383580848544836,-0.0410737686663866,0.013696516919136047
1633781588653337900,5.715337890625,0.12060790863037109,-0.05356383240520954,0.03752396723031998
1633781588673217000,5.735217041015625,0.053316579645872116,-0.025837621089816094,0.006042202773690223
1633781588693096000,5.755095947265625,-0.005418517917394638,0.016519173124432563,-0.012336480612307786
1633781588712975000,5.77497509765625,-0.07236907064020633,0.025708441752195357,-0.0030421441748738286
1633781588732854000,5.79485400390625,-0.10286416214704514,0.09883388371765613,0.00047419338300824164
1633781588752733000,5.81473291015625,-0.14480126964449883,0.12838964854776858,-0.022575696684420107
1633781588772612900,5.83461279296875,-0.16473872677981852,0.13066110061109065,-0.028345658387988804
1633781588792492000,5.854491943359375,-0.14162906934916972,0.10355623606443405,-0.004964782800525426
1633781588812370700,5.87437060546875,-0.1261287178784609,0.07476911751925945,0.052407209715992206
1633781588832249900,5.894249755859375,-0.11541150903105735,0.04895078565180301,0.07591507268399
1633781588852128800,5.914128662109375,-0.09724456869959831,0.019114450314641,0.06577683276832104
1633781588872008000,5.934008056640625,-0.09625964931547641,0.0066793316334486,0.07752630727291107
1633781588891886800,5.953886962890625,-0.07249708093404769,-0.0022837270230054853,0.10774798866584896
1633781588911765800,5.973765869140625,-0.09120762662291526,0.03512508939504623,0.049077042379975316
1633781588931645000,5.99364501953125,-0.039103345376253124,0.08604045311808585,-0.01158215511366725
1633781588951523800,6.01352392578125,-0.029540567260980605,0.13360299928188324,0.0041834231644868845
1633781588971403000,6.033403076171875,-0.05215162751972675,0.1566746627897024,-0.00959200420975685
1633781588991281700,6.05328173828125,0.0014624737679958342,0.18585633361041545,-0.06240063433349132
1633781589011160800,6.073160888671875,0.008065233033895492,0.16060148084461687,-0.07477320917248725
1633781589031040000,6.0930400390625,0.05522036744058132,0.130925304505229,-0.03032148850560188
1633781589050919000,6.1129189453125,0.04601005602478981,0.06515139434635639,-0.006819470756500959
1633781589070797800,6.1327978515625,0.04735211828351021,0.033822190102934836,-0.04782017418667674
1633781589090676700,6.1526767578125,0.04719429737329483,-0.031200024905800816,-0.04959960494935512
1633781589110556000,6.172555908203125,0.006978022319078445,-0.07261690792143344,-0.005017535901069641
1633781589130434800,6.192434814453125,-0.018379121777415273,-0.07400807001888751,-0.025188801792263984
1633781589150313700,6.212313720703125,-0.05891922195851802,-0.041569443228840826,-0.033048136990517375
1633781589170193000,6.23219287109375,-0.09588029460906981,-0.03964519716799259,-0.019675006806850432
1633781589190071800,6.25207177734375,-0.10904898826181889,-0.02885843021571636,-0.03868409705087542
1633781589209951000,6.271950927734375,-0.09666706107258796,0.007873509854078293,-0.05756430021822452
1633781589229830000,6.291829833984375,-0.1002209541618824,0.028580197796225545,-0.038191491228342055
1633781589249708800,6.311708740234375,-0.0760521430671215,0.03830839560627937,-0.08320844456255436
1633781589269587700,6.331587646484375,-0.056310500764846796,0.020222119295597075,-0.07116495554745197
1633781589289467000,6.351466796875,-0.007529810982942581,0.0033832126975059506,-0.052762014503031966
1633781589309346000,6.371345947265625,0.02979483428299427,-0.019053075516223907,-0.060966948268562554
1633781589329224700,6.391224609375,0.05151040700674057,-0.04045183737576007,-0.05346387916207313
1633781589349103900,6.411103759765625,0.1055623151898384,-0.07981120333969592,-0.026371581836044787
1633781589368982800,6.430982666015625,0.13053659744858742,-0.11521510967612265,0.018570698826760053
1633781589388862000,6.450862060546875,0.10809037236273288,-0.09401976143419742,0.04028028020113707
1633781589408740900,6.470740966796875,0.12593348756730555,-0.058085693743824954,0.0006717617817223072
1633781589428619800,6.490619873046875,0.1111871693342924,-0.04649871632456779,0.01640241487696767
1633781589448499000,6.5104990234375,0.08064940772950649,-0.027777649241685867,0.029655279681831598
1633781589468377900,6.5303779296875,0.04510053996443748,0.012221768191456794,0.005277794272452592
1633781589488257000,6.550257080078125,0.03470598720014095,0.04276128336191177,-0.04054170761629939
1633781589508135700,6.5701357421875,0.05280687655806541,0.0601794511526823,-0.04357055391818285
1633781589528014800,6.590014892578125,0.07476444134414195,0.04121054678857326,-0.036741146289557214
1633781589547893800,6.609893798828125,0.08295125493109226,0.06814297737777232,-0.034089316606521605
1633781589567773000,6.62977294921875,0.08221475735008717,0.02753039648234844,0.010782529168576001
1633781589587652000,6.649652099609375,0.09427578202188014,-0.019651041409373283,0.0766644297465682
1633781589607530800,6.66953076171875,0.12683482032120227,-0.013514146089553833,0.03169073103219271
1633781589627410000,6.689409912109375,0.10546528455615042,-0.034492052188515664,0.032864012595266105
1633781589647288800,6.709288818359375,0.10797931320369243,-0.03807341780662536,0.048964521916210646
1633781589667168800,6.729168701171875,0.07687807249724865,0.04004617918431758,0.0034345044933259484
1633781589687048000,6.7490478515625,0.06698796212375163,0.058097968703508376,-0.032831863891333336
1633781589706926800,6.7689267578125,0.061169046711921686,0.07810615298748017,-0.01917173345983028
1633781589726806000,6.788805908203125,0.05324585249722004,0.10673311253488063,0.0060655836492776866
1633781589746684700,6.8086845703125,0.030778000101447104,0.11987784079015254,-0.018502455896139143
1633781589766563000,6.82856298828125,0.011725509107112883,0.08296294536888599,-0.06220774210989475
1633781589786442200,6.848442138671875,-0.003536357432603836,0.0547375523597002,-0.05077259425148368
1633781589806321200,6.868321044921875,-0.0203822782933712,0.022134090396761893,-0.08511544722765683
1633781589826200300,6.888200439453125,-0.013303133687376975,-0.001264320847392082,-0.0948715559579432
1633781589846079200,6.908079345703125,0.02489478728175163,-0.02491933720111847,-0.05071019653975963
1633781589865958100,6.927958251953125,0.023458032476902008,0.016701543954014776,-0.03331044118851423
1633781589885837300,6.94783740234375,0.06330839682817459,0.01319791974723339,-0.05167407313585281
1633781589905716200,6.96771630859375,0.0863391438037157,0.038708208578824996,-0.04290858287811279
1633781589925595400,6.987595458984375,0.07675123124718666,0.06593699176609516,-0.03390241573229432
1633781589945474000,7.00747412109375,0.10490706615149974,0.08703121772110461,-0.024981442651897667
1633781589965353200,7.027353271484375,0.1199842237740755,0.11163842023313045,-0.07958250915035604
1633781589985232100,7.047232177734375,0.1367062259942293,0.09152560653090476,-0.08862959282845258
1633781590005111300,7.067111328125,0.15962182215750217,0.057337505725026126,-0.04671177455335855
1633781590024990200,7.086990234375,0.1480225697785616,0.051665889829397196,-0.05519654817357659
1633781590044869000,7.106869140625,0.1492939048886299,0.014413140755891798,-0.05762129110246896
1633781590064748300,7.126748291015625,0.04584989702701568,0.027933132064342496,-0.021639584878087044
1633781590084627200,7.146627197265625,0.052499418044090265,-0.02835866400003433,-0.007337503281235695
1633781590104506400,7.16650634765625,0.001050970357656479,-0.04072247101068496,-0.020587153215706346
1633781590124385000,7.186385009765625,-0.005603226834535599,-0.030885552129149434,-0.029134909069538115
1633781590144264200,7.20626416015625,-0.01778407849371433,-0.0421761769503355,-0.017141542806476354
1633781590164143400,7.226143310546875,-0.020998364365100858,-0.052930795198678965,0.021192133371531963
1633781590184022300,7.246022216796875,-0.045614919227361675,-0.04914367787539959,0.020868308244645594
1633781590203901200,7.265901123046875,0.010011106404662132,-0.022561375898122786,-0.03550678218901157
1633781590223780000,7.285780029296875,0.03388122681379318,0.028010288953781125,-0.017953735972195864
1633781590243659300,7.3056591796875,0.046669396716356275,-0.008360416588187217,0.029431700059026476
1633781590263538200,7.3255380859375,0.0749672704398632,-0.008306056052446364,0.0164336867980659
1633781590283417300,7.345417236328125,0.07764145808517932,0.01410685128569603,-0.004515577728301286
1633781590303296300,7.365296142578125,0.07462532513439654,0.017608721926808357,0.03995820863991976
1633781590323175200,7.385175048828125,0.07486497910916805,0.027087328889966008,0.060437225306034084
1633781590343054300,7.405054443359375,0.09438625665903091,0.06683949356377124,0.024880174234509465
1633781590362933200,7.424933349609375,0.0956453168094158,0.08689794673025608,0.027744769885390996
1633781590382812200,7.444812255859375,0.06578443155288696,0.10137187776267528,0.07326368139237165
1633781590402691000,7.464691162109375,0.08658464299738407,0.11029460440874099,0.04235270256102085
1633781590422570200,7.4845703125,0.07733575313687324,0.12601298254430293,0.00573737460821867
1633781590442449400,7.504449462890625,0.06789689366221427,0.06526362254917621,0.03550648992806673
1633781590462328300,7.524328369140625,0.016297639328241346,0.07814063977897166,0.039921676021814345
1633781590482207200,7.544207275390625,0.020819500666856765,0.04255494713485241,0.006438800875842571
1633781590502086100,7.564086181640625,-0.002101356193423271,0.04263619567751884,-0.01567190864533186
1633781590521965300,7.58396533203125,0.006835398977994918,0.04414835380613803,-0.02532879478484392
1633781590541844200,7.60384423828125,0.008640987095236778,0.019139000234007834,0.03880027077645063
1633781590561723100,7.62372314453125,0.005751110872626304,0.006024082595109939,0.07832286447808146
1633781590581602300,7.643602294921875,0.001841243952512741,-0.005997779110074043,0.05092851546555757
1633781590601481200,7.663481201171875,-0.02338379819691181,-0.04521393721103668,0.06202142575755715
1633781590621360400,7.6833603515625,-0.10742752453982829,-0.07989011379480361,0.07643880429714918
1633781590641239000,7.703239013671875,-0.13066986843943595,-0.11151976228952407,0.03982318408340216
1633781590661118200,7.7231181640625,-0.16305238112807272,-0.13209142567515372,-0.03317103271782398
1633781590680997000,7.7429970703125,-0.16124445492327213,-0.0848965437799692,-0.05593816032111645
1633781590700876300,7.762876220703125,-0.15885551396012304,-0.05415946021080017,-0.033018034113198515
1633781590720755500,7.78275537109375,-0.12603519437611102,-0.010126841738820076,-0.028253157798945903
1633781590740634000,7.802634033203125,-0.0829407335370779,0.07359247495532036,-0.08622355460003017
1633781590760513300,7.82251318359375,-0.026210546055436133,0.0995715503424406,-0.08038944161906839
1633781590780392200,7.84239208984375,0.05199848278462887,0.11263503005504608,-0.029909254442900417
1633781590800271400,7.862271240234375,0.1329027420580387,0.1246200668811798,0.0024143676653504372
1633781590820151300,7.8821513671875,0.16430442701578138,0.13634908311963082,0.0036107378430664536
1633781590840029200,7.902029296875,0.20558044025599956,0.09953472546339034,0.036938130166381596
1633781590859909400,7.921909423828125,0.2145709714412689,0.03293722396194935,0.08718085532486439
1633781590879788300,7.941788330078125,0.20166823524832725,0.05530512311458587,0.040957887201756235
1633781590899667200,7.961667236328125,0.1846463732987642,0.0352875864803791,0.03031973493993282
1633781590919546400,7.98154638671875,0.11549568018317222,0.008892331507802009,0.06871697787344455
1633781590939425300,8.00142529296875,0.09666355394124984,0.004830488896369934,0.0678990856193006
1633781590959304400,8.021304443359375,0.048346974539756775,0.0039233109235763544,0.03645370765030384
1633781590979183000,8.04118310546875,-0.008110241219401359,0.03328676805198193,-0.007922463562339544
1633781590999062300,8.061062255859374,-0.030422610792517662,0.04080255050957202,0.011991904958337544
1633781591018941200,8.080941162109376,-0.05644961697459221,0.03274725434780121,-0.047775019870698446
1633781591038820400,8.1008203125,-0.05637070651948452,0.02747720499038696,-0.09172156749442219
1633781591058699300,8.12069921875,-0.0654120911091566,0.015891981136798856,-0.06805544522479176
1633781591078578200,8.140578125,-0.06049450845122337,0.004106266275048256,-0.05234525039568543
1633781591098457300,8.160457275390625,-0.021550153028964996,-0.001440261936187744,-0.07004574225917458
1633781591118336300,8.180336181640625,-0.012153379130363464,-0.008013210585713386,-0.10222206485122441
1633781591138215400,8.20021533203125,0.027076807495951653,-0.004057166436314583,-0.07902955144271254
1633781591158094000,8.220093994140624,0.027414661148190498,0.027666005560755727,-0.04951338797062635
1633781591177973200,8.23997314453125,0.042103696236014364,0.05085281988084316,-0.07668576479554176
1633781591197852400,8.259852294921876,0.0749281074732542,0.060849897760152816,-0.0681954382173717
1633781591217731300,8.2797314453125,0.09677928927540778,0.03928571620583534,-0.039338761567324396
1633781591237610200,8.2996103515625,0.11768062300682067,0.03520692245960235,0.01730827767550945
1633781591257489200,8.3194892578125,0.07816460517644881,0.002586509361863136,0.0754337189078331
1633781591277368300,8.339368408203125,0.053453357768058776,0.006969254490733146,0.08707651816755532
1633781591297247200,8.359247314453125,0.04928337860703468,-0.024868483796715735,0.09989683677405119
1633781591317126400,8.37912646484375,0.008844400712847708,0.004519523251056671,0.10749795942753552
1633781591337005300,8.39900537109375,0.004849778118729591,0.0037508769661188123,0.09162614429593086
1633781591356884200,8.41888427734375,-0.02385316927433014,0.04681026649177074,0.09129325907975434
1633781591376763400,8.438763427734376,-0.0027086744368076325,0.06656184566617011,0.07788052753806114
1633781591396642300,8.458642333984375,0.01554419061243534,0.08046002263724804,0.05683876242265105
1633781591416521200,8.478521240234375,0.024658640438318252,0.0887269157230854,0.04713613744527101
1633781591436400000,8.498400146484375,0.045806642407178876,0.07423427999019622,0.04562690192610025
1633781591456279300,8.518279296875,0.0807446847975254,0.06043488721847534,0.07292027478218079
1633781591476158500,8.538158447265625,0.0635480508029461,0.026493454650044438,0.07409662508517503
1633781591496037000,8.558037109375,0.10639818149209022,0.029100422278046607,-0.0018377368211746215
1633781591515916300,8.577916259765624,0.11079027897119521,-0.011439677903056144,-0.006613865181803703
1633781591535795200,8.597795166015626,0.09915537075698375,-0.04185585895478725,0.03522416585534811
1633781591555674400,8.61767431640625,0.10207973377108573,-0.01902501846551895,-0.03639364802613854
1633781591575553300,8.63755322265625,0.09564707037508487,0.003516483688354492,-0.07572101141661405
1633781591595432200,8.65743212890625,0.05146481429934501,0.034275779089331625,-0.07716302691847085
1633781591615311400,8.677311279296875,0.04233692046999931,0.025278818163275717,-0.07909326432868838
1633781591635190300,8.697190185546875,-0.00658522360920906,0.08159808675646782,-0.1792030132010579
1633781591655069400,8.7170693359375,-0.01613631128668785,0.08616554080247879,-0.212218124704808
1633781591674948000,8.736947998046874,-0.029085224708914757,0.10314531717598438,-0.23640710180476307
1633781591694827300,8.7568271484375,-0.025448914033174515,0.07295651513934134,-0.23448417091816662
1633781591714706200,8.7767060546875,-0.02984744125306606,0.020552374163269996,-0.248188432752341
1633781591734585300,8.79658544921875,-0.018465046495199203,-0.003642740416526794,-0.22084040709957478
1633781591754464300,8.81646435546875,-0.04151566721498966,-0.055098202365636825,-0.20118644308075306
1633781591774344000,8.836343994140625,-0.027039982616901395,-0.0866091929167509,-0.1710777205429971
1633781591794223000,8.85622314453125,-0.02609948689639568,-0.08971826484799385,-0.14325827798619867
1633781591814102000,8.87610205078125,-0.03474982634186744,-0.08715922801494598,-0.09119754362031816
1633781591833981000,8.89598095703125,-0.032545009773969645,-0.06795300776362419,-0.05356821631938219
1633781591853861000,8.915861083984375,-0.06462181751430034,-0.021236849296092986,0.007369798115640878
1633781591873740000,8.935739990234374,-0.03755085523724556,-0.0034866730719804763,0.03655921385139227
1633781591893618000,8.955617919921876,-0.03809562963843345,0.044759763702750206,0.05092179346382618
1633781591913497900,8.975497802734376,-0.03293839300572872,0.07890344084501266,0.1070649748377502
1633781591933377000,8.995376953125,-0.04007482075691223,0.09969956063628196,0.17650690598487853
1633781591953256000,9.015255859375,-0.041649522727727886,0.1097410621792078,0.19712810760065913
1633781591973135000,9.035135009765625,-0.024234862068295476,0.10109832151830196,0.1648120842769742
1633781591993013800,9.055013671875,0.024276363122463226,0.08642682208716869,0.214143685939908
1633781592012893000,9.074892822265625,0.0645762248069048,0.07499883462190628,0.23961788054481148
1633781592032772000,9.094772216796875,0.09751578685641288,0.10643149923980236,0.19756036153808235
1633781592052651000,9.114651123046874,0.1321931324839592,0.09569500117003917,0.16780629765689373
1633781592072530000,9.134530029296876,0.09559446340501308,0.04995616330206394,0.18139876967966556
1633781592092408800,9.154408935546876,0.08663900353312493,0.03965688760578632,0.12461319874897599
1633781592112288000,9.1742880859375,0.10801789164841175,0.062332245272397994,0.04032616516947746
1633781592132167000,9.1941669921875,0.09186112209558486,0.021742460730671882,0.025981559605151413
1633781592152046000,9.214046142578125,0.09148819712996482,0.0030137948632240293,0.03670417528003454
1633781592171925000,9.233925048828125,0.06714461399018765,0.01566401759982109,0.01476122354120016
1633781592191804000,9.253803955078125,0.04792904138863086,0.02373626489639282,0.005772884313017129
1633781592211683000,9.27368310546875,0.05110474881529808,0.023374445846676827,-0.056359308342635625
1633781592231562000,9.29356201171875,0.02740355523228645,0.018312486281991003,-0.0655463850133121
1633781592251441000,9.31344091796875,0.047073885864019394,-0.018909283131361008,-0.014946663110703228
1633781592271319800,9.33331982421875,0.03975976345837116,-0.012119476860761641,0.004778028056770563
1633781592291199000,9.353198974609375,0.05148585708737373,-0.012454407903552055,-0.0350992243014276
1633781592311078100,9.373078125,0.03749766374528408,-0.007776479220390319,-0.020848288369923827
1633781592330957000,9.39295703125,0.023794717085361478,-0.008698270240426064,0.023416385292261838
1633781592350836000,9.4128359375,0.020633038184046743,0.022878186762332914,0.014646364989876747
1633781592370715000,9.43271484375,0.026163784304261205,0.03557926290333271,0.007843699237704277
1633781592390594000,9.452593994140624,0.026325112345814704,0.06383972722589969,0.00893149447441101
1633781592410473000,9.472472900390626,0.0012263269245624542,0.07709551464021205,0.023169278663396835
1633781592430352000,9.492351806640626,-0.008815759140253067,0.0825309836924076,0.014164134430885314
1633781592450231000,9.51223095703125,-0.0006038111120462417,0.07178337970674037,0.02553133161962032
1633781592470110000,9.53210986328125,-0.014134323814511298,0.08235328903794288,-0.010600304469466209
1633781592489989000,9.551989013671875,0.01371814422905445,0.06887655234932899,-0.04880728552788496
1633781592509868000,9.571867919921875,0.018909283131361008,0.04566401906609535,-0.024516893880069255
1633781592529747000,9.591746826171875,0.05159925433397293,0.05389759440422058,-0.028037469221651554
1633781592549625900,9.6116259765625,0.08259235849082469,0.06847206320166588,-0.08752119319513439
1633781592569505000,9.631505126953124,0.12000818917155265,0.07497486922442913,-0.08777619086951016
1633781592589384200,9.65138427734375,0.14411270285844802,0.07290098555982112,-0.0015055822573602198
1633781592609262800,9.671262939453126,0.1307160456687212,0.09964578462243079,0.03114230336919427
1633781592629142000,9.69114208984375,0.08281973750591277,0.07934241678416729,0.032384266254305835
1633781592649021000,9.71102099609375,-0.04210428075790405,-0.021270751565694808,0.027951544503867623
1633781592668900000,9.730900146484375,-0.16027473310828208,-0.09115326608717442,0.005562894824147224
1633781592688778800,9.75077880859375,-0.20838731437027452,-0.04242401423156261,-0.03095525636449456
1633781592708658000,9.770657958984375,-0.2452835050910711,-0.010028057539463042,-0.04912205056548118
1633781592728537000,9.790537109375,-0.21718027715682983,0.0024456395864486695,-0.11113149362429976
1633781592748416000,9.810416015625,-0.135699679300189,-0.00473871895968914,-0.07260390230938792
1633781592768294700,9.830294677734376,-0.0884697260916233,-0.028574937099218368,0.026115415117889642
1633781592788173300,9.85017333984375,-0.021406360644102094,0.019556348863244057,0.06250014918521046
1633781592808052500,9.870052490234375,0.013641571861505507,-0.003281505888700485,0.08412848201692104
1633781592827931400,9.889931396484375,0.06588438479602336,-0.019948563051223753,0.1210750877507031
1633781592847810600,9.909810546875,0.058419455742835996,0.0016255553752183914,0.09500175820887088
1633781592867689500,9.929689453125,0.04077800059020519,0.030315643286705014,0.06947875602617859
1633781592887569400,9.9495693359375,0.027714520877599715,0.028155834904313087,0.06636836892068386
1633781592907447600,9.969447509765626,0.045156654065847394,0.034893618726730344,0.039326340477168556
1633781592927327500,9.989327392578126,0.033708208334445953,0.02698503755927086,0.0349750133998692
1633781592947206400,10.009206298828126,0.013598901763558387,0.026944705548882484,0.030729484784603116
1633781592967085300,10.029085205078125,-0.009058920246362685,0.02851122421324253,0.008551993637531995
1633781592986964500,10.048964599609375,-0.0002688800692558288,0.029145430463552474,-0.010470394479483365
1633781593006843600,10.06884375,0.014471008422970772,0.033981764578819275,-0.02690831906124949
1633781593026722300,10.088722412109375,-0.042186698344349856,0.06559270837306976,-0.04081964777484536
1633781593046601500,10.1086015625,-0.01792670183479786,0.054873161438107484,-0.06670914518237113
1633781593066480400,10.12848046875,-0.011489362263679503,-0.000633037206530571,-0.08540858495533465
1633781593086359600,10.148359619140624,0.005754033482074737,-0.017787585625052452,-0.06056801207885146
1633781593106238500,10.168238525390626,0.020823007798194883,-0.010568740287423134,-0.036060032157599925
1633781593126117400,10.188117431640626,0.07519991015195845,0.0028618191719055174,-0.1194677986845374
1633781593145996500,10.20799658203125,0.044049569606781004,-0.03566635666489601,-0.03691431089937687
1633781593165875500,10.22787548828125,0.08370587269067764,-0.0448731609493494,-0.00931055691987276
1633781593185754600,10.247754638671875,0.012424597287178039,0.006222820037603378,0.001970569420605898
1633781593205633300,10.26763330078125,-0.018618775752186775,0.026048048970103262,0.018378244994580746
1633781593225512400,10.287512451171875,-0.051741293153166765,0.07308686352074145,0.01976370800361037
1633781593245391400,10.307391357421874,-0.05691898805201053,0.11922434531748294,0.017586363964527844
1633781593265270500,10.3272705078125,-0.06868307560384274,0.1751701044231653,0.019838672935962677
1633781593285149700,10.347149658203126,-0.047266778087615965,0.2025111158132553,-0.0024633213736116885
1633781593305028400,10.3670283203125,0.041030514046549796,0.2077829187363386,-0.009124240567535162
1633781593324907500,10.386907470703125,0.07693126398921013,0.16345570123195646,0.005181494291126728
1633781593344786400,10.406786376953125,0.12688450468182563,0.13946926096677778,-0.009542904371023177
1633781593364665600,10.42666552734375,0.15167173993587493,0.1101157407104969,-0.009803747264295816
1633781593384544300,10.446544189453125,0.15146131205558777,0.06265373231172561,-0.0043932665228843685
1633781593404423400,10.46642333984375,0.13111644316315652,0.05412789602875709,-0.025810440821945665
1633781593424302600,10.486302490234374,0.06665069299340248,0.05599778155386448,-0.07291822895556688
1633781593444181500,10.506181396484376,0.023018472015857695,0.06341770242154599,-0.10105886629074812
1633781593464060700,10.526060791015626,0.008045943811535835,0.0329132585644722,-0.1337701725423336
1633781593483939300,10.545939208984375,-0.021074352210760115,0.02429097616970539,-0.1143998477704823
1633781593503818500,10.565818603515625,-0.04685293658971786,0.02224924120903015,-0.10293182055577635
1633781593523697400,10.585697509765625,-0.0452262121707201,0.017013094121217726,-0.1310435240574181
1633781593543576600,10.60557666015625,-0.024102175599336622,-0.005445990446209907,-0.12202931973561644
1633781593563455500,10.62545556640625,-0.04633972637057304,-0.019370470902323723,-0.09609028409793972
1633781593583334400,10.64533447265625,-0.0691419252872467,-0.06919920843243599,-0.04652297398298978
1633781593603213600,10.665213623046874,-0.09392097723484039,-0.06423077237010001,-0.056566959743946786
1633781593623092500,10.685092529296876,-0.11644552825391292,-0.04921966572105884,-0.09169657918363809
1633781593642971400,10.704971435546875,-0.14871639726161956,-0.04006488388478756,-0.10512056277170777
1633781593662850300,10.724850341796875,-0.1330687462747097,0.011052724412083626,-0.14280103573799133
1633781593682729500,10.7447294921875,-0.09748130006492137,0.07166589080691337,-0.1401059514351189
1633781593702608600,10.764608642578125,-0.06674655458331108,0.09192425045967101,-0.09710457570701837
1633781593722487600,10.784487548828125,-0.013058803537487984,0.10220599049925803,-0.07795373890474439
1633781593742366500,10.804366455078124,0.03747603643536567,0.11427929013073444,-0.053175709870457645
1633781593762245000,10.8242451171875,0.10750643499493598,0.05872632973492145,-0.031221359954774378
1633781593782124000,10.8441240234375,0.11436696841418742,0.03507365146875381,-0.003231821528077125
1633781593802003200,10.864003173828126,0.1451806243509054,-0.004840425768494605,-0.0041983284726738925
1633781593821883100,10.883883056640625,0.13160568798482417,-0.04446984084546566,0.012450900772213934
1633781593841761000,10.903760986328125,0.10138649080991745,-0.06257248376905918,0.01115165474191308
1633781593861641200,10.92364111328125,0.12717910371422766,-0.06378478216826915,-0.017605945447832345
1633781593881519000,10.94351904296875,0.095797877022624,-0.041819034075737,0.06743117584660649
1633781593901399000,10.96339892578125,0.04448503841459751,-0.03312894714176655,0.10920666304156183
1633781593921278200,10.9832783203125,0.006350245809555053,0.013546294793486595,0.1141777294524014
1633781593941157000,11.0031572265625,-0.058576107609272,0.032843115937709805,0.09156301593184471
1633781593961036300,11.023036376953126,-0.08772738329172133,0.03912438816428184,0.11988178631290793
1633781593980915000,11.0429150390625,-0.13264438338279724,0.07954524587988852,0.1282540394693613
1633781594000794000,11.062794189453125,-0.1714765106022358,0.08174363270699977,0.10703794070035219
1633781594020673000,11.082673095703125,-0.1494979030281305,0.07088146243095397,0.0885467368505895
1633781594040552200,11.10255224609375,-0.14969780951440334,0.08253390630185603,0.036517420536279675
1633781594060431400,11.122431396484375,-0.12167173846960067,0.1099415531873703,-0.00055661096945405
1633781594080310000,11.14231005859375,-0.05040741420090198,0.1015320367604494,-0.01853328942582011
1633781594100189200,11.162189208984374,0.04331248750388622,0.08249065168201923,-0.05372720627337694
1633781594120068000,11.182068115234374,0.12929799556434154,0.08557926534712314,-0.09802125216051935
1633781594139947300,11.201947265625,0.17384733138680458,0.041947628891468046,-0.05073503872007131
1633781594159826000,11.221825927734375,0.22102117049396036,-0.004285129973292351,0.0015345160908997058
1633781594179705000,11.241705078125,0.2405833645761013,-0.011968670213222503,0.007986322578787803
1633781594199584300,11.261584228515625,0.20809914507865904,-0.018035422906279564,0.004121171583235264
1633781594219463200,11.281463134765625,0.1388853235989809,-0.03529518526494503,0.034978374400734896
1633781594239342300,11.30134228515625,0.04198679185807705,-0.02723988910317421,0.03360197148099541
1633781594259221000,11.321220947265624,-0.01338438223004341,-0.01184065991938114,0.029048984351754188
1633781594279100200,11.34110009765625,-0.09950082319378853,0.010111644169688225,0.012201748316735029
1633781594298979000,11.36097900390625,-0.13509995984137058,0.04255494713485241,-0.050107700601965184
1633781594318858200,11.380858154296876,-0.12109072371125221,0.05280687655806541,-0.06349880483373999
1633781594338737200,11.400737060546875,-0.10566519104242324,0.04835574236810207,-0.009562193593382834
1633781594358616000,11.420615966796875,-0.060306876924633976,0.024487375524640084,0.04457593156844377
1633781594378495200,11.4404951171875,0.019296236622333526,0.02594575763940811,0.065262161244452
1633781594398374100,11.4603740234375,0.062278469258546826,-0.017233458873629568,0.08359305996596812
1633781594418253000,11.480253173828125,0.11181260775625705,0.010474632263183592,0.08300210833549498
1633781594438132000,11.500132080078124,0.1352507664889097,-0.01637888787090778,0.12525924156755208
1633781594458011100,11.52001123046875,0.13506956470310688,0.009678513449430465,0.13013736899793146
1633781594477890300,11.539890380859376,0.17472528326511383,0.018686580291390417,0.10609773724079131
1633781594497769200,11.559769287109376,0.16239245591461657,0.019012158983945846,0.11628376182094216
1633781594517648100,11.579648193359375,0.14543079971969128,0.04730184940099716,0.08853679997846484
1633781594537527000,11.599527099609375,0.12470189994573593,0.09802782803177833,0.054805064637959
1633781594557406200,11.61940625,0.06087795481085777,0.11153203724920749,0.05208206941485405
1633781594577285000,11.63928515625,0.03683656948804855,0.060471127575635907,0.05298603251725435
1633781594597164000,11.6591640625,0.04484451937675476,0.0405728334069252,0.03704378249794245
1633781594617043200,11.679043212890624,-0.005080079743266105,0.02462766077816486,0.05928001809492707
1633781594636922000,11.698922119140626,-0.02411094342768192,-0.021483517533540726,0.06693199415281414
1633781594656801300,11.71880126953125,-0.01604746395945549,-0.0066834232866764065,-0.012313538128137588
1633781594676680200,11.73868017578125,0.0018593641310930252,0.03390168507993221,-0.11082608093693852
1633781594696559000,11.75855908203125,0.008978840747475623,0.017786416581273078,-0.09595365210622549
1633781594716438000,11.77843798828125,0.022328736186027525,-0.0028740941315889357,-0.0494677952632308
1633781594736317200,11.798317138671875,0.08810264634490013,-0.038186230531334873,-0.015059329704940318
1633781594756196000,11.818196044921875,0.123696522295475,-0.010196984365582466,-0.021550445289909837
1633781594776075500,11.838075439453124,0.1359790807634592,0.03902092778980732,-0.009812661223113537
1633781594795954700,11.85795458984375,0.10860007545053958,0.04732406123280525,0.05162175842672586
1633781594815834600,11.877834716796874,0.07852934683561325,0.03002045973241329,0.11140724182575941
1633781594835713500,11.897713623046876,0.038138884258270264,0.05720774186551571,0.1415329154983163
1633781594855592400,11.917592529296876,0.025080665242671964,0.082356796169281,0.084804627712816
1633781594875471600,11.9374716796875,-0.02657178058326244,0.14509645319879055,0.013920096541941165
1633781594895350800,11.957350830078125,-0.06770107882916927,0.14090426220595836,0.005482961455732583
1633781594915229400,11.9772294921875,-0.08518471307158469,0.10890811848640441,-0.011183803445845842
1633781594935108600,11.997108642578125,-0.09334756126105785,0.07690554502606392,-0.04630728540569543
1633781594954987500,12.016987548828125,-0.08555529994964599,0.06592705489397048,-0.05157499667555093
1633781594974866700,12.03686669921875,-0.07112754614651202,0.016395254483819007,-0.023472937785089014
1633781594994745600,12.05674560546875,-0.048018473237752914,-0.06115677175223827,0.018967004667967555
1633781595014624500,12.07662451171875,-0.03955927245020866,-0.08427811962068081,0.02427519407868385
1633781595034503700,12.096503662109376,-0.012918518283963202,-0.0753852035909891,0.02309621342718601
1633781595054382600,12.116382568359375,-0.005748772785067558,-0.05483399847149849,0.06078063191622495
1633781595074261800,12.13626171875,-0.009795417827367783,-0.062304772743582724,0.06835954273790121
1633781595094140400,12.156140380859375,-0.025085341417789456,0.0148836808770895,-0.007617489266395569
1633781595114019600,12.17601953125,-0.014620646026730537,0.020115736311674116,-0.005652326673269271
1633781595133898500,12.1958984375,-0.020434300741553304,-0.050558220848441124,0.06364435078427196
1633781595153777700,12.215777587890624,0.005460018971562385,-0.03843523685634136,0.050574441330879925
1633781595173656600,12.235656494140626,-0.012345102310180663,-0.021415128472447396,0.03565627366229891
1633781595193535500,12.255535400390626,-0.023985271221399304,-0.05942717148065567,0.07210252865850925
1633781595213414700,12.27541455078125,0.015402736315131187,-0.041163785037398336,0.07402443663179874
1633781595233293600,12.29529345703125,0.01462006150484085,0.012740239107608794,0.026318974865972993
1633781595253172700,12.3151728515625,-0.012446224597096442,0.05148059639036655,0.03013765637129545
1633781595273051400,12.335051513671875,0.004346504771709442,0.06205459737479686,-0.0007478957578539848
1633781595292930600,12.3549306640625,0.017487141373753547,0.06813888572454452,-0.04977569216862321
1633781595312809700,12.374809814453124,0.028079262536764144,0.09185352331101894,-0.040215398271381854
1633781595332688600,12.394688720703124,-0.000803133076429367,0.11245558183491229,-0.042337358861416576
1633781595352567600,12.414567626953126,0.09130816438794136,0.07196867314577102,-0.05638838830664754
1633781595372446500,12.434446533203126,0.09265431829988956,0.00941080242395401,-0.005822860934585333
1633781595392325600,12.45432568359375,0.08850830453634262,-0.028968904852867124,0.015068097533285616
1633781595412204500,12.47420458984375,0.0896592281371355,-0.029126725763082503,0.020806348924338816
1633781595432083700,12.494083740234375,0.11065350084900856,-0.02861877624094486,0.02201572471410036
1633781595451962600,12.513962646484375,0.10382686969935893,-0.021440262913703916,0.034210166507214305
1633781595471841500,12.533841552734375,0.1016845969736576,0.007101356437802314,0.03301964154839516
1633781595491720700,12.553720703125,0.08976970277428627,0.025063129585981368,0.03189268334507942
1633781595511599600,12.573599609375,0.0630243191897869,0.05208674558997154,-0.04954436763077974
1633781595531478500,12.593478515625,0.027523382219672203,0.07594283747375011,-0.10068404162898659
1633781595551357400,12.613357421875,-0.00841653068959713,0.10308861855268478,-0.13397373229041695
1633781595571236600,12.633236572265625,-0.020527239722013473,0.09047288260757923,-0.18469035857096314
1633781595591115800,12.65311572265625,-0.009935703080892562,0.07392272982299328,-0.1912716366574168
1633781595610994700,12.67299462890625,0.004463993671536446,0.05429390024542808,-0.18962737658172846
1633781595630873600,12.69287353515625,0.010950433081388473,0.05497194563746452,-0.19329568983092904
1633781595650752500,12.71275244140625,0.028486089771986006,0.04615034127831459,-0.24432576597481964
1633781595670631700,12.732631591796874,0.0304991831600666,0.026660627910494804,-0.20184826799035072
1633781595690510600,12.752510498046876,0.023390227937698363,-0.015578092882037162,-0.13575550114065407
1633781595710389500,12.772389404296876,0.03164776867330074,-0.01746960571706295,-0.14813830511271953
1633781595730269700,12.792269775390626,0.0244213245511055,-0.008828034099936485,-0.1487741187982261
1633781595750148600,12.812148681640625,-0.007237550038099288,-0.03256079186499119,-0.07363295309618115
1633781595770028000,12.832028076171875,-0.014840426257252692,-0.023675474619865414,-0.06593874533176422
1633781595789907200,12.8519072265625,-0.0217938986569643,0.0707581283122301,-0.08908303568437695
1633781595809786400,12.871786376953125,-0.03689151454567909,0.10299041887521743,-0.04081511773020029
1633781595829665300,12.891665283203125,-0.03479483452737331,0.12230594471991062,0.018510493072122335
1633781595849544200,12.911544189453124,0.02631692903935909,0.16496669031679628,0.0016198562867939471
1633781595869423000,12.931423095703124,0.028669629645347593,0.20213760632574557,0.0042418753534555435
1633781595889302300,12.95130224609375,0.025410920110344886,0.17330255698561667,0.06257350668236612
1633781595909181200,12.97118115234375,0.07371288646459578,0.15507833350896835,0.05073679228574037
1633781595929060000,12.99106005859375,0.06553659427165985,0.09929390244483947,0.001405629014223814
1633781595948939300,13.010939208984375,0.06148410401046276,0.07266951489150524,0.022549685460329056
1633781595968818200,13.030818115234375,0.052338674524426455,-0.014364625439047813,0.0390478157967329
1633781595988697300,13.050697265625,0.022350948017835617,-0.003456277933716774,0.026019115136563777
1633781596008576300,13.070576171875,-0.0010007014751434325,-0.03361000865697861,0.03165405228361487
1633781596028455200,13.090455078125,-0.020702596288919448,-0.024863223099708554,0.03291968830525875
1633781596048334000,13.110333984375,-0.0187222361266613,-0.0392915614247322,0.01973433577865362
1633781596068213200,13.130213134765626,-0.021379472637176513,-0.043913960528373715,0.049164282272011035
1633781596088092400,13.150092529296876,-0.027765958803892134,-0.018999884024262427,0.0791635530859232
1633781596107971000,13.16997119140625,-0.0002466682374477386,-0.03553425471782684,0.09147446086555719
1633781596127850200,13.189850341796875,0.0012695815443992614,-0.016830723291635513,0.11972907996922731
1633781596147729200,13.209729248046875,0.01914309188723564,-0.002729717224836349,0.15553528349623083
1633781596167608300,13.2296083984375,0.029230770659446716,-0.00035948096215724946,0.19210896426439283
1633781596187487200,13.2494873046875,0.03999006508290767,0.028652678510546682,0.17900559093281626
1633781596207366100,13.2693662109375,0.027255671194195745,0.03764437873959541,0.16690511103346942
1633781596227245300,13.289245361328126,0.027370822006464002,0.055931730580329894,0.16810557286441324
1633781596247124200,13.309124267578126,0.0026128128468990326,0.06696165863871574,0.14191022437810896
1633781596267003400,13.32900341796875,-0.0011485855132341385,0.09239011440575122,0.06887012260854244
1633781596286882000,13.348882080078125,0.014894786792993544,0.0739823510557413,0.04326937901452183
1633781596306761200,13.36876123046875,-0.003488426637649536,0.06273147372305393,0.05165419939160347
1633781596326640000,13.38864013671875,0.007737900775671005,0.044783729100227355,-0.026613866159319877
1633781596346519300,13.408519287109375,0.014266425761580466,0.04816401918828487,-0.054607788500189776
1633781596366398200,13.428398193359374,0.01810439648926258,-0.0021978023052215577,-0.02146189022362232
1633781596386277000,13.448277099609374,0.07466565714478492,-0.028873043262958524,-0.023038199629634618
1633781596406156300,13.46815625,0.09225567437112331,-0.005078326177597046,-0.054645636292546984
1633781596426035200,13.48803515625,0.08988602263033389,0.004814122283458709,-0.05338438418507575
1633781596445914400,13.507914306640625,0.05823240873813629,-0.010793781214952468,-0.01158230124413967
1633781596465793000,13.52779296875,0.054712417918443675,-0.00920037454366684,-0.001168166996538639
1633781596485672200,13.547672119140625,0.02714578107893467,0.027442718198895454,-0.029771453407406806
1633781596505551400,13.56755126953125,0.007436872002482414,0.03942307884991169,-0.017809212934970856
1633781596525430300,13.58743017578125,-0.009326631271839142,0.03439151442348957,0.028017595477402207
1633781596545309200,13.60730908203125,-0.02481587682664394,0.03461187917590141,0.040664749474078415
1633781596565188000,13.62718798828125,-0.045700843945145606,0.06861117941141129,0.01424815945252776
1633781596585067300,13.6470673828125,-0.028003274691104887,0.08139467313885689,-0.008033814982324838
1633781596604946200,13.6669462890625,-0.043887072521448134,0.0876028801292181,-0.01994388687610626
1633781596624825300,13.686825439453125,-0.032600539353489874,0.0603407791942358,-0.014028671482950448
1633781596644704300,13.706704345703125,-0.018911036697030065,0.0592342792570591,-0.03733545892089605
1633781596664584200,13.726584228515625,-0.004870236384868621,0.05784311715960502,-0.07682298130914568
1633781596684463400,13.74646337890625,0.012049334233999252,0.04144084841310978,-0.06894523367136716
1633781596704342000,13.766342041015625,0.04016892878115177,-0.005021043032407761,-0.060939768000692125
1633781596724221200,13.78622119140625,0.059742228779196736,-0.027253333106637,-0.08068696326091886
1633781596744100400,13.806100341796874,0.06326105055510997,-0.03782499600350857,-0.10166837649121879
1633781596763978200,13.825978271484376,0.07026011566221714,-0.06460311281383037,-0.06464709808602928
1633781596783857200,13.845857177734375,0.06806815857589245,-0.08698796310126782,-0.04556947265043854
1633781596803736300,13.865736328125,0.05844926635921001,-0.03468728249967098,-0.06483677543923258
1633781596823615200,13.885615234375,0.03393558734953403,-0.017070377266407012,-0.041925563190132374
1633781596843494100,13.905494140625,0.03151157507300377,0.012924363502860069,-0.0018090952485799788
1633781596863373300,13.925373291015624,0.006912555867433548,0.04911795891225338,0.0007256839260458946
1633781596883252200,13.945252197265624,-0.034061844077706335,0.05233458287119865,0.018817513194680214
1633781596903131100,13.965131103515626,0.0018149404674768447,0.04259586366713047,0.03499444875270128
1633781596923010000,13.985010009765626,0.013327099084854126,0.04322714730799198,0.10760770341232419
1633781596942889200,14.00488916015625,0.016370120042562483,0.0037251580029726027,0.14308920502960681
1633781596962768400,14.024768310546875,0.041406946143507956,-0.043831542941927905,0.13414981950968502
1633781596982647300,14.044647216796875,0.03878419642448425,-0.09583645546734333,0.18346432390734552
1633781597002526200,14.064526123046875,-0.004772036707401275,-0.09148176738917826,0.16881766665652392
1633781597022405000,14.084405029296875,0.0020674539238214494,-0.02656535084247589,0.10909677292630075
1633781597042284300,14.1042841796875,-0.05031915139555931,0.014324293428659438,0.08359057574793696
1633781597062163200,14.1241630859375,-0.06612520781457423,0.05902677398622035,0.11473244072571397
1633781597082042000,14.1440419921875,-0.026481764212250708,0.13177110767960548,0.14562106159478425
1633781597101921300,14.16392138671875,0.02458382163643837,0.16222820526361464,0.1243763212531805
1633781597121800200,14.18380029296875,0.04960252755880355,0.19618191279172897,0.13238237144574522
1633781597141679400,14.203679443359375,0.08575286834836006,0.1715887388050556,0.1280157006688416
1633781597161558300,14.223558349609375,0.10311842916905879,0.1826689357459545,0.05319558361470699
1633781597181437200,14.243437255859375,0.1207341653585434,0.17104221083819865,-0.025234540630131957
1633781597201316000,14.263316162109374,0.1451549053877592,0.11227554909288882,-0.0354651350043714
1633781597221195300,14.2831953125,0.15926058762967585,0.07049567798376083,-0.10064911644607782
1633781597241074400,14.303074462890624,0.18190438111424445,-0.015268880802392958,-0.13545944080352781
1633781597260953000,14.322953125,0.14974574030935764,-0.03608370529413223,-0.15836144683286546
1633781597280832300,14.342832275390625,0.11088555603921413,-0.058096215137839316,-0.1883290073342621
1633781597300711200,14.362711181640625,0.07541676777303219,-0.06880407163500786,-0.24037454413101075
1633781597320590300,14.38259033203125,0.03336918563842773,-0.0805921245843172,-0.2307669039607048
1633781597340469200,14.40246923828125,-0.028422376886010167,-0.09268997413516045,-0.21303280208855865
1633781597360348200,14.42234814453125,-0.07856383362710476,-0.06585515870153903,-0.23442630325108765
1633781597380227300,14.442227294921874,-0.08993687603473663,-0.08337444877922534,-0.25051658343896266
1633781597400106200,14.462106201171874,-0.1199929916024208,-0.036000703185796734,-0.2768155384302139
1633781597419985400,14.4819853515625,-0.13068155887722968,-0.027436872979998587,-0.18773454857245087
1633781597439864000,14.501864013671875,-0.1075625490963459,0.023857260927557945,-0.16581863097101449
1633781597459743200,14.5217431640625,-0.08606324947178363,0.07579553795754909,-0.15414485205113887
1633781597479622100,14.5416220703125,-0.0650286447495222,0.09616729485690594,-0.1561569225259125
1633781597499502000,14.561502197265625,-0.044020343512296674,0.10506371801793575,-0.09558438040241599
1633781597519381200,14.58138134765625,-0.028549802657961844,0.06524082619547844,-0.015430793365836143
1633781597539260200,14.60126025390625,0.04959492877423763,0.058251113438606256,-0.016941928581148385
1633781597559139300,14.621139404296875,0.040355975785851476,0.011595745247602462,0.038860184270143504
1633781597579018200,14.641018310546874,0.04592530035078525,-0.041788638937473296,0.056658291289210315
1633781597598897200,14.660897216796876,0.06590835019350051,-0.05640285522341728,0.06289309402555227
1633781597618776300,14.6807763671875,0.039894203492999075,-0.0898421834886074,0.10258329937905072
1633781597638655200,14.7006552734375,-0.005305705192685127,-0.05491349344849586,0.07986147222220898
1633781597658534400,14.720534423828125,-0.05176818116009235,-0.00492693500816822,0.06519640253186225
1633781597678413000,14.7404130859375,-0.10111644169688225,-0.020410335344076155,0.07471008080840111
1633781597698292200,14.760292236328125,-0.11780278808176517,0.008819850793480872,0.06471154162436724
1633781597718171100,14.780171142578125,-0.15703940444886683,0.03893792568147182,0.08516323189213872
1633781597738050300,14.80005029296875,-0.15187632259726525,0.059334817022085186,0.11045154853612184
1633781597757929200,14.81992919921875,-0.11102467224895954,0.08098726138174533,0.07135492516160011
1633781597777808600,14.83980859375,-0.10570201592147349,0.10562836616337298,0.037529666318744416
1633781597797687600,14.8596875,-0.06561024402976036,0.12621288903057573,0.04517418972253799
1633781597817566700,14.879566650390625,-0.009471008178591728,0.12798866653144358,0.018381167604029178
1633781597837445600,14.899445556640625,0.04354395817220211,0.09775076465606689,0.02753478039652109
1633781597857324500,14.919324462890625,0.09058277272284031,0.08626841665506363,0.04814999066293239
1633781597877203700,14.93920361328125,0.1317266840159893,0.06830722802877426,0.0578591915115714
1633781597897082600,14.95908251953125,0.1763560993373394,0.03790916715562343,0.06339198345839978
1633781597916961800,14.9789619140625,0.1919096423000097,0.02679623698890209,0.06395633934289216
1633781597936840400,14.99884033203125,0.18285481370687484,0.004021510601043701,0.05607815331369638
1633781597956719600,15.0187197265625,0.1707218928426504,-0.018207856863737104,0.10627440898194908
1633781597976598800,15.038598876953126,0.14676467867195606,-0.003265723797678947,0.08586918820440768
1633781597996477700,15.058477783203125,0.13834171824157238,0.008926233777403831,0.05569397630169987
1633781598016356600,15.078356689453125,0.14469196405112741,-0.012169161221385002,0.06454802162572741
1633781598036235500,15.098235595703125,0.1064426051557064,-0.02093640504479408,0.08892053859904409
1633781598056114700,15.11811474609375,0.07727028668522834,-0.023015549406409264,0.09596446576118468
1633781598075993600,15.13799365234375,0.05397708938121795,-0.05403729513585567,0.11021379425749182
1633781598095872800,15.157872802734374,0.023918635725975034,-0.06156652159690856,0.10918372055739163
1633781598115751700,15.177751708984376,0.012673019090294836,-0.04565349767208099,0.056562283568829294
1633781598135630600,15.197630615234376,-0.022713936111330983,0.001866378393769264,0.03144260149002075
1633781598155509800,15.217509765625,-0.02977963671386242,0.0163040690690279,-0.012301409298926591
1633781598175388700,15.237388671875,-0.01151040505170822,0.03839139771461487,-0.0153542209982872
1633781598195267600,15.257267578125,0.027213001096248624,0.05535422295331954,-0.020032149681448935
1633781598215146500,15.277146484375,0.04881751466095447,0.07482113996744155,-0.02364201074168086
1633781598235025700,15.297025634765625,0.09756196408569812,0.050151978135108945,-0.00013517068699002264
1633781598254904800,15.31690478515625,0.10482114143371582,0.008148235142230988,0.011827069785445928
1633781598274783500,15.336783447265624,0.1094751047194004,0.031982115194201466,-0.02105944690257311
1633781598294662700,15.35666259765625,0.09203940127193927,0.03336100233197212,-0.0373573784917593
1633781598314541600,15.37654150390625,0.06572948649525642,0.03372691303491592,-0.02702712313532829
1633781598334420700,15.396420654296875,0.0290659354865551,0.0783048904299736,-0.10633037695288658
1633781598354300700,15.41630078125,0.0008230068206787109,0.13085749996602533,-0.12981705100238322
1633781598374179600,15.4361796875,-0.035980829441547395,0.17238485761880873,-0.11666121683120727
1633781598394058800,15.456058837890625,-0.05223579867184162,0.24610534286797045,-0.18336729327365756
1633781598413937700,15.475937744140625,-0.033110242441296574,0.25673604247570037,-0.21757292973622677
1633781598433816600,15.495816650390625,-0.0025157822132110593,0.22327157976925371,-0.20785101553648708
1633781598453695500,15.515695556640624,0.014736965882778168,0.1569400357276201,-0.1742971209809184
1633781598473574700,15.53557470703125,0.03694178342819213,0.06277355929911137,-0.17716741572022437
1633781598493453800,15.555453857421876,0.035008769538998605,-0.010776245558261871,-0.1560401642784476
1633781598513332500,15.57533251953125,-0.0003355155646800995,-0.03752864340543747,-0.18756430657207965
1633781598533211600,15.595211669921875,-0.03355097194612026,-0.05766600702702999,-0.22075711273029444
1633781598553090600,15.615090576171875,-0.08427870414257049,-0.047992754274606704,-0.2092025762759149
1633781598572969700,15.6349697265625,-0.086866382548213,-0.014299158987402916,-0.1707942274264991
1633781598592848600,15.6548486328125,-0.08561375213861465,0.01505319222509861,-0.1887846421472728
1633781598612727600,15.6747275390625,-0.07478256152272224,0.05546177498102188,-0.21075243606641889
1633781598632606700,15.694606689453124,-0.056656537723541255,0.09015490269958973,-0.1941743723616004
1633781598652485600,15.714485595703126,-0.04360767105817794,0.07560439929962158,-0.1489969677686691
1633781598672364800,15.73436474609375,-0.06007365269064903,0.030274726754426953,-0.09436024543493986
1633781598692243500,15.754243408203125,-0.053742696103453634,-0.028329437905550002,-0.13534882003590465
1633781598712122600,15.77412255859375,-0.05230594129860401,-0.03739186528325081,-0.13221227557584642
1633781598732001500,15.79400146484375,-0.06163432613611221,-0.025647066953778264,-0.07304916185885667
1633781598751880700,15.813880615234375,-0.05075052855014801,-0.01972352212369442,0.0036418636336922644
1633781598771759000,15.833759033203124,0.00577916792333126,0.009210311415791511,-0.03962050111815333
1633781598791638000,15.853637939453124,0.03974456588923931,-0.02389700841605663,0.046441287048906085
1633781598811517000,15.873516845703126,0.023157003703713416,-0.06686170539557934,0.1485565305247903
1633781598831395800,15.893395751953125,0.03174889096021652,-0.07091010400354862,0.16261866588592527
1633781598851275000,15.91327490234375,-0.006706219640374184,-0.09990414329767226,0.1767747631408274
1633781598871154200,15.933154296875,-0.05197977808415889,-0.028922143101692197,0.14149272961840031
1633781598891032800,15.95303271484375,-0.05066226574480533,0.0457359152585268,0.006934621568769216
1633781598910912000,15.972912109375,-0.04196224193871021,0.07506605463922024,-0.04075754232406616
1633781598930791000,15.992791015625,0.000987257471680641,0.04898234983384609,0.001067775361984968
1633781598950670000,16.012670166015624,0.07515197935700416,-0.008208440896868705,0.07214987493157386
1633781598970549000,16.032549072265624,0.09724106156826019,-0.06859890445172787,0.09159691820144653
1633781598990428000,16.052427978515624,0.15391338138282298,-0.023831541964411736,0.0811484432928264
1633781599010307000,16.07230712890625,0.134388596701622,-0.049047816285490986,0.11742913246378302
1633781599030186000,16.09218603515625,0.12558043634593485,-0.07997603851258754,0.16816621701046824
1633781599050065200,16.112065185546875,0.12571546090245247,-0.004677344161272049,0.13306056296825408
1633781599069943800,16.13194384765625,0.09363046985566616,0.04492810600697994,0.15501213640496134
1633781599089823000,16.151822998046875,0.10564297921061515,0.11758651498258113,0.1958966661095619
1633781599109702000,16.171701904296874,0.14332710543870925,0.17921324233412742,0.15297741570696233
1633781599129581000,16.1915810546875,0.16388298673331736,0.21820845116078852,0.1279927581846714
1633781599149460000,16.2114599609375,0.1515770473897457,0.13300912504196166,0.12559402647987009
1633781599169340000,16.23133984375,0.15388532433211802,0.10130641131103038,0.11830635368973016
1633781599189219000,16.251218994140626,0.13805004181861877,0.03604278876185417,0.12821063871905206
1633781599209098000,16.271097900390625,0.11169921050965785,-0.003112579062581062,0.09081453565210103
1633781599228977000,16.290976806640625,0.08645780174732208,-0.025063714107871053,0.042434827886521816
1633781599248856000,16.31085595703125,0.029832828205823895,-0.014036124137043951,0.015192746826261282
1633781599268735000,16.33073486328125,-0.007481880187988281,0.005196399599313736,-0.024516163227707145
1633781599288614100,16.3506142578125,-0.03640577685534954,0.04228665158748626,-0.016295593501627445
1633781599308492800,16.370492919921876,-0.049176411101222034,0.058821606802940365,-0.01714914159104228
1633781599328372000,16.3903720703125,-0.0229746328741312,0.08225508936047554,-0.03179726014658808
1633781599348251000,16.4102509765625,-0.03810264390110969,0.08520341777205467,-0.06451002770289778
1633781599368130000,16.430130126953124,-0.0614560469597578,0.055472296375036236,-0.03542494912445545
1633781599388009000,16.450009033203123,-0.07237316229343414,0.07439560803174972,-0.04949556005299091
1633781599407888000,16.469887939453123,-0.09579086275994778,0.1034749875217676,-0.0577687367491424
1633781599427767000,16.48976708984375,-0.11023147604465484,0.08510288000702858,-0.044851387508958576
1633781599447646000,16.50964599609375,-0.1134533607006073,0.09538812717795371,-0.10387406984195112
1633781599467525000,16.529525146484374,-0.09686346042752265,0.08249708142280578,-0.1168133386529982
1633781599487403800,16.54940380859375,-0.10925941614210605,0.014353519523143768,-0.0979823814548552
1633781599507283000,16.569282958984374,-0.0991571243226528,0.011487024176120757,-0.08554653212130069
1633781599527162000,16.589162109375,-0.06651566843688488,0.003147650375962257,-0.13464198694080112
1633781599547041000,16.609041015625,-0.04986906954050064,-0.04075169710516929,-0.1661588227108121
1633781599566920000,16.628919921875,-0.014226093751192092,-0.022359131324291227,-0.14615619138479233
1633781599586798800,16.648798828125,0.017587094616889953,-0.01998304984271526,-0.11682108356803655
1633781599606678000,16.668677978515625,0.04065875812470913,-0.020564649122953412,-0.11006795604601502
1633781599626557000,16.688556884765624,0.08470774320960045,-0.021715572723746298,-0.07702756397053599
1633781599646436000,16.70843603515625,0.06421031410396098,-0.0037082068681716916,-0.04378142018988728
1633781599666315000,16.72831494140625,0.08517828333079815,0.03539747659564018,-0.03810118259638548
1633781599686194000,16.74819384765625,0.06774024179577827,0.05040858324468136,-0.043481414330005644
1633781599706073000,16.768072998046875,0.06791384479701519,0.03204991973340511,0.0038531682968139646
1633781599725952000,16.787951904296875,0.07336977211534977,0.01369067170023918,0.09466551199182867
1633781599745831000,16.807830810546875,0.058251697960495945,-0.003542202651500702,0.10811842941343784
1633781599765710000,16.8277099609375,0.044781391012668606,-0.030910102048516273,0.13243600132912398
1633781599785589200,16.84758935546875,0.029665654945373533,-0.04369359577596187,0.16950959444344044
1633781599805468200,16.86746826171875,-0.018379121777415273,-0.0046212300598621366,0.19183043958395718
1633781599825347000,16.88734716796875,-0.032686464071273805,0.03115501672029495,0.12329159475639462
1633781599845226000,16.90722607421875,-0.043592473489046095,0.07991817084550858,0.12046470076739788
1633781599865105200,16.927105224609374,-0.04860767130255699,0.09284837956726551,0.11470526045784353
1633781599884984000,16.946984130859374,-0.018178046247363088,0.10662205337584019,0.07907572867199777
1633781599904863200,16.96686328125,-0.023449849170446395,0.11133914502561092,0.031183804423362015
1633781599924742000,16.986741943359377,-0.015081249275803565,0.06252572201788426,-0.01299289869442582
1633781599944621000,17.00662109375,-0.007377835291624069,0.04350713329315185,-0.023761399337649345
1633781599964500200,17.026500244140625,0.009425415471196174,0.044507250246405596,-0.03693652273118496
1633781599984380000,17.0463798828125,0.000187047004699707,0.03760346220731735,-0.043914837311208245
1633781600004259000,17.066259033203124,0.022453823870420456,0.034304420661926266,-0.062131023611873386
1633781600024138200,17.08613818359375,0.036490532529354094,0.03807926302552223,-0.04074965127855539
1633781600044017200,17.10601708984375,0.04139350214004516,-0.021460136657953263,0.01961421653032303
1633781600063896000,17.12589599609375,0.004251227703690528,-0.09371464100778103,-0.024187223534286022
1633781600083775000,17.14577490234375,0.05653671073615551,-0.15204992559850214,-0.14281725622043012
1633781600103654100,17.165654052734375,-0.006139233407378196,-0.16137831043601036,-0.07043985614329576
1633781600123533000,17.185532958984375,0.004722936868667602,-0.11456687490046023,-0.24171032277941704
1633781600143412200,17.205412109375,-0.05443593906462192,-0.04181494242250919,-0.17943068447709082
1633781600163291100,17.225291015625,-0.06177344234585762,-0.022686463582515717,-0.1258858490332961
1633781600183170000,17.245170166015626,-0.02825929527878761,-0.0036386487632989882,-0.04202668547704816
1633781600203049200,17.26504931640625,-0.08421557577848433,-0.01728080514669418,0.04828837622031569
1633781600222928100,17.28492822265625,-0.022514029625058173,0.011938275074958801,0.11530308022052049
1633781600242807000,17.30480712890625,-0.027664251995086667,0.020792028138041495,0.15742621180936694
1633781600262686000,17.32468603515625,0.002955342674255371,0.04805880524814129,0.20292349600642917
1633781600282565000,17.344565185546877,-0.010832359659671782,0.07584989849328995,0.19295652100443839
1633781600302444000,17.364444091796877,0.08041969062685966,0.13275251993238926,0.15132351102009414
1633781600322323200,17.3843232421875,0.06024784021377563,0.10603636244237423,0.13400558873340487
1633781600342202000,17.4042021484375,0.10235679714679717,0.1366986272096634,0.09325535293295979
1633781600362081000,17.4240810546875,0.13287293144166468,0.1397954241812229,0.0173052089355886
1633781600381960200,17.443960205078124,0.1542611719071865,0.12697978174984453,0.06442804850786923
1633781600401839000,17.463839111328124,0.16714286531209946,0.09196282890439032,-0.013771043460071086
1633781600421718000,17.483718017578123,0.1725344952225685,0.07812018151283263,-0.033321400973945856
1633781600441597000,17.503596923828123,0.18040215985774993,0.07375380299687385,0.002370674654096365
1633781600461476000,17.52347607421875,0.15297405470609665,0.07789864771664143,-0.06404372536540032
1633781600481355300,17.543355224609375,0.11286591620147228,0.06334580622911452,-0.08932648905143141
1633781600501234200,17.563234130859374,0.045562896779179574,0.01762158140838146,-0.06400120139792562
1633781600521113000,17.583113037109374,-0.005920622220635414,-0.0492956535667181,-0.03423573933988809
1633781600540992000,17.602991943359374,-0.06843874545395374,-0.07680617630481719,-0.0469200104765594
1633781600560871200,17.62287109375,-0.11378887626528739,-0.05519640204310417,-0.07210033670142292
1633781600580750000,17.64275,-0.1649053155183792,-0.035437224084138866,-0.057042322170734405
1633781600600629000,17.66262890625,-0.20086159504055975,-0.009278115954995154,-0.08007745306044817
1633781600620508200,17.682508056640625,-0.19175065234601496,0.050128597259521485,-0.14098726431429384
1633781600640387000,17.702386962890625,-0.1434258896380663,0.06256663855016231,-0.11215484532266855
1633781600660266200,17.722266357421876,-0.06639467240571975,0.070745268830657,-0.07982230925559997
1633781600680145200,17.742145263671876,0.012809797212481497,0.09314590120911598,-0.048170595059543846
1633781600700024000,17.762024169921876,0.11651567088067531,0.09069850805699825,-0.04519011794403195
1633781600719903000,17.781903076171876,0.19848551355898378,0.08424538639485836,-0.007794453268498182
1633781600739782100,17.8017822265625,0.2378729365736246,0.08785480906367302,0.0002864157259464264
1633781600759662000,17.821662109375,0.26883506107032296,0.11732406465411185,0.015700696348398924
1633781600779540700,17.841540771484375,0.22642858249545095,0.1249514907926321,0.024803017345070837
1633781600799420000,17.861419921875,0.21837211728990077,0.10319441701471804,0.03899009426012635
1633781600819299000,17.881299072265627,0.15656418815255163,0.09194412420392035,0.0533171641677618
1633781600839177700,17.901177734375,0.09255904123187064,0.09189970054030418,0.04702858541756868
1633781600859057000,17.921056884765626,0.01768997046947479,0.06936112099587917,0.05397884294688701
1633781600878935800,17.940935791015626,-0.050752866637706756,0.038896424627304076,0.020794658486545086
1633781600898815000,17.96081494140625,-0.10589607718884944,0.031469489496946335,-0.030123627845942972
1633781600918694000,17.98069384765625,-0.12161971602141856,0.04413783241212368,-0.08528978088125586
1633781600938572800,18.00057275390625,-0.11104629955887795,0.021727847683429717,-0.04992752172946929
1633781600958452000,18.020451904296873,-0.07394961782991885,0.006527355942130089,0.00025806641429662705
1633781600978331000,18.040330810546877,-0.052364978009462354,0.03124035691618919,0.003549509175121784
1633781600998210000,18.0602099609375,-0.012429273462295531,0.04090075018703937,0.02055821938216686
1633781601018088700,18.080088623046876,-0.011339724659919738,0.05191957232952118,0.0874044349476695
1633781601037968000,18.0999677734375,0.02506079149842262,0.05572364078760147,0.15976473775953054
1633781601057846800,18.1198466796875,0.04023439523279667,0.10334989983737468,0.1758829288676381
1633781601077726000,18.139725830078124,0.06680091511905192,0.11805471701622008,0.15811434020400048
1633781601097604900,18.15960498046875,0.08360942657887935,0.13090659980475902,0.05511310767382383
1633781601117483800,18.17948388671875,0.09248656051754951,0.11434300301671027,0.05181289708465337
1633781601137363000,18.199363037109375,0.06888473565578461,0.07813713264763354,0.08907631368264556
1633781601157241900,18.219241943359375,0.05232873765230178,0.07509002003669739,0.05701558029428124
1633781601177121000,18.23912109375,-0.0027349779218435286,0.0916243907302618,-0.0375815426364541
1633781601196999700,18.258999755859374,-0.008650339445471764,0.07980418907701968,-0.10271890845745801
1633781601216878800,18.27887890625,-0.043459202498197555,0.0803653300911188,-0.09635594929680227
1633781601236758000,18.298758056640626,-0.04668225619792938,0.07554185545742512,-0.07902984370365738
1633781601256637000,18.318636962890626,-0.046852352067828174,0.06305880598127842,-0.10511793242320418
1633781601276515800,18.338515869140625,-0.034546412724256514,-0.005588613787293434,-0.1345034552529454
1633781601296394800,18.358394775390625,-0.047481882143020626,-0.050279988428950304,-0.13202888183295727
1633781601316274000,18.37827392578125,-0.03558160099089146,-0.07465630479454993,-0.141575439465791
1633781601336152800,18.39815283203125,-0.041166123124957085,-0.1361836634248495,-0.11214271649345756
1633781601356032000,18.418031982421876,-0.03177460992336273,-0.14873919361531734,-0.11834522439539431
1633781601375911000,18.437910888671876,-0.04047872538268566,-0.14675065014660357,-0.09699424720034003
1633781601395789800,18.457789794921876,-0.04565875836908817,-0.12359013931155204,-0.04731251692548394
1633781601415669000,18.4776689453125,-0.06079962887763977,-0.10301321522891521,-0.013676643174886703
1633781601435548000,18.4975478515625,-0.05330196659862995,-0.06858896757960319,0.05687500277981162
1633781601455426800,18.5174267578125,-0.04438742325901985,0.0029307927548885343,0.08235971877872944
1633781601475305700,18.5373056640625,-0.043893502262234686,0.06388531993329524,0.13708192743882536
1633781601495185000,18.557184814453127,-0.02477145316302776,0.04960018947124481,0.17630071588829158
1633781601515064000,18.57706396484375,0.022500585621595383,0.08619710498452186,0.16674889755845068
1633781601534943000,18.59694287109375,0.04846504796147346,0.08532967450022697,0.17493395757973193
1633781601554822000,18.61682177734375,0.058498366197943685,0.07351531806588173,0.19066081128269433
1633781601574701800,18.636701904296874,0.09656827687323093,0.07373743638396263,0.17008447172194718
1633781601594581000,18.6565810546875,0.12981646648049353,0.04278934041261673,0.12669219698011874
1633781601614460000,18.6764599609375,0.13051672370433806,0.04940203655064106,0.08132716086059809
1633781601634338800,18.6963388671875,0.05955985794961452,-0.009485621225833893,0.055001902384310956
1633781601654218000,18.716218017578125,0.126620885309577,-0.030151392635703086,0.0275922096721828
1633781601674097000,18.736096923828125,-0.007259761869907379,-0.032736148431897164,-0.03298676219210028
1633781601693975800,18.755975830078125,-0.08038520383536815,0.05087503171265125,-0.019895517689734698
1633781601713854700,18.775854736328125,-0.021107669958472252,-0.0200075997620821,0.01036152727752924
1633781601733734000,18.79573388671875,-0.04225216479599476,-0.02741056949496269,0.035528263368457554
1633781601753613000,18.815613037109376,-0.045187049204111096,-0.05369768791794777,0.003088613665103912
1633781601773492200,18.8354921875,-0.0804658678561449,0.08115560368597508,0.09653422847315668
1633781601793371400,18.855371337890624,-0.012512275570631027,0.09594400749504566,0.08983648440018295
1633781601813250300,18.875250244140624,-0.07254618077278137,0.20058394714295863,0.3341948374703526
1633781601833129500,18.89512939453125,-0.035843466797471045,0.31676760959029193,0.4068536848373711
1633781601853008400,18.91500830078125,-0.07854805153608321,0.32557752351164815,0.38272359831780195
1633781601872887300,18.93488720703125,-0.08711246626377105,0.2211106023430824,0.21152721983119843
1633781601892766200,18.95476611328125,0.025457097339630124,0.19012685053646564,0.0103740944981575
1633781601912645400,18.974645263671874,0.022435119169950484,0.08212766358852386,-0.047033992245048284
1633781601932524500,18.994524658203126,0.056685179296135896,0.015216273832321166,-0.012114362294226884
1633781601952403200,19.0144033203125,0.031101240706443784,0.011905541849136352,0.04093596763089299
1633781601972282400,19.034282470703126,-0.006977437797188758,-0.02779401585459709,0.10398907452374696
1633781601992161300,19.054161376953125,0.18032792557775973,-0.024297405910491943,-0.0027494448386132715
1633781602012040400,19.07404052734375,0.08858955307900905,-0.01156184297800064,-0.08533186645731329
1633781602031919400,19.09391943359375,0.11531506291925907,-0.01497428176999092,-0.10097834840044378
1633781602051798300,19.11379833984375,0.07106675586998462,-0.09280161781609057,0.03583309153392911
1633781602071677400,19.133677490234376,0.04252747460603714,-0.07860299659371375,-0.0027713644094765183
1633781602091556400,19.153556396484376,0.05516717594861984,-0.09682546650469302,-0.1908164402358234
1633781602111435500,19.173435546875,0.009881927067041397,-0.06348959861397743,-0.2115614143617451
1633781602131314200,19.193314208984376,0.021173136410117147,-0.03299976780414581,-0.14774915966466068
1633781602151193300,19.213193359375,0.06338263110816478,-0.022921441382169724,-0.09935717693939805
1633781602171072300,19.233072265625,0.052797524207830425,-0.02499064887166023,-0.048582536861300464
1633781602190951400,19.252951416015627,0.049130818393826485,0.012023030748963355,-0.021319559143483637
1633781602210830300,19.272830322265627,0.041433834150433536,0.05013911865353584,-0.04233779725283384
1633781602230709200,19.292709228515626,0.0038607670813798904,0.07464227626919746,0.009832973358780145
1633781602250588400,19.31258837890625,-0.004669745376706123,0.07972995479702949,0.02922697126716375
1633781602270467300,19.33246728515625,0.07315759066939354,0.0798211402118206,0.014915975711494684
1633781602290346500,19.352346435546874,0.062201896890997886,0.13396949450671672,0.1391492352321744
1633781602310226400,19.372226318359374,0.10035597871839999,0.0645195261836052,0.10557736662849783
1633781602330105300,19.392105224609374,0.11229016214013099,0.04657411964833736,0.08461319679394363
1633781602349984500,19.411984619140625,0.02077390795946121,0.0027659575819969176,0.16691417112275958
1633781602369863200,19.43186328125,-0.04295709819495678,-0.045368835511803624,0.10798559681400656
1633781602389742300,19.451742431640625,-0.05608136818408966,-0.021199439895153046,-0.0663970104932785
1633781602409621200,19.471621337890625,-0.06401566831469535,-0.010289338824152946,-0.11540420250743627
1633781602429500400,19.49150048828125,-0.11803016709685325,-0.01598901177048683,-0.059021659419685596
1633781602449379300,19.51137939453125,-0.09899754984676837,-0.016949381235241888,-0.08218772321268916
1633781602469258200,19.53125830078125,-0.09911211613714695,0.0014893617749214172,-0.13817702919915317
1633781602489137400,19.551137451171876,-0.10343874716460705,0.016831892335414884,-0.12382993941679596
1633781602509016300,19.571016357421875,-0.11574351746439933,0.03316109584569931,-0.14506152801588176
1633781602528895500,19.5908955078125,-0.0838642781227827,0.05585924986600876,-0.10440569250062108
1633781602548774100,19.610774169921875,-0.06363105291128159,0.08220598952174187,-0.07005290265232324
1633781602568653300,19.6306533203125,0.0014005144476890562,0.11962065115869044,-0.07981222625300288
1633781602588532500,19.650532470703126,0.07560439929962158,0.10188216537237167,-0.084650752325356
1633781602608411400,19.670411376953126,0.060386371901631354,0.03092237700819969,0.004641396065056324
1633781602628290300,19.690290283203126,0.09542729014456272,0.04195756576359272,0.07188976269066333
1633781602648169200,19.710169189453126,0.07780746230185032,0.044502574071288103,0.04917173492610454
1633781602668048400,19.73004833984375,0.13219430152773856,-0.030531331863999363,0.04470832577645779
1633781602687927300,19.74992724609375,0.08919511775672435,-0.04410159205496311,0.07047171258628368
1633781602707806500,19.769806396484373,0.025475802040100096,-0.021757073777914047,0.12496186605617403
1633781602727685400,19.789685302734377,-0.03664367726445198,0.002069207489490509,0.15258052534386515
1633781602747564300,19.809564208984376,-0.04607259986698627,0.02098258227407932,0.04868453593105077
1633781602767443500,19.829443359375,-0.09372574692368507,0.08922960454821587,-0.03577595451921224
1633781602787322600,19.849322509765624,-0.139504332280159,0.0908791253209114,-0.017638532543182373
1633781602807201500,19.869201416015624,-0.09224573749899864,0.12082710433900355,-0.007327274148166179
1633781602827080400,19.88908056640625,-0.05871639286279678,0.11314940931797027,-0.02990165565833449
1633781602846959600,19.908959716796875,0.0013140052080154417,0.0361328051328659,0.015252660319954156
1633781602866838500,19.928838623046875,0.005700257468223571,-0.017974632629752157,0.025210136841237542
1633781602886717400,19.948717529296875,0.051226329368352884,-0.042030046477913856,0.02195171956717968
1633781602906596400,19.968596435546875,0.06792962688803672,-0.052768882635235784,0.03475610995218158
1633781602926475500,19.9884755859375,0.11201309876441955,-0.030120412975549696,0.027321429906785488
1633781602946354700,20.008354736328126,0.09738894560635089,0.0042658407509326935,0.02902180408388376
1633781602966233600,20.028233642578126,0.07907061410546302,0.01965688662827015,0.05639335674270987
1633781602986112500,20.048112548828126,0.054413142710924144,0.0528641597032547,0.10238500032797455
1633781603005991400,20.067991455078126,0.034438860696554184,0.08589081551432609,0.10150383357927202
1633781603025871600,20.08787158203125,0.002393032616376877,0.09793021287620067,0.05692249518334865
1633781603045749500,20.10774951171875,-0.026140403428673742,0.09042553633451461,0.06834712164774537
1633781603065629400,20.12762939453125,-0.026156185519695282,0.05365560234189033,0.06843363088741898
1633781603085508600,20.147508544921877,0.010083587118983267,0.0726058020055294,0.09918912689611316
1633781603105387500,20.167387451171876,0.021171382844448087,0.07554127093553542,0.05689663008973002
1633781603125266400,20.187266357421876,-0.02248188092112541,0.04800561375617981,0.04658829430416226
1633781603145145300,20.207145263671876,0.006989712756872176,0.0038426469027996062,0.04922711837515235
1633781603165024500,20.2270244140625,0.027921441626548766,0.005045592951774597,0.043907676918059586
1633781603184903700,20.246903564453124,0.06791442931890487,-0.001886252138018608,0.01754763938933611
1633781603204782600,20.266782470703124,0.057652563023567194,0.014279869765043259,-0.015586276188492775
1633781603224661500,20.28666162109375,0.06538812571167946,-0.024507249268889426,0.011398030718415974
1633781603244540400,20.30654052734375,0.06756371618509292,-0.006212883165478706,0.032465514796972274
1633781603264419600,20.326419677734375,0.052449733683466906,0.024678514182567595,0.0002966448590159416
1633781603284298500,20.346298583984375,0.05892156004607677,0.03172726365029812,-0.08444076283648609
1633781603304177400,20.366177490234374,0.08250175759792328,0.0137421096265316,0.04832315527275204
1633781603324056600,20.386056640625,0.0642617520302534,0.007794599398970603,0.09944003291726111
1633781603343935500,20.405935546875,0.022620412608981132,0.03254442525207996,-0.004236176265031099
1633781603363814700,20.425814697265626,0.006952303355932235,0.06377659886181354,0.05145838455855846
1633781603383693600,20.445693603515625,0.0678214903384447,0.08923778785467147,0.014080840061604975
1633781603403572500,20.465572509765625,-0.028446926805377006,0.13685411003232,-0.010961831258237362
1633781603423451400,20.485451416015625,0.039383915883302686,0.14551087921857833,-0.01906023590937257
1633781603443330600,20.50533056640625,0.017422259443998337,0.11053542742729186,-0.07798135756403207
1633781603463209700,20.525209716796876,0.07052548860013484,0.08628010709285736,-0.05983955167382955
1633781603483088400,20.54508837890625,0.07133212880790234,0.044692543685436244,-0.07436667419821023
1633781603502967600,20.564967529296876,0.07337620185613632,0.009327800315618515,-0.03344429670125246
1633781603522846500,20.584846435546876,0.11005378139019012,-0.02696925546824932,-0.060312429882586
1633781603542725600,20.6047255859375,0.08390519465506076,-0.043648587590456006,-0.04475172652676701
1633781603562604500,20.6246044921875,0.09096914169192313,-0.04659633148014545,-0.006920008521527052
1633781603582483500,20.6444833984375,0.0571557194173336,-0.04392506644427776,0.02190481168553233
1633781603602362600,20.664362548828127,0.04185527443289756,-0.0057137014716863626,0.007989099057763814
1633781603622241500,20.684241455078126,0.011569441762566565,0.04402852681875229,-0.0419864995971322
1633781603642120700,20.70412060546875,-0.012955343163013458,0.08687456585466861,-0.03491904542893171
1633781603661999400,20.723999267578126,-0.045941082441806794,0.10355682058632373,0.008482581663131714
1633781603681878500,20.74387841796875,-0.08597381762266158,0.10639408983886241,0.028423838190734386
1633781603701757400,20.76375732421875,-0.0705056148558855,0.08414075697660446,-0.13375585175603627
1633781603721636600,20.78363671875,-0.018844985723495484,0.12538520603477954,0.015040625004470348
1633781603741515500,20.803515625,-0.008194412371516227,0.023536942932009697,0.15198928145244717
1633781603761394400,20.82339453125,0.03458031499385834,0.06223521463871002,-0.059156976237148044
1633781603781275000,20.84327490234375,0.06823416279256343,0.04299275403022766,-0.06552490383386611
1633781603801153800,20.86315380859375,0.14871055204272268,0.047769466912746424,-0.050532794146239755
1633781603821032700,20.88303271484375,0.2521341016381979,-0.011292378386855125,0.1008751802869141
1633781603840912000,20.902911865234376,0.03643441842794418,-0.059088733306527134,0.000988134254515171
1633781603860791000,20.922791015625,-0.07880524116754531,-0.046316345494985575,-0.019844079763442275
1633781603880670000,20.942669921875,-0.1770738922178745,-0.04698036236166954,-0.028639234507083892
